time,seconds_elapsed,z,y,x
1772725552739384800,0.089384765625,0.003970621153712273,0.03543015569448471,0.020311253145337105
1772725552748901600,0.098901611328125,-0.0027488914784044027,0.009773836471140385,-0.024892739951610565
1772725552758418400,0.10841845703125,-0.000305432389723137,-0.025045456364750862,-0.05787943676114082
1772725552767935200,0.117935302734375,0.003970621153712273,-0.05742128938436508,-0.0798705667257309
1772725552777452000,0.1274521484375,0.0027488914784044027,-0.05436696484684944,-0.09697478264570236
1772725552786968800,0.13696875,-0.003359756199643016,-0.021991131827235222,-0.10186170041561127
1772725552796485600,0.146485595703125,-0.004581485874950886,0.006108647678047419,-0.0896444097161293
1772725552806002700,0.156002685546875,0.0021380267571657896,0.031154103577136993,-0.07376192510128021
1772725552815519200,0.165519287109375,0.007635809946805239,0.0616973415017128,-0.06215549260377884
1772725552825036300,0.175036376953125,0.010690134018659592,0.08002328872680664,-0.06154462695121765
1772725552834553000,0.184552978515625,0.01435532234609127,0.06902772188186646,-0.07192932814359665
1772725552844070000,0.19406982421875,0.02412915788590908,0.046425722539424896,-0.08781181275844574
1772725552853586700,0.203586669921875,0.032070402055978775,0.011606430634856224,-0.0951421856880188
1772725552863103500,0.213103515625,0.03329212963581085,-0.02260199747979641,-0.08903354406356812
1772725552872620300,0.222620361328125,0.028405211865901947,-0.033597562462091446,-0.06826414167881012
1772725552882137000,0.23213720703125,0.019242240116000175,-0.020769402384757996,-0.04016435891389847
1772725552891654000,0.24165380859375,0.008857538923621178,0.01282816007733345,-0.016340631991624832
1772725552901170700,0.251170654296875,0.0021380267571657896,0.06780599057674408,0.005039634648710489
1772725552910687500,0.2606875,0.005192350596189499,0.11239911615848541,0.02214384824037552
1772725552920204500,0.27020458984375,0.010690134018659592,0.11728604137897491,0.04169152304530144
1772725552929721300,0.279721435546875,0.008246674202382565,0.08552107214927673,0.05818486958742142
1772725552939238000,0.28923779296875,0.000305432389723137,0.04825831577181816,0.07284562289714813
1772725552948755000,0.2987548828125,-0.003359756199643016,0.009162971749901772,0.08323032408952713
1772725552958271700,0.308271728515625,0.0021380267571657896,0.001221729558892548,0.08811724185943604
1772725552967788500,0.31778857421875,0.010079269297420979,0.025045456364750862,0.08933897316455841
1772725552977305300,0.327305419921875,0.014966187067329884,0.05497783049941063,0.08750637620687485
1772725552986822100,0.336822265625,0.013133592903614044,0.0922405794262886,0.08323032408952713
1772725552996339000,0.3463388671875,0.011300998739898205,0.12034036219120026,0.07651081681251526
1772725553005855700,0.355855712890625,0.008857538923621178,0.1081230640411377,0.07345648854970932
1772725553015372500,0.36537255859375,0.0027488914784044027,0.06902772188186646,0.07040216773748398
1772725553024889300,0.374889404296875,-0.005803215317428112,0.02932151034474373,0.06612611562013626
1772725553034406100,0.38440625,-0.015577051788568497,-0.01282816007733345,0.06062832847237587
1772725553043923200,0.393923095703125,-0.024740023538470268,-0.0409279391169548,0.04780016839504242
1772725553053439700,0.403439697265625,-0.03023780696094036,-0.02626718580722809,0.03130681812763214
1772725553062956500,0.41295654296875,-0.026572618633508682,0.011606430634856224,0.019700389355421066
1772725553072473600,0.4224736328125,-0.01740964688360691,0.033597562462091446,0.014202605932950974
1772725553081990400,0.431990478515625,-0.008857538923621178,0.03787361457943916,0.007483093533664942
1772725553091507200,0.441507080078125,-0.0027488914784044027,0.01954767294228077,0.0013744457392022014
1772725553101024000,0.45102392578125,0.0027488914784044027,-0.008552107028663158,-0.002290742937475443
1772725553110540800,0.460540771484375,0.005192350596189499,-0.031154103577136993,-0.007788525894284248
1772725553120057600,0.4700576171875,0.0027488914784044027,-0.034208428114652634,-0.010842849500477314
1772725553129574400,0.479574462890625,0.0021380267571657896,-0.018325943499803543,-0.008399390615522861
1772725553139091200,0.48909130859375,0.0021380267571657896,0.006719512399286032,-0.004734201822429895
1772725553148608000,0.49860791015625,0.006414080038666725,0.027488915249705315,0.0007635809597559273
1772725553158124800,0.508124755859375,0.010079269297420979,0.020769402384757996,0.008704823441803455
1772725553167641900,0.517641845703125,0.01435532234609127,-0.013439024798572063,0.019700389355421066
1772725553177158400,0.527158447265625,0.0204639695584774,-0.043371398001909256,0.027030766010284424
1772725553186675500,0.536675537109375,0.029626941308379173,-0.0513126403093338,0.030085090547800064
1772725553196192300,0.546192138671875,0.035124726593494415,-0.0513126403093338,0.030695954337716103
1772725553205709000,0.555708984375,0.03145953640341759,-0.039706211537122726,0.027030766010284424
1772725553215225900,0.565225830078125,0.019242240116000175,-0.01954767294228077,0.016035201027989388
1772725553224742700,0.57474267578125,0.005192350596189499,0.001221729558892548,0.0019853105768561363
1772725553234259500,0.584259521484375,-0.0009162971982732415,0.014660755172371864,-0.013897174037992954
1772725553243776300,0.5937763671875,0.003359756199643016,0.018325943499803543,-0.03283398225903511
1772725553253293000,0.60329296875,0.008857538923621178,0.02260199747979641,-0.051159925758838654
1772725553262809900,0.612809814453125,0.011911863461136818,0.02871064469218254,-0.064598947763443
1772725553272326700,0.62232666015625,0.02107483521103859,0.025045456364750862,-0.06704241037368774
1772725553281843500,0.631843505859375,0.02779434807598591,0.000610864779446274,-0.060322895646095276
1772725553291360500,0.641360595703125,0.02412915788590908,-0.03481929376721382,-0.050549060106277466
1772725553300877000,0.650876953125,0.01802051067352295,-0.05436696484684944,-0.04627300798892975
1772725553310394000,0.66039404296875,0.01802051067352295,-0.049480047076940536,-0.04932733252644539
1772725553319911000,0.669910888671875,0.023518294095993042,-0.046425722539424896,-0.05177079141139984
1772725553329427700,0.679427734375,0.03390299528837204,-0.056199558079242706,-0.04993819445371628
1772725553338944500,0.688944580078125,0.04245510324835777,-0.07024945318698883,-0.044440411031246185
1772725553348461300,0.69846142578125,0.04245510324835777,-0.07757982611656189,-0.03649916872382164
1772725553357978000,0.70797802734375,0.03817904740571976,-0.08002328872680664,-0.02977965772151947
1772725553367495000,0.717494873046875,0.029016077518463135,-0.0769689604640007,-0.02306014485657215
1772725553377011700,0.72701171875,0.01802051067352295,-0.06780599057674408,-0.0206166859716177
1772725553386528500,0.736528564453125,0.011911863461136818,-0.05925388261675835,-0.021838415414094925
1772725553396045300,0.74604541015625,0.011300998739898205,-0.06291907280683517,-0.024892739951610565
1772725553405562000,0.75556201171875,0.008857538923621178,-0.0665842592716217,-0.03222311660647392
1772725553415079000,0.765078857421875,0.0027488914784044027,-0.059864748269319534,-0.037720900028944016
1772725553424595700,0.774595703125,0.0021380267571657896,-0.04459312930703163,-0.04199695214629173
1772725553434112800,0.78411279296875,0.004581485874950886,-0.02932151034474373,-0.047494735568761826
1772725553443629600,0.793629638671875,0.003359756199643016,-0.01954767294228077,-0.05482511222362518
1772725553453146400,0.803146484375,0.000305432389723137,-0.020769402384757996,-0.06643154472112656
1772725553462663200,0.8126630859375,-0.005192350596189499,-0.028099779039621353,-0.0798705667257309
1772725553472180000,0.822179931640625,-0.010690134018659592,-0.034208428114652634,-0.08842267841100693
1772725553481696800,0.83169677734375,-0.013133592903614044,-0.034208428114652634,-0.09269873052835464
1772725553491213600,0.841213623046875,-0.01435532234609127,-0.018325943499803543,-0.09392046183347702
1772725553500730400,0.85073046875,-0.01740964688360691,0.006108647678047419,-0.08903354406356812
1772725553510247200,0.8602470703125,-0.015577051788568497,0.01588248461484909,-0.07192932814359665
1772725553519764000,0.869763916015625,-0.008246674202382565,0.010995565913617611,-0.04932733252644539
1772725553529281000,0.879281005859375,-0.0015271619195118546,-0.0030543238390237093,-0.02672533318400383
1772725553538797600,0.888797607421875,0.003970621153712273,-0.02626718580722809,-0.006566796451807022
1772725553548314600,0.898314697265625,0.010690134018659592,-0.0409279391169548,0.0038179049734026194
1772725553557831400,0.90783154296875,0.016798781231045723,-0.04214967042207718,0.0019853105768561363
1772725553567348000,0.917347900390625,0.010690134018659592,-0.02932151034474373,-0.007788525894284248
1772725553576865000,0.926864990234375,-0.003359756199643016,-0.004886918235570192,-0.016340631991624832
1772725553586381800,0.9363818359375,-0.01435532234609127,0.013439024798572063,-0.021227551624178886
1772725553595898600,0.945898681640625,-0.01740964688360691,0.017715077847242355,-0.024281874299049377
1772725553605415400,0.95541552734375,-0.015577051788568497,0.015271619893610477,-0.02977965772151947
1772725553614932200,0.96493212890625,-0.01435532234609127,0.01588248461484909,-0.04199695214629173
1772725553624449000,0.974448974609375,-0.013133592903614044,0.014049889519810677,-0.06215549260377884
1772725553633965800,0.9839658203125,-0.008857538923621178,0.0030543238390237093,-0.08536835014820099
1772725553643482600,0.993482666015625,-0.003359756199643016,0.003665188793092966,-0.10369429737329483
1772725553652999700,1.002999755859375,0.003970621153712273,0.001832594396546483,-0.11224640160799026
1772725553662516200,1.01251611328125,0.003359756199643016,-0.013439024798572063,-0.10674861818552017
1772725553672033300,1.022033203125,-0.0015271619195118546,-0.028099779039621353,-0.08842267841100693
1772725553681550000,1.031550048828125,-0.007024944759905338,-0.03176496922969818,-0.06520981341600418
1772725553691067000,1.04106689453125,-0.011911863461136818,-0.03237583488225937,-0.03894263133406639
1772725553700583700,1.050583740234375,-0.021685699000954628,-0.028099779039621353,-0.015729768201708794
1772725553710100500,1.0601005859375,-0.029016077518463135,-0.017715077847242355,-0.002901607658714056
1772725553719617300,1.0696171875,-0.02412915788590908,-0.001221729558892548,-0.0010690133785828948
1772725553729134000,1.079134033203125,-0.01740964688360691,0.007330377586185932,-0.001679878099821508
1772725553738651000,1.08865087890625,-0.018631376326084137,0.006108647678047419,0.0019853105768561363
1772725553748167700,1.098167724609375,-0.023518294095993042,0.0054977829568088055,0.009926552884280682
1772725553757684500,1.1076845703125,-0.023518294095993042,0.010384701192378998,0.019700389355421066
1772725553767201300,1.117201171875,-0.025350889191031456,0.01954767294228077,0.029474224895238876
1772725553776718000,1.126718017578125,-0.03023780696094036,0.021380268037319183,0.03375028073787689
1772725553786235000,1.13623486328125,-0.03695731982588768,0.01282816007733345,0.030695954337716103
1772725553795752000,1.145751953125,-0.04001164436340332,0.001221729558892548,0.014202605932950974
1772725553805268700,1.155268798828125,-0.03145953640341759,-0.013439024798572063,-0.007177661173045635
1772725553814785500,1.16478564453125,-0.008857538923621178,-0.040317077189683914,-0.021227551624178886
1772725553824302300,1.17430224609375,0.013133592903614044,-0.06352993845939636,-0.02306014485657215
1772725553833819100,1.183819091796875,0.019853105768561363,-0.06780599057674408,-0.014508038759231567
1772725553843336000,1.1933359375,0.011300998739898205,-0.056199558079242706,0.0001527161948615685
1772725553852852700,1.202852783203125,-0.007024944759905338,-0.021991131827235222,0.014202605932950974
1772725553862369500,1.21236962890625,-0.019242240116000175,0.01954767294228077,0.019700389355421066
1772725553871886300,1.22188623046875,-0.02412915788590908,0.040317077189683914,0.01359174121171236
1772725553881403100,1.231403076171875,-0.025350889191031456,0.03176496922969818,-0.002290742937475443
1772725553890920200,1.240920166015625,-0.019853105768561363,0.011606430634856224,-0.027336198836565018
1772725553900436700,1.250436767578125,-0.011300998739898205,-0.012217295356094837,-0.046883873641490936
1772725553909953800,1.259953857421875,-0.005192350596189499,-0.02626718580722809,-0.054214250296354294
1772725553919470600,1.269470703125,0.003359756199643016,-0.020769402384757996,-0.046883873641490936
1772725553928987400,1.2789873046875,0.00946840364485979,-0.011606430634856224,-0.02916879393160343
1772725553938504200,1.288504150390625,0.007024944759905338,-0.014660755172371864,-0.003512472379952669
1772725553948021000,1.29802099609375,-0.0009162971982732415,-0.021380268037319183,0.019700389355421066
1772725553957537800,1.307537841796875,-0.004581485874950886,-0.021380268037319183,0.03497200831770897
1772725553967054600,1.3170546875,0.000305432389723137,-0.01954767294228077,0.04413498193025589
1772725553976571400,1.3265712890625,0.004581485874950886,-0.011606430634856224,0.04474584385752678
1772725553986088200,1.336088134765625,0.004581485874950886,0.007941242307424545,0.036804601550102234
1772725553995605000,1.34560498046875,-0.0015271619195118546,0.03176496922969818,0.02519817277789116
1772725554005121800,1.355121826171875,-0.011300998739898205,0.0409279391169548,0.014813470654189587
1772725554014638600,1.364638671875,-0.019242240116000175,0.03237583488225937,0.011148282326757908
1772725554024155400,1.3741552734375,-0.022907428443431854,0.006108647678047419,0.011148282326757908
1772725554033672400,1.38367236328125,-0.025350889191031456,-0.020769402384757996,0.009315688163042068
1772725554043189200,1.393189208984375,-0.03023780696094036,-0.03237583488225937,0.005039634648710489
1772725554052706000,1.4027060546875,-0.0308486707508564,-0.025045456364750862,0.0019853105768561363
1772725554062222800,1.412222900390625,-0.022907428443431854,-0.004276053514331579,0.0013744457392022014
1772725554071739600,1.42173974609375,-0.01435532234609127,0.011606430634856224,0.0019853105768561363
1772725554081256400,1.43125634765625,-0.013744457624852657,0.007941242307424545,0.0062613640911877155
1772725554090773200,1.440773193359375,-0.022296564653515816,0.0054977829568088055,0.010537417605519295
1772725554100290000,1.4502900390625,-0.028405211865901947,0.011606430634856224,0.014813470654189587
1772725554109806800,1.459806884765625,-0.03023780696094036,0.017104214057326317,0.016035201027989388
1772725554119323600,1.46932373046875,-0.025961752980947495,0.01282816007733345,0.016646064817905426
1772725554128840700,1.4788408203125,-0.018631376326084137,-0.003665188793092966,0.016035201027989388
1772725554138357200,1.488357177734375,-0.010079269297420979,-0.021991131827235222,0.011759147047996521
1772725554147874300,1.497874267578125,-0.008857538923621178,-0.025045456364750862,0.0001527161948615685
1772725554157391000,1.50739111328125,-0.016187917441129684,-0.020769402384757996,-0.007177661173045635
1772725554166908000,1.516907958984375,-0.022296564653515816,-0.006108647678047419,-0.0102319847792387
1772725554176424700,1.5264248046875,-0.022907428443431854,0.006719512399286032,-0.01206457894295454
1772725554185941500,1.53594140625,-0.018631376326084137,0.000610864779446274,-0.007177661173045635
1772725554195458300,1.545458251953125,-0.01740964688360691,-0.020158538594841957,0.0001527161948615685
1772725554204975000,1.55497509765625,-0.018631376326084137,-0.04214967042207718,0.0062613640911877155
1772725554214492000,1.564491943359375,-0.025961752980947495,-0.053756099194288254,0.011148282326757908
1772725554224008700,1.5740087890625,-0.032070402055978775,-0.05253437161445618,0.01847865991294384
1772725554233525500,1.583525390625,-0.029626941308379173,-0.0360410213470459,0.02519817277789116
1772725554243042300,1.593042236328125,-0.0204639695584774,-0.007941242307424545,0.02764163166284561
1772725554252559000,1.60255908203125,-0.018631376326084137,0.01649334840476513,0.028863361105322838
1772725554262076000,1.612075927734375,-0.023518294095993042,0.023212861269712448,0.02825249545276165
1772725554271593000,1.621593017578125,-0.02412915788590908,0.013439024798572063,0.020922118797898293
1772725554281109800,1.63110986328125,-0.025350889191031456,-0.004886918235570192,0.0062613640911877155
1772725554290626600,1.64062646484375,-0.02718348242342472,-0.01893680728971958,-0.016340631991624832
1772725554300143400,1.650143310546875,-0.02718348242342472,-0.020158538594841957,-0.043829549103975296
1772725554309660200,1.65966015625,-0.0308486707508564,-0.010995565913617611,-0.0639880821108818
1772725554319177000,1.669177001953125,-0.03817904740571976,-0.009162971749901772,-0.06582067906856537
1772725554328693800,1.67869384765625,-0.041844237595796585,-0.015271619893610477,-0.050549060106277466
1772725554338210600,1.68821044921875,-0.03390299528837204,-0.021991131827235222,-0.024281874299049377
1772725554347727400,1.697727294921875,-0.019242240116000175,-0.0360410213470459,0.009926552884280682
1772725554357244200,1.707244140625,-0.0027488914784044027,-0.04825831577181816,0.04230238497257233
1772725554366761200,1.71676123046875,0.011911863461136818,-0.04764745384454727,0.06368265300989151
1772725554376277800,1.72627783203125,0.019853105768561363,-0.031154103577136993,0.0691804364323616
1772725554385794800,1.735794921875,0.018631376326084137,-0.011606430634856224,0.05818486958742142
1772725554395311600,1.7453115234375,0.012522728182375431,-0.000610864779446274,0.04046979174017906
1772725554404828400,1.754828369140625,0.010079269297420979,-0.009162971749901772,0.020922118797898293
1772725554414345200,1.76434521484375,0.012522728182375431,-0.033597562462091446,0.005650499369949102
1772725554423862000,1.773862060546875,0.01802051067352295,-0.05192350596189499,-0.011453714221715927
1772725554433378800,1.78337890625,0.019853105768561363,-0.053756099194288254,-0.030390523374080658
1772725554442895600,1.7928955078125,0.021685699000954628,-0.049480047076940536,-0.04627300798892975
1772725554452412400,1.802412353515625,0.023518294095993042,-0.04153880476951599,-0.060933761298656464
1772725554461929200,1.81192919921875,0.022907428443431854,-0.021380268037319183,-0.07498364895582199
1772725554471446000,1.821446044921875,0.014966187067329884,-0.000610864779446274,-0.07864884287118912
1772725554480962800,1.830962890625,0.005803215317428112,0.006719512399286032,-0.07009673118591309
1772725554490479900,1.84047998046875,-0.000305432389723137,0.0054977829568088055,-0.05177079141139984
1772725554499996400,1.849996337890625,-0.003970621153712273,-0.001221729558892548,-0.03222311660647392
1772725554509513500,1.859513427734375,-0.005192350596189499,-0.010384701192378998,-0.01695149764418602
1772725554519030300,1.8690302734375,-0.003359756199643016,-0.027488915249705315,-0.008399390615522861
1772725554528547000,1.878547119140625,0.0021380267571657896,-0.040317077189683914,-0.007788525894284248
1772725554538064000,1.88806396484375,0.010690134018659592,-0.04214967042207718,-0.0102319847792387
1772725554547580700,1.89758056640625,0.018631376326084137,-0.04276053607463837,-0.012675444595515728
1772725554557097500,1.907097412109375,0.023518294095993042,-0.036651886999607086,-0.017562363296747208
1772725554566614300,1.9166142578125,0.025350889191031456,-0.02626718580722809,-0.024892739951610565
1772725554576131000,1.926131103515625,0.023518294095993042,-0.020158538594841957,-0.0383317656815052
1772725554585647900,1.93564794921875,0.018631376326084137,-0.01588248461484909,-0.05787943676114082
1772725554595164700,1.94516455078125,0.016187917441129684,-0.01649334840476513,-0.07498364895582199
1772725554604681700,1.954681640625,0.0204639695584774,-0.020158538594841957,-0.08536835014820099
1772725554614198500,1.964198486328125,0.03329212963581085,-0.021991131827235222,-0.08292489498853683
1772725554623715300,1.97371533203125,0.04550942778587341,-0.0256563201546669,-0.0694858655333519
1772725554633232100,1.983232177734375,0.05345066636800766,-0.01954767294228077,-0.056657709181308746
1772725554642749000,1.9927490234375,0.05345066636800766,-0.008552107028663158,-0.04566214233636856
1772725554652265700,2.002265625,0.05100720748305321,0.001221729558892548,-0.03955349326133728
1772725554661782500,2.011782470703125,0.04673115536570549,0.003665188793092966,-0.030390523374080658
1772725554671299300,2.02129931640625,0.044898562133312225,-0.007330377586185932,-0.018784092739224434
1772725554680816000,2.030816162109375,0.04673115536570549,-0.021380268037319183,-0.007788525894284248
1772725554690333000,2.0403330078125,0.04550942778587341,-0.0360410213470459,-0.00045814859913662076
1772725554699850000,2.04985009765625,0.03817904740571976,-0.037262752652168274,0.0001527161948615685
1772725554709366500,2.059366455078125,0.029626941308379173,-0.02260199747979641,-0.005955931730568409
1772725554718883600,2.068883544921875,0.022907428443431854,-0.006719512399286032,-0.009010255336761475
1772725554728400400,2.078400390625,0.022907428443431854,0.001221729558892548,-0.009621120058000088
1772725554737917200,2.087917236328125,0.025961752980947495,-0.010384701192378998,-0.005955931730568409
1772725554747434000,2.09743408203125,0.029016077518463135,-0.031154103577136993,-0.003512472379952669
1772725554756950800,2.10695068359375,0.03145953640341759,-0.046425722539424896,-0.002290742937475443
1772725554766467600,2.116467529296875,0.032070402055978775,-0.047036588191986084,-0.001679878099821508
1772725554775984400,2.125984375,0.021685699000954628,-0.039706211537122726,-0.002290742937475443
1772725554785501200,2.135501220703125,0.008246674202382565,-0.021991131827235222,-0.004123337101191282
1772725554795018000,2.14501806640625,-0.004581485874950886,0.000610864779446274,-0.008399390615522861
1772725554804534800,2.15453466796875,-0.013133592903614044,0.021380268037319183,-0.009010255336761475
1772725554814051600,2.164051513671875,-0.019853105768561363,0.026878049597144127,-0.004734201822429895
1772725554823568400,2.173568359375,-0.019853105768561363,0.017715077847242355,0.0032070400193333626
1772725554833085200,2.183085205078125,-0.021685699000954628,0.001221729558892548,0.014813470654189587
1772725554842602200,2.192602294921875,-0.01740964688360691,-0.017104214057326317,0.02764163166284561
1772725554852119000,2.202119140625,-0.008857538923621178,-0.0256563201546669,0.03558287397027016
1772725554861635800,2.2116357421875,-0.000305432389723137,-0.018325943499803543,0.0386371985077858
1772725554871152600,2.221152587890625,0.005803215317428112,-0.0030543238390237093,0.04046979174017906
1772725554880669400,2.23066943359375,0.006414080038666725,0.008552107028663158,0.04046979174017906
1772725554890186200,2.240186279296875,0.003359756199643016,0.007941242307424545,0.03558287397027016
1772725554899703000,2.249703125,-0.0021380267571657896,0.000610864779446274,0.026419902220368385
1772725554909219800,2.2592197265625,-0.005192350596189499,-0.007330377586185932,0.017256930470466614
1772725554918736600,2.268736572265625,-0.005803215317428112,-0.007330377586185932,0.0062613640911877155
1772725554928253400,2.27825341796875,-0.005803215317428112,-0.003665188793092966,-0.004123337101191282
1772725554937770500,2.2877705078125,-0.003359756199643016,0,-0.015729768201708794
1772725554947287000,2.297287109375,0.003970621153712273,0,-0.027336198836565018
1772725554956804000,2.30680419921875,0.012522728182375431,-0.000610864779446274,-0.03955349326133728
1772725554966321000,2.31632080078125,0.019242240116000175,0.003665188793092966,-0.051159925758838654
1772725554975837700,2.325837646484375,0.02107483521103859,0.006108647678047419,-0.057268574833869934
1772725554985354500,2.3353544921875,0.021685699000954628,-0.004886918235570192,-0.06276635825634003
1772725554994871300,2.344871337890625,0.01740964688360691,-0.017715077847242355,-0.06826414167881012
1772725555004388000,2.35438818359375,0.011300998739898205,-0.026878049597144127,-0.07192932814359665
1772725555013905000,2.36390478515625,0.008246674202382565,-0.03909534588456154,-0.06520981341600418
1772725555023421700,2.373421630859375,0.012522728182375431,-0.05925388261675835,-0.04566214233636856
1772725555032938500,2.3829384765625,0.01802051067352295,-0.0665842592716217,-0.024892739951610565
1772725555042455300,2.392455322265625,0.022296564653515816,-0.05742128938436508,-0.0102319847792387
1772725555051972400,2.401972412109375,0.021685699000954628,-0.043982263654470444,-0.00045814859913662076
1772725555061489200,2.4114892578125,0.016798781231045723,-0.02932151034474373,0.004428769461810589
1772725555071006000,2.421005859375,0.008246674202382565,-0.010995565913617611,0.008093958720564842
1772725555080522800,2.430522705078125,-0.0021380267571657896,0.0030543238390237093,0.017867794260382652
1772725555090039600,2.44003955078125,-0.00946840364485979,0.006108647678047419,0.036804601550102234
1772725555099556400,2.449556396484375,-0.011300998739898205,-0.000610864779446274,0.05818486958742142
1772725555109073200,2.4590732421875,-0.013744457624852657,-0.004276053514331579,0.07223475724458694
1772725555118590000,2.46858984375,-0.01740964688360691,-0.006719512399286032,0.07589995115995407
1772725555128106800,2.478106689453125,-0.022296564653515816,-0.010995565913617611,0.07223475724458694
1772725555137623600,2.48762353515625,-0.024740023538470268,-0.013439024798572063,0.06123919412493706
1772725555147140600,2.497140625,-0.02412915788590908,-0.011606430634856224,0.0435241162776947
1772725555156657200,2.5066572265625,-0.021685699000954628,-0.006108647678047419,0.028863361105322838
1772725555166174200,2.51617431640625,-0.01802051067352295,-0.000610864779446274,0.02519817277789116
1772725555175691000,2.52569091796875,-0.018631376326084137,0.006719512399286032,0.017867794260382652
1772725555185207800,2.535207763671875,-0.025350889191031456,0.017715077847242355,0.0062613640911877155
1772725555194724600,2.544724609375,-0.03390299528837204,0.026878049597144127,-0.008399390615522861
1772725555204241400,2.554241455078125,-0.0412333719432354,0.03848448023200035,-0.021838415414094925
1772725555213758200,2.56375830078125,-0.04306596517562866,0.050090912729501724,-0.03222311660647392
1772725555223275000,2.57327490234375,-0.038789913058280945,0.053145237267017365,-0.03283398225903511
1772725555232791800,2.582791748046875,-0.035124726593494415,0.03909534588456154,-0.024892739951610565
1772725555242308600,2.59230859375,-0.029016077518463135,0.01588248461484909,-0.01511890348047018
1772725555251825400,2.601825439453125,-0.022296564653515816,-0.001221729558892548,-0.007177661173045635
1772725555261342200,2.61134228515625,-0.012522728182375431,-0.007941242307424545,0.0025961752980947495
1772725555270859300,2.620859375,-0.0009162971982732415,-0.006719512399286032,0.0062613640911877155
1772725555280375800,2.630375732421875,0.006414080038666725,-0.006108647678047419,0.006872228812426329
1772725555289892900,2.639892822265625,0.006414080038666725,-0.001832594396546483,0.0001527161948615685
1772725555299409700,2.64940966796875,-0.0021380267571657896,0.001221729558892548,-0.008399390615522861
1772725555308926500,2.658926513671875,-0.012522728182375431,0.007330377586185932,-0.015729768201708794
1772725555318443300,2.668443359375,-0.022296564653515816,0.015271619893610477,-0.0206166859716177
1772725555327960000,2.6779599609375,-0.02779434807598591,0.01649334840476513,-0.018173227086663246
1772725555337476900,2.687476806640625,-0.025350889191031456,0.01649334840476513,-0.010842849500477314
1772725555346993700,2.69699365234375,-0.02107483521103859,0.015271619893610477,0.0001527161948615685
1772725555356510500,2.706510498046875,-0.018631376326084137,0.012217295356094837,0.009315688163042068
1772725555366027300,2.71602734375,-0.0204639695584774,0.0054977829568088055,0.01359174121171236
1772725555375544000,2.7255439453125,-0.021685699000954628,0,0.016646064817905426
1772725555385061000,2.73506103515625,-0.013744457624852657,-0.007330377586185932,0.020922118797898293
1772725555394577700,2.74457763671875,-0.003359756199643016,-0.017104214057326317,0.02764163166284561
1772725555404094700,2.7540947265625,0.004581485874950886,-0.01954767294228077,0.03436114266514778
1772725555413611500,2.763611572265625,0.013133592903614044,-0.01588248461484909,0.04108065739274025
1772725555423128300,2.77312841796875,0.01802051067352295,-0.014049889519810677,0.04718930274248123
1772725555432645000,2.78264501953125,0.01802051067352295,-0.01893680728971958,0.05329795181751251
1772725555442162000,2.792161865234375,0.016798781231045723,-0.020769402384757996,0.05451968312263489
1772725555451678700,2.8016787109375,0.014966187067329884,-0.018325943499803543,0.05146535858511925
1772725555461195500,2.811195556640625,0.011300998739898205,-0.009773836471140385,0.0435241162776947
1772725555470712300,2.82071240234375,0.005803215317428112,0.004886918235570192,0.027030766010284424
1772725555480229000,2.83022900390625,-0.0021380267571657896,0.020158538594841957,0.008093958720564842
1772725555489746000,2.839745849609375,-0.0027488914784044027,0.017715077847242355,-0.004734201822429895
1772725555499263000,2.849262939453125,0.005192350596189499,-0.0030543238390237093,-0.007177661173045635
1772725555508779800,2.85877978515625,0.012522728182375431,-0.025045456364750862,-0.003512472379952669
1772725555518296600,2.868296630859375,0.019853105768561363,-0.0360410213470459,0.0007635809597559273
1772725555527813400,2.8778134765625,0.0204639695584774,-0.03481929376721382,0.0001527161948615685
1772725555537330200,2.887330078125,0.019242240116000175,-0.031154103577136993,-0.003512472379952669
1772725555546847000,2.896846923828125,0.013133592903614044,-0.023823726922273636,-0.012675444595515728
1772725555556363800,2.90636376953125,0.006414080038666725,-0.006719512399286032,-0.027336198836565018
1772725555565880600,2.915880615234375,-0.003359756199643016,0.010995565913617611,-0.03894263133406639
1772725555575397400,2.9253974609375,-0.013133592903614044,0.02260199747979641,-0.04627300798892975
1772725555584914200,2.9349140625,-0.019242240116000175,0.03237583488225937,-0.04993819445371628
1772725555594431200,2.94443115234375,-0.019242240116000175,0.03787361457943916,-0.04810560122132301
1772725555603947800,2.95394775390625,-0.01802051067352295,0.03909534588456154,-0.041386090219020844
1772725555613464800,2.96346484375,-0.015577051788568497,0.03237583488225937,-0.027336198836565018
1772725555622981600,2.972981689453125,-0.012522728182375431,0.014660755172371864,-0.015729768201708794
1772725555632498400,2.98249853515625,-0.008857538923621178,-0.0054977829568088055,0.0001527161948615685
1772725555642015200,2.99201513671875,0.0009162971982732415,-0.015271619893610477,0.011759147047996521
1772725555651532000,3.001531982421875,0.011911863461136818,-0.01649334840476513,0.03252854943275452
1772725555661048800,3.011048828125,0.02107483521103859,-0.013439024798572063,0.055741410702466965
1772725555670565600,3.020565673828125,0.025961752980947495,-0.006108647678047419,0.0746782198548317
1772725555680082400,3.03008251953125,0.023518294095993042,-0.001832594396546483,0.0850629210472107
1772725555689599200,3.03959912109375,0.015577051788568497,-0.0054977829568088055,0.0850629210472107
1772725555699116000,3.049115966796875,0.008246674202382565,-0.009773836471140385,0.07162389904260635
1772725555708633000,3.058633056640625,0.005192350596189499,-0.007941242307424545,0.0539088174700737
1772725555718150000,3.06814990234375,0.007635809946805239,-0.001221729558892548,0.033139415085315704
1772725555727666700,3.077666748046875,0.010079269297420979,0.009773836471140385,0.01359174121171236
1772725555737183500,3.08718359375,0.013744457624852657,0.01588248461484909,0.0038179049734026194
1772725555746700300,3.0967001953125,0.018631376326084137,0.007330377586185932,0.0001527161948615685
1772725555756217000,3.106217041015625,0.021685699000954628,-0.004886918235570192,-0.007788525894284248
1772725555765734000,3.11573388671875,0.018631376326084137,-0.01282816007733345,-0.019394956529140472
1772725555775250700,3.125250732421875,0.01435532234609127,-0.01282816007733345,-0.030390523374080658
1772725555784767500,3.134767578125,0.013133592903614044,-0.004886918235570192,-0.03955349326133728
1772725555794284300,3.1442841796875,0.011911863461136818,-0.001832594396546483,-0.04199695214629173
1772725555803801300,3.15380126953125,0.007635809946805239,-0.004276053514331579,-0.04321868345141411
1772725555813318000,3.16331787109375,0.000305432389723137,-0.006719512399286032,-0.047494735568761826
1772725555822835000,3.1728349609375,-0.006414080038666725,0.000610864779446274,-0.050549060106277466
1772725555832351700,3.182351806640625,-0.00946840364485979,0.014049889519810677,-0.051159925758838654
1772725555841868500,3.19186865234375,-0.008246674202382565,0.02871064469218254,-0.047494735568761826
1772725555851385300,3.20138525390625,-0.010079269297420979,0.03787361457943916,-0.04199695214629173
1772725555860902100,3.210902099609375,-0.008857538923621178,0.03298669680953026,-0.03283398225903511
1772725555870419000,3.2204189453125,-0.005192350596189499,0.014049889519810677,-0.0206166859716177
1772725555879935700,3.229935791015625,0.004581485874950886,-0.001832594396546483,-0.008399390615522861
1772725555889452500,3.23945263671875,0.010690134018659592,-0.007941242307424545,0.0007635809597559273
1772725555898969300,3.24896923828125,0.008857538923621178,-0.007330377586185932,0.009315688163042068
1772725555908486100,3.258486083984375,0.005803215317428112,0,0.01847865991294384
1772725555918003200,3.268003173828125,0.005803215317428112,0.0054977829568088055,0.023976443335413933
1772725555927519700,3.277519775390625,0.0027488914784044027,-0.000610864779446274,0.023365577682852745
1772725555937036800,3.287036865234375,-0.0027488914784044027,-0.007941242307424545,0.020311253145337105
1772725555946553600,3.2965537109375,-0.005192350596189499,-0.013439024798572063,0.014813470654189587
1772725555956070400,3.3060703125,-0.0021380267571657896,-0.01954767294228077,0.011759147047996521
1772725555965587200,3.315587158203125,-0.0015271619195118546,-0.02626718580722809,0.005650499369949102
1772725555975104000,3.32510400390625,-0.0009162971982732415,-0.026878049597144127,-0.003512472379952669
1772725555984620800,3.334620849609375,-0.0009162971982732415,-0.020158538594841957,-0.01206457894295454
1772725555994137600,3.3441376953125,-0.0009162971982732415,0.003665188793092966,-0.017562363296747208
1772725556003654400,3.353654296875,-0.0027488914784044027,0.028099779039621353,-0.0206166859716177
1772725556013171200,3.363171142578125,-0.008246674202382565,0.036651886999607086,-0.02367101050913334
1772725556022688000,3.37268798828125,-0.01740964688360691,0.03298669680953026,-0.03283398225903511
1772725556032205000,3.382205078125,-0.02718348242342472,0.01588248461484909,-0.044440411031246185
1772725556041721900,3.391721923828125,-0.03145953640341759,-0.012217295356094837,-0.05238165333867073
1772725556051238700,3.40123876953125,-0.02718348242342472,-0.030543239787220955,-0.05604684352874756
1772725556060755500,3.41075537109375,-0.01740964688360691,-0.033597562462091446,-0.05299251899123192
1772725556070272300,3.420272216796875,-0.005192350596189499,-0.01954767294228077,-0.040775224566459656
1772725556079789000,3.4297890625,0.005192350596189499,0.002443459117785096,-0.02611446939408779
1772725556089305900,3.439305908203125,0.011300998739898205,0.018325943499803543,-0.009010255336761475
1772725556098822700,3.44882275390625,0.013744457624852657,0.014660755172371864,0.005039634648710489
1772725556108339500,3.45833935546875,0.012522728182375431,-0.004886918235570192,0.014813470654189587
1772725556117856300,3.467856201171875,0.008246674202382565,-0.023212861269712448,0.02458730712532997
1772725556127373300,3.477373291015625,0.011300998739898205,-0.037262752652168274,0.03436114266514778
1772725556136889900,3.486889892578125,0.016798781231045723,-0.037262752652168274,0.04108065739274025
1772725556146407000,3.496406982421875,0.0204639695584774,-0.0256563201546669,0.04230238497257233
1772725556155923700,3.505923828125,0.022296564653515816,0.000610864779446274,0.036193739622831345
1772725556165440500,3.5154404296875,0.019853105768561363,0.01893680728971958,0.028863361105322838
1772725556174957300,3.524957275390625,0.016798781231045723,0.01954767294228077,0.023365577682852745
1772725556184474000,3.53447412109375,0.01435532234609127,0.002443459117785096,0.020311253145337105
1772725556193991000,3.543990966796875,0.007635809946805239,-0.01893680728971958,0.016035201027989388
1772725556203507700,3.5535078125,-0.000305432389723137,-0.03787361457943916,0.010537417605519295
1772725556213024500,3.5630244140625,-0.005192350596189499,-0.04276053607463837,0.004428769461810589
1772725556222541300,3.572541259765625,-0.005192350596189499,-0.03481929376721382,-0.00045814859913662076
1772725556232058000,3.58205810546875,-0.003359756199643016,-0.01893680728971958,-0.0010690133785828948
1772725556241575200,3.5915751953125,-0.003359756199643016,-0.006108647678047419,0.0001527161948615685
1772725556251092000,3.601092041015625,-0.003359756199643016,0.0030543238390237093,0.004428769461810589
1772725556260608800,3.61060888671875,-0.003970621153712273,0.012217295356094837,0.004428769461810589
1772725556270125600,3.62012548828125,-0.008857538923621178,0.01893680728971958,-0.00045814859913662076
1772725556279642400,3.629642333984375,-0.01740964688360691,0.023823726922273636,-0.009010255336761475
1772725556289159200,3.6391591796875,-0.024740023538470268,0.027488915249705315,-0.022449281066656113
1772725556298676000,3.648676025390625,-0.03023780696094036,0.02871064469218254,-0.0334448479115963
1772725556308192800,3.65819287109375,-0.029016077518463135,0.021991131827235222,-0.04260781779885292
1772725556317709600,3.66770947265625,-0.022907428443431854,0.007330377586185932,-0.041386090219020844
1772725556327226400,3.677226318359375,-0.018631376326084137,-0.0054977829568088055,-0.031612250953912735
1772725556336743400,3.686743408203125,-0.010690134018659592,-0.0030543238390237093,-0.02306014485657215
1772725556346260000,3.696260009765625,-0.0027488914784044027,0.007330377586185932,-0.014508038759231567
1772725556355777000,3.705777099609375,0.0021380267571657896,0.01282816007733345,-0.002290742937475443
1772725556365293800,3.7152939453125,0.007024944759905338,0.014049889519810677,0.009926552884280682
1772725556374810600,3.724810546875,0.008246674202382565,0.010384701192378998,0.019700389355421066
1772725556384327400,3.734327392578125,0.006414080038666725,0.003665188793092966,0.027030766010284424
1772725556393844200,3.74384423828125,0.007024944759905338,-0.006108647678047419,0.030085090547800064
1772725556403361000,3.753361083984375,0.011300998739898205,-0.018325943499803543,0.028863361105322838
1772725556412877800,3.7628779296875,0.013133592903614044,-0.024434590712189674,0.025809036567807198
1772725556422394600,3.77239453125,0.014966187067329884,-0.02260199747979641,0.022754713892936707
1772725556431911400,3.781911376953125,0.019853105768561363,-0.01588248461484909,0.016035201027989388
1772725556441428200,3.79142822265625,0.019242240116000175,-0.009773836471140385,0.005039634648710489
1772725556450945300,3.8009453125,0.01435532234609127,-0.003665188793092966,-0.007177661173045635
1772725556460461800,3.8104619140625,0.00946840364485979,0.0054977829568088055,-0.0206166859716177
1772725556469979000,3.819978759765625,0.00946840364485979,0.010384701192378998,-0.028557928279042244
1772725556479495700,3.82949560546875,0.007635809946805239,0.013439024798572063,-0.03222311660647392
1772725556489012500,3.839012451171875,0.003970621153712273,0.015271619893610477,-0.03283398225903511
1772725556498529300,3.848529296875,0.0015271619195118546,0.01649334840476513,-0.03222311660647392
1772725556508046000,3.858046142578125,0.005192350596189499,0.01649334840476513,-0.031001387163996696
1772725556517563000,3.86756298828125,0.007024944759905338,0.013439024798572063,-0.022449281066656113
1772725556527079700,3.87707958984375,0.008246674202382565,0.0054977829568088055,-0.007788525894284248
1772725556536596500,3.886596435546875,0.012522728182375431,0.001832594396546483,0.008093958720564842
1772725556546113300,3.89611328125,0.013744457624852657,0,0.027030766010284424
1772725556555630000,3.905630126953125,0.013133592903614044,0,0.04413498193025589
1772725556565147100,3.915147216796875,0.014966187067329884,0.004276053514331579,0.05635227635502815
1772725556574664000,3.924663818359375,0.01435532234609127,0.008552107028663158,0.06307178735733032
1772725556584180700,3.9341806640625,0.012522728182375431,0.011606430634856224,0.06246092543005943
1772725556593697500,3.943697509765625,0.015577051788568497,0.011606430634856224,0.052687086164951324
1772725556603214300,3.95321435546875,0.019853105768561363,0.009773836471140385,0.0386371985077858
1772725556612731100,3.962731201171875,0.022296564653515816,-0.000610864779446274,0.030085090547800064
1772725556622248000,3.972248046875,0.02412915788590908,-0.012217295356094837,0.022754713892936707
1772725556631764700,3.9817646484375,0.025350889191031456,-0.023823726922273636,0.016646064817905426
1772725556641281500,3.991281494140625,0.02412915788590908,-0.02871064469218254,0.010537417605519295
1772725556650798300,4.00079833984375,0.02412915788590908,-0.026878049597144127,0.0032070400193333626
1772725556660315400,4.0103154296875,0.021685699000954628,-0.026878049597144127,-0.004123337101191282
1772725556669832000,4.01983203125,0.022296564653515816,-0.025045456364750862,-0.013286309316754341
1772725556679349000,4.029348876953125,0.02412915788590908,-0.01282816007733345,-0.031612250953912735
1772725556688865800,4.03886572265625,0.024740023538470268,0.012217295356094837,-0.04993819445371628
1772725556698382600,4.048382568359375,0.024740023538470268,0.036651886999607086,-0.060933761298656464
1772725556707899400,4.0578994140625,0.024740023538470268,0.04459312930703163,-0.05849030241370201
1772725556717416200,4.067416259765625,0.02718348242342472,0.037262752652168274,-0.050549060106277466
1772725556726933000,4.07693310546875,0.024740023538470268,0.017715077847242355,-0.03649916872382164
1772725556736449800,4.08644970703125,0.015577051788568497,-0.007330377586185932,-0.02306014485657215
1772725556745966600,4.095966552734375,0.005192350596189499,-0.018325943499803543,-0.015729768201708794
1772725556755483400,4.1054833984375,-0.0015271619195118546,-0.006719512399286032,-0.014508038759231567
1772725556765000200,4.115000244140625,-0.0009162971982732415,0.014049889519810677,-0.013286309316754341
1772725556774517200,4.124517333984375,0.0027488914784044027,0.024434590712189674,-0.005955931730568409
1772725556784034000,4.134033935546875,0.005803215317428112,0.015271619893610477,0.011759147047996521
1772725556793550800,4.14355078125,0.007024944759905338,-0.000610864779446274,0.03191768378019333
1772725556803067600,4.153067626953125,0.003970621153712273,-0.0054977829568088055,0.04780016839504242
1772725556812584400,4.16258447265625,-0.0021380267571657896,-0.001832594396546483,0.05451968312263489
1772725556822101200,4.172101318359375,-0.007024944759905338,0.003665188793092966,0.052687086164951324
1772725556831618000,4.1816181640625,-0.010690134018659592,0.010384701192378998,0.04169152304530144
1772725556841134800,4.191134765625,-0.013133592903614044,0.014049889519810677,0.02764163166284561
1772725556850651600,4.200651611328125,-0.01435532234609127,0.01282816007733345,0.014813470654189587
1772725556860168400,4.21016845703125,-0.010079269297420979,0.006108647678047419,0.0062613640911877155
1772725556869685500,4.219685546875,-0.004581485874950886,0.004276053514331579,0.0019853105768561363
1772725556879202000,4.2292021484375,-0.000305432389723137,0.004886918235570192,0.0007635809597559273
1772725556888719000,4.238718994140625,0.005803215317428112,0.003665188793092966,0.0007635809597559273
1772725556898236000,4.24823583984375,0.011300998739898205,-0.001221729558892548,-0.0010690133785828948
1772725556907752700,4.257752685546875,0.011300998739898205,-0.007941242307424545,-0.003512472379952669
1772725556917269500,4.26726953125,0.007024944759905338,-0.015271619893610477,-0.005955931730568409
1772725556926786300,4.276786376953125,0.0015271619195118546,-0.02260199747979641,-0.0010690133785828948
1772725556936303000,4.28630322265625,-0.0009162971982732415,-0.03298669680953026,0.012980876490473747
1772725556945820000,4.29581982421875,0.0009162971982732415,-0.03481929376721382,0.028863361105322838
1772725556955336700,4.305336669921875,0.004581485874950886,-0.023212861269712448,0.04169152304530144
1772725556964853500,4.314853515625,0.005803215317428112,-0.007941242307424545,0.05146535858511925
1772725556974370300,4.324370361328125,0.007024944759905338,0.006719512399286032,0.052076224237680435
1772725556983887400,4.333887451171875,0.006414080038666725,0.0256563201546669,0.04108065739274025
1772725556993404000,4.34340380859375,0.0021380267571657896,0.036651886999607086,0.01847865991294384
1772725557002921000,4.3529208984375,-0.006414080038666725,0.025045456364750862,-0.004734201822429895
1772725557012437800,4.362437744140625,-0.015577051788568497,-0.003665188793092966,-0.021227551624178886
1772725557021954600,4.37195458984375,-0.022907428443431854,-0.02626718580722809,-0.0334448479115963
1772725557031471400,4.381471435546875,-0.025350889191031456,-0.030543239787220955,-0.04321868345141411
1772725557040988200,4.39098828125,-0.028405211865901947,-0.02260199747979641,-0.043829549103975296
1772725557050505000,4.4005048828125,-0.02779434807598591,-0.012217295356094837,-0.04016435891389847
1772725557060021800,4.410021728515625,-0.0204639695584774,-0.001221729558892548,-0.03283398225903511
1772725557069538800,4.419538818359375,-0.013744457624852657,0.007330377586185932,-0.02306014485657215
1772725557079055600,4.4290556640625,-0.006414080038666725,0.007941242307424545,-0.012675444595515728
1772725557088572400,4.438572509765625,-0.0015271619195118546,0.006719512399286032,-0.005955931730568409
1772725557098089000,4.4480888671875,0.000305432389723137,0.007941242307424545,-0.005955931730568409
1772725557107606000,4.45760595703125,-0.0015271619195118546,0.017715077847242355,-0.012675444595515728
1772725557117122800,4.467122802734375,-0.003359756199643016,0.025045456364750862,-0.022449281066656113
1772725557126639600,4.4766396484375,-0.004581485874950886,0.01649334840476513,-0.03222311660647392
1772725557136156400,4.486156494140625,-0.003359756199643016,-0.010384701192378998,-0.03527744114398956
1772725557145673200,4.495673095703125,0.0027488914784044027,-0.040317077189683914,-0.031001387163996696
1772725557155190000,4.50518994140625,0.004581485874950886,-0.05558869615197182,-0.02000582218170166
1772725557164707000,4.51470703125,0.00946840364485979,-0.053756099194288254,-0.002901607658714056
1772725557174223600,4.5242236328125,0.014966187067329884,-0.031154103577136993,0.012370011769235134
1772725557183740700,4.53374072265625,0.01740964688360691,-0.000610864779446274,0.02764163166284561
1772725557193257500,4.543257568359375,0.01435532234609127,0.01588248461484909,0.039858926087617874
1772725557202774300,4.552774169921875,0.010690134018659592,0.018325943499803543,0.04474584385752678
1772725557212291000,4.562291015625,0.005803215317428112,0.01649334840476513,0.04108065739274025
1772725557221807900,4.571807861328125,0.0027488914784044027,-0.002443459117785096,0.03741546720266342
1772725557231324700,4.58132470703125,-0.000305432389723137,-0.03176496922969818,0.03497200831770897
1772725557240841500,4.590841552734375,0.004581485874950886,-0.04764745384454727,0.03191768378019333
1772725557250358300,4.600358154296875,0.012522728182375431,-0.04520399495959282,0.028863361105322838
1772725557259875000,4.609875,0.014966187067329884,-0.02932151034474373,0.02458730712532997
1772725557269392000,4.619391845703125,0.016187917441129684,-0.012217295356094837,0.02153298258781433
1772725557278909000,4.628908935546875,0.013744457624852657,0.001221729558892548,0.016035201027989388
1772725557288425500,4.638425537109375,0.005192350596189499,0.011606430634856224,0.009315688163042068
1772725557297942500,4.647942626953125,-0.006414080038666725,0.01893680728971958,0.0038179049734026194
1772725557307459300,4.657459228515625,-0.01740964688360691,0.012217295356094837,0.0007635809597559273
1772725557316976000,4.66697607421875,-0.021685699000954628,-0.002443459117785096,-0.00045814859913662076
1772725557326493000,4.676492919921875,-0.01802051067352295,-0.013439024798572063,-0.002290742937475443
1772725557336009700,4.686009765625,-0.008857538923621178,-0.013439024798572063,-0.004123337101191282
1772725557345526500,4.695526611328125,0.0021380267571657896,-0.004276053514331579,-0.004734201822429895
1772725557355043300,4.705043212890625,0.007635809946805239,0.009162971749901772,-0.001679878099821508
1772725557364560100,4.71456005859375,0.010690134018659592,0.01588248461484909,0.0032070400193333626
1772725557374077000,4.724076904296875,0.010690134018659592,0.011606430634856224,0.008093958720564842
1772725557383593700,4.73359375,0.00946840364485979,0.007330377586185932,0.008093958720564842
1772725557393110800,4.74311083984375,0.008246674202382565,-0.003665188793092966,0.008093958720564842
1772725557402627600,4.752627685546875,0.005192350596189499,-0.010995565913617611,0.0019853105768561363
1772725557412144400,4.762144287109375,0.005192350596189499,-0.010384701192378998,-0.006566796451807022
1772725557421661200,4.7716611328125,0.006414080038666725,-0.007941242307424545,-0.012675444595515728
1772725557431178000,4.781177978515625,0.00946840364485979,-0.009162971749901772,-0.010842849500477314
1772725557440694800,4.79069482421875,0.013133592903614044,-0.006719512399286032,-0.004123337101191282
1772725557450211600,4.800211669921875,0.011911863461136818,-0.009773836471140385,0.009315688163042068
1772725557459728400,4.809728271484375,0.012522728182375431,-0.017715077847242355,0.027030766010284424
1772725557469245200,4.8192451171875,0.019853105768561363,-0.023823726922273636,0.0386371985077858
1772725557478762000,4.828761962890625,0.03023780696094036,-0.026878049597144127,0.0435241162776947
1772725557488279000,4.838279052734375,0.03329212963581085,-0.029932374134659767,0.0435241162776947
1772725557497795600,4.847795654296875,0.029626941308379173,-0.025045456364750862,0.0386371985077858
1772725557507312600,4.857312744140625,0.022907428443431854,-0.017104214057326317,0.029474224895238876
1772725557516829400,4.866829345703125,0.016187917441129684,-0.008552107028663158,0.01847865991294384
1772725557526346200,4.87634619140625,0.011300998739898205,0.002443459117785096,0.010537417605519295
1772725557535863000,4.885863037109375,0.011300998739898205,0.007941242307424545,0.0038179049734026194
1772725557545379800,4.8953798828125,0.01435532234609127,0.000610864779446274,0.0007635809597559273
1772725557554896600,4.904896728515625,0.016187917441129684,-0.018325943499803543,-0.0010690133785828948
1772725557564413400,4.914413330078125,0.011911863461136818,-0.037262752652168274,-0.002901607658714056
1772725557573930500,4.923930419921875,0.005192350596189499,-0.043371398001909256,-0.008399390615522861
1772725557583447000,4.933447021484375,-0.0027488914784044027,-0.037262752652168274,-0.014508038759231567
1772725557592964000,4.942964111328125,-0.005192350596189499,-0.02260199747979641,-0.02000582218170166
1772725557602481000,4.95248095703125,-0.007635809946805239,0,-0.022449281066656113
1772725557611997700,4.961997802734375,-0.007635809946805239,0.014660755172371864,-0.017562363296747208
1772725557621514500,4.971514404296875,-0.005192350596189499,0.017104214057326317,-0.005345067009329796
1772725557631031300,4.98103125,-0.0009162971982732415,0.014660755172371864,0.009926552884280682
1772725557640548000,4.990548095703125,0.005192350596189499,0.014049889519810677,0.02153298258781433
1772725557650065000,5.00006494140625,0.010079269297420979,0.01282816007733345,0.02764163166284561
1772725557659581700,5.009581787109375,0.018631376326084137,0.010384701192378998,0.023365577682852745
1772725557669098500,5.019098388671875,0.025961752980947495,0.01282816007733345,0.008704823441803455
1772725557678615300,5.028615234375,0.02412915788590908,0.010995565913617611,-0.0102319847792387
1772725557688132400,5.03813232421875,0.015577051788568497,0.000610864779446274,-0.022449281066656113
1772725557697649200,5.047649169921875,0.008246674202382565,-0.009162971749901772,-0.024892739951610565
1772725557707166000,5.057166015625,0.003359756199643016,-0.017715077847242355,-0.018784092739224434
1772725557716682800,5.066682861328125,-0.0015271619195118546,-0.02260199747979641,-0.004734201822429895
1772725557726199600,5.076199462890625,-0.004581485874950886,-0.02626718580722809,0.011148282326757908
1772725557735716400,5.08571630859375,-0.0015271619195118546,-0.024434590712189674,0.02458730712532997
1772725557745233200,5.095233154296875,0.005192350596189499,-0.021380268037319183,0.030695954337716103
1772725557754750000,5.10475,0.011911863461136818,-0.01954767294228077,0.030695954337716103
1772725557764266800,5.114266845703125,0.01802051067352295,-0.011606430634856224,0.023976443335413933
1772725557773783600,5.123783447265625,0.019853105768561363,-0.006108647678047419,0.016035201027989388
1772725557783300600,5.133300537109375,0.019242240116000175,-0.010995565913617611,0.007483093533664942
1772725557792817200,5.142817138671875,0.010079269297420979,-0.0030543238390237093,-0.005955931730568409
1772725557802334200,5.152334228515625,0.000305432389723137,-0.002443459117785096,-0.015729768201708794
1772725557811851000,5.16185107421875,-0.006414080038666725,-0.004886918235570192,-0.021227551624178886
1772725557821367800,5.171367919921875,-0.008246674202382565,-0.0054977829568088055,-0.024281874299049377
1772725557830884600,5.180884521484375,-0.011300998739898205,-0.000610864779446274,-0.02611446939408779
1772725557840401400,5.1904013671875,-0.014966187067329884,0.009162971749901772,-0.024281874299049377
1772725557849918200,5.199918212890625,-0.01435532234609127,0.017104214057326317,-0.021227551624178886
1772725557859435000,5.20943505859375,-0.011300998739898205,0.02260199747979641,-0.017562363296747208
1772725557868952000,5.2189521484375,-0.011300998739898205,0.029932374134659767,-0.013897174037992954
1772725557878468600,5.228468505859375,-0.015577051788568497,0.028099779039621353,-0.01206457894295454
1772725557887985700,5.237985595703125,-0.016187917441129684,0.018325943499803543,-0.013286309316754341
1772725557897502500,5.24750244140625,-0.010079269297420979,0,-0.013286309316754341
1772725557907019300,5.257019287109375,-0.005192350596189499,-0.023823726922273636,-0.012675444595515728
1772725557916536000,5.2665361328125,-0.005192350596189499,-0.039706211537122726,-0.010842849500477314
1772725557926052900,5.276052978515625,-0.007635809946805239,-0.0360410213470459,-0.010842849500477314
1772725557935569700,5.285569580078125,-0.00946840364485979,-0.021380268037319183,-0.0102319847792387
1772725557945086500,5.29508642578125,-0.008857538923621178,-0.001832594396546483,-0.005345067009329796
1772725557954603300,5.304603271484375,-0.0021380267571657896,0.01282816007733345,0.0007635809597559273
1772725557964120000,5.3141201171875,0.005192350596189499,0.013439024798572063,0.005039634648710489
1772725557973636900,5.323636962890625,0.008857538923621178,-0.002443459117785096,0.009315688163042068
1772725557983154000,5.33315380859375,0.006414080038666725,-0.014049889519810677,0.008093958720564842
1772725557992670700,5.342670654296875,-0.0009162971982732415,-0.018325943499803543,0.0038179049734026194
1772725558002187300,5.352187255859375,-0.007635809946805239,-0.01649334840476513,-0.002901607658714056
1772725558011704300,5.361704345703125,-0.013744457624852657,-0.0054977829568088055,-0.009621120058000088
1772725558021221000,5.37122119140625,-0.015577051788568497,0.007941242307424545,-0.016340631991624832
1772725558030738000,5.380738037109375,-0.015577051788568497,0.01954767294228077,-0.019394956529140472
1772725558040254700,5.390254638671875,-0.015577051788568497,0.020769402384757996,-0.015729768201708794
1772725558049771500,5.399771484375,-0.011911863461136818,0.01649334840476513,-0.007788525894284248
1772725558059288300,5.409288330078125,-0.005192350596189499,0.014049889519810677,0.0001527161948615685
1772725558068805000,5.41880517578125,-0.0027488914784044027,0.007330377586185932,0.009926552884280682
1772725558078322200,5.428322265625,-0.004581485874950886,-0.007330377586185932,0.01908952370285988
1772725558087838700,5.437838623046875,-0.0027488914784044027,-0.023212861269712448,0.023365577682852745
1772725558097355500,5.44735546875,-0.0009162971982732415,-0.03176496922969818,0.020922118797898293
1772725558106872600,5.45687255859375,-0.0021380267571657896,-0.027488915249705315,0.011759147047996521
1772725558116389400,5.466389404296875,-0.005803215317428112,-0.011606430634856224,-0.002901607658714056
1772725558125906200,5.47590625,-0.005803215317428112,0.010384701192378998,-0.019394956529140472
1772725558135423000,5.485423095703125,-0.006414080038666725,0.01649334840476513,-0.02672533318400383
1772725558144939800,5.494939697265625,-0.008246674202382565,0.010384701192378998,-0.02672533318400383
1772725558154456600,5.50445654296875,-0.010079269297420979,-0.001221729558892548,-0.02000582218170166
1772725558163973600,5.5139736328125,-0.008246674202382565,-0.014049889519810677,-0.008399390615522861
1772725558173490200,5.523490234375,-0.004581485874950886,-0.02871064469218254,0.005650499369949102
1772725558183007200,5.53300732421875,-0.000305432389723137,-0.0360410213470459,0.014813470654189587
1772725558192524000,5.54252392578125,-0.0027488914784044027,-0.027488915249705315,0.016035201027989388
1772725558202040800,5.552040771484375,-0.010079269297420979,-0.0030543238390237093,0.008704823441803455
1772725558211557600,5.5615576171875,-0.015577051788568497,0.01649334840476513,0.0013744457392022014
1772725558221074400,5.571074462890625,-0.014966187067329884,0.021991131827235222,-0.002290742937475443
1772725558230591200,5.58059130859375,-0.007635809946805239,0.026878049597144127,-0.003512472379952669
1772725558240108000,5.59010791015625,-0.0021380267571657896,0.021380268037319183,-0.00045814859913662076
1772725558249624800,5.599624755859375,-0.0009162971982732415,0.0054977829568088055,0.0038179049734026194
1772725558259141600,5.6091416015625,-0.003970621153712273,-0.011606430634856224,0.009315688163042068
1772725558268658400,5.618658447265625,-0.006414080038666725,-0.023823726922273636,0.0154243353754282
1772725558278175500,5.628175537109375,-0.00946840364485979,-0.023823726922273636,0.019700389355421066
1772725558287692000,5.637692138671875,-0.013744457624852657,-0.018325943499803543,0.026419902220368385
1772725558297209000,5.647208984375,-0.011911863461136818,-0.014660755172371864,0.036193739622831345
1772725558306726000,5.656725830078125,0.0027488914784044027,-0.007330377586185932,0.049632761627435684
1772725558316242700,5.66624267578125,0.021685699000954628,0.008552107028663158,0.05635227635502815
1772725558325759500,5.675759521484375,0.03695731982588768,0.02871064469218254,0.049632761627435684
1772725558335276300,5.6852763671875,0.035735588520765305,0.04153880476951599,0.03375028073787689
1772725558344793000,5.69479296875,0.021685699000954628,0.036651886999607086,0.011759147047996521
1772725558354310000,5.704309814453125,0.006414080038666725,0.030543239787220955,-0.017562363296747208
1772725558363826700,5.71382666015625,-0.008857538923621178,0.029932374134659767,-0.04993819445371628
1772725558373343500,5.723343505859375,-0.023518294095993042,0.028099779039621353,-0.07192932814359665
1772725558382860300,5.7328603515625,-0.0308486707508564,0.020158538594841957,-0.0798705667257309
1772725558392377300,5.74237744140625,-0.028405211865901947,0.009773836471140385,-0.06704241037368774
1772725558401894100,5.75189404296875,-0.016798781231045723,0.009773836471140385,-0.041386090219020844
1772725558411411000,5.761410888671875,-0.0015271619195118546,0.01588248461484909,-0.009621120058000088
1772725558420927700,5.770927734375,0.007024944759905338,0.014660755172371864,0.02153298258781433
1772725558430444500,5.780444580078125,0.008857538923621178,0.002443459117785096,0.04718930274248123
1772725558439961300,5.78996142578125,0.008246674202382565,-0.010384701192378998,0.06246092543005943
1772725558449478100,5.79947802734375,0.003359756199643016,-0.009773836471140385,0.06123919412493706
1772725558458995200,5.8089951171875,-0.003970621153712273,-0.007330377586185932,0.052076224237680435
1772725558468511700,5.81851171875,-0.005192350596189499,-0.0030543238390237093,0.039248060435056686
1772725558478028800,5.82802880859375,-0.0027488914784044027,0.008552107028663158,0.02458730712532997
1772725558487545600,5.837545654296875,-0.003970621153712273,0.01893680728971958,0.012370011769235134
1772725558497062400,5.8470625,-0.013133592903614044,0.021991131827235222,0.005039634648710489
1772725558506579200,5.8565791015625,-0.019242240116000175,0.017104214057326317,0.0038179049734026194
1772725558516096000,5.866095947265625,-0.022907428443431854,0.004886918235570192,0.009315688163042068
1772725558525612800,5.87561279296875,-0.025350889191031456,-0.0054977829568088055,0.01359174121171236
1772725558535129600,5.885129638671875,-0.02718348242342472,-0.010995565913617611,0.017256930470466614
1772725558544646400,5.894646484375,-0.0204639695584774,-0.020769402384757996,0.02458730712532997
1772725558554163200,5.9041630859375,-0.003359756199643016,-0.031154103577136993,0.03558287397027016
1772725558563680000,5.913679931640625,0.016798781231045723,-0.031154103577136993,0.045967575162649155
1772725558573197000,5.923197021484375,0.029626941308379173,-0.01649334840476513,0.05146535858511925
1772725558582713600,5.932713623046875,0.03634645417332649,-0.001832594396546483,0.0539088174700737
1772725558592230700,5.942230712890625,0.035735588520765305,0.009773836471140385,0.04841103404760361
1772725558601747500,5.95174755859375,0.03023780696094036,0.023823726922273636,0.03252854943275452
1772725558611264300,5.96126416015625,0.018631376326084137,0.036651886999607086,0.007483093533664942
1772725558620781000,5.970781005859375,0.005803215317428112,0.03298669680953026,-0.018173227086663246
1772725558630297900,5.9802978515625,-0.005192350596189499,0.01954767294228077,-0.03894263133406639
1772725558639814700,5.989814697265625,-0.008246674202382565,0.003665188793092966,-0.04810560122132301
1772725558649331500,5.99933154296875,-0.0021380267571657896,-0.007330377586185932,-0.047494735568761826
1772725558658848500,6.0088486328125,-0.0009162971982732415,-0.010384701192378998,-0.03894263133406639
1772725558668365000,6.018364990234375,-0.0015271619195118546,-0.001221729558892548,-0.028557928279042244
1772725558677882000,6.027882080078125,-0.003970621153712273,0.01649334840476513,-0.017562363296747208
1772725558687399000,6.03739892578125,-0.007635809946805239,0.025045456364750862,-0.002901607658714056
1772725558696915700,6.046915771484375,-0.008246674202382565,0.020158538594841957,0.014813470654189587
1772725558706432500,6.0564326171875,-0.003359756199643016,0.018325943499803543,0.03252854943275452
1772725558715949300,6.06594921875,0.0027488914784044027,0.018325943499803543,0.04718930274248123
1772725558725466000,6.075466064453125,0.005803215317428112,0.012217295356094837,0.05757400393486023
1772725558734983000,6.08498291015625,0.005192350596189499,0.009773836471140385,0.05940660089254379
1772725558744499700,6.094499755859375,0.004581485874950886,0.007941242307424545,0.05513054504990578
1772725558754016500,6.1040166015625,0.0021380267571657896,0,0.04657844081521034
1772725558763533300,6.113533203125,-0.0021380267571657896,-0.007941242307424545,0.03130681812763214
1772725558773050400,6.12305029296875,-0.003970621153712273,-0.001832594396546483,0.009926552884280682
1772725558782567200,6.132567138671875,-0.005803215317428112,-0.000610864779446274,-0.006566796451807022
1772725558792084000,6.142083984375,-0.006414080038666725,-0.007330377586185932,-0.016340631991624832
1772725558801600800,6.151600830078125,0.0009162971982732415,-0.003665188793092966,-0.022449281066656113
1772725558811117600,6.16111767578125,0.007635809946805239,0.009162971749901772,-0.025503603741526604
1772725558820634400,6.17063427734375,0.00946840364485979,0.009773836471140385,-0.01695149764418602
1772725558830151200,6.180151123046875,0.008246674202382565,-0.007330377586185932,-0.002901607658714056
1772725558839668000,6.18966796875,0.008246674202382565,-0.013439024798572063,0.007483093533664942
1772725558849184800,6.199184814453125,0.011300998739898205,-0.004886918235570192,0.011148282326757908
1772725558858701800,6.208701904296875,0.011911863461136818,0.010384701192378998,0.009926552884280682
1772725558868218600,6.218218505859375,0.010079269297420979,0.020769402384757996,0.005039634648710489
1772725558877735400,6.2277353515625,0.005803215317428112,0.018325943499803543,0.0032070400193333626
1772725558887252200,6.237252197265625,0.0027488914784044027,0.012217295356094837,0.0007635809597559273
1772725558896769000,6.24676904296875,-0.0027488914784044027,0.004886918235570192,-0.001679878099821508
1772725558906285800,6.256285888671875,-0.006414080038666725,-0.000610864779446274,-0.003512472379952669
1772725558915802600,6.265802734375,-0.006414080038666725,-0.0054977829568088055,-0.005345067009329796
1772725558925319400,6.2753193359375,-0.0021380267571657896,-0.007941242307424545,-0.007788525894284248
1772725558934836200,6.284836181640625,0.0021380267571657896,-0.011606430634856224,-0.011453714221715927
1772725558944353000,6.29435302734375,0.0021380267571657896,-0.010384701192378998,-0.01695149764418602
1772725558953870000,6.3038701171875,0.000305432389723137,-0.001221729558892548,-0.021838415414094925
1772725558963386600,6.31338671875,-0.0009162971982732415,0.012217295356094837,-0.021227551624178886
1772725558972903700,6.322903564453125,-0.005803215317428112,0.024434590712189674,-0.014508038759231567
1772725558982420500,6.33242041015625,-0.011911863461136818,0.0256563201546669,-0.004734201822429895
1772725558991937300,6.341937255859375,-0.016798781231045723,0.023212861269712448,0.004428769461810589
1772725559001454000,6.3514541015625,-0.01740964688360691,0.026878049597144127,0.011759147047996521
1772725559010971000,6.360970947265625,-0.011300998739898205,0.018325943499803543,0.019700389355421066
1772725559020487700,6.37048779296875,-0.0021380267571657896,0,0.030085090547800064
1772725559030004500,6.38000439453125,0.005803215317428112,-0.020158538594841957,0.03558287397027016
1772725559039521500,6.389521484375,0.010079269297420979,-0.030543239787220955,0.03497200831770897
1772725559049038000,6.3990380859375,0.00946840364485979,-0.023823726922273636,0.02764163166284561
1772725559058555100,6.40855517578125,0.003970621153712273,-0.007330377586185932,0.016035201027989388
1772725559068072000,6.418072021484375,-0.003359756199643016,0.009773836471140385,0.007483093533664942
1772725559077588700,6.427588623046875,-0.008857538923621178,0.02260199747979641,-0.002901607658714056
1772725559087105500,6.43710546875,-0.016187917441129684,0.0256563201546669,-0.011453714221715927
1772725559096622300,6.446622314453125,-0.015577051788568497,0.020769402384757996,-0.014508038759231567
1772725559106139100,6.45613916015625,-0.005803215317428112,0.006108647678047419,-0.011453714221715927
1772725559115656000,6.465656005859375,0.003970621153712273,-0.009773836471140385,-0.005955931730568409
1772725559125172700,6.4751728515625,0.006414080038666725,-0.014660755172371864,0.0007635809597559273
1772725559134689500,6.484689453125,0.008857538923621178,-0.002443459117785096,0.005650499369949102
1772725559144206600,6.49420654296875,0.010690134018659592,0.012217295356094837,0.010537417605519295
1772725559153723400,6.503723388671875,0.011300998739898205,0.020769402384757996,0.009926552884280682
1772725559163240200,6.513240234375,0.010079269297420979,0.021991131827235222,0.009315688163042068
1772725559172757000,6.522757080078125,0.008857538923621178,0.011606430634856224,0.007483093533664942
1772725559182273800,6.532273681640625,0.010690134018659592,0.001832594396546483,0.006872228812426329
1772725559191790600,6.54179052734375,0.015577051788568497,-0.0030543238390237093,0.007483093533664942
1772725559201307400,6.551307373046875,0.01802051067352295,0,0.007483093533664942
1772725559210824200,6.56082421875,0.01435532234609127,0.001832594396546483,0.009315688163042068
1772725559220341000,6.570341064453125,0.008246674202382565,-0.001221729558892548,0.011759147047996521
1772725559229857800,6.57985791015625,0.005192350596189499,-0.003665188793092966,0.012370011769235134
1772725559239374800,6.589374755859375,0.0015271619195118546,0.007330377586185932,0.011148282326757908
1772725559248891600,6.5988916015625,-0.0027488914784044027,0.018325943499803543,0.012980876490473747
1772725559258408400,6.608408447265625,-0.007635809946805239,0.021991131827235222,0.016646064817905426
1772725559267925200,6.61792529296875,-0.008246674202382565,0.02260199747979641,0.017256930470466614
1772725559277442000,6.627442138671875,-0.005803215317428112,0.025045456364750862,0.0154243353754282
1772725559286958800,6.636958740234375,-0.004581485874950886,0.01954767294228077,0.01359174121171236
1772725559296475600,6.6464755859375,-0.004581485874950886,0.009773836471140385,0.011759147047996521
1772725559305992400,6.655992431640625,-0.0021380267571657896,-0.0054977829568088055,0.011148282326757908
1772725559315509200,6.66550927734375,0.0009162971982732415,-0.023823726922273636,0.008093958720564842
1772725559325026300,6.6750263671875,0.0009162971982732415,-0.028099779039621353,-0.003512472379952669
1772725559334543000,6.684543212890625,-0.0009162971982732415,-0.010995565913617611,-0.018784092739224434
1772725559344060000,6.694059814453125,0.0009162971982732415,0.01893680728971958,-0.02977965772151947
1772725559353576700,6.70357666015625,0.0021380267571657896,0.03848448023200035,-0.03222311660647392
1772725559363093500,6.713093505859375,0.003359756199643016,0.039706211537122726,-0.02977965772151947
1772725559372610300,6.7226103515625,-0.000305432389723137,0.02871064469218254,-0.028557928279042244
1772725559382127000,6.732127197265625,-0.004581485874950886,0.010995565913617611,-0.02367101050913334
1772725559391644000,6.741643798828125,-0.005192350596189499,-0.010384701192378998,-0.015729768201708794
1772725559401160700,6.75116064453125,-0.000305432389723137,-0.02260199747979641,-0.004734201822429895
1772725559410677500,6.760677490234375,0.005803215317428112,-0.026878049597144127,0.0062613640911877155
1772725559420194600,6.770194580078125,0.011300998739898205,-0.018325943499803543,0.0154243353754282
1772725559429711000,6.779711181640625,0.013133592903614044,-0.008552107028663158,0.025809036567807198
1772725559439228200,6.789228271484375,0.013133592903614044,-0.001221729558892548,0.030695954337716103
1772725559448745000,6.798744873046875,0.010690134018659592,0.000610864779446274,0.03191768378019333
1772725559458261800,6.80826171875,0.004581485874950886,-0.007330377586185932,0.029474224895238876
1772725559467778600,6.817778564453125,-0.0009162971982732415,-0.012217295356094837,0.02153298258781433
1772725559477295400,6.82729541015625,-0.003359756199643016,-0.01282816007733345,0.009926552884280682
1772725559486812200,6.836812255859375,-0.004581485874950886,-0.009162971749901772,-0.001679878099821508
1772725559496329000,6.846328857421875,-0.010079269297420979,-0.004886918235570192,-0.013897174037992954
1772725559505846000,6.855845947265625,-0.013133592903614044,0.004276053514331579,-0.025503603741526604
1772725559515362600,6.865362548828125,-0.013744457624852657,0.009773836471140385,-0.031612250953912735
1772725559524879600,6.874879638671875,-0.010690134018659592,0.006108647678047419,-0.03283398225903511
1772725559534396400,6.884396484375,-0.007635809946805239,0.001832594396546483,-0.03527744114398956
1772725559543913200,6.893913330078125,-0.007024944759905338,0.003665188793092966,-0.03527744114398956
1772725559553430000,6.903429931640625,-0.007024944759905338,0.013439024798572063,-0.03222311660647392
1772725559562946800,6.91294677734375,-0.004581485874950886,0.020769402384757996,-0.02306014485657215
1772725559572463600,6.922463623046875,-0.0015271619195118546,0.014660755172371864,-0.014508038759231567
1772725559581980400,6.93198046875,0.0021380267571657896,-0.001221729558892548,-0.010842849500477314
1772725559591497200,6.941497314453125,0.0021380267571657896,-0.018325943499803543,-0.01511890348047018
1772725559601014000,6.951013916015625,-0.000305432389723137,-0.02260199747979641,-0.021838415414094925
1772725559610530800,6.96053076171875,-0.0009162971982732415,-0.014660755172371864,-0.02611446939408779
1772725559620048000,6.9700478515625,0.0027488914784044027,-0.014049889519810677,-0.022449281066656113
1772725559629564700,6.979564697265625,0.010690134018659592,-0.014049889519810677,-0.013897174037992954
1772725559639081500,6.98908154296875,0.015577051788568497,-0.007330377586185932,-0.005345067009329796
1772725559648598300,6.998598388671875,0.016187917441129684,-0.001832594396546483,0.0025961752980947495
1772725559658115000,7.008114990234375,0.01435532234609127,0.001221729558892548,0.0019853105768561363
1772725559667631900,7.0176318359375,0.010690134018659592,-0.004276053514331579,-0.001679878099821508
1772725559677148700,7.027148681640625,0.003970621153712273,-0.015271619893610477,-0.002901607658714056
1772725559686665500,7.03666552734375,0.0009162971982732415,-0.01893680728971958,-0.007177661173045635
1772725559696182300,7.046182373046875,-0.0009162971982732415,-0.013439024798572063,-0.008399390615522861
1772725559705699300,7.05569921875,0.0009162971982732415,-0.009162971749901772,-0.007177661173045635
1772725559715216100,7.065216064453125,0.0021380267571657896,-0.008552107028663158,-0.003512472379952669
1772725559724733000,7.07473291015625,0.0015271619195118546,-0.009162971749901772,0.0007635809597559273
1772725559734249700,7.084249755859375,-0.0009162971982732415,-0.004276053514331579,-0.0010690133785828948
1772725559743766500,7.0937666015625,-0.008246674202382565,-0.002443459117785096,-0.004123337101191282
1772725559753283300,7.103283447265625,-0.016798781231045723,-0.006108647678047419,-0.0102319847792387
1772725559762800000,7.112800048828125,-0.024740023538470268,0,-0.017562363296747208
1772725559772317000,7.12231689453125,-0.026572618633508682,0.007941242307424545,-0.024281874299049377
1772725559781833700,7.131833740234375,-0.024740023538470268,0.009773836471140385,-0.02977965772151947
1772725559791350800,7.141350830078125,-0.02107483521103859,0.004886918235570192,-0.031612250953912735
1772725559800867600,7.15086767578125,-0.012522728182375431,-0.001832594396546483,-0.03222311660647392
1772725559810384400,7.16038427734375,-0.008246674202382565,-0.006108647678047419,-0.034666575491428375
1772725559819901200,7.169901123046875,-0.00946840364485979,-0.001832594396546483,-0.0334448479115963
1772725559829418000,7.17941796875,-0.011911863461136818,0.010384701192378998,-0.030390523374080658
1772725559838934800,7.188934814453125,-0.01435532234609127,0.02932151034474373,-0.02672533318400383
1772725559848451600,7.19845166015625,-0.013744457624852657,0.04214967042207718,-0.021227551624178886
1772725559857968400,7.207968505859375,-0.00946840364485979,0.039706211537122726,-0.019394956529140472
1772725559867485200,7.217485107421875,-0.005192350596189499,0.021380268037319183,-0.02367101050913334
1772725559877002000,7.227001953125,0.0027488914784044027,-0.0054977829568088055,-0.027336198836565018
1772725559886519000,7.23651904296875,0.013744457624852657,-0.0256563201546669,-0.02916879393160343
1772725559896035600,7.24603564453125,0.022296564653515816,-0.03176496922969818,-0.024892739951610565
1772725559905552600,7.255552734375,0.0308486707508564,-0.025045456364750862,-0.01511890348047018
1772725559915069400,7.2650693359375,0.03329212963581085,-0.015271619893610477,-0.004123337101191282
1772725559924586200,7.274586181640625,0.032070402055978775,0,0.006872228812426329
1772725559934103000,7.28410302734375,0.026572618633508682,0.009773836471140385,0.014813470654189587
1772725559943619800,7.293619873046875,0.019853105768561363,0.01588248461484909,0.020311253145337105
1772725559953136600,7.30313671875,0.016798781231045723,0.01649334840476513,0.023365577682852745
1772725559962653400,7.3126533203125,0.016187917441129684,0.007330377586185932,0.023976443335413933
1772725559972170500,7.32217041015625,0.016798781231045723,-0.008552107028663158,0.020922118797898293
1772725559981687000,7.33168701171875,0.016798781231045723,-0.021991131827235222,0.014202605932950974
1772725559991204000,7.3412041015625,0.01435532234609127,-0.026878049597144127,0.010537417605519295
1772725560000721000,7.350720947265625,0.013133592903614044,-0.025045456364750862,0.010537417605519295
1772725560010237700,7.36023779296875,0.011911863461136818,-0.021991131827235222,0.012370011769235134
1772725560019754500,7.36975439453125,0.008246674202382565,-0.012217295356094837,0.011759147047996521
1772725560029271300,7.379271240234375,0.0015271619195118546,-0.002443459117785096,0.009315688163042068
1772725560038788000,7.3887880859375,-0.003359756199643016,0.003665188793092966,0.0025961752980947495
1772725560048305000,7.398304931640625,-0.007024944759905338,0.009162971749901772,-0.009010255336761475
1772725560057822000,7.407822021484375,-0.013133592903614044,0.009773836471140385,-0.021227551624178886
1772725560067338500,7.41733837890625,-0.019242240116000175,0.009162971749901772,-0.0334448479115963
1772725560076855600,7.42685546875,-0.023518294095993042,0.01649334840476513,-0.047494735568761826
1772725560086372400,7.436372314453125,-0.026572618633508682,0.026878049597144127,-0.057268574833869934
1772725560095889200,7.44588916015625,-0.02718348242342472,0.021380268037319183,-0.05787943676114082
1772725560105406000,7.455406005859375,-0.02412915788590908,0.012217295356094837,-0.05238165333867073
1772725560114922800,7.4649228515625,-0.019853105768561363,0.001221729558892548,-0.037720900028944016
1772725560124439600,7.474439453125,-0.00946840364485979,-0.008552107028663158,-0.013897174037992954
1772725560133956400,7.483956298828125,0.005803215317428112,-0.011606430634856224,0.008704823441803455
1772725560143473200,7.49347314453125,0.014966187067329884,-0.012217295356094837,0.02825249545276165
1772725560152990000,7.502989990234375,0.016187917441129684,-0.010384701192378998,0.0386371985077858
1772725560162506800,7.5125068359375,0.01435532234609127,-0.006719512399286032,0.039248060435056686
1772725560172023800,7.52202392578125,0.008246674202382565,-0.003665188793092966,0.03191768378019333
1772725560181540600,7.53154052734375,0.0021380267571657896,-0.008552107028663158,0.01908952370285988
1772725560191057400,7.541057373046875,-0.003970621153712273,-0.013439024798572063,0.0062613640911877155
1772725560200574200,7.55057421875,-0.005192350596189499,-0.01588248461484909,-0.003512472379952669
1772725560210091000,7.560091064453125,-0.004581485874950886,-0.003665188793092966,-0.011453714221715927
1772725560219607800,7.56960791015625,-0.007024944759905338,0.014049889519810677,-0.017562363296747208
1772725560229124600,7.57912451171875,-0.006414080038666725,0.021991131827235222,-0.019394956529140472
1772725560238641400,7.588641357421875,-0.0027488914784044027,0.015271619893610477,-0.01511890348047018
1772725560248158200,7.598158203125,0.008246674202382565,0.0030543238390237093,-0.007788525894284248
1772725560257675300,7.60767529296875,0.019853105768561363,-0.009162971749901772,-0.003512472379952669
1772725560267192000,7.617192138671875,0.02412915788590908,-0.014049889519810677,0.0013744457392022014
1772725560276708900,7.626708984375,0.02412915788590908,-0.004276053514331579,0.0001527161948615685
1772725560286225700,7.6362255859375,0.02107483521103859,0.012217295356094837,-0.007788525894284248
1772725560295742500,7.645742431640625,0.01435532234609127,0.021991131827235222,-0.01206457894295454
1772725560305259300,7.65525927734375,0.008246674202382565,0.020158538594841957,-0.013286309316754341
1772725560314776000,7.664776123046875,0.006414080038666725,0.010995565913617611,-0.01206457894295454
1772725560324292900,7.67429296875,0.003359756199643016,0.000610864779446274,-0.009010255336761475
1772725560333809700,7.6838095703125,-0.000305432389723137,-0.004276053514331579,-0.009010255336761475
1772725560343326700,7.69332666015625,-0.003359756199643016,-0.004886918235570192,-0.0102319847792387
1772725560352843500,7.702843505859375,-0.005192350596189499,-0.004886918235570192,-0.011453714221715927
1772725560362360300,7.7123603515625,-0.008246674202382565,-0.007330377586185932,-0.011453714221715927
1772725560371877000,7.721877197265625,-0.013133592903614044,-0.008552107028663158,-0.007177661173045635
1772725560381394000,7.731393798828125,-0.01435532234609127,-0.008552107028663158,-0.002901607658714056
1772725560390910700,7.74091064453125,-0.011911863461136818,-0.009773836471140385,0.005650499369949102
1772725560400427500,7.750427490234375,-0.010079269297420979,-0.009162971749901772,0.014813470654189587
1772725560409944300,7.7599443359375,-0.006414080038666725,-0.007330377586185932,0.020922118797898293
1772725560419461000,7.769461181640625,-0.0027488914784044027,-0.0054977829568088055,0.019700389355421066
1772725560428978200,7.778978271484375,-0.003970621153712273,-0.0030543238390237093,0.009926552884280682
1772725560438495000,7.788494873046875,-0.006414080038666725,0.001832594396546483,-0.004123337101191282
1772725560448011800,7.79801171875,-0.010079269297420979,0.002443459117785096,-0.018784092739224434
1772725560457528600,7.807528564453125,-0.014966187067329884,-0.010995565913617611,-0.027947064489126205
1772725560467045400,7.81704541015625,-0.021685699000954628,-0.025045456364750862,-0.03588830679655075
1772725560476562200,7.826562255859375,-0.025350889191031456,-0.024434590712189674,-0.03894263133406639
1772725560486079000,7.836078857421875,-0.02412915788590908,-0.01954767294228077,-0.03649916872382164
1772725560495595800,7.845595703125,-0.018631376326084137,-0.008552107028663158,-0.02977965772151947
1772725560505112600,7.855112548828125,-0.013744457624852657,0.000610864779446274,-0.025503603741526604
1772725560514629400,7.86462939453125,-0.013133592903614044,0.006108647678047419,-0.021227551624178886
1772725560524146400,7.874146484375,-0.01435532234609127,0.004886918235570192,-0.0206166859716177
1772725560533663000,7.8836630859375,-0.011300998739898205,0.009162971749901772,-0.021838415414094925
1772725560543180000,7.893179931640625,-0.011300998739898205,0.025045456364750862,-0.02672533318400383
1772725560552696800,7.90269677734375,-0.01740964688360691,0.03481929376721382,-0.030390523374080658
1772725560562213600,7.912213623046875,-0.01802051067352295,0.030543239787220955,-0.030390523374080658
1772725560571730400,7.92173046875,-0.013744457624852657,0.014660755172371864,-0.031612250953912735
1772725560581247200,7.931247314453125,-0.005803215317428112,-0.007941242307424545,-0.031612250953912735
1772725560590764000,7.940763916015625,0.004581485874950886,-0.02871064469218254,-0.030390523374080658
1772725560600280800,7.95028076171875,0.01435532234609127,-0.04153880476951599,-0.025503603741526604
1772725560609798000,7.9597978515625,0.019242240116000175,-0.04764745384454727,-0.018173227086663246
1772725560619314400,7.969314453125,0.021685699000954628,-0.037262752652168274,-0.011453714221715927
1772725560628831500,7.97883154296875,0.019242240116000175,-0.015271619893610477,-0.005345067009329796
1772725560638348300,7.988348388671875,0.012522728182375431,0.0030543238390237093,-0.002290742937475443
1772725560647865000,7.997864990234375,0.005192350596189499,0.010995565913617611,0.0001527161948615685
1772725560657382000,8.0073818359375,0.0015271619195118546,0.012217295356094837,-0.004123337101191282
1772725560666898700,8.016898681640624,0.0027488914784044027,0.007941242307424545,-0.010842849500477314
1772725560676415500,8.02641552734375,0.005803215317428112,0.006108647678047419,-0.018784092739224434
1772725560685932300,8.035932373046874,0.006414080038666725,0.001221729558892548,-0.021227551624178886
1772725560695449300,8.045449462890625,0.004581485874950886,-0.009773836471140385,-0.013286309316754341
1772725560704966000,8.0549658203125,0.0009162971982732415,-0.020158538594841957,-0.003512472379952669
1772725560714483000,8.06448291015625,0.000305432389723137,-0.020769402384757996,0.007483093533664942
1772725560723999700,8.073999755859376,0.0021380267571657896,-0.017104214057326317,0.017867794260382652
1772725560733516500,8.0835166015625,0.010690134018659592,-0.012217295356094837,0.02153298258781433
1772725560743033300,8.093033447265626,0.018631376326084137,-0.009773836471140385,0.01908952370285988
1772725560752550100,8.102550048828125,0.0204639695584774,-0.007330377586185932,0.008704823441803455
1772725560762067000,8.11206689453125,0.016798781231045723,0.001832594396546483,-0.007177661173045635
1772725560771583700,8.121583740234374,0.004581485874950886,0.007941242307424545,-0.02367101050913334
1772725560781100800,8.131100830078125,-0.005803215317428112,0.010995565913617611,-0.037720900028944016
1772725560790617300,8.140617431640624,-0.00946840364485979,0.008552107028663158,-0.046883873641490936
1772725560800134400,8.150134521484375,-0.013744457624852657,0.004276053514331579,-0.054214250296354294
1772725560809651200,8.159651123046874,-0.016798781231045723,0.0030543238390237093,-0.05787943676114082
1772725560819168000,8.16916796875,-0.016798781231045723,0.006108647678047419,-0.057268574833869934
1772725560828684800,8.178684814453124,-0.01435532234609127,0.006108647678047419,-0.04993819445371628
1772725560838201600,8.18820166015625,-0.014966187067329884,0.007330377586185932,-0.0383317656815052
1772725560847718400,8.197718505859376,-0.013133592903614044,0.017715077847242355,-0.02367101050913334
1772725560857235200,8.207235107421875,-0.007024944759905338,0.03176496922969818,-0.009621120058000088
1772725560866752000,8.216751953125,-0.0021380267571657896,0.034208428114652634,0.0032070400193333626
1772725560876269000,8.22626904296875,-0.0009162971982732415,0.02932151034474373,0.012980876490473747
1772725560885785900,8.235785888671876,-0.000305432389723137,0.02260199747979641,0.01359174121171236
1772725560895302700,8.245302734375,0.0015271619195118546,0.010384701192378998,0.0062613640911877155
1772725560904819500,8.2548193359375,0.005803215317428112,-0.010384701192378998,-0.004734201822429895
1772725560914336300,8.264336181640624,0.004581485874950886,-0.02871064469218254,-0.014508038759231567
1772725560923853000,8.27385302734375,0.004581485874950886,-0.03787361457943916,-0.021227551624178886
1772725560933369900,8.283369873046874,0.007024944759905338,-0.029932374134659767,-0.024892739951610565
1772725560942886700,8.29288671875,0.010690134018659592,-0.006719512399286032,-0.024281874299049377
1772725560952403500,8.302403564453124,0.012522728182375431,0.010995565913617611,-0.016340631991624832
1772725560961920500,8.31192041015625,0.010690134018659592,0.009773836471140385,-0.0010690133785828948
1772725560971437000,8.32143701171875,0.010079269297420979,0.0030543238390237093,0.012370011769235134
1772725560980954000,8.3309541015625,0.010690134018659592,0.004276053514331579,0.017256930470466614
1772725560990471000,8.340470947265626,0.011911863461136818,0.012217295356094837,0.012370011769235134
1772725560999987700,8.34998779296875,0.011300998739898205,0.010995565913617611,0.005650499369949102
1772725561009504500,8.35950439453125,0.011911863461136818,0.004886918235570192,-0.00045814859913662076
1772725561019021300,8.369021240234375,0.01435532234609127,-0.008552107028663158,-0.006566796451807022
1772725561028538000,8.3785380859375,0.011911863461136818,-0.017104214057326317,-0.009010255336761475
1772725561038055000,8.388054931640625,0.004581485874950886,-0.01954767294228077,-0.006566796451807022
1772725561047572000,8.397572021484375,-0.0027488914784044027,-0.01588248461484909,-0.002290742937475443
1772725561057088500,8.407088623046874,-0.008857538923621178,-0.007941242307424545,0.0019853105768561363
1772725561066605600,8.41660546875,-0.013744457624852657,0.001221729558892548,0.0062613640911877155
1772725561076122400,8.426122314453124,-0.016187917441129684,0.009773836471140385,0.009926552884280682
1772725561085639200,8.43563916015625,-0.014966187067329884,0.01282816007733345,0.0154243353754282
1772725561095156000,8.445156005859374,-0.011911863461136818,0.010384701192378998,0.020311253145337105
1772725561104672800,8.4546728515625,-0.007024944759905338,0.007941242307424545,0.027030766010284424
1772725561114189600,8.464189453125,-0.0027488914784044027,0.0054977829568088055,0.027030766010284424
1772725561123706400,8.473706298828125,-0.0015271619195118546,0.009162971749901772,0.020311253145337105
1772725561133223400,8.483223388671876,-0.003359756199643016,0.014660755172371864,0.009315688163042068
1772725561142740000,8.492739990234375,-0.003970621153712273,0.01649334840476513,-0.00045814859913662076
1772725561152257000,8.502257080078126,0.0015271619195118546,0.013439024798572063,-0.0102319847792387
1772725561161773800,8.51177392578125,0.008246674202382565,0.000610864779446274,-0.016340631991624832
1772725561171290600,8.52129052734375,0.012522728182375431,-0.01954767294228077,-0.01695149764418602
1772725561180807400,8.530807373046875,0.011911863461136818,-0.0409279391169548,-0.010842849500477314
1772725561190324200,8.54032421875,0.01435532234609127,-0.05742128938436508,0.0025961752980947495
1772725561199841000,8.549841064453124,0.019242240116000175,-0.05192350596189499,0.0154243353754282
1772725561209357800,8.55935791015625,0.025350889191031456,-0.023823726922273636,0.02764163166284561
1772725561218875000,8.568875,0.02779434807598591,0.001832594396546483,0.03741546720266342
1772725561228391400,8.578391357421875,0.03145953640341759,0.01649334840476513,0.0435241162776947
1772725561237908500,8.587908447265624,0.029016077518463135,0.020158538594841957,0.04413498193025589
1772725561247425300,8.59742529296875,0.02779434807598591,0.011606430634856224,0.03497200831770897
1772725561256942000,8.606942138671876,0.021685699000954628,0.008552107028663158,0.012370011769235134
1772725561266459000,8.616458984375,0.011300998739898205,0.006719512399286032,-0.01695149764418602
1772725561275975700,8.6259755859375,-0.0015271619195118546,0.0054977829568088055,-0.04199695214629173
1772725561285492500,8.635492431640625,-0.010690134018659592,-0.004886918235570192,-0.05482511222362518
1772725561295009300,8.64500927734375,-0.010690134018659592,-0.014049889519810677,-0.053603384643793106
1772725561304526300,8.6545263671875,-0.004581485874950886,-0.010384701192378998,-0.043829549103975296
1772725561314043000,8.66404296875,0.0021380267571657896,-0.012217295356094837,-0.019394956529140472
1772725561323560000,8.673559814453125,0.010079269297420979,-0.020769402384757996,0.010537417605519295
1772725561333076700,8.68307666015625,0.013133592903614044,-0.023823726922273636,0.036193739622831345
1772725561342593500,8.692593505859374,0.014966187067329884,-0.008552107028663158,0.045967575162649155
1772725561352110300,8.7021103515625,0.011911863461136818,0.017715077847242355,0.04169152304530144
1772725561361627100,8.711627197265624,0.006414080038666725,0.039706211537122726,0.02519817277789116
1772725561371144000,8.72114404296875,0.0009162971982732415,0.03787361457943916,0.005039634648710489
1772725561380660700,8.73066064453125,-0.0009162971982732415,0.02260199747979641,-0.014508038759231567
1772725561390177500,8.740177490234375,-0.0027488914784044027,-0.001221729558892548,-0.02977965772151947
1772725561399694300,8.7496943359375,-0.004581485874950886,-0.02260199747979641,-0.03894263133406639
1772725561409211400,8.75921142578125,-0.007024944759905338,-0.0360410213470459,-0.041386090219020844
1772725561418728200,8.768728271484376,-0.012522728182375431,-0.0360410213470459,-0.0383317656815052
1772725561428245000,8.778244873046875,-0.016187917441129684,-0.020769402384757996,-0.031612250953912735
1772725561437761800,8.78776171875,-0.019242240116000175,-0.004276053514331579,-0.02367101050913334
1772725561447278600,8.797278564453125,-0.015577051788568497,0.012217295356094837,-0.01511890348047018
1772725561456795400,8.80679541015625,-0.010079269297420979,0.017104214057326317,-0.007177661173045635
1772725561466312200,8.816312255859375,-0.005192350596189499,0.007330377586185932,0.0025961752980947495
1772725561475829000,8.8258291015625,-0.0021380267571657896,-0.008552107028663158,0.009315688163042068
1772725561485345800,8.835345703125,-0.0009162971982732415,-0.01588248461484909,0.010537417605519295
1772725561494862800,8.84486279296875,-0.0021380267571657896,-0.018325943499803543,0.008704823441803455
1772725561504379600,8.854379638671874,-0.004581485874950886,-0.02260199747979641,0.0013744457392022014
1772725561513896400,8.863896484375,-0.016187917441129684,-0.03176496922969818,-0.008399390615522861
1772725561523413200,8.873413330078124,-0.02107483521103859,-0.043982263654470444,-0.017562363296747208
1772725561532930000,8.882929931640625,-0.01435532234609127,-0.050090912729501724,-0.022449281066656113
1772725561542446800,8.89244677734375,-0.007635809946805239,-0.04214967042207718,-0.024281874299049377
1772725561551963600,8.901963623046875,-0.0021380267571657896,-0.021380268037319183,-0.024892739951610565
1772725561561480400,8.91148046875,0.000305432389723137,-0.0054977829568088055,-0.019394956529140472
1772725561570997200,8.920997314453125,0.0027488914784044027,0.004886918235570192,-0.013286309316754341
1772725561580514000,8.93051416015625,0.0027488914784044027,-0.001221729558892548,-0.004123337101191282
1772725561590031000,8.940031005859375,0.003970621153712273,-0.01893680728971958,0.005650499369949102
1772725561599548000,8.9495478515625,0.003359756199643016,-0.03237583488225937,0.008093958720564842
1772725561609064700,8.959064697265624,0.0015271619195118546,-0.040317077189683914,0.0038179049734026194
1772725561618581500,8.96858154296875,-0.000305432389723137,-0.05070177838206291,-0.002290742937475443
1772725561628098300,8.978098388671874,-0.0027488914784044027,-0.0513126403093338,-0.009010255336761475
1772725561637615000,8.987614990234375,-0.004581485874950886,-0.03909534588456154,-0.013897174037992954
1772725561647132000,8.9971318359375,-0.003970621153712273,-0.02260199747979641,-0.012675444595515728
1772725561656648700,9.006648681640625,-0.0021380267571657896,-0.01954767294228077,-0.003512472379952669
1772725561666165500,9.01616552734375,0.0021380267571657896,-0.021991131827235222,0.0038179049734026194
1772725561675682600,9.0256826171875,0.003359756199643016,-0.014660755172371864,0.005650499369949102
1772725561685199400,9.035199462890626,0.004581485874950886,0.001832594396546483,0.0038179049734026194
1772725561694716200,9.044716064453125,0.0015271619195118546,0.012217295356094837,0.0001527161948615685
1772725561704233000,9.05423291015625,-0.0009162971982732415,0.013439024798572063,-0.004123337101191282
1772725561713749800,9.063749755859375,-0.0009162971982732415,0.009162971749901772,-0.005955931730568409
1772725561723266600,9.0732666015625,0.0027488914784044027,-0.001832594396546483,-0.007177661173045635
1772725561732783400,9.082783447265625,0.006414080038666725,-0.01954767294228077,-0.005345067009329796
1772725561742300200,9.092300048828125,0.007635809946805239,-0.031154103577136993,-0.006566796451807022
1772725561751817000,9.10181689453125,0.003970621153712273,-0.03176496922969818,-0.011453714221715927
1772725561761334000,9.111333984375,-0.0009162971982732415,-0.02260199747979641,-0.02306014485657215
1772725561770850800,9.120850830078124,-0.0027488914784044027,-0.01649334840476513,-0.03894263133406639
1772725561780367600,9.13036767578125,-0.0009162971982732415,-0.029932374134659767,-0.06643154472112656
1772725561789884400,9.139884521484374,-0.0015271619195118546,-0.06597339361906052,-0.10674861818552017
1772725561799401200,9.149401123046875,-0.00946840364485979,-0.12400554865598679,-0.1415679156780243
1772725561808918000,9.15891796875,-0.011911863461136818,-0.16798780858516693,-0.16294817626476288
1772725561818434800,9.168434814453125,-0.0015271619195118546,-0.17715078592300415,-0.1623373180627823
1772725561827951600,9.17795166015625,0.007635809946805239,-0.13133592903614044,-0.14706569910049438
1772725561837468400,9.187468505859375,-0.004581485874950886,-0.07269290834665298,-0.10980294644832611
1772725561846985500,9.1969853515625,-0.008857538923621178,-0.03848448023200035,-0.05177079141139984
1772725561856502300,9.206502197265625,0.005803215317428112,-0.021380268037319183,0.009315688163042068
1772725561866019000,9.21601904296875,0.022907428443431854,-0.008552107028663158,0.07040216773748398
1772725561875536000,9.225535888671875,0.04001164436340332,0.008552107028663158,0.12782345712184906
1772725561885052700,9.235052734375,0.054672397673130035,0.039706211537122726,0.17119485139846802
1772725561894569500,9.244569580078124,0.054672397673130035,0.08002328872680664,0.18890993297100067
1772725561904086300,9.254086181640625,0.03940077871084213,0.13255766034126282,0.1663079410791397
1772725561913603000,9.26360302734375,0.016798781231045723,0.14538581669330597,0.10277800261974335
1772725561923119900,9.273119873046875,-0.0021380267571657896,0.05742128938436508,0.0032070400193333626
1772725561932637000,9.282636962890624,0.005803215317428112,-0.1081230640411377,-0.10980294644832611
1772725561942153700,9.29215380859375,0.019242240116000175,-0.2938259541988373,-0.21120649576187134
1772725561951670500,9.30167041015625,0.007024944759905338,-0.43004879355430603,-0.2735147178173065
1772725561961187300,9.311187255859375,-0.026572618633508682,-0.4422661066055298,-0.27229297161102295
