time,seconds_elapsed,z,y,x
1772726468644931800,0.102931884765625,0,0,0
1772726468654449200,0.11244921875,-0.062363624572753906,-0.0029375553131103516,0.017236921936273575
1772726468663967000,0.121967041015625,-0.12640666961669922,-0.0023839473724365234,0.03619881346821785
1772726468673484300,0.131484375,-0.19801902770996094,0.008187055587768555,0.04052596539258957
1772726468683001900,0.141001953125,-0.20452880859375,0.023624420166015625,0.04788076877593994
1772726468692519400,0.15051953125,-0.12206363677978516,0.028483152389526367,0.00615293625742197
1772726468702037000,0.160037109375,-0.02322864532470703,0.011523962020874023,-0.048431821167469025
1772726468711554600,0.169554443359375,0.013647079467773438,-0.03230142593383789,-0.09412059187889099
1772726468721072000,0.179072021484375,0.0162353515625,-0.01503753662109375,-0.12469455599784851
1772726468730589700,0.188589599609375,0.0267791748046875,0.003821849822998047,-0.12095344811677933
1772726468740107300,0.198107177734375,0.0011196136474609375,0.011742591857910156,-0.0921686515212059
1772726468749624800,0.207624755859375,0.04050254821777344,0.027313709259033203,-0.11371778696775436
1772726468759142400,0.217142333984375,0.1428375244140625,0.058655500411987305,-0.11502634733915329
1772726468768660000,0.226659912109375,0.2652091979980469,0.03297710418701172,-0.09286167472600937
1772726468778177500,0.236177490234375,0.3407611846923828,0.011059761047363281,-0.07522653043270111
1772726468787695000,0.245695068359375,0.3912239074707031,-0.028580904006958008,-0.12632665038108826
1772726468797212700,0.255212646484375,0.4276695251464844,0.006214141845703125,-0.17856058478355408
1772726468806730000,0.26472998046875,0.4285411834716797,0.029744386672973633,-0.18573486804962158
1772726468816247600,0.27424755859375,0.44782161712646484,0.015224695205688477,-0.16986435651779175
1772726468825765000,0.28376513671875,0.4459047317504883,-0.033275604248046875,-0.17135214805603027
1772726468835282700,0.29328271484375,0.46007633209228516,-0.025418758392333984,-0.15408791601657867
1772726468844800300,0.30280029296875,0.43245792388916016,-0.08021998405456543,-0.1967008411884308
1772726468854317800,0.31231787109375,0.3691549301147461,-0.07373213768005371,-0.24109473824501038
1772726468863835400,0.32183544921875,0.24117565155029297,-0.06957149505615234,-0.3017333149909973
1772726468873353000,0.33135302734375,0.04537200927734375,-0.08219385147094727,-0.24306727945804596
1772726468882870500,0.34087060546875,-0.1318511962890625,-0.10015702247619629,-0.15175963938236237
1772726468892388000,0.35038818359375,-0.2506561279296875,-0.14755964279174805,-0.11396752297878265
1772726468901905400,0.359905517578125,-0.28337860107421875,-0.1266765594482422,-0.08263570070266724
1772726468911423200,0.36942333984375,-0.2697715759277344,-0.06805539131164551,-0.14225345849990845
1772726468920940800,0.37894091796875,-0.2759275436401367,-0.07269024848937988,-0.14284257590770721
1772726468930458000,0.3884580078125,-0.2640409469604492,-0.07864737510681152,-0.11055721342563629
1772726468939976000,0.397975830078125,-0.26258182525634766,-0.07172036170959473,-0.06368948519229889
1772726468949493200,0.4074931640625,-0.25727272033691406,-0.08018183708190918,-0.06279852986335754
1772726468959010800,0.4170107421875,-0.2342510223388672,-0.04321622848510742,-0.0713559240102768
1772726468968528400,0.4265283203125,-0.2196044921875,-0.04098844528198242,-0.09006711840629578
1772726468978046000,0.4360458984375,-0.1924152374267578,-0.029981136322021484,-0.12354245781898499
1772726468987563500,0.4455634765625,-0.13442420959472656,-0.019512176513671875,-0.11045615375041962
1772726468997081000,0.4550810546875,-0.0254364013671875,-0.014093875885009766,-0.057195767760276794
1772726469006598700,0.4645986328125,0.19214439392089844,0.020266294479370117,-0.05164983868598938
1772726469016116200,0.4741162109375,0.3485727310180664,0.0021746158599853516,-0.1342475265264511
1772726469025633800,0.4836337890625,0.3641777038574219,-0.004864215850830078,-0.07292328774929047
1772726469035151400,0.4931513671875,0.279693603515625,0.01750779151916504,0.006637290120124817
1772726469044669000,0.5026689453125,0.1814126968383789,0.012627124786376953,0.016622543334960938
1772726469054186500,0.5121865234375,0.11156177520751953,0.025623321533203125,-0.042342692613601685
1772726469063704000,0.5217041015625,0.09290409088134766,0.04894661903381348,-0.04410029947757721
1772726469073221400,0.531221435546875,0.10805225372314453,0.06809735298156738,-0.03312079608440399
1772726469082739000,0.540739013671875,0.10961723327636719,0.06408286094665527,-0.0374918133020401
1772726469092256800,0.5502568359375,0.07660198211669922,0.02611994743347168,-0.03367181122303009
1772726469101774000,0.559774169921875,0.06829452514648438,0.008718013763427734,-0.034039586782455444
1772726469111291600,0.569291748046875,0.06764411926269531,-0.014032125473022461,-0.04103472828865051
1772726469120809200,0.578809326171875,0.0743856430053711,-0.013682126998901367,-0.10482418537139893
1772726469130326800,0.588326904296875,0.01522064208984375,-0.010843515396118164,-0.1357908546924591
1772726469139844400,0.59784423828125,-0.11603641510009766,-0.03289198875427246,-0.11316263675689697
1772726469149362000,0.60736181640625,-0.13717365264892578,-0.009142875671386719,-0.07154795527458191
1772726469158879500,0.61687939453125,-0.08987712860107422,-0.032674312591552734,-0.05579754710197449
1772726469168397000,0.62639697265625,0.036749839782714844,-0.06599235534667969,-0.0365431010723114
1772726469177914600,0.63591455078125,0.12406730651855469,-0.1024630069732666,-0.05217832326889038
1772726469187432200,0.64543212890625,0.09992122650146484,-0.09972381591796875,-0.06161820888519287
1772726469196949800,0.65494970703125,0.05068492889404297,-0.08144068717956543,-0.09926119446754456
1772726469206467000,0.664467041015625,-0.011730194091796875,-0.08017563819885254,-0.10532140731811523
1772726469215985000,0.67398486328125,-0.014367103576660156,-0.0833883285522461,-0.10378643870353699
1772726469225502200,0.683502197265625,0.010972023010253906,-0.0810699462890625,-0.1653100848197937
1772726469235019800,0.693019775390625,0.01645374298095703,-0.11022734642028809,-0.18083834648132324
1772726469244537300,0.702537353515625,-0.03538990020751953,-0.10407829284667969,-0.17915868759155273
1772726469254055000,0.712054931640625,-0.09409332275390625,-0.1057126522064209,-0.15006962418556213
1772726469263572500,0.721572509765625,-0.08418083190917969,-0.105804443359375,-0.13477596640586853
1772726469273090000,0.731090087890625,-0.11507034301757812,-0.10438203811645508,-0.14609411358833313
1772726469282607600,0.740607666015625,-0.1436901092529297,-0.11333608627319336,-0.13909322023391724
1772726469292125200,0.750125244140625,-0.1840667724609375,-0.0833430290222168,-0.11572608351707458
1772726469301642800,0.759642822265625,-0.22413921356201172,-0.05995750427246094,-0.09480205178260803
1772726469311160300,0.769160400390625,-0.14616775512695312,-0.05985283851623535,-0.04415866732597351
1772726469320678000,0.778677978515625,0.0033626556396484375,-0.08558130264282227,-0.034021198749542236
1772726469330195500,0.788195556640625,0.0986795425415039,-0.12296152114868164,-0.02436724305152893
1772726469339713000,0.797713134765625,0.15495967864990234,-0.12744569778442383,-0.024348407983779907
1772726469349230600,0.807230712890625,0.1469745635986328,-0.1183481216430664,0.025763094425201416
1772726469358748000,0.816747802734375,0.09696578979492188,-0.0746164321899414,0.05552056431770325
1772726469368265700,0.826265625,0.047794342041015625,-0.06684136390686035,0.11118993163108826
1772726469377783000,0.835782958984375,0.027713775634765625,-0.026141881942749023,0.12578049302101135
1772726469387300600,0.845300537109375,0.024454116821289062,-0.014198064804077148,0.14705827832221985
1772726469396818200,0.854818115234375,0.011895179748535156,-0.03539609909057617,0.12720094621181488
1772726469406335700,0.864335693359375,-0.0073757171630859375,-0.03767991065979004,0.12742803990840912
1772726469415853300,0.873853271484375,0.016158103942871094,-0.02135944366455078,0.12134295701980591
1772726469425371000,0.883370849609375,0.011135101318359375,-0.033684492111206055,0.13451997935771942
1772726469434888400,0.892888427734375,0.060400962829589844,0.005717039108276367,0.09993094205856323
1772726469444406000,0.902406005859375,0.1277751922607422,-0.01231241226196289,0.05596640706062317
1772726469453923600,0.911923583984375,0.11676883697509766,0.01372671127319336,0.03437387943267822
1772726469463441200,0.921441162109375,0.1205587387084961,0.012236833572387695,0.0019788742065429688
1772726469472958700,0.930958740234375,0.11770057678222656,0.02602100372314453,-0.039635270833969116
1772726469482476300,0.940476318359375,0.11057376861572266,0.05738687515258789,-0.09488293528556824
1772726469491993900,0.949993896484375,0.1201925277709961,0.06192445755004883,-0.11428588628768921
1772726469501511400,0.959511474609375,0.08952808380126953,0.0690605640411377,-0.12385919690132141
1772726469511028700,0.96902880859375,0.044943809509277344,0.058046579360961914,-0.08388185501098633
1772726469520546600,0.978546630859375,0.007708549499511719,0.055440425872802734,-0.06569424271583557
1772726469530064000,0.98806396484375,-0.010622024536132812,0.05190324783325195,-0.07843020558357239
1772726469539581400,0.99758154296875,0.022840499877929688,0.020931243896484375,-0.12119200825691223
1772726469549099000,1.00709912109375,0.10991573333740234,0.01389455795288086,-0.1489204466342926
1772726469558616600,1.016616455078125,0.20997333526611328,-0.040932655334472656,-0.12269294261932373
1772726469568134100,1.026134033203125,0.24531841278076172,-0.09615755081176758,-0.10011830925941467
1772726469577651700,1.035651611328125,0.20744705200195312,-0.09717750549316406,-0.0665006935596466
1772726469587169300,1.045169189453125,0.1282329559326172,-0.09906435012817383,-0.039447635412216187
1772726469596686800,1.054686767578125,0.05526542663574219,-0.09432458877563477,-0.011566221714019775
1772726469606204400,1.064204345703125,0.0069580078125,-0.08943581581115723,0.04651731252670288
1772726469615722000,1.073721923828125,0.013563156127929688,-0.11520934104919434,0.037513524293899536
1772726469625239600,1.083239501953125,0.006160736083984375,-0.0727994441986084,0.029680222272872925
1772726469634757000,1.092757080078125,0.008635520935058594,-0.07189249992370605,0.060633450746536255
1772726469644274700,1.102274658203125,-0.03819084167480469,-0.08083152770996094,0.10017210245132446
1772726469653792300,1.111792236328125,-0.11012458801269531,-0.07790923118591309,0.0653136670589447
1772726469663309600,1.1213095703125,-0.17872333526611328,-0.0674440860748291,0.05426707863807678
1772726469672827400,1.130827392578125,-0.1877593994140625,-0.006723880767822266,0.06896431744098663
1772726469682344700,1.1403447265625,-0.16413116455078125,-0.00706934928894043,0.08357156813144684
1772726469691862300,1.1498623046875,-0.09643936157226562,0.012099981307983398,0.07013566792011261
1772726469701379800,1.1593798828125,-0.09833908081054688,0.008002519607543945,0.05684936046600342
1772726469710897400,1.1688974609375,-0.11930084228515625,0.009377717971801758,0.0696089118719101
1772726469720415000,1.1784150390625,-0.1165475845336914,0.0346982479095459,0.028094172477722168
1772726469729932500,1.1879326171875,-0.05493927001953125,0.05704998970031738,0.06260907649993896
1772726469739450000,1.1974501953125,0.0294189453125,0.05722212791442871,0.01901465654373169
1772726469748967700,1.2069677734375,0.07502555847167969,0.025946617126464844,0.0011838078498840332
1772726469758485200,1.2164853515625,0.15566253662109375,-0.0014362335205078125,-0.005112171173095703
1772726469768002800,1.2260029296875,0.25212764739990234,0.01448965072631836,0.03312459588050842
1772726469777520400,1.235520263671875,0.2627744674682617,0.012298822402954102,-0.007931560277938843
1772726469787037700,1.24503759765625,0.20978736877441406,-0.02310800552368164,0.016193687915802002
1772726469796555500,1.254555419921875,0.1103668212890625,-0.03845810890197754,0.01844969391822815
1772726469806072800,1.26407275390625,0.021593093872070312,-0.00762486457824707,0.0031727850437164307
1772726469815590400,1.27359033203125,-0.09911632537841797,-0.004159450531005859,-0.019560903310775757
1772726469825108000,1.28310791015625,-0.1428813934326172,-0.013802289962768555,-0.01696452498435974
1772726469834625500,1.29262548828125,-0.1366434097290039,-0.03692269325256348,0.0033330321311950684
1772726469844143000,1.30214306640625,-0.10208511352539062,-0.024739503860473633,-0.02014833688735962
1772726469853660700,1.31166064453125,-0.09830951690673828,-0.03249311447143555,-0.04949727654457092
1772726469863178200,1.32117822265625,-0.1035604476928711,-0.008306026458740234,-0.12742212414741516
1772726469872695800,1.33069580078125,-0.1414470672607422,0.017283201217651367,-0.1663399338722229
1772726469882213400,1.34021337890625,-0.148162841796875,0.01195073127746582,-0.1650916039943695
1772726469891731000,1.34973095703125,-0.14811992645263672,-0.0323483943939209,-0.14413753151893616
1772726469901248500,1.35924853515625,-0.09930896759033203,-0.06506967544555664,-0.1353939175605774
1772726469910766000,1.36876611328125,-0.030740737915039062,-0.04179573059082031,-0.1339881420135498
1772726469920283600,1.37828369140625,-0.02261829376220703,-0.01549077033996582,-0.09682929515838623
1772726469929801200,1.38780126953125,0.015766143798828125,-0.0055696964263916016,-0.09543412923812866
1772726469939318500,1.397318603515625,0.03957366943359375,0.0038604736328125,-0.06677648425102234
1772726469948836400,1.40683642578125,0.08696365356445312,-0.002045154571533203,-0.025771230459213257
1772726469958353700,1.416353759765625,0.11762332916259766,-0.027953147888183594,-0.0055519044399261475
1772726469967871200,1.425871337890625,0.1153106689453125,0.011325597763061523,0.01564335823059082
1772726469977388800,1.435388916015625,0.059220314025878906,0.028181076049804688,0.04307669401168823
1772726469986906400,1.44490625,0.03707122802734375,0.051691532135009766,0.03518223762512207
1772726469996424000,1.454423828125,0.022260665893554688,0.04436635971069336,0.031240403652191162
1772726470005941500,1.46394140625,0.03361320495605469,0.10053110122680664,0.04312407970428467
1772726470015459000,1.473458984375,0.05658435821533203,0.05913424491882324,0.0685427188873291
1772726470024976600,1.4829765625,0.08635616302490234,0.05106091499328613,0.05369207262992859
1772726470034494200,1.492494140625,0.08756542205810547,0.09205102920532227,0.012847542762756348
1772726470044011800,1.50201171875,0.06523895263671875,0.08754348754882812,-0.002091526985168457
1772726470053529300,1.511529296875,-0.0416107177734375,0.08594727516174316,0.023099541664123535
1772726470063047000,1.521046875,-0.08839702606201172,0.0670011043548584,0.05278405547142029
1772726470072564500,1.530564453125,-0.059668540954589844,0.06869149208068848,0.04927271604537964
1772726470082082000,1.54008203125,0.024910926818847656,0.07083249092102051,0.00907638669013977
1772726470091599400,1.549599365234375,0.12255382537841797,0.043947696685791016,-0.059437572956085205
1772726470101117200,1.5591171875,0.20505142211914062,0.001886606216430664,-0.11686679720878601
1772726470110634500,1.568634521484375,0.2279834747314453,-0.024834394454956055,-0.1324629783630371
1772726470120152000,1.578152099609375,0.2016620635986328,-0.03625082969665527,-0.187056303024292
1772726470129669600,1.587669677734375,0.15025043487548828,-0.048661231994628906,-0.1793871521949768
1772726470139187200,1.597187255859375,0.128082275390625,-0.05209493637084961,-0.16683053970336914
1772726470148704800,1.606704833984375,0.09920215606689453,-0.07198762893676758,-0.14837568998336792
1772726470158222300,1.616222412109375,0.058818817138671875,-0.09335756301879883,-0.09755897521972656
1772726470167740000,1.625739990234375,-0.0071239471435546875,-0.09463095664978027,-0.04058876633644104
1772726470177257500,1.635257568359375,-0.08430957794189453,-0.0850212574005127,-0.013393938541412354
1772726470186775000,1.644775146484375,-0.14188098907470703,-0.14465069770812988,-0.07200470566749573
1772726470196292600,1.654292724609375,-0.14475536346435547,-0.0445404052734375,0.012440711259841919
1772726470205810200,1.66381005859375,-0.1548309326171875,-0.0183718204498291,-0.01371532678604126
1772726470215327700,1.67332763671875,-0.1365489959716797,-0.02773571014404297,-0.012876391410827637
1772726470224845300,1.68284521484375,-0.04775810241699219,-0.032723426818847656,-0.0182134211063385
1772726470234363000,1.69236279296875,-0.01183319091796875,-0.03389406204223633,-0.039734095335006714
1772726470243880200,1.701880126953125,0.009795188903808594,-0.04559326171875,-0.05175226926803589
1772726470253398000,1.71139794921875,0.005600929260253906,-0.027597427368164062,-0.04692929983139038
1772726470262915300,1.720915283203125,-0.0006380081176757812,0.005971670150756836,-0.05138099193572998
1772726470272433000,1.730432861328125,-0.006758689880371094,0.0036308765411376953,-0.03946849703788757
1772726470281950500,1.739950439453125,-0.04129505157470703,0.016132831573486328,-0.03533315658569336
1772726470291468000,1.749468017578125,-0.09937477111816406,0.022861003875732422,-0.02694624662399292
1772726470300985600,1.758985595703125,-0.15253829956054688,0.04320788383483887,-0.004847347736358643
1772726470310503200,1.768503173828125,-0.20072269439697266,0.053102970123291016,-0.006286591291427612
1772726470320020700,1.778020751953125,-0.1591167449951172,0.04748272895812988,-0.0030081570148468018
1772726470329538300,1.787538330078125,-0.09253311157226562,0.030724287033081055,-0.000028967857360839844
1772726470339055900,1.797055908203125,-0.03389549255371094,0.011305093765258789,0.024057984352111816
1772726470348573400,1.806573486328125,0.047722816467285156,0.012318849563598633,0.04582968354225159
1772726470358091000,1.816091064453125,0.08849334716796875,-0.023303747177124023,0.07923701405525208
1772726470367608600,1.825608642578125,0.1315021514892578,-0.029174327850341797,0.06314218044281006
1772726470377126100,1.835126220703125,0.08482170104980469,-0.026591777801513672,0.062291890382766724
1772726470386643700,1.844643798828125,0.020216941833496094,-0.06425762176513672,0.07177922129631042
1772726470396161000,1.8541611328125,-0.052814483642578125,-0.03267359733581543,0.07282772660255432
1772726470405678800,1.863678955078125,-0.018739700317382812,-0.015615463256835938,0.11491590738296509
1772726470415196200,1.873196044921875,0.08575057983398438,0.01660299301147461,0.038747042417526245
1772726470424713700,1.882713623046875,0.15390872955322266,0.03221273422241211,-0.03693249821662903
1772726470434231300,1.892231201171875,0.09688091278076172,0.026786327362060547,-0.09194561839103699
1772726470443748900,1.901748779296875,-0.05770397186279297,0.03212714195251465,-0.10338082909584045
1772726470453266400,1.911266357421875,-0.20765399932861328,0.03330397605895996,-0.0782116949558258
1772726470462784000,1.920783935546875,-0.30894947052001953,0.0508732795715332,0.0117875337600708
1772726470472301600,1.930301513671875,-0.35815906524658203,0.029332876205444336,0.07869455218315125
1772726470481819100,1.939819091796875,-0.3280296325683594,0.04495096206665039,0.12076330184936523
1772726470491336700,1.949336669921875,-0.23601531982421875,0.04449629783630371,0.1268431544303894
1772726470500854300,1.958854248046875,-0.09896373748779297,0.03358888626098633,0.14461734890937805
1772726470510371800,1.968371826171875,0.014574050903320312,0.004114866256713867,0.1214078962802887
1772726470519889400,1.977889404296875,0.11480331420898438,-0.014095306396484375,0.07901248335838318
1772726470529407000,1.987406982421875,0.21878719329833984,-0.019741058349609375,0.08222070336341858
1772726470538924500,1.996924560546875,0.25623035430908203,-0.009144306182861328,0.04673495888710022
1772726470548441900,2.00644189453125,0.28940391540527344,-0.017820358276367188,0.03218504786491394
1772726470557959700,2.015959716796875,0.20755863189697266,0.0069010257720947266,0.02621304988861084
1772726470567477000,2.02547705078125,0.11579704284667969,0.02055954933166504,0.046635180711746216
1772726470576994600,2.03499462890625,0.023146629333496094,0.033992767333984375,0.05353531241416931
1772726470586512100,2.04451220703125,-0.05674457550048828,0.034216880798339844,0.043609023094177246
1772726470596029700,2.05402978515625,-0.13367271423339844,0.04557466506958008,0.011096328496932983
1772726470605547300,2.06354736328125,-0.1747598648071289,0.049275875091552734,0.011988699436187744
1772726470615064800,2.07306494140625,-0.13329696655273438,0.0379025936126709,0.030634433031082153
1772726470624582400,2.08258251953125,-0.06671428680419922,0.017792463302612305,0.05372217297554016
1772726470634100000,2.092099853515625,0.027233123779296875,0.007054805755615234,0.05500265955924988
1772726470643617500,2.101617431640625,0.09418487548828125,-0.009383916854858398,0.056434810161590576
1772726470653135000,2.111135009765625,0.12286567687988281,0.015409469604492188,-0.008670449256896973
1772726470662652700,2.120652587890625,0.09038257598876953,0.04546546936035156,-0.01685810089111328
1772726470672170200,2.130170166015625,0.07290077209472656,0.03406214714050293,-0.022928744554519653
1772726470681687800,2.139687744140625,0.025262832641601562,0.038951873779296875,-0.010034739971160889
1772726470691205400,2.149205322265625,-0.00279998779296875,0.01799154281616211,-0.002054750919342041
1772726470700722700,2.15872265625,-0.03533935546875,0.009733200073242188,-0.020495951175689697
1772726470710240500,2.168240478515625,-0.006403923034667969,0.04689621925354004,-0.039168745279312134
1772726470719757800,2.1777578125,0.0030813217163085938,0.04850339889526367,-0.05540376901626587
1772726470729275400,2.187275390625,0.009963035583496094,0.05970120429992676,-0.02934134006500244
1772726470738793000,2.19679296875,-0.016233444213867188,0.02371382713317871,-0.01547124981880188
1772726470748310500,2.206310546875,-0.025420188903808594,0.03758120536804199,-0.022084176540374756
1772726470757828000,2.215828125,-0.053168296813964844,0.015771150588989258,-0.02040386199951172
1772726470767345700,2.225345703125,-0.06155204772949219,0.03422045707702637,-0.003815978765487671
1772726470776863200,2.23486328125,-0.027306556701660156,0.03797125816345215,-0.019761383533477783
1772726470786380800,2.244380859375,0.05591773986816406,0.022450685501098633,-0.0638299286365509
1772726470795898400,2.2538984375,0.04129981994628906,-0.01185750961303711,-0.0756860077381134
1772726470805416000,2.263416015625,-0.04385948181152344,-0.05233120918273926,-0.06774377822875977
1772726470814933500,2.27293359375,-0.09730815887451172,-0.023198843002319336,-0.051226675510406494
1772726470824451000,2.282451171875,-0.11032390594482422,-0.02390122413635254,-0.05128192901611328
1772726470833968600,2.29196875,-0.10933113098144531,0.007009029388427734,-0.04078760743141174
1772726470843486200,2.301486328125,-0.10154056549072266,0.012321710586547852,-0.019919753074645996
1772726470853003500,2.31100341796875,-0.09627342224121094,-0.02459430694580078,-0.008013933897018433
1772726470862521300,2.320521240234375,-0.03448486328125,-0.0424041748046875,-0.005446135997772217
1772726470872038700,2.33003857421875,0.06883716583251953,-0.06051778793334961,-0.029188841581344604
1772726470881556200,2.33955615234375,0.08593463897705078,-0.06956839561462402,-0.020438045263290405
1772726470891073800,2.34907373046875,0.1218271255493164,-0.055632829666137695,-0.01425856351852417
1772726470900591400,2.35859130859375,0.15042686462402344,-0.02418041229248047,-0.023070484399795532
1772726470910109000,2.36810888671875,0.15075016021728516,-0.025120258331298828,-0.04437148571014404
1772726470919626500,2.37762646484375,0.06428241729736328,-0.03863978385925293,0.006824910640716553
1772726470929144000,2.38714404296875,-0.011281013488769531,-0.021476268768310547,0.0713450014591217
1772726470938661600,2.39666162109375,-0.09762382507324219,0.029047489166259766,0.05697619915008545
1772726470948179200,2.40617919921875,-0.11957454681396484,0.05203723907470703,0.08049428462982178
1772726470957696800,2.41569677734375,-0.1488800048828125,0.07884860038757324,0.07840335369110107
1772726470967214300,2.42521435546875,-0.12407112121582031,0.061940670013427734,0.06787320971488953
1772726470976732000,2.43473193359375,-0.0010023117065429688,0.08820438385009766,0.07028058171272278
1772726470986249500,2.44424951171875,0.04960441589355469,0.040775299072265625,0.07626426219940186
1772726470995767000,2.45376708984375,0.08098220825195312,0.004886150360107422,0.08563247323036194
1772726471005284400,2.463284423828125,0.13356590270996094,-0.003664255142211914,0.06411078572273254
1772726471014802200,2.47280224609375,0.17647457122802734,0.0025911331176757812,0.055755436420440674
1772726471024319500,2.482319580078125,0.1768045425415039,0.004956960678100586,-0.0004375278949737549
1772726471033837000,2.491837158203125,0.128082275390625,0.013393640518188477,-0.03903698921203613
1772726471043354600,2.501354736328125,0.05447578430175781,0.00008392333984375,-0.03412741422653198
1772726471052872200,2.5108720703125,-0.029753684997558594,-0.015148401260375977,-0.0318523645401001
1772726471062389800,2.5203896484375,-0.08484840393066406,-0.03836941719055176,-0.012143135070800781
1772726471071907300,2.5299072265625,-0.14682388305664062,-0.02649211883544922,0.012799203395843506
1772726471081425000,2.5394248046875,-0.16620731353759766,-0.01282191276550293,0.02930942177772522
1772726471090942500,2.5489423828125,-0.17183876037597656,0.011809110641479492,0.05918341875076294
1772726471100460000,2.5584599609375,-0.10955524444580078,-0.0027854442596435547,0.09381076693534851
1772726471109977600,2.5679775390625,-0.04601764678955078,-0.019163131713867188,0.10791397094726562
1772726471119495200,2.5774951171875,0.038041114807128906,-0.01970648765563965,0.08066552877426147
1772726471129012700,2.5870126953125,0.10236454010009766,-0.026241540908813477,0.0680621862411499
1772726471138530300,2.5965302734375,0.11427783966064453,-0.03861570358276367,0.03141477704048157
1772726471148048000,2.6060478515625,0.06512832641601562,-0.025811433792114258,0.008923441171646118
1772726471157565200,2.615565185546875,0.047501564025878906,-0.006473541259765625,0.026759833097457886
1772726471167082800,2.625082763671875,0.006505012512207031,0.0035796165466308594,0.04265686869621277
1772726471176600300,2.634600341796875,-0.012732505798339844,-0.0001983642578125,0.059732019901275635
1772726471186118000,2.644117919921875,-0.0010862350463867188,0.022149324417114258,0.06560853123664856
1772726471195635500,2.653635498046875,0.09520530700683594,0.0060465335845947266,0.030814707279205322
1772726471205153000,2.663153076171875,0.15009689331054688,0.008327960968017578,-0.04693639278411865
1772726471214670600,2.672670654296875,0.13367462158203125,-0.004206418991088867,-0.07044488191604614
1772726471224188200,2.682188232421875,0.10349559783935547,-0.007452726364135742,-0.03317728638648987
1772726471233705700,2.691705810546875,0.06922721862792969,0.005551338195800781,-0.0550941526889801
1772726471243223300,2.701223388671875,0.01909923553466797,0.001928567886352539,-0.016536563634872437
1772726471252740900,2.710740966796875,-0.04910850524902344,0.015266180038452148,-0.02427440881729126
1772726471262258400,2.720258544921875,-0.09274959564208984,-0.006483316421508789,-0.02122575044631958
1772726471271776000,2.72977587890625,-0.1075906753540039,0.012617826461791992,-0.003784656524658203
1772726471281293300,2.739293212890625,-0.05183696746826172,0.0012896060943603516,-0.04905658960342407
1772726471290811100,2.74881103515625,-0.011316299438476562,-0.0166475772857666,-0.06483715772628784
1772726471300328700,2.75832861328125,-0.02333545684814453,-0.04593849182128906,-0.08148735761642456
1772726471309846000,2.767845947265625,-0.032896995544433594,-0.046292781829833984,-0.06764504313468933
1772726471319363800,2.77736376953125,-0.06828689575195312,-0.027441978454589844,-0.041556596755981445
1772726471328881200,2.786881103515625,-0.05125904083251953,0.0004582405090332031,-0.024422883987426758
1772726471338398700,2.796398681640625,-0.008508682250976562,-0.012377738952636719,-0.04708176851272583
1772726471347916300,2.805916259765625,0.0007152557373046875,-0.0017957687377929688,-0.02453702688217163
1772726471357433900,2.815433837890625,0.031221389770507812,-0.03203916549682617,-0.009079813957214355
1772726471366951400,2.824951416015625,0.03547954559326172,-0.00569462776184082,-0.012696117162704468
1772726471376469000,2.834468994140625,0.01842021942138672,-0.029056310653686523,-0.01899009943008423
1772726471385986600,2.843986572265625,0.0038614273071289062,-0.011661529541015625,-0.03922981023788452
1772726471395504000,2.853504150390625,0.005831718444824219,-0.019905805587768555,-0.01656612753868103
1772726471405021700,2.863021728515625,-0.023018836975097656,0.005469322204589844,-0.015397369861602783
1772726471414539300,2.872539306640625,-0.011425971984863281,0.014124393463134766,-0.006717592477798462
1772726471424056800,2.882056884765625,0.02120685577392578,0.022478342056274414,-0.01233375072479248
1772726471433574400,2.891574462890625,0.06052589416503906,0.025449037551879883,-0.06308141350746155
1772726471443092000,2.901092041015625,0.049933433532714844,0.002005338668823242,-0.049953192472457886
1772726471452609500,2.910609619140625,0.020761489868164062,0.03750419616699219,-0.02825787663459778
1772726471462126800,2.920126953125,-0.0009059906005859375,-0.0005431175231933594,-0.010175555944442749
1772726471471644700,2.929644775390625,-0.02467060089111328,0.025825977325439453,0.016811877489089966
1772726471481162000,2.939161865234375,-0.0033969879150390625,0.021383285522460938,0.013047605752944946
1772726471490679600,2.948679443359375,0.01982402801513672,0.021933794021606445,0.01458507776260376
1772726471500197000,2.958197021484375,0.04978370666503906,0.01300191879272461,0.005232751369476318
1772726471509714700,2.967714599609375,0.0723724365234375,0.0014820098876953125,0.006329149007797241
1772726471519232300,2.977232177734375,0.08538436889648438,-0.008018255233764648,0.03361564874649048
1772726471528749800,2.986749755859375,0.06301021575927734,-0.050708770751953125,0.04818081855773926
1772726471538267400,2.996267333984375,0.05983257293701172,-0.03639864921569824,0.05648699402809143
1772726471547785000,3.005784912109375,0.04480457305908203,-0.012629508972167969,0.02869829535484314
1772726471557302500,3.015302490234375,-0.016939163208007812,-0.01053476333618164,0.00247916579246521
1772726471566820000,3.024820068359375,0.037987709045410156,0.019011259078979492,0.02982926368713379
1772726471576337700,3.034337646484375,0.06660842895507812,-0.04253649711608887,-0.0010977983474731445
1772726471585855200,3.043855224609375,0.008056640625,-0.04276275634765625,-0.02844679355621338
1772726471595372800,3.053372802734375,-0.03757286071777344,-0.04813385009765625,-0.04797327518463135
1772726471604890400,3.062890380859375,-0.11067390441894531,-0.04871964454650879,-0.04843074083328247
1772726471614408000,3.072407958984375,-0.16649532318115234,-0.02711033821105957,-0.08255565166473389
1772726471623925500,3.081925537109375,-0.22207164764404297,0.0053157806396484375,-0.11200687289237976
1772726471633443000,3.091443115234375,-0.24222087860107422,0.025161266326904297,-0.11781153082847595
1772726471642960400,3.10096044921875,-0.21341323852539062,0.020740747451782227,-0.11538499593734741
1772726471652478200,3.110478271484375,-0.16469860076904297,-0.019351482391357422,-0.10282349586486816
1772726471661995500,3.11999560546875,-0.10800552368164062,-0.017282724380493164,-0.06354671716690063
1772726471671513000,3.12951318359375,-0.040801048278808594,-0.01688861846923828,0.0023843348026275635
1772726471681030700,3.13903076171875,0.046497344970703125,-0.00481867790222168,0.02721354365348816
1772726471690548200,3.14854833984375,0.13980674743652344,0.0012965202331542969,0.06129726767539978
1772726471700065800,3.158065673828125,0.19928836822509766,0.0009145736694335938,0.06971955299377441
1772726471709583400,3.167583251953125,0.2563209533691406,-0.006348848342895508,0.0891910195350647
1772726471719101000,3.177100830078125,0.2567634582519531,-0.015520095825195312,0.08879527449607849
1772726471728618500,3.186618408203125,0.22955703735351562,-0.002517223358154297,0.07745140790939331
1772726471738136000,3.196135986328125,0.1583728790283203,0.03310108184814453,0.0666513741016388
1772726471747653600,3.205653564453125,0.08141136169433594,0.027906417846679688,0.051607221364974976
1772726471757171200,3.215171142578125,0.06218528747558594,0.041669607162475586,0.05559822916984558
1772726471766688800,3.224688720703125,0.07840633392333984,0.02500009536743164,0.03783735632896423
1772726471776206300,3.234206298828125,0.08478260040283203,0.006651401519775391,0.03651970624923706
1772726471785724000,3.243723876953125,0.10282135009765625,-0.0019540786743164062,0.037807315587997437
1772726471795241200,3.2532412109375,0.09710979461669922,0.0034394264221191406,0.059969037771224976
1772726471804759000,3.262759033203125,0.04217243194580078,-0.003347158432006836,0.03412941098213196
1772726471814276400,3.2722763671875,-0.0046367645263671875,-0.010341167449951172,0.028185278177261353
1772726471823794000,3.2817939453125,-0.01985931396484375,-0.0058896541595458984,0.030461907386779785
1772726471833311500,3.2913115234375,-0.020490646362304688,-0.020761966705322266,0.02916949987411499
1772726471842829000,3.3008291015625,0.023912429809570312,-0.031435489654541016,0.023827433586120605
1772726471852346600,3.3103466796875,0.0420074462890625,-0.06873726844787598,-0.014912784099578857
1772726471861864200,3.3198642578125,0.04812335968017578,-0.07997012138366699,-0.02386641502380371
1772726471871381800,3.3293818359375,0.0280609130859375,-0.08828568458557129,-0.050189197063446045
1772726471880899300,3.3388994140625,-0.05792045593261719,-0.050786495208740234,-0.0456925630569458
1772726471890417000,3.3484169921875,-0.1076498031616211,-0.03379511833190918,-0.02242147922515869
1772726471899934500,3.3579345703125,-0.18058300018310547,-0.018088102340698242,0.00047385692596435547
1772726471909452000,3.3674521484375,-0.20795345306396484,-0.01097869873046875,0.009568989276885986
1772726471918969600,3.376969482421875,-0.19977474212646484,-0.022111892700195312,0.0266229510307312
1772726471928487200,3.386487060546875,-0.16847610473632812,0.003036975860595703,0.03207290172576904
1772726471938004700,3.396004638671875,-0.13337421417236328,-0.02998495101928711,0.0682719349861145
1772726471947522000,3.40552197265625,-0.1251516342163086,0.00214385986328125,0.02599269151687622
1772726471957039900,3.415039794921875,-0.05617713928222656,0.0084381103515625,0.004295945167541504
1772726471966557200,3.42455712890625,-0.023703575134277344,0.035860538482666016,-0.01771235466003418
1772726471976074800,3.43407470703125,0.02499866485595703,0.003251314163208008,-0.010785579681396484
1772726471985592300,3.44359228515625,0.10383987426757812,-0.015622854232788086,-0.04133337736129761
1772726471995110000,3.45310986328125,0.13716411590576172,-0.04012250900268555,-0.037637412548065186
1772726472004627500,3.46262744140625,0.15403079986572266,-0.035010337829589844,-0.030690491199493408
1772726472014145000,3.47214501953125,0.1593465805053711,-0.026515960693359375,-0.004473984241485596
1772726472023662600,3.48166259765625,0.13198471069335938,-0.030953168869018555,-0.023851513862609863
1772726472033180200,3.49118017578125,0.06278610229492188,-0.03564262390136719,-0.043958067893981934
1772726472042697700,3.50069775390625,-0.010096549987792969,-0.00005316734313964844,-0.05059695243835449
1772726472052215300,3.51021533203125,-0.0561065673828125,0.01428985595703125,-0.06001734733581543
1772726472061732900,3.51973291015625,-0.08527660369873047,0.0011620521545410156,-0.046184003353118896
1772726472071250400,3.52925048828125,-0.11431312561035156,0.005616903305053711,-0.05410349369049072
1772726472080768000,3.53876806640625,-0.117218017578125,0.02007913589477539,-0.04989171028137207
1772726472090285600,3.54828564453125,-0.03774452209472656,0.008560419082641602,-0.05702787637710571
1772726472099803000,3.557802978515625,0.02634906768798828,-0.0005857944488525391,-0.05706542730331421
1772726472109320700,3.56732080078125,0.05653572082519531,-0.002844572067260742,-0.05262911319732666
1772726472118838000,3.576838134765625,0.04388236999511719,-0.0074520111083984375,-0.02237224578857422
1772726472128355600,3.58635546875,0.022106170654296875,0.013762950897216797,0.0007795095443725586
1772726472137873200,3.595873046875,-0.018001556396484375,0.017843961715698242,0.011999905109405518
1772726472147390700,3.605390625,-0.08561038970947266,0.031175851821899414,0.03289669752120972
1772726472156908300,3.614908203125,-0.1309814453125,0.028098106384277344,0.056429266929626465
1772726472166425900,3.62442578125,-0.109832763671875,0.018375873565673828,0.030417442321777344
1772726472175943400,3.633943359375,-0.01384735107421875,-0.002809762954711914,-0.005437374114990234
1772726472185461000,3.6434609375,0.024041175842285156,-0.028468608856201172,-0.027667582035064697
1772726472194978600,3.652978515625,0.0780191421508789,-0.04269099235534668,-0.06413012742996216
1772726472204496100,3.66249609375,0.07970333099365234,-0.01998424530029297,-0.031516849994659424
1772726472214013700,3.672013671875,0.027605056762695312,-0.010322332382202148,-0.03429555892944336
1772726472223531300,3.68153125,-0.06110668182373047,0.012979984283447266,-0.0504339337348938
1772726472233048800,3.691048828125,-0.13901996612548828,0.04801440238952637,-0.0633581280708313
1772726472242566400,3.70056640625,-0.13850879669189453,0.02731466293334961,-0.03655332326889038
1772726472252084000,3.710083984375,-0.12221622467041016,-0.010228633880615234,-0.023050785064697266
1772726472261601500,3.7196015625,-0.07155323028564453,0.015565633773803711,-0.018042027950286865
1772726472271119000,3.729119140625,-0.050477027893066406,0.02792954444885254,0.013735830783843994
1772726472280636700,3.73863671875,-0.004076957702636719,0.02164006233215332,0.04864633083343506
1772726472290154200,3.748154296875,0.022684097290039062,-0.003356456756591797,0.03998970985412598
1772726472299671600,3.757671630859375,0.08683967590332031,0.0021772384643554688,0.05759227275848389
1772726472309189000,3.767189208984375,0.1384429931640625,-0.009425640106201172,0.06650662422180176
1772726472318706700,3.776706787109375,0.16141128540039062,-0.005354166030883789,0.09319210052490234
1772726472328224300,3.786224365234375,0.2129230499267578,0.02052760124206543,0.07359898090362549
1772726472337741800,3.795741943359375,0.17966747283935547,0.029829025268554688,0.03856855630874634
1772726472347259400,3.80525927734375,0.15711593627929688,0.022885560989379883,0.060699284076690674
1772726472356777000,3.81477685546875,0.11417388916015625,0.026713848114013672,0.04476660490036011
1772726472366294500,3.82429443359375,0.0035963058471679688,0.002525806427001953,0.08064311742782593
1772726472375812000,3.83381201171875,-0.1078958511352539,0.02212834358215332,0.05203133821487427
1772726472385329700,3.84332958984375,-0.11220359802246094,0.03338813781738281,0.046845972537994385
1772726472394847200,3.85284716796875,-0.1147613525390625,-0.008051872253417969,0.03350311517715454
1772726472404364800,3.86236474609375,-0.12256050109863281,-0.03317904472351074,-0.0010870099067687988
1772726472413882400,3.87188232421875,-0.0880746841430664,-0.024268627166748047,-0.020103931427001953
1772726472423400000,3.88139990234375,-0.0210723876953125,-0.03933882713317871,-0.024106264114379883
1772726472432917500,3.89091748046875,0.012204170227050781,-0.06203961372375488,-0.07235437631607056
1772726472442435000,3.90043505859375,-0.020608901977539062,-0.08292746543884277,-0.04677689075469971
1772726472451952400,3.909952392578125,-0.10226726531982422,-0.061203718185424805,-0.02184581756591797
1772726472461470200,3.91947021484375,-0.16411781311035156,-0.045922279357910156,-0.002236604690551758
1772726472470987500,3.928987548828125,-0.1948833465576172,-0.008329153060913086,0.005054771900177002
1772726472480505000,3.938505126953125,-0.15281200408935547,-0.0004019737243652344,-0.007250845432281494
1772726472490022700,3.948022705078125,-0.08351707458496094,0.0010714530944824219,-0.031687259674072266
1772726472499540200,3.957540283203125,-0.0011444091796875,-0.02123880386352539,-0.0341070294380188
1772726472509057800,3.967057861328125,0.07306575775146484,-0.006171703338623047,0.015737295150756836
1772726472518575400,3.976575439453125,0.1064004898071289,-0.008693695068359375,0.015932142734527588
1772726472528093000,3.986093017578125,0.10656547546386719,-0.011967658996582031,0.009563684463500977
1772726472537610500,3.995610595703125,0.08103466033935547,0.038465261459350586,0.022417187690734863
1772726472547128000,4.005128173828125,0.04187297821044922,0.007915258407592773,0.04691988229751587
1772726472556645600,4.014645751953125,0.0904998779296875,0.03637528419494629,0.05859112739562988
1772726472566163200,4.0241630859375,0.18085670471191406,0.030820608139038086,0.010739505290985107
1772726472575680800,4.0336806640625,0.2348489761352539,0.031231403350830078,-0.01992279291152954
1772726472585198300,4.0431982421875,0.2602386474609375,0.01836848258972168,-0.015158772468566895
1772726472594716000,4.0527158203125,0.17027854919433594,-0.0024662017822265625,-0.018319010734558105
1772726472604233200,4.062233154296875,0.06790447235107422,0.009397506713867188,0.008928179740905762
1772726472613751000,4.0717509765625,-0.03743743896484375,-0.00003886222839355469,0.022468090057373047
1772726472623268400,4.081268310546875,-0.09893226623535156,0.005627632141113281,0.06706202030181885
1772726472632786000,4.090785888671875,-0.15032100677490234,-0.004293680191040039,0.06903165578842163
1772726472642303500,4.100303466796875,-0.17060184478759766,-0.008364439010620117,0.040818750858306885
1772726472651821000,4.109821044921875,-0.15334320068359375,0.005229473114013672,0.015042543411254883
1772726472661338600,4.119338623046875,-0.1484050750732422,-0.0065975189208984375,0.01069265604019165
1772726472670856200,4.128856201171875,-0.12271308898925781,-0.029153823852539062,-0.01756608486175537
1772726472680373800,4.138373779296875,-0.10945415496826172,-0.053070068359375,-0.03135550022125244
1772726472689891300,4.147891357421875,-0.07534027099609375,-0.03408551216125488,-0.04090690612792969
1772726472699409000,4.157408935546875,0.005282402038574219,-0.0463252067565918,-0.02601224184036255
1772726472708926500,4.166926513671875,0.03764915466308594,-0.0401148796081543,-0.03832542896270752
1772726472718444000,4.176444091796875,0.017900466918945312,-0.06270503997802734,0.001589655876159668
1772726472727961600,4.185961669921875,-0.0014190673828125,-0.03794598579406738,0.03485679626464844
1772726472737479200,4.195479248046875,-0.0014486312866210938,0.0051136016845703125,0.04796898365020752
1772726472746996700,4.204996826171875,-0.017864227294921875,0.02866220474243164,0.038843631744384766
1772726472756514300,4.214514404296875,-0.022383689880371094,0.024051189422607422,0.018631398677825928
1772726472766032000,4.224031982421875,0.024827003479003906,0.005602359771728516,0.021747231483459473
1772726472775549400,4.233549560546875,0.1042318344116211,0.015359878540039062,-0.009505629539489746
1772726472785066800,4.243066650390625,0.10710334777832031,0.0008969306945800781,-0.03962075710296631
1772726472794584600,4.25258447265625,0.01809406280517578,0.010284900665283203,-0.027521252632141113
1772726472804102000,4.262101806640625,-0.057702064514160156,0.04098939895629883,-0.02619880437850952
1772726472813619500,4.271619384765625,-0.08290481567382812,0.07637333869934082,-0.011550664901733398
1772726472823137000,4.281136962890625,-0.055980682373046875,0.0738365650177002,-0.04091453552246094
1772726472832654600,4.290654541015625,-0.06028556823730469,0.04356503486633301,-0.05835598707199097
1772726472842172200,4.300172119140625,-0.03176307678222656,0.04004979133605957,-0.06215387582778931
1772726472851689700,4.309689697265625,0.055057525634765625,0.017712831497192383,-0.04584908485412598
1772726472861207300,4.319207275390625,0.08633804321289062,0.004884243011474609,-0.03810524940490723
1772726472870724900,4.328724853515625,0.09601116180419922,-0.008089303970336914,-0.02179861068725586
1772726472880242400,4.338242431640625,0.07735633850097656,-0.011577844619750977,0.032141149044036865
1772726472889760000,4.347760009765625,0.11095714569091797,-0.01532435417175293,0.04851263761520386
1772726472899277600,4.357277587890625,0.09487438201904297,0.003931999206542969,0.0021799802780151367
1772726472908795100,4.366795166015625,0.06531333923339844,-0.027353286743164062,0.021314918994903564
1772726472918312700,4.376312744140625,0.015450477600097656,-0.021382570266723633,0.043190181255340576
1772726472927830300,4.385830322265625,0.011393547058105469,0.007262706756591797,0.04801112413406372
1772726472937347600,4.39534765625,-0.03954505920410156,0.027981996536254883,-0.009003281593322754
1772726472946865400,4.404865478515625,-0.08045768737792969,0.01354527473449707,-0.002423882484436035
1772726472956382700,4.4143828125,-0.10697269439697266,0.016844749450683594,-0.008065402507781982
1772726472965900300,4.423900390625,-0.1146392822265625,0.03062295913696289,0.002877652645111084
1772726472975417900,4.43341796875,-0.1037607192993164,0.028799057006835938,-0.00043833255767822266
1772726472984935400,4.442935302734375,-0.0579833984375,0.03703904151916504,-0.03636670112609863
1772726472994453000,4.452452880859375,-0.0011148452758789062,0.03326082229614258,-0.04272204637527466
1772726473003970600,4.461970458984375,0.04087638854980469,0.024410486221313477,-0.04851210117340088
1772726473013488000,4.471488037109375,0.03767585754394531,0.036295175552368164,-0.04016101360321045
1772726473023005700,4.481005615234375,0.048755645751953125,0.0005035400390625,-0.03270787000656128
1772726473032523300,4.490523193359375,0.04313945770263672,0.0051991939544677734,-0.0525587797164917
1772726473042040800,4.500040771484375,0.0942230224609375,0.028200864791870117,-0.041942715644836426
1772726473051558400,4.509558349609375,0.11174583435058594,0.05016732215881348,-0.05286610126495361
1772726473061076000,4.519075927734375,0.07273292541503906,-0.004228830337524414,-0.012435555458068848
1772726473070593500,4.528593505859375,0.010926246643066406,-0.0038602352142333984,0.0036179423332214355
1772726473080111000,4.538111083984375,-0.10408496856689453,0.018071413040161133,0.036312997341156006
1772726473089628400,4.54762841796875,-0.1776437759399414,0.04334855079650879,0.05739021301269531
1772726473099146200,4.557146240234375,-0.23404502868652344,0.04388833045959473,0.06472340226173401
1772726473108663600,4.56666357421875,-0.20763397216796875,0.012877702713012695,0.09144288301467896
1772726473118181000,4.57618115234375,-0.15831470489501953,0.027674436569213867,0.047714173793792725
1772726473127698700,4.58569873046875,-0.0768270492553711,0.016222000122070312,0.030676841735839844
1772726473137216300,4.59521630859375,-0.017644882202148438,0.009009122848510742,-0.01694309711456299
1772726473146733800,4.60473388671875,0.014850616455078125,0.0013148784637451172,-0.022100448608398438
1772726473156251400,4.61425146484375,0.039893150329589844,0.005025625228881836,-0.015998363494873047
1772726473165769000,4.62376904296875,0.03864288330078125,0.008584737777709961,0.00368654727935791
1772726473175286500,4.63328662109375,0.060853004455566406,0.024065256118774414,0.013438284397125244
1772726473184804000,4.64280419921875,0.06852912902832031,0.04415702819824219,0.011495232582092285
1772726473194321700,4.65232177734375,0.08558082580566406,0.04486823081970215,0.0003261566162109375
1772726473203839200,4.661839111328125,0.04376983642578125,0.02379631996154785,0.013292431831359863
1772726473213356800,4.671356689453125,0.0664052963256836,0.014304876327514648,0.03816026449203491
1772726473222874400,4.680874267578125,0.1100301742553711,0.035134315490722656,0.0184401273727417
1772726473232392000,4.690391845703125,0.0706949234008789,0.01770639419555664,0.027676641941070557
1772726473241909500,4.699909423828125,0.07202911376953125,0.0263974666595459,0.03429973125457764
1772726473251427000,4.709427001953125,0.08517265319824219,0.034731149673461914,0.0076580047607421875
1772726473260944600,4.718944580078125,0.06286430358886719,0.04041910171508789,-0.01609402894973755
1772726473270462000,4.7284619140625,0.03160858154296875,0.03170323371887207,0.005607306957244873
1772726473279979800,4.737979736328125,-0.02499103546142578,0.009030818939208984,0.022659659385681152
1772726473289497000,4.7474970703125,-0.007594108581542969,0.005308389663696289,0.004445850849151611
1772726473299014700,4.7570146484375,-0.0302886962890625,0.008193731307983398,-0.015698552131652832
1772726473308532200,4.7665322265625,-0.057254791259765625,-0.0032873153686523438,0.00414586067199707
1772726473318049800,4.7760498046875,-0.07207775115966797,0.018474102020263672,0.02314680814743042
1772726473327567400,4.7855673828125,-0.091583251953125,0.01921391487121582,-0.041047096252441406
1772726473337085000,4.7950849609375,-0.1323080062866211,0.013875484466552734,-0.03354203701019287
1772726473346602500,4.8046025390625,-0.15396499633789062,0.005188465118408203,0.007411658763885498
1772726473356120000,4.8141201171875,-0.14272403717041016,-0.01636052131652832,0.03138536214828491
1772726473365637600,4.8236376953125,-0.1013650894165039,-0.015572786331176758,0.01989799737930298
1772726473375155200,4.8331552734375,-0.0937490463256836,-0.0332334041595459,0.01853841543197632
1772726473384672800,4.8426728515625,-0.02026081085205078,-0.02256464958190918,0.008507192134857178
1772726473394190300,4.8521904296875,0.026407241821289062,0.006004810333251953,-0.05066215991973877
1772726473403708000,4.8617080078125,0.025560379028320312,-0.0045223236083984375,-0.09300553798675537
1772726473413225500,4.8712255859375,0.03899383544921875,-0.0037202835083007812,-0.11008960008621216
1772726473422742800,4.88074267578125,0.037919044494628906,-0.026267290115356445,-0.07667964696884155
1772726473432260600,4.890260498046875,0.048374176025390625,-0.03848123550415039,-0.06352943181991577
1772726473441778000,4.89977783203125,0.046649932861328125,-0.014536142349243164,-0.010513782501220703
1772726473451295500,4.90929541015625,0.07064151763916016,-0.004549503326416016,0.04648137092590332
1772726473460813000,4.91881298828125,0.04007148742675781,-0.001608133316040039,0.03932768106460571
1772726473470330600,4.92833056640625,0.028937339782714844,-0.0035185813903808594,0.0475347638130188
1772726473479848200,4.93784814453125,0.006468772888183594,0.029361248016357422,0.03520780801773071
1772726473489365800,4.94736572265625,0.010517120361328125,0.03287196159362793,0.05206751823425293
1772726473498883300,4.95688330078125,0.017181396484375,0.02144455909729004,0.001218557357788086
1772726473508401000,4.96640087890625,0.05002021789550781,-0.007285118103027344,0.022279441356658936
1772726473517918500,4.97591845703125,0.12732791900634766,-0.0036101341247558594,0.013668596744537354
1772726473527436000,4.98543603515625,0.0976247787475586,-0.05465412139892578,-0.0495951771736145
1772726473536953600,4.99495361328125,-0.039875030517578125,-0.03879857063293457,-0.024652957916259766
1772726473546471200,5.00447119140625,-0.16135120391845703,-0.012753486633300781,0.018660783767700195
1772726473555988700,5.01398876953125,-0.18965435028076172,-0.009003639221191406,0.018891215324401855
1772726473565506300,5.02350634765625,-0.1945476531982422,-0.01772332191467285,0.007978200912475586
1772726473575023600,5.033023681640625,-0.1621246337890625,-0.013301610946655273,-0.0043749213218688965
1772726473584541400,5.04254150390625,-0.0785369873046875,-0.0017485618591308594,-0.019060790538787842
1772726473594058800,5.052058837890625,0.04159259796142578,-0.017044544219970703,-0.0781714916229248
1772726473603576300,5.061576416015625,0.11545562744140625,-0.030939340591430664,-0.09635215997695923
1772726473613094100,5.07109423828125,0.11324119567871094,-0.048193931579589844,-0.0931844711303711
1772726473622611500,5.080611572265625,0.09490489959716797,-0.00960230827331543,-0.0810161828994751
1772726473632129000,5.09012890625,0.08397293090820312,-0.02126932144165039,-0.05080801248550415
1772726473641646600,5.099646484375,0.058861732482910156,0.0053980350494384766,-0.033855974674224854
1772726473651164200,5.1091640625,0.029067039489746094,0.01378774642944336,-0.013051390647888184
1772726473660681700,5.118681640625,0.0016584396362304688,0.004446983337402344,0.004825711250305176
1772726473670199300,5.12819921875,-0.009171485900878906,0.04097461700439453,-0.033731818199157715
1772726473679716900,5.137716796875,0.029630661010742188,0.04163312911987305,-0.04026895761489868
1772726473689234400,5.147234375,0.09872150421142578,0.06734752655029297,0.0035241246223449707
1772726473698752000,5.156751953125,0.13199806213378906,0.03454256057739258,-0.028076350688934326
1772726473708269600,5.16626953125,0.1441802978515625,0.033504486083984375,-0.023719966411590576
1772726473717787100,5.175787109375,0.1165313720703125,0.04077410697937012,0.0035061240196228027
1772726473727304700,5.1853046875,0.05650615692138672,0.021732807159423828,-0.0027982592582702637
1772726473736822300,5.194822265625,0.020897865295410156,0.04332923889160156,0.01929110288619995
1772726473746339800,5.20433984375,-0.009617805480957031,0.025159597396850586,0.01056981086730957
1772726473755857200,5.213857177734375,-0.013892173767089844,0.03130626678466797,0.01420503854751587
1772726473765375000,5.223375,0.010184288024902344,-0.00035643577575683594,0.013408422470092773
1772726473774892300,5.232892333984375,0.0740966796875,0.0031549930572509766,-0.01559591293334961
1772726473784409900,5.242409912109375,0.0808868408203125,-0.03926897048950195,-0.023187756538391113
1772726473793927400,5.251927490234375,0.012449264526367188,-0.058037519454956055,-0.02414250373840332
1772726473803445000,5.261445068359375,-0.07848453521728516,-0.03396248817443848,0.011862576007843018
1772726473812962600,5.270962646484375,-0.1281137466430664,-0.023808956146240234,0.019197702407836914
1772726473822480100,5.280480224609375,-0.12324810028076172,-0.012589454650878906,0.02880251407623291
1772726473831997700,5.289997802734375,-0.13315200805664062,-0.00007009506225585938,0.044893503189086914
1772726473841515300,5.299515380859375,-0.0774374008178711,-0.003134012222290039,-0.005569875240325928
1772726473851032800,5.30903271484375,-0.060538291931152344,0.02505803108215332,-0.034259140491485596
1772726473860550400,5.31855029296875,-0.06992912292480469,0.010776996612548828,-0.013035237789154053
1772726473870068000,5.32806787109375,-0.06270313262939453,-0.01269221305847168,0.024067580699920654
1772726473879585500,5.33758544921875,-0.04617500305175781,-0.002931356430053711,0.013033092021942139
1772726473889103000,5.34710302734375,-0.013474464416503906,-0.02165508270263672,0.05075162649154663
1772726473898620700,5.35662060546875,0.035221099853515625,-0.007361888885498047,0.03577214479446411
1772726473908138000,5.366137939453125,0.07862472534179688,-0.012753486633300781,0.016273558139801025
1772726473917655800,5.37565576171875,0.16411685943603516,0.006593942642211914,0.020749986171722412
1772726473927173000,5.385173095703125,0.1803274154663086,0.038689613342285156,-0.01723647117614746
1772726473936690700,5.394690673828125,0.11414432525634766,0.0015177726745605469,-0.023245513439178467
1772726473946208300,5.404208251953125,0.030332565307617188,-0.032775163650512695,0.03530704975128174
1772726473955725800,5.413725830078125,0.0043468475341796875,-0.016898393630981445,0.04860067367553711
1772726473965243600,5.42324365234375,-0.0023279190063476562,0.005782365798950195,0.013227105140686035
1772726473974761000,5.432760986328125,0.00543975830078125,0.00418543815612793,-0.017956554889678955
1772726473984278500,5.442278564453125,-0.00565338134765625,0.002357959747314453,-0.02513939142227173
1772726473993796000,5.451796142578125,-0.037872314453125,0.0007181167602539062,-0.03815585374832153
1772726474003313700,5.461313720703125,-0.06511688232421875,-0.005079507827758789,-0.05691373348236084
1772726474012831200,5.470831298828125,-0.09702777862548828,0.00428462028503418,-0.07174521684646606
1772726474022348800,5.480348876953125,-0.1076669692993164,-0.01597142219543457,-0.02085423469543457
1772726474031866400,5.489866455078125,-0.10906696319580078,-0.04433798789978027,0.008031964302062988
1772726474041384000,5.499384033203125,-0.06597900390625,-0.0362248420715332,0.048478782176971436
1772726474050901500,5.508901611328125,-0.021160125732421875,-0.04255485534667969,0.08400213718414307
1772726474060419000,5.518419189453125,0.03492546081542969,-0.040004730224609375,0.03916597366333008
1772726474069936600,5.5279365234375,0.048079490661621094,-0.033704519271850586,0.0448765754699707
1772726474079454200,5.5374541015625,0.037787437438964844,-0.021204471588134766,0.05328625440597534
1772726474088971800,5.5469716796875,0.032525062561035156,0.002519369125366211,0.026770710945129395
1772726474098489300,5.5564892578125,-0.005503654479980469,0.018665790557861328,0.01787102222442627
1772726474108006700,5.566006591796875,-0.007656097412109375,0.04651832580566406,0.025997638702392578
1772726474117524500,5.5755244140625,-0.0334320068359375,0.03887319564819336,0.002828061580657959
1772726474127041800,5.585041748046875,-0.011919021606445312,0.03169131278991699,0.04228377342224121
1772726474136559400,5.594559326171875,0.030251502990722656,0.0319211483001709,0.016335129737854004
1772726474146077000,5.604076904296875,0.017383575439453125,0.027940750122070312,0.004305899143218994
1772726474155594500,5.613594482421875,0.05395030975341797,0.036284685134887695,0.0064054131507873535
1772726474165112000,5.623112060546875,0.06640148162841797,0.013957977294921875,-0.007287859916687012
1772726474174629600,5.632629638671875,0.13065242767333984,0.01978921890258789,-0.0053299665451049805
1772726474184147200,5.642147216796875,0.12133407592773438,0.012725114822387695,-0.03288149833679199
1772726474193664800,5.651664794921875,0.08673477172851562,0.013992786407470703,-0.026847898960113525
1772726474203182300,5.661182373046875,0.038901329040527344,-0.00921773910522461,-0.05440020561218262
1772726474212700000,5.670699951171875,-0.010501861572265625,-0.008678436279296875,-0.02153116464614868
1772726474222217500,5.680217529296875,-0.05239582061767578,-0.012086629867553711,-0.011979281902313232
1772726474231735000,5.689735107421875,-0.09644603729248047,-0.02826404571533203,-0.024292051792144775
1772726474241252600,5.699252685546875,-0.11897754669189453,-0.010045766830444336,-0.0028120875358581543
1772726474250770200,5.708770263671875,-0.08950519561767578,-0.022176265716552734,0.03815335035324097
1772726474260287500,5.71828759765625,-0.06996345520019531,-0.03864407539367676,0.050773680210113525
1772726474269805300,5.727805419921875,-0.03890228271484375,-0.040936946868896484,0.011452972888946533
1772726474279322600,5.737322509765625,0.022576332092285156,-0.018110036849975586,0.004283547401428223
1772726474288840200,5.746840087890625,0.05285453796386719,-0.024928808212280273,-0.027998149394989014
1772726474298357800,5.756357666015625,0.07124996185302734,-0.025590181350708008,-0.005303680896759033
1772726474307875300,5.765875244140625,0.04957771301269531,-0.026871919631958008,0.014824748039245605
1772726474317393000,5.775392822265625,0.05654144287109375,-0.011768341064453125,0.018147051334381104
1772726474326910500,5.784910400390625,0.049185752868652344,0.0009443759918212891,0.014195024967193604
1772726474336428000,5.794427978515625,0.03949260711669922,0.01134943962097168,-0.0016744136810302734
1772726474345945600,5.803945556640625,0.015672683715820312,0.029010534286499023,0.0009372830390930176
1772726474355463200,5.813463134765625,0.0061798095703125,0.020975828170776367,-0.008472979068756104
1772726474364980700,5.822980712890625,-0.0032587051391601562,0.02279496192932129,-0.0011200904846191406
1772726474374498300,5.832498291015625,0.017950057983398438,0.03420543670654297,0.005770385265350342
1772726474384016000,5.842015869140625,0.010632514953613281,0.01708674430847168,0.012939393520355225
1772726474393533400,5.851533447265625,-0.012913703918457031,0.025931835174560547,-0.00043487548828125
1772726474403051000,5.861051025390625,0.013507843017578125,-0.0033884048461914062,0.022208094596862793
1772726474412568300,5.870568359375,0.02797412872314453,0.004776477813720703,-0.002376735210418701
1772726474422086100,5.880086181640625,0.04951763153076172,-0.042116641998291016,-0.015394091606140137
1772726474431603700,5.889603759765625,0.0001316070556640625,-0.03902029991149902,0.006143331527709961
1772726474441121000,5.89912109375,-0.0440826416015625,-0.0516352653503418,0.007488548755645752
1772726474450638600,5.908638671875,-0.12567806243896484,-0.02745795249938965,0.0017383098602294922
1772726474460156200,5.91815625,-0.15698719024658203,-0.00934457778930664,0.015339791774749756
1772726474469673700,5.927673828125,-0.13168716430664062,0.0025479793548583984,0.026905596256256104
1772726474479191300,5.93719140625,-0.05750465393066406,-0.03719329833984375,0.04079669713973999
1772726474488708900,5.946708984375,-0.005656242370605469,-0.0036072731018066406,-0.0023931264877319336
1772726474498226400,5.956226318359375,0.03845977783203125,0.005273580551147461,-0.017176687717437744
1772726474507744000,5.965743896484375,0.06786251068115234,-0.0005662441253662109,-0.029802680015563965
1772726474517261600,5.975261474609375,0.07336616516113281,-0.027761459350585938,-0.008961796760559082
1772726474526779100,5.984779052734375,0.07889747619628906,-0.03589653968811035,0.009853541851043701
1772726474536296700,5.994296630859375,0.0868988037109375,-0.04201698303222656,0.02427583932876587
1772726474545814300,6.003814208984375,0.09033489227294922,-0.02759718894958496,0.03621649742126465
1772726474555331800,6.013331787109375,0.09393119812011719,-0.016389846801757812,0.019591689109802246
1772726474564849400,6.022849365234375,0.012937545776367188,0.010632991790771484,0.003321707248687744
1772726474574367000,6.032366943359375,-0.033637046813964844,0.022713422775268555,-0.017489850521087646
1772726474583884500,6.041884521484375,-0.06064796447753906,0.02523183822631836,-0.04064738750457764
1772726474593401900,6.05140185546875,-0.049849510192871094,-0.018715620040893555,-0.036130547523498535
1772726474602919700,6.060919677734375,-0.023118972778320312,-0.002199411392211914,-0.0015811920166015625
1772726474612437000,6.07043701171875,0.0051708221435546875,-0.0014612674713134766,0.018367111682891846
1772726474621954600,6.07995458984375,0.06807136535644531,-0.0025420188903808594,0.04715186357498169
1772726474631472000,6.08947216796875,0.0828390121459961,-0.01294708251953125,0.04956445097923279
1772726474640989700,6.09898974609375,0.08818244934082031,-0.0072863101959228516,0.03584468364715576
1772726474650507300,6.10850732421875,0.10553455352783203,-0.011992931365966797,0.04151207208633423
1772726474660024800,6.11802490234375,0.08067607879638672,-0.008284330368041992,0.04073530435562134
1772726474669542400,6.12754248046875,0.06617069244384766,-0.015347719192504883,0.02677232027053833
1772726474679060000,6.13706005859375,0.04057502746582031,-0.03038311004638672,0.04224914312362671
1772726474688577500,6.14657763671875,-0.012478828430175781,-0.027155399322509766,0.03954768180847168
1772726474698095000,6.15609521484375,-0.04804801940917969,-0.0454864501953125,0.020575344562530518
1772726474707612700,6.16561279296875,-0.08329200744628906,-0.03233218193054199,0.01038813591003418
1772726474717130200,6.175130126953125,-0.11373519897460938,-0.03703498840332031,0.025243043899536133
1772726474726647800,6.184647705078125,-0.17494964599609375,-0.028166770935058594,-0.015271484851837158
1772726474736165400,6.194165283203125,-0.1936168670654297,-0.02435755729675293,-0.008720815181732178
1772726474745682700,6.2036826171875,-0.1844320297241211,0.0000820159912109375,-0.016590654850006104
1772726474755200500,6.213200439453125,-0.09572410583496094,-0.0007615089416503906,-0.028274118900299072
1772726474764717800,6.2227177734375,-0.010799407958984375,0.010157585144042969,-0.0578838586807251
1772726474774235400,6.2322353515625,0.07068824768066406,-0.01527094841003418,-0.05861485004425049
1772726474783753000,6.2417529296875,0.1679229736328125,-0.009048223495483398,-0.04504126310348511
1772726474793270500,6.2512705078125,0.20776939392089844,-0.02133655548095703,-0.07409054040908813
1772726474802788000,6.2607880859375,0.19342613220214844,-0.013908624649047852,-0.058221399784088135
1772726474812305700,6.2703056640625,0.10910701751708984,0.018215179443359375,-0.04519784450531006
1772726474821823200,6.2798232421875,0.01916790008544922,0.04741311073303223,0.007919609546661377
1772726474831340800,6.2893408203125,-0.04596233367919922,0.0697793960571289,-0.0074326395988464355
1772726474840858400,6.2988583984375,-0.07977771759033203,0.04337596893310547,-0.012957274913787842
1772726474850376000,6.3083759765625,-0.03565502166748047,0.06991887092590332,-0.004258155822753906
1772726474859893500,6.3178935546875,0.012456893920898438,0.041841745376586914,-0.00991445779800415
1772726474869411000,6.3274111328125,0.034027099609375,0.03485584259033203,-0.028212666511535645
1772726474878928600,6.3369287109375,0.015408515930175781,0.02033066749572754,-0.02818852663040161
1772726474888446200,6.3464462890625,-0.0028791427612304688,0.022459030151367188,-0.011733591556549072
1772726474897963800,6.3559638671875,-0.011488914489746094,0.008294343948364258,0.0003814697265625
1772726474907481300,6.3654814453125,0.015346527099609375,0.006297111511230469,0.048694908618927
1772726474916999000,6.3749990234375,0.008814811706542969,-0.01207733154296875,0.047524094581604004
1772726474926516200,6.38451611328125,-0.0022563934326171875,-0.04206371307373047,0.048711299896240234
1772726474936034000,6.394033935546875,-0.01538848876953125,-0.01074671745300293,0.03057485818862915
1772726474945551400,6.40355126953125,-0.07534122467041016,-0.017765283584594727,0.026125192642211914
1772726474955069000,6.41306884765625,-0.1015939712524414,-0.03824424743652344,0.028154313564300537
1772726474964586500,6.42258642578125,-0.1182403564453125,0.0011420249938964844,0.035107970237731934
1772726474974104000,6.43210400390625,-0.160888671875,0.00575709342956543,0.03786534070968628
1772726474983621600,6.44162158203125,-0.1585397720336914,0.006758451461791992,0.043122947216033936
1772726474993139200,6.45113916015625,-0.0835723876953125,0.008481979370117188,0.029323279857635498
1772726475002656800,6.46065673828125,0.008840560913085938,-0.00604701042175293,-0.046073734760284424
1772726475012174300,6.47017431640625,0.07151317596435547,-0.022853374481201172,-0.04768484830856323
1772726475021692000,6.47969189453125,0.10040283203125,-0.014026641845703125,-0.03743135929107666
1772726475031209500,6.48920947265625,0.11263179779052734,-0.0273592472076416,-0.022864222526550293
1772726475040727000,6.49872705078125,0.09191322326660156,-0.0010461807250976562,-0.020565450191497803
1772726475050244600,6.50824462890625,0.0434417724609375,-0.020274639129638672,0.005081236362457275
1772726475059762200,6.51776220703125,0.009936332702636719,0.010205507278442383,0.02844417095184326
1772726475069279700,6.52727978515625,-0.018323898315429688,0.012061834335327148,0.016522109508514404
1772726475078797000,6.536797119140625,-0.04625892639160156,0.02848529815673828,0.014743626117706299
1772726475088315000,6.54631494140625,-0.07618236541748047,0.040338993072509766,-0.002667546272277832
1772726475097832200,6.555832275390625,-0.058592796325683594,0.012245416641235352,0.0044953227043151855
1772726475107349800,6.565349853515625,-0.05075263977050781,0.024763107299804688,-0.00011110305786132812
1772726475116867300,6.574867431640625,-0.010075569152832031,-0.0054476261138916016,0.027728021144866943
1772726475126385000,6.584385009765625,0.039376258850097656,-0.023639202117919922,0.03311872482299805
1772726475135902500,6.59390234375,0.07162094116210938,-0.0229642391204834,0.017122507095336914
1772726475145420000,6.603419921875,0.018770217895507812,-0.0014934539794921875,-0.00548630952835083
1772726475154937600,6.6129375,-0.023702621459960938,0.02404499053955078,-0.056245267391204834
1772726475164455200,6.622455078125,-0.044376373291015625,0.01641988754272461,-0.03808856010437012
1772726475173972700,6.63197265625,-0.024969100952148438,0.019023656845092773,-0.027472853660583496
1772726475183490300,6.641490234375,0.012559890747070312,0.006072282791137695,-0.015054166316986084
1772726475193007900,6.6510078125,0.006810188293457031,-0.00825953483581543,0.006201624870300293
1772726475202525400,6.660525390625,0.0174407958984375,-0.0007421970367431641,0.007838904857635498
1772726475212043000,6.67004296875,0.046703338623046875,0.009009838104248047,0.037510037422180176
1772726475221560600,6.679560546875,0.12056636810302734,0.024751901626586914,0.03919786214828491
1772726475231078000,6.689077880859375,0.20570087432861328,0.028953075408935547,0.03465205430984497
1772726475240595700,6.698595703125,0.22196102142333984,-0.009070396423339844,0.0323643684387207
1772726475250113000,6.708113037109375,0.1750774383544922,-0.012998342514038086,0.022798120975494385
1772726475259630600,6.717630615234375,0.0751180648803711,-0.015188932418823242,0.03469955921173096
1772726475269148200,6.727148193359375,-0.035068511962890625,0.03250265121459961,0.035104215145111084
1772726475278665700,6.736665771484375,-0.10378551483154297,0.021657943725585938,0.06183654069900513
1772726475288183300,6.746183349609375,-0.14595794677734375,0.019397258758544922,0.022406339645385742
1772726475297700900,6.755700927734375,-0.19262218475341797,0.01610565185546875,0.002262890338897705
1772726475307218400,6.765218505859375,-0.21539878845214844,-0.00012874603271484375,-0.02471071481704712
1772726475316736000,6.774736083984375,-0.16051864624023438,-0.012786865234375,-0.03977644443511963
1772726475326253600,6.784253662109375,-0.0007572174072265625,-0.03438687324523926,-0.019123435020446777
1772726475335771100,6.793771240234375,0.09069442749023438,-0.04686784744262695,-0.04129958152770996
1772726475345288700,6.803288818359375,0.10795021057128906,-0.07171487808227539,-0.05647927522659302
1772726475354806300,6.81280615234375,0.09688186645507812,-0.056858062744140625,-0.07476317882537842
1772726475364323800,6.82232373046875,0.057908058166503906,-0.059203147888183594,-0.07441836595535278
1772726475373841400,6.83184130859375,0.031330108642578125,-0.04492449760437012,-0.04548490047454834
1772726475383359000,6.84135888671875,0.035732269287109375,-0.018916606903076172,-0.05431300401687622
1772726475392876500,6.85087646484375,0.0071735382080078125,-0.005227088928222656,-0.03227120637893677
1772726475402394000,6.86039404296875,-0.020910263061523438,-0.024756908416748047,0.010279417037963867
1772726475411911400,6.869911376953125,-0.05330467224121094,-0.015569210052490234,0.0024760961532592773
1772726475421429200,6.87942919921875,-0.09938526153564453,0.003267526626586914,0.044792890548706055
1772726475430946600,6.888946533203125,-0.08829402923583984,0.026782989501953125,0.05876666307449341
1772726475440464100,6.898464111328125,-0.05153942108154297,0.019492387771606445,0.08942985534667969
1772726475449981700,6.907981689453125,-0.015341758728027344,0.023934602737426758,0.05368548631668091
1772726475459499300,6.917499267578125,0.013278961181640625,0.004510641098022461,0.0136374831199646
1772726475469016800,6.927016845703125,0.02977752685546875,0.01567530632019043,0.009584665298461914
1772726475478534400,6.936534423828125,0.022577285766601562,0.026437759399414062,-0.005811750888824463
1772726475488052000,6.946052001953125,0.04384613037109375,0.03444051742553711,-0.003973662853240967
1772726475497569500,6.955569580078125,0.03669452667236328,0.023113250732421875,-0.011151611804962158
1772726475507087000,6.965087158203125,0.022661209106445312,0.000050067901611328125,0.002966463565826416
1772726475516604700,6.974604736328125,0.013510704040527344,-0.008443593978881836,0.013988912105560303
1772726475526122200,6.984122314453125,-0.014589309692382812,-0.009083032608032227,-0.022791743278503418
1772726475535639800,6.993639892578125,-0.04020881652832031,0.0003459453582763672,-0.03228318691253662
1772726475545157400,7.003157470703125,-0.03268146514892578,0.019551992416381836,-0.034989774227142334
1772726475554675000,7.012675048828125,-0.013605117797851562,0.0033462047576904297,-0.0308113694190979
1772726475564192300,7.022192138671875,0.054706573486328125,-0.03655219078063965,-0.022302567958831787
1772726475573710000,7.0317099609375,0.051545143127441406,-0.01996445655822754,-0.013728439807891846
1772726475583227400,7.041227294921875,0.02759838104248047,-0.00916910171508789,-0.021187663078308105
1772726475592745000,7.050744873046875,-0.00043201446533203125,0.005605459213256836,0.00006002187728881836
1772726475602262500,7.060262451171875,-0.05850505828857422,-0.008254051208496094,0.023612499237060547
1772726475611780000,7.069780029296875,-0.1157684326171875,-0.004971981048583984,0.028027653694152832
1772726475621297700,7.079297607421875,-0.11596298217773438,-0.005587100982666016,0.0600246787071228
1772726475630815200,7.088815185546875,-0.13779544830322266,0.011457204818725586,0.04639619588851929
1772726475640332800,7.098332763671875,-0.15727519989013672,0.026889324188232422,0.05441015958786011
1772726475649850400,7.107850341796875,-0.13421344757080078,0.026022672653198242,0.03674745559692383
1772726475659368000,7.117367919921875,-0.08104133605957031,0.016077756881713867,0.005634009838104248
1772726475668885500,7.126885498046875,-0.023939132690429688,-0.010451793670654297,-0.01306229829788208
1772726475678403000,7.136403076171875,0.004033088684082031,0.012606620788574219,-0.027432918548583984
1772726475687920600,7.145920654296875,0.0221099853515625,0.01634359359741211,-0.042455077171325684
1772726475697438200,7.155438232421875,0.044651031494140625,0.017502784729003906,-0.043129026889801025
1772726475706955800,7.164955810546875,0.08111858367919922,0.02298283576965332,-0.02658998966217041
1772726475716473000,7.17447314453125,0.09605216979980469,0.03253483772277832,-0.042474985122680664
1772726475725991000,7.183990966796875,0.0874319076538086,0.03660845756530762,-0.0557934045791626
1772726475735508200,7.19350830078125,0.10027027130126953,0.018927335739135742,-0.14024114608764648
1772726475745026000,7.203026123046875,0.05878734588623047,0.015424489974975586,-0.12093585729598999
1772726475754543600,7.212543701171875,0.020109176635742188,0.0007052421569824219,-0.0793229341506958
1772726475764061000,7.22206103515625,-0.0276031494140625,0.019886016845703125,-0.007910430431365967
1772726475773578800,7.231578857421875,-0.03704071044921875,0.034641265869140625,0.006719410419464111
1772726475783096000,7.241095947265625,-0.05334758758544922,0.03745269775390625,-0.008604764938354492
1772726475792613600,7.250613525390625,-0.031579017639160156,-0.007140398025512695,0.03350132703781128
1772726475802131200,7.260131103515625,0.001796722412109375,-0.02097797393798828,0.046569645404815674
1772726475811648800,7.269648681640625,0.04192829132080078,-0.0188601016998291,0.02375316619873047
1772726475821166300,7.279166259765625,0.08867359161376953,-0.0009598731994628906,-0.006033837795257568
1772726475830684000,7.288683837890625,0.05251026153564453,0.016098976135253906,-0.01378089189529419
1772726475840201500,7.298201416015625,0.03364753723144531,0.011303186416625977,-0.0036613941192626953
1772726475849719000,7.307718994140625,-0.027162551879882812,0.03241372108459473,0.026211857795715332
1772726475859236600,7.317236572265625,-0.0636129379272461,0.011295318603515625,0.043695807456970215
1772726475868754200,7.326754150390625,-0.10456657409667969,0.01025843620300293,-0.0060596466064453125
1772726475878271700,7.336271728515625,-0.107818603515625,0.015386104583740234,-0.021163225173950195
1772726475887789300,7.345789306640625,-0.09508037567138672,-0.011218070983886719,-0.015698015689849854
1772726475897307000,7.355306884765625,-0.08048534393310547,-0.01309061050415039,-0.0009393692016601562
1772726475906824400,7.364824462890625,-0.01660919189453125,-0.005686759948730469,-0.006843984127044678
1772726475916341800,7.374341796875,0.07723522186279297,-0.004143714904785156,-0.023415029048919678
1772726475925859600,7.383859619140625,0.08528804779052734,0.0008878707885742188,-0.036782801151275635
1772726475935377000,7.393376953125,0.07236194610595703,-0.0233151912689209,-0.01945197582244873
1772726475944894500,7.40289453125,0.05026435852050781,-0.03315401077270508,-0.03351116180419922
1772726475954412000,7.412412109375,0.023690223693847656,-0.01661968231201172,-0.03585141897201538
1772726475963929600,7.4219296875,-0.01678943634033203,-0.016289234161376953,-0.017449796199798584
1772726475973447200,7.431447265625,-0.02377796173095703,0.010248184204101562,-0.01822572946548462
1772726475982964700,7.44096484375,-0.011805534362792969,0.010464191436767578,-0.0021787285804748535
1772726475992482300,7.450482421875,-0.016454696655273438,-0.015308618545532227,0.02319204807281494
1772726476002000000,7.459999755859375,-0.0068416595458984375,0.013365745544433594,0.013311386108398438
1772726476011517400,7.469517333984375,0.04280853271484375,0.027018308639526367,0.023058176040649414
1772726476021035000,7.479034912109375,0.040009498596191406,-0.0022821426391601562,0.027989864349365234
1772726476030552600,7.488552490234375,0.0067691802978515625,0.008635520935058594,0.04699063301086426
1772726476040070100,7.498070068359375,0.016508102416992188,0.014456033706665039,0.046764254570007324
1772726476049587700,7.507587646484375,0.011920928955078125,0.05557656288146973,0.018179893493652344
1772726476059105300,7.517105224609375,-0.03029632568359375,0.025586843490600586,0.006562292575836182
1772726476068622600,7.52662255859375,-0.06485176086425781,0.008137941360473633,0.030438363552093506
1772726476078140400,7.536140380859375,-0.06374168395996094,0.03152942657470703,0.04214388132095337
1772726476087657700,7.54565771484375,-0.053455352783203125,0.003362417221069336,0.03724294900894165
1772726476097175300,7.55517529296875,-0.06472969055175781,0.020909786224365234,0.02989715337753296
1772726476106692900,7.56469287109375,-0.035925865173339844,-0.010980606079101562,0.013048946857452393
1772726476116210400,7.57421044921875,0.020582199096679688,-0.0022897720336914062,0.014806151390075684
1772726476125728000,7.58372802734375,0.021997451782226562,-0.0008227825164794922,-0.019410908222198486
1772726476135245600,7.59324560546875,0.0022211074829101562,-0.008858680725097656,-0.02982032299041748
1772726476144763100,7.60276318359375,0.025180816650390625,-0.014573812484741211,-0.009560585021972656
1772726476154280700,7.61228076171875,0.057349205017089844,-0.015920400619506836,-0.022299587726593018
1772726476163798300,7.62179833984375,0.03750801086425781,-0.024996042251586914,0.017524242401123047
1772726476173315800,7.63131591796875,0.032317161560058594,-0.029693603515625,0.026469111442565918
1772726476182833400,7.64083349609375,0.02717304229736328,-0.03664255142211914,0.044175148010253906
1772726476192351000,7.65035107421875,-0.008697509765625,-0.03356766700744629,0.016232669353485107
1772726476201868500,7.65986865234375,-0.04422569274902344,-0.006362438201904297,0.0167502760887146
1772726476211386000,7.66938623046875,-0.04411792755126953,0.032799720764160156,0.017032265663146973
1772726476220903400,7.6789033203125,-0.02047252655029297,0.0408177375793457,-0.005426526069641113
1772726476230421200,7.688421142578125,0.007668495178222656,0.0412442684173584,-0.02697575092315674
1772726476239938600,7.6979384765625,0.012078285217285156,0.008016347885131836,0.001380324363708496
1772726476249456000,7.7074560546875,0.01905536651611328,0.01459050178527832,0.04826122522354126
1772726476258974000,7.716973876953125,0.016649246215820312,-0.0029010772705078125,0.05650055408477783
1772726476268491300,7.7264912109375,-0.00004673004150390625,-0.01259922981262207,0.05438333749771118
1772726476278008800,7.7360087890625,-0.030874252319335938,0.025707483291625977,0.01462399959564209
1772726476287526400,7.7455263671875,-0.07791423797607422,0.054780006408691406,-0.004911482334136963
1772726476297044000,7.7550439453125,-0.09851455688476562,0.03934764862060547,-0.026034057140350342
1772726476306561500,7.7645615234375,-0.10715293884277344,-0.001302957534790039,-0.016174614429473877
1772726476316079000,7.7740791015625,-0.031035423278808594,-0.008085012435913086,-0.0371127724647522
1772726476325596700,7.7835966796875,0.04611778259277344,-0.021762847900390625,-0.029965758323669434
1772726476335114200,7.7931142578125,0.1149139404296875,-0.03290247917175293,-0.006941258907318115
1772726476344631800,7.8026318359375,0.16623592376708984,-0.05133461952209473,0.0013541579246520996
1772726476354149400,7.8121494140625,0.18884754180908203,-0.03992748260498047,0.025880098342895508
1772726476363667000,7.8216669921875,0.18576526641845703,-0.030193328857421875,0.019733846187591553
1772726476373184500,7.8311845703125,0.1575469970703125,-0.029488325119018555,0.030679702758789062
1772726476382702000,7.8407021484375,0.12561988830566406,-0.018427610397338867,0.02753347158432007
1772726476392219600,7.8502197265625,0.014459609985351562,0.003666400909423828,-0.0008804798126220703
1772726476401737000,7.859737060546875,-0.08324623107910156,0.04234027862548828,0.03254944086074829
1772726476411254800,7.8692548828125,-0.1423778533935547,0.03983116149902344,0.024835526943206787
1772726476420772000,7.878772216796875,-0.20598316192626953,0.05117177963256836,0.01724189519882202
1772726476430289700,7.88828955078125,-0.19156265258789062,0.04765892028808594,0.01422804594039917
1772726476439807200,7.89780712890625,-0.1330089569091797,0.040341854095458984,-0.007937729358673096
1772726476449324800,7.90732470703125,-0.04724693298339844,0.004995107650756836,-0.039496421813964844
1772726476458842400,7.91684228515625,0.0632314682006836,-0.021062374114990234,-0.07995206117630005
1772726476468360000,7.92635986328125,0.12047100067138672,-0.0382993221282959,-0.06339466571807861
1772726476477877500,7.93587744140625,0.1252756118774414,-0.04663705825805664,-0.06144428253173828
1772726476487395000,7.94539501953125,0.09969806671142578,-0.008463382720947266,-0.056601107120513916
1772726476496912600,7.95491259765625,0.051204681396484375,-0.008999824523925781,-0.03248190879821777
1772726476506430200,7.96443017578125,0.010556221008300781,-0.018879413604736328,-0.02054351568222046
1772726476515947800,7.97394775390625,-0.005946159362792969,-0.021425724029541016,-0.032687366008758545
1772726476525465300,7.98346533203125,-0.017595291137695312,-0.023599624633789062,-0.011789023876190186
1772726476534983000,7.99298291015625,-0.01747894287109375,-0.011126995086669922,0.020337700843811035
1772726476544500500,8.00250048828125,-0.036319732666015625,-0.007840871810913086,0.028865456581115723
1772726476554017800,8.012017822265625,-0.022005081176757812,-0.0277559757232666,0.05672010779380798
1772726476563535600,8.02153564453125,0.006285667419433594,-0.016961336135864258,0.03033238649368286
1772726476573053000,8.031052978515625,0.048496246337890625,0.0070683956146240234,-0.01653069257736206
1772726476582570500,8.040570556640626,0.03380107879638672,-0.0006439685821533203,0.026706695556640625
1772726476592088000,8.050088134765625,0.05017662048339844,0.0075397491455078125,0.0006092190742492676
1772726476601605600,8.059605712890624,0.035854339599609375,0.008095026016235352,-0.01792687177658081
1772726476611123200,8.069123291015625,-0.018198013305664062,0.010946989059448242,-0.005313217639923096
1772726476620640800,8.078640869140624,-0.07846260070800781,0.018667936325073242,0.01214975118637085
1772726476630158300,8.088158447265625,-0.08613777160644531,0.01737523078918457,0.008372306823730469
1772726476639676000,8.097676025390625,-0.09396553039550781,-0.0019693374633789062,0.04692357778549194
1772726476649193500,8.107193359375,-0.06676101684570312,-0.005904674530029297,0.030133545398712158
1772726476658711000,8.1167109375,-0.04743480682373047,0.0005533695220947266,0.010796129703521729
1772726476668228600,8.126228515625,-0.04290771484375,0.010109424591064453,-0.030195176601409912
1772726476677746200,8.13574609375,-0.0033826828002929688,0.02703571319580078,-0.0218966007232666
1772726476687263700,8.145263671875,0.04729652404785156,0.0058536529541015625,-0.037543416023254395
1772726476696781300,8.15478125,0.09033203125,0.017267227172851562,-0.048262953758239746
1772726476706298600,8.164298583984374,0.09989261627197266,-0.012054920196533203,-0.03551298379898071
1772726476715816400,8.17381640625,0.05774402618408203,0.015052080154418945,-0.015577316284179688
1772726476725333800,8.183333740234374,0.0045623779296875,0.006479024887084961,0.04725748300552368
1772726476734851300,8.192851318359375,-0.05953693389892578,0.021811246871948242,0.05573832988739014
1772726476744369000,8.202368896484375,-0.08970069885253906,-0.0028388500213623047,0.05272582173347473
1772726476753886500,8.211886474609376,-0.07702255249023438,0.024751901626586914,0.035830557346343994
1772726476763404000,8.221404052734375,-0.010397911071777344,-0.018805742263793945,0.06866768002510071
1772726476772921600,8.230921630859376,0.05521106719970703,-0.03836560249328613,0.0468449592590332
1772726476782439200,8.240439208984375,0.08460330963134766,-0.006314516067504883,-0.002902805805206299
1772726476791956700,8.249956787109374,0.09503650665283203,0.005465030670166016,-0.04207497835159302
1772726476801474300,8.259474365234375,0.08912086486816406,-0.002582073211669922,-0.0241091251373291
1772726476810991900,8.268991943359374,0.012803077697753906,-0.04136919975280762,-0.02319037914276123
1772726476820509400,8.278509521484375,-0.0552825927734375,-0.05336356163024902,-0.003536224365234375
1772726476830027000,8.288027099609375,-0.07769107818603516,-0.03649282455444336,-0.0007675886154174805
1772726476839544600,8.297544677734376,-0.06941699981689453,-0.02616119384765625,-0.014302313327789307
1772726476849062100,8.307062255859375,-0.12276649475097656,-0.0056765079498291016,-0.027198970317840576
1772726476858579500,8.316579345703126,-0.13552093505859375,0.005905628204345703,-0.027868688106536865
1772726476868097300,8.32609716796875,-0.12000656127929688,0.027170181274414062,-0.06161940097808838
1772726476877614600,8.335614501953126,-0.07666015625,0.001271963119506836,-0.06511682271957397
1772726476887132200,8.345132080078125,0.0034399032592773438,-0.0051610469818115234,-0.06546962261199951
1772726476896650000,8.35464990234375,0.03266620635986328,0.00039124488830566406,-0.03898286819458008
1772726476906167300,8.364167236328125,0.07305049896240234,-0.02456355094909668,0.00013691186904907227
1772726476915684900,8.373684814453124,0.06796073913574219,0.01701664924621582,0.01253664493560791
1772726476925202400,8.383202392578125,0.08429145812988281,0.008298158645629883,0.042650043964385986
1772726476934720000,8.392719970703125,0.17127227783203125,-0.010376930236816406,0.07602167129516602
1772726476944237600,8.402237548828126,0.20089340209960938,-0.020685911178588867,0.04415437579154968
1772726476953755100,8.411755126953125,0.23074722290039062,-0.025655746459960938,0.032361626625061035
1772726476963272700,8.421272705078126,0.18790817260742188,0.0004012584686279297,0.011772513389587402
1772726476972790300,8.430790283203125,0.10156440734863281,0.019977807998657227,0.015036582946777344
1772726476982307800,8.440307861328124,0.03085041046142578,0.02720189094543457,0.036680519580841064
1772726476991825400,8.449825439453125,-0.06957244873046875,0.018602848052978516,0.059951454401016235
1772726477001343000,8.459343017578124,-0.1595287322998047,0.009479761123657227,0.052100181579589844
1772726477010860500,8.468860595703125,-0.19925785064697266,0.01891040802001953,0.0070386528968811035
1772726477020378000,8.478378173828125,-0.1989154815673828,0.025133848190307617,0.010000526905059814
1772726477029895700,8.487895751953126,-0.11655902862548828,-0.003144979476928711,-0.010801076889038086
1772726477039413000,8.4974130859375,-0.033272743225097656,-0.026152849197387695,-0.029194295406341553
1772726477048930800,8.506930908203126,0.01824474334716797,-0.016429424285888672,-0.06625008583068848
1772726477058448100,8.5164482421875,0.06696033477783203,-0.017404794692993164,-0.07441872358322144
1772726477067965700,8.525965576171876,0.1272563934326172,-0.0012087821960449219,-0.08204793930053711
1772726477077483300,8.535483154296875,0.14005470275878906,-0.04326224327087402,-0.0680769681930542
1772726477087000800,8.545000732421874,0.11300373077392578,-0.0550389289855957,-0.03795570135116577
1772726477096518400,8.554518310546875,0.06760787963867188,-0.02441716194152832,-0.027582824230194092
1772726477106036000,8.564035888671874,0.04632282257080078,0.008480548858642578,-0.020071208477020264
1772726477115553500,8.573553466796875,-0.03385448455810547,0.025428056716918945,-0.010919749736785889
1772726477125071000,8.583071044921875,-0.08492279052734375,0.04332590103149414,0.01665496826171875
1772726477134588700,8.592588623046876,-0.10717010498046875,0.05942392349243164,0.02567523717880249
1772726477144106200,8.602106201171875,-0.03258514404296875,0.07300448417663574,0.06564807891845703
1772726477153623800,8.611623779296876,0.0245819091796875,0.050310611724853516,0.03234833478927612
1772726477163141400,8.621141357421875,0.057700157165527344,0.03156614303588867,0.016423702239990234
1772726477172659000,8.630658935546874,0.05067157745361328,0.011949539184570312,0.03086674213409424
1772726477182176500,8.640176513671875,0.01566314697265625,0.01566171646118164,0.008852243423461914
1772726477191693800,8.64969384765625,-0.07550525665283203,0.010610580444335938,0.03168720006942749
1772726477201211600,8.659211669921875,-0.13731861114501953,0.023305177688598633,0.033543288707733154
1772726477210729000,8.66872900390625,-0.1139364242553711,-0.012109518051147461,0.03794527053833008
1772726477220246500,8.67824658203125,-0.08176422119140625,-0.010933637619018555,0.02860790491104126
1772726477229764000,8.68776416015625,0.011203765869140625,-0.019578218460083008,-0.02505737543106079
1772726477239281700,8.69728173828125,0.08887767791748047,-0.008048295974731445,-0.0292128324508667
1772726477248799200,8.70679931640625,0.11151695251464844,-0.030844926834106445,-0.053093552589416504
1772726477258316800,8.71631689453125,0.08452892303466797,-0.03498125076293945,-0.034869492053985596
1772726477267834400,8.72583447265625,-0.01743602752685547,-0.03638267517089844,0.003921210765838623
1772726477277352000,8.73535205078125,-0.08749961853027344,-0.020221233367919922,-0.00258713960647583
1772726477286869500,8.744869384765625,-0.14509010314941406,-0.03352046012878418,0.03898465633392334
1772726477296387000,8.754386962890624,-0.09383964538574219,-0.017283201217651367,0.0334700345993042
1772726477305904600,8.763904541015625,-0.045981407165527344,-0.024409770965576172,0.02997875213623047
1772726477315422200,8.773422119140625,0.0034532546997070312,-0.0032830238342285156,-0.03255891799926758
1772726477324939800,8.782939697265626,0.03818225860595703,0.00514674186706543,-0.011288642883300781
1772726477334457300,8.792457275390625,0.03972911834716797,-0.01097869873046875,0.03339958190917969
1772726477343974700,8.801974609375,0.013234138488769531,0.0007748603820800781,0.06305590271949768
1772726477353492500,8.811492431640625,-0.047972679138183594,-0.0021049976348876953,0.04088020324707031
1772726477363009800,8.821009765625,-0.06344985961914062,0.046875,0.021761715412139893
1772726477372527400,8.83052734375,-0.0034456253051757812,0.03175711631774902,0.024501562118530273
1772726477382045000,8.840044921875,0.04131126403808594,-0.013338804244995117,-0.012795090675354004
1772726477391562500,8.8495625,0.0639486312866211,-0.047860145568847656,0.0156211256980896
1772726477401080000,8.859080078125,0.04372406005859375,-0.04860377311706543,-0.0323563814163208
1772726477410597600,8.86859765625,0.00745391845703125,-0.014182567596435547,-0.027172207832336426
1772726477420115200,8.878115234375,-0.04211616516113281,-0.015978097915649414,0.010004162788391113
1772726477429632800,8.8876328125,-0.09301471710205078,0.00542449951171875,-0.008764505386352539
1772726477439150300,8.897150390625,-0.07004356384277344,0.019254684448242188,-0.04335176944732666
1772726477448668000,8.90666796875,-0.0711374282836914,0.00487971305847168,-0.03360295295715332
1772726477458185500,8.916185546875,-0.05844688415527344,0.0008370876312255859,-0.0469784140586853
1772726477467703000,8.925703125,-0.07001495361328125,-0.002084016799926758,-0.04116624593734741
1772726477477220600,8.935220703125,-0.08669281005859375,-0.005872249603271484,0.000949859619140625
1772726477486738200,8.94473828125,-0.06109905242919922,0.00794076919555664,0.031026065349578857
1772726477496255500,8.95425537109375,0.018232345581054688,0.0239865779876709,0.06911963224411011
1772726477505773300,8.963773193359375,0.16022872924804688,-0.005995035171508789,0.06782960891723633
1772726477515290600,8.97329052734375,0.23012351989746094,-0.035361528396606445,0.05780920386314392
1772726477524808200,8.98280810546875,0.2550973892211914,-0.029211044311523438,0.02916651964187622
1772726477534325800,8.99232568359375,0.16733837127685547,-0.020132064819335938,0.041259050369262695
1772726477543843300,9.00184326171875,0.02472400665283203,0.016700267791748047,0.053679704666137695
1772726477553361000,9.01136083984375,-0.11579418182373047,0.013720273971557617,0.030759096145629883
1772726477562878500,9.02087841796875,-0.11561298370361328,-0.0021300315856933594,0.04300922155380249
1772726477572396000,9.03039599609375,-0.0638580322265625,0.0017199516296386719,0.04622569680213928
1772726477581913600,9.03991357421875,-0.013103485107421875,-0.003494739532470703,0.021333038806915283
1772726477591431200,9.04943115234375,-0.012862205505371094,-0.026783227920532227,-0.0010294318199157715
1772726477600948700,9.05894873046875,-0.055321693420410156,-0.008803844451904297,-0.03517252206802368
1772726477610466300,9.06846630859375,-0.05725669860839844,0.0068492889404296875,-0.09101539850234985
1772726477619984000,9.07798388671875,-0.021442413330078125,0.01725006103515625,-0.09240680932998657
1772726477629501400,9.08750146484375,-0.03542041778564453,-0.015393972396850586,-0.055657267570495605
1772726477639019000,9.09701904296875,-0.02529144287109375,-0.015346765518188477,-0.01857393980026245
1772726477648536300,9.106536376953125,-0.04566383361816406,-0.029860496520996094,-0.01113957166671753
1772726477658054100,9.11605419921875,-0.08213996887207031,-0.018122434616088867,-0.011994540691375732
1772726477667571500,9.125571533203125,-0.08770751953125,0.04358077049255371,-0.04838746786117554
1772726477677089000,9.135089111328124,-0.11713123321533203,0.04887866973876953,-0.0398905873298645
1772726477686606600,9.144606689453125,-0.08528709411621094,0.015054464340209961,-0.01817941665649414
1772726477696124200,9.154124267578124,0.0023174285888671875,0.022145748138427734,-0.004761397838592529
1772726477705641700,9.163641845703125,0.05566692352294922,0.026362180709838867,-0.017473042011260986
1772726477715159300,9.1731591796875,0.14616107940673828,-0.012958526611328125,0.005040347576141357
1772726477724676900,9.1826767578125,0.21698570251464844,-0.04415631294250488,0.014681458473205566
1772726477734194400,9.1921943359375,0.237823486328125,-0.05310821533203125,0.053963541984558105
1772726477743712000,9.2017119140625,0.20444488525390625,-0.06248641014099121,0.07672172784805298
1772726477753229600,9.2112294921875,0.06080818176269531,-0.01193857192993164,0.0704546570777893
1772726477762747100,9.2207470703125,-0.038651466369628906,0.02544569969177246,0.06326502561569214
1772726477772264700,9.2302646484375,-0.0640096664428711,0.07535505294799805,0.025684654712677002
1772726477781782300,9.2397822265625,-0.004283905029296875,0.07746100425720215,-0.042071521282196045
1772726477791299800,9.2492998046875,0.10189342498779297,0.03127169609069824,-0.03890633583068848
1772726477800817200,9.258817138671875,0.1549816131591797,0.0031697750091552734,-0.016277670860290527
1772726477810335000,9.2683349609375,0.16757774353027344,-0.023463010787963867,-0.052089691162109375
1772726477819852300,9.277852294921875,0.10263824462890625,0.008202552795410156,-0.06664860248565674
1772726477829369900,9.287369873046876,-0.027177810668945312,0.013651609420776367,-0.022258758544921875
1772726477838887400,9.296887451171875,-0.19522762298583984,0.017773151397705078,-0.05378192663192749
1772726477848405000,9.306405029296876,-0.28337955474853516,0.03994917869567871,-0.0015385746955871582
1772726477857922600,9.315922607421875,-0.29768943786621094,0.05181288719177246,0.046661555767059326
1772726477867440000,9.325440185546874,-0.2817392349243164,0.027698040008544922,0.06768941879272461
1772726477876957700,9.334957763671875,-0.23365306854248047,0.03130316734313965,0.07866793870925903
1772726477886475300,9.344475341796874,-0.010019302368164062,-0.019457340240478516,0.008826673030853271
1772726477895992800,9.353992919921875,0.14206600189208984,-0.0825948715209961,-0.02885568141937256
1772726477905510400,9.363510498046875,0.1721782684326172,-0.1015768051147461,0.03726130723953247
1772726477915028000,9.373028076171876,0.0937948226928711,-0.07609009742736816,0.04171943664550781
1772726477924545500,9.382545654296875,-0.0020771026611328125,-0.010918617248535156,-0.0022135376930236816
1772726477934063000,9.39206298828125,-0.04931831359863281,0.05581378936767578,-0.03000164031982422
1772726477943580700,9.40158056640625,-0.04171562194824219,0.06082773208618164,-0.010253846645355225
1772726477953098200,9.41109814453125,-0.024843215942382812,0.0452117919921875,0.05958980321884155
1772726477962615600,9.420615478515625,0.04354381561279297,-0.0007741451263427734,0.0649338960647583
1772726477972133400,9.43013330078125,0.13684940338134766,-0.02557516098022461,0.03799629211425781
1772726477981651000,9.43965087890625,0.1888408660888672,-0.03444528579711914,0.014535963535308838
1772726477991168500,9.44916845703125,0.16484832763671875,-0.03452134132385254,0.02518373727798462
1772726478000685800,9.458685791015625,0.1345386505126953,-0.040326595306396484,-0.014228999614715576
1772726478010203600,9.46820361328125,0.12154769897460938,-0.011626958847045898,-0.0479586124420166
1772726478019721000,9.477720947265626,0.035836219787597656,-0.006860256195068359,-0.0689237117767334
1772726478029238500,9.487238525390625,-0.053488731384277344,0.013032674789428711,-0.07214075326919556
1772726478038756000,9.496756103515626,-0.17725276947021484,0.036839962005615234,-0.0627240538597107
1772726478048273700,9.506273681640625,-0.2173147201538086,0.048027992248535156,-0.020917415618896484
1772726478057791200,9.515791259765624,-0.15586185455322266,0.03387951850891113,-0.039588212966918945
1772726478067308800,9.525308837890625,-0.07184219360351562,0.0220339298248291,0.0284268856048584
1772726478076826400,9.534826416015624,0.0017023086547851562,-0.007134675979614258,0.07583498954772949
1772726478086344000,9.544343994140625,0.043829917907714844,-0.025104999542236328,0.061514198780059814
1772726478095861500,9.553861572265625,0.03128814697265625,-0.014697074890136719,0.08408015966415405
1772726478105379000,9.563379150390626,0.020987510681152344,0.043709516525268555,0.013424932956695557
1772726478114896600,9.572896728515625,-0.05555248260498047,0.1170051097869873,-0.047515869140625
1772726478124414200,9.582414306640626,0.0017042160034179688,0.14280128479003906,-0.04122567176818848
1772726478133931800,9.591931884765625,0.06952667236328125,-0.025080204010009766,0.0748475193977356
1772726478143449300,9.601449462890624,0.2691650390625,-0.19937396049499512,0.37253332138061523
1772726478152966700,9.610966552734375,0.29879093170166016,-0.2762107849121094,0.3379816710948944
1772726478162484500,9.620484375,0.013294219970703125,-0.10512232780456543,-0.06721240282058716
1772726478172001800,9.630001708984375,-0.023069381713867188,0.05547046661376953,-0.1830766201019287
1772726478181519400,9.639519287109374,0.0702667236328125,0.07849502563476562,-0.1444292664527893
1772726478191037000,9.649036865234375,0.11104297637939453,0.09858584403991699,-0.16683310270309448
1772726478200554500,9.658554443359375,-0.005550384521484375,-0.016180992126464844,0.029867708683013916
