time,seconds_elapsed,z,y,x
1772726468665076700,0.12307666015625,8.812766075134277,3.933800458908081,0.014356935396790504
1772726468674594300,0.13259423828125,8.752944946289062,3.9601213932037354,0.031106693670153618
1772726468684112000,0.14211181640625,8.810373306274414,3.972085475921631,-0.01196411345154047
1772726468693629400,0.15162939453125,8.906085968017578,3.955335855484009,-0.07657032459974289
1772726468703147000,0.16114697265625,8.94676399230957,3.902693748474121,-0.13639089465141296
1772726468712664600,0.17066455078125,8.95394229888916,3.9122650623321533,-0.1818545162677765
1772726468722182100,0.18018212890625,8.970691680908203,3.924229145050049,-0.18903298676013947
1772726468731699700,0.18969970703125,8.949156761169434,3.924229145050049,-0.16510476171970367
1772726468741217300,0.19921728515625,8.997013092041016,3.9314076900482178,-0.19142581522464752
1772726468750734800,0.20873486328125,9.116654396057129,3.955335855484009,-0.19621145725250244
1772726468760252400,0.21825244140625,9.265008926391602,3.9194436073303223,-0.1746760457754135
1772726468769770000,0.22777001953125,9.370293617248535,3.88594388961792,-0.15553347766399384
1772726468779287600,0.23728759765625,9.45164966583252,3.8333017826080322,-0.20817556977272034
1772726468788804900,0.246804931640625,9.518648147583008,3.8596229553222656,-0.26560330390930176
1772726468798322700,0.25632275390625,9.547362327575684,3.87876558303833,-0.2799602448940277
1772726468807840000,0.265840087890625,9.592825889587402,3.862015724182129,-0.2727817893028259
1772726468817357600,0.275357666015625,9.614361763000488,3.8117663860321045,-0.2847459018230438
1772726468826875100,0.284875244140625,9.650253295898438,3.8213376998901367,-0.27756741642951965
1772726468836392700,0.294392822265625,9.640682220458984,3.768695592880249,-0.3326023519039154
1772726468845910300,0.30391015625,9.590433120727539,3.7806596755981445,-0.3900300860404968
1772726468855427800,0.313427734375,9.468399047851562,3.792623996734619,-0.46420758962631226
1772726468864945400,0.3229453125,9.269794464111328,3.7878382205963135,-0.4139583110809326
1772726468874463000,0.332462890625,9.083154678344727,3.775874137878418,-0.32542386651039124
1772726468883980500,0.34198046875,8.951549530029297,3.730410575866699,-0.28953152894973755
1772726468893498000,0.351498046875,8.906085968017578,3.751945972442627,-0.26081767678260803
1772726468903015400,0.361015380859375,8.908478736877441,3.8117663860321045,-0.3278166949748993
1772726468912533000,0.370532958984375,8.891729354858398,3.806980848312378,-0.33738797903060913
1772726468922050800,0.38005078125,8.894122123718262,3.799802303314209,-0.31345975399017334
1772726468931568000,0.389568115234375,8.886942863464355,3.8045880794525146,-0.2727817893028259
1772726468941085700,0.399085693359375,8.884550094604492,3.792623996734619,-0.27756741642951965
1772726468950603300,0.408603271484375,8.901300430297852,3.8261234760284424,-0.2919243574142456
1772726468960120800,0.418120849609375,8.910871505737305,3.82373046875,-0.3158525824546814
1772726468969638400,0.427638427734375,8.934800148010254,3.8285162448883057,-0.35413774847984314
1772726468979156000,0.437156005859375,8.992227554321289,3.830909013748169,-0.3445664644241333
1772726468988673500,0.446673583984375,9.104690551757812,3.8261234760284424,-0.2919243574142456
1772726468998191000,0.456191162109375,9.332008361816406,3.8500516414642334,-0.2847459018230438
1772726469007708700,0.465708740234375,9.501898765563965,3.8213376998901367,-0.3684946894645691
1772726469017226200,0.475226318359375,9.53061294555664,3.8045880794525146,-0.3086741268634796
1772726469026743800,0.484743896484375,9.456435203552246,3.8189449310302734,-0.22971096634864807
1772726469036261400,0.494261474609375,9.365508079528809,3.806980848312378,-0.22013968229293823
1772726469045779000,0.503779052734375,9.300901412963867,3.814159393310547,-0.2799602448940277
1772726469055296500,0.513296630859375,9.286544799804688,3.8333017826080322,-0.28235307335853577
1772726469064813800,0.522813720703125,9.305686950683594,3.8500516414642334,-0.2727817893028259
1772726469074331400,0.532331298828125,9.31047248840332,3.845266103744507,-0.2799602448940277
1772726469083849000,0.541848876953125,9.279366493225098,3.806980848312378,-0.2799602448940277
1772726469093366500,0.551366455078125,9.272188186645508,3.7902309894561768,-0.2847459018230438
1772726469102884000,0.560884033203125,9.272188186645508,3.768695592880249,-0.2967100143432617
1772726469112401700,0.570401611328125,9.279366493225098,3.7710886001586914,-0.36610186100006104
1772726469121919200,0.579919189453125,9.219545364379883,3.775874137878418,-0.4019941985607147
1772726469131436800,0.589436767578125,9.08554744720459,3.7543387413024902,-0.38285163044929504
1772726469140954400,0.598954345703125,9.061619758605957,3.7782669067382812,-0.3445664644241333
1772726469150472000,0.608471923828125,9.107083320617676,3.7543387413024902,-0.3326023519039154
1772726469159989500,0.617989501953125,9.233902931213379,3.720839262008667,-0.3158525824546814
1772726469169507000,0.627507080078125,9.322437286376953,3.6849467754364014,-0.3326023519039154
1772726469179024600,0.637024658203125,9.298508644104004,3.689732551574707,-0.34217363595962524
1772726469188542000,0.6465419921875,9.248259544372559,3.7112679481506348,-0.380458801984787
1772726469198059800,0.656059814453125,9.183652877807617,3.7160534858703613,-0.38763725757598877
1772726469207577000,0.6655771484375,9.17886734008789,3.7160534858703613,-0.38763725757598877
1772726469217094700,0.6750947265625,9.20279598236084,3.720839262008667,-0.45224347710609436
1772726469226612200,0.6846123046875,9.207581520080566,3.6921253204345703,-0.4713860750198364
1772726469236129800,0.6941298828125,9.154939651489258,3.696911096572876,-0.4737788736820221
1772726469245647400,0.7036474609375,9.095118522644043,3.6921253204345703,-0.4498506486415863
1772726469255165000,0.7131650390625,9.104690551757812,3.6873397827148438,-0.44027936458587646
1772726469264682500,0.7226826171875,9.073583602905273,3.682554006576538,-0.4570291340351105
1772726469274200000,0.732199951171875,9.044869422912598,3.665804386138916,-0.4546363055706024
1772726469283717600,0.741717529296875,9.004191398620605,3.6873397827148438,-0.43549370765686035
1772726469293235200,0.751235107421875,8.963513374328613,3.7016966342926025,-0.41874396800994873
1772726469302752800,0.760752685546875,9.042476654052734,3.6921253204345703,-0.37088751792907715
1772726469312270300,0.770270263671875,9.19561767578125,3.656233072280884,-0.3613162338733673
1772726469321788000,0.779787841796875,9.29611587524414,3.6083765029907227,-0.349352091550827
1772726469331305500,0.789305419921875,9.358329772949219,3.594019651412964,-0.3445664644241333
1772726469340822800,0.79882275390625,9.355937004089355,3.594019651412964,-0.2871387302875519
1772726469350340600,0.808340576171875,9.31047248840332,3.6299118995666504,-0.24885354936122894
1772726469359858000,0.81785791015625,9.265008926391602,3.6299118995666504,-0.18424734473228455
1772726469369375500,0.82737548828125,9.248259544372559,3.6634113788604736,-0.16271193325519562
1772726469378893000,0.83689306640625,9.248259544372559,3.6681971549987793,-0.13639089465141296
1772726469388410600,0.84641064453125,9.238688468933105,3.6394832134246826,-0.15314064919948578
1772726469397928200,0.85592822265625,9.221938133239746,3.6299118995666504,-0.15074782073497772
1772726469407445800,0.86544580078125,9.248259544372559,3.6394832134246826,-0.15553347766399384
1772726469416963300,0.87496337890625,9.245866775512695,3.620340585708618,-0.14117653667926788
1772726469426481000,0.88448095703125,9.298508644104004,3.6538400650024414,-0.1746760457754135
1772726469435998500,0.89399853515625,9.370293617248535,3.6299118995666504,-0.21774685382843018
1772726469445516000,0.90351611328125,9.363115310668945,3.651447296142578,-0.2392822653055191
1772726469455033600,0.91303369140625,9.370293617248535,3.6466617584228516,-0.2727817893028259
1772726469464551200,0.92255126953125,9.370293617248535,3.658625841140747,-0.3158525824546814
1772726469474068700,0.93206884765625,9.365508079528809,3.689732551574707,-0.3732803463935852
1772726469483586300,0.94158642578125,9.377471923828125,3.6945180892944336,-0.39481574296951294
1772726469493103600,0.951103515625,9.34875774383545,3.7016966342926025,-0.40677985548973083
1772726469502621400,0.960621337890625,9.305686950683594,3.689732551574707,-0.3684946894645691
1772726469512138800,0.970138671875,9.269794464111328,3.6849467754364014,-0.3517449200153351
1772726469521656300,0.97965625,9.253045082092285,3.6777684688568115,-0.36610186100006104
1772726469531174000,0.989173828125,9.28893756866455,3.641875982284546,-0.41156548261642456
1772726469540691500,0.99869140625,9.379864692687988,3.6299118995666504,-0.4426721930503845
1772726469550209000,1.008208984375,9.485149383544922,3.570091485977173,-0.41874396800994873
1772726469559726600,1.0177265625,9.525827407836914,3.510270833969116,-0.397208571434021
1772726469569244200,1.027244140625,9.492327690124512,3.5054850578308105,-0.363709032535553
1772726469578761700,1.03676171875,9.415757179260254,3.500699520111084,-0.33738797903060913
1772726469588279300,1.046279296875,9.343972206115723,3.5030922889709473,-0.31106695532798767
1772726469597796900,1.055796875,9.29611587524414,3.5054850578308105,-0.25363919138908386
1772726469607314400,1.065314453125,9.30329418182373,3.476771354675293,-0.2632105052471161
1772726469616832000,1.07483203125,9.29611587524414,3.517449378967285,-0.2727817893028259
1772726469626349600,1.084349609375,9.298508644104004,3.517449378967285,-0.24406790733337402
1772726469635867100,1.0938671875,9.250652313232422,3.507878065109253,-0.20578274130821228
1772726469645384400,1.103384521484375,9.176474571228027,3.510270833969116,-0.24167509377002716
1772726469654902300,1.11290234375,9.104690551757812,3.5198421478271484,-0.25363919138908386
1772726469664419600,1.122419677734375,9.09272575378418,3.579662561416626,-0.2392822653055191
1772726469673937200,1.131937255859375,9.114261627197266,3.5772697925567627,-0.22492532432079315
1772726469683454700,1.141454833984375,9.181260108947754,3.594019651412964,-0.2392822653055191
1772726469692972300,1.15097216796875,9.17886734008789,3.586841106414795,-0.25363919138908386
1772726469702489900,1.16048974609375,9.157332420349121,3.5844483375549316,-0.24167509377002716
1772726469712007400,1.17000732421875,9.159725189208984,3.6059837341308594,-0.2847459018230438
1772726469721525000,1.17952490234375,9.221938133239746,3.625126361846924,-0.2512463629245758
1772726469731042600,1.18904248046875,9.308079719543457,3.6227335929870605,-0.2967100143432617
1772726469740560100,1.19856005859375,9.355937004089355,3.589233875274658,-0.3158525824546814
1772726469750077700,1.20807763671875,9.439684867858887,3.5605201721191406,-0.32303106784820557
1772726469759595300,1.21759521484375,9.540184020996094,3.5772697925567627,-0.2847459018230438
1772726469769112600,1.227112548828125,9.554540634155273,3.5772697925567627,-0.32542386651039124
1772726469778630400,1.23663037109375,9.504291534423828,3.5437703132629395,-0.2991028428077698
1772726469788147700,1.246147705078125,9.4061861038208,3.5294134616851807,-0.29431718587875366
1772726469797665300,1.255665283203125,9.317651748657227,3.5605201721191406,-0.3086741268634796
1772726469807182800,1.265182861328125,9.19561767578125,3.562912940979004,-0.3326023519039154
1772726469816700400,1.274700439453125,9.150154113769531,3.5509488582611084,-0.3326023519039154
1772726469826218000,1.284218017578125,9.154939651489258,3.524627685546875,-0.3158525824546814
1772726469835735600,1.293735595703125,9.18843936920166,3.5341989994049072,-0.3445664644241333
1772726469845253000,1.303253173828125,9.190832138061523,3.524627685546875,-0.380458801984787
1772726469854770700,1.312770751953125,9.183652877807617,3.548556089401245,-0.4666004180908203
1772726469864288300,1.322288330078125,9.142974853515625,3.5748770236968994,-0.5144568681716919
1772726469873805800,1.331805908203125,9.133403778076172,3.570091485977173,-0.5216353535652161
1772726469883323400,1.341323486328125,9.131011009216309,3.524627685546875,-0.5072783827781677
1772726469892841000,1.350841064453125,9.17886734008789,3.4887354373931885,-0.5024927258491516
1772726469902358500,1.360358642578125,9.248259544372559,3.507878065109253,-0.5024927258491516
1772726469911876000,1.3698759765625,9.257830619812012,3.5294134616851807,-0.46420758962631226
1772726469921393400,1.379393310546875,9.298508644104004,3.5341989994049072,-0.4618147611618042
1772726469930911200,1.3889111328125,9.324830055236816,3.538984775543213,-0.4331009089946747
1772726469940428500,1.398428466796875,9.375079154968262,3.5294134616851807,-0.3924229145050049
1772726469949946000,1.407946044921875,9.408578872680664,3.500699520111084,-0.3732803463935852
1772726469959463700,1.417463623046875,9.408578872680664,3.538984775543213,-0.35413774847984314
1772726469968981200,1.426981201171875,9.353543281555176,3.555734395980835,-0.33020952343940735
1772726469978498800,1.436498779296875,9.332008361816406,3.579662561416626,-0.34217363595962524
1772726469988016400,1.446016357421875,9.317651748657227,3.572484254837036,-0.349352091550827
1772726469997534000,1.455533935546875,9.329615592956543,3.6299118995666504,-0.3397808074951172
1772726470007051500,1.465051513671875,9.353543281555176,3.589233875274658,-0.3158525824546814
1772726470016569000,1.474569091796875,9.384650230407715,3.5820555686950684,-0.3326023519039154
1772726470026086700,1.484086669921875,9.387042999267578,3.625126361846924,-0.3756731450557709
1772726470035604200,1.493604248046875,9.365508079528809,3.6227335929870605,-0.3924229145050049
1772726470045121800,1.503121826171875,9.257830619812012,3.6227335929870605,-0.3684946894645691
1772726470054639400,1.512639404296875,9.20997428894043,3.603590965270996,-0.3397808074951172
1772726470064157000,1.522156982421875,9.238688468933105,3.603590965270996,-0.3445664644241333
1772726470073674200,1.53167431640625,9.324830055236816,3.603590965270996,-0.38763725757598877
1772726470083192000,1.541192138671875,9.425328254699707,3.5748770236968994,-0.4618147611618042
1772726470092709400,1.55070947265625,9.511469841003418,3.531806230545044,-0.5264210104942322
1772726470102227000,1.56022705078125,9.53779125213623,3.5054850578308105,-0.5479564070701599
1772726470111744500,1.56974462890625,9.513862609863281,3.4959139823913574,-0.607776939868927
1772726470121262000,1.579261962890625,9.463613510131836,3.486342668533325,-0.6029912829399109
1772726470130779600,1.588779541015625,9.442078590393066,3.486342668533325,-0.5910272002220154
1772726470140297200,1.598297119140625,9.41336441040039,3.469592809677124,-0.5718846321105957
1772726470149814800,1.607814697265625,9.372686386108398,3.4504501819610596,-0.519242525100708
1772726470159332400,1.617332275390625,9.305686950683594,3.4504501819610596,-0.45942193269729614
1772726470168850000,1.626849853515625,9.226723670959473,3.460021495819092,-0.42831525206565857
1772726470178367500,1.636367431640625,9.166903495788574,3.397808074951172,-0.48574298620224
1772726470187885000,1.645885009765625,9.162117958068848,3.4959139823913574,-0.39960137009620667
1772726470197402600,1.655402587890625,9.150154113769531,3.5198421478271484,-0.4259224236011505
1772726470206920200,1.664920166015625,9.166903495788574,3.507878065109253,-0.4259224236011505
1772726470216437800,1.674437744140625,9.255437850952148,3.500699520111084,-0.4331009089946747
1772726470225955000,1.683955078125,9.291330337524414,3.4983067512512207,-0.4570291340351105
1772726470235473000,1.693472900390625,9.312865257263184,3.486342668533325,-0.4713860750198364
1772726470244990200,1.702990234375,9.308079719543457,3.5054850578308105,-0.46899324655532837
1772726470254507800,1.7125078125,9.300901412963867,3.541377544403076,-0.47617170214653015
1772726470264025300,1.722025390625,9.293723106384277,3.541377544403076,-0.4666004180908203
1772726470273543000,1.73154296875,9.257830619812012,3.555734395980835,-0.46420758962631226
1772726470283060500,1.741060546875,9.198010444641113,3.562912940979004,-0.4570291340351105
1772726470292578000,1.750578125,9.142974853515625,3.5820555686950684,-0.43549370765686035
1772726470302095600,1.760095703125,9.09272575378418,3.589233875274658,-0.4378865361213684
1772726470311613200,1.76961328125,9.133403778076172,3.579662561416626,-0.43549370765686035
1772726470321130800,1.779130859375,9.200403213500977,3.5581271648406982,-0.4331009089946747
1772726470330648300,1.7886484375,9.260223388671875,3.5341989994049072,-0.4091726839542389
1772726470340166000,1.798165771484375,9.343972206115723,3.531806230545044,-0.38763725757598877
1772726470349683500,1.807683349609375,9.387042999267578,3.493520975112915,-0.35413774847984314
1772726470359201000,1.817200927734375,9.432506561279297,3.486342668533325,-0.37088751792907715
1772726470368718600,1.826718505859375,9.387042999267578,3.4887354373931885,-0.3732803463935852
1772726470378236000,1.83623583984375,9.322437286376953,3.4504501819610596,-0.36610186100006104
1772726470387753700,1.845753662109375,9.248259544372559,3.4815568923950195,-0.3684946894645691
1772726470397271000,1.85527099609375,9.281759262084961,3.4983067512512207,-0.33020952343940735
1772726470406788600,1.86478857421875,9.387042999267578,3.531806230545044,-0.41156548261642456
1772726470416306200,1.87430615234375,9.456435203552246,3.5509488582611084,-0.49292147159576416
1772726470425823700,1.88382373046875,9.399007797241211,3.5509488582611084,-0.5527420043945312
1772726470435341300,1.89334130859375,9.241081237792969,3.562912940979004,-0.5670989751815796
1772726470444859000,1.90285888671875,9.08554744720459,3.570091485977173,-0.5431707501411438
1772726470454376400,1.91237646484375,8.97787094116211,3.5916268825531006,-0.45224347710609436
1772726470463894000,1.92189404296875,8.922835350036621,3.570091485977173,-0.38285163044929504
1772726470473411600,1.93141162109375,8.949156761169434,3.5820555686950684,-0.33738797903060913
1772726470482929200,1.94092919921875,9.040083885192871,3.5748770236968994,-0.3278166949748993
1772726470492446700,1.95044677734375,9.17886734008789,3.555734395980835,-0.30628129839897156
1772726470501964300,1.95996435546875,9.29611587524414,3.517449378967285,-0.32542386651039124
1772726470511481900,1.96948193359375,9.401400566101074,3.4911282062530518,-0.363709032535553
1772726470520999400,1.97899951171875,9.511469841003418,3.4791641235351562,-0.3565305769443512
1772726470530516700,1.988516845703125,9.554540634155273,3.486342668533325,-0.3900300860404968
1772726470540034600,1.99803466796875,9.592825889587402,3.476771354675293,-0.4043870270252228
1772726470549551900,2.0075517578125,9.513862609863281,3.5030922889709473,-0.41156548261642456
1772726470559069400,2.0170693359375,9.422935485839844,3.5198421478271484,-0.3924229145050049
1772726470568587000,2.0265869140625,9.329615592956543,3.5365917682647705,-0.3852444589138031
1772726470578104600,2.0361044921875,9.248259544372559,3.538984775543213,-0.3924229145050049
1772726470587622100,2.0456220703125,9.169296264648438,3.5509488582611084,-0.4211367964744568
1772726470597139700,2.0551396484375,9.126225471496582,3.5533416271209717,-0.4163511395454407
1772726470606657300,2.0646572265625,9.166903495788574,3.538984775543213,-0.39481574296951294
1772726470616174800,2.0741748046875,9.233902931213379,3.5150563716888428,-0.37088751792907715
1772726470625692400,2.0836923828125,9.329615592956543,3.500699520111084,-0.37088751792907715
1772726470635210000,2.0932099609375,9.399007797241211,3.4815568923950195,-0.37088751792907715
1772726470644727600,2.1027275390625,9.430113792419434,3.5054850578308105,-0.4378865361213684
1772726470654245000,2.1122451171875,9.399007797241211,3.5365917682647705,-0.44745782017707825
1772726470663762700,2.1217626953125,9.382257461547852,3.5270206928253174,-0.4546363055706024
1772726470673280300,2.1312802734375,9.33440113067627,3.5341989994049072,-0.4426721930503845
1772726470682797600,2.140797607421875,9.305686950683594,3.5150563716888428,-0.43549370765686035
1772726470692315400,2.1503154296875,9.272188186645508,3.507878065109253,-0.4546363055706024
1772726470701832700,2.159832763671875,9.300901412963867,3.5461630821228027,-0.4737788736820221
1772726470711350300,2.169350341796875,9.31047248840332,3.548556089401245,-0.4905286431312561
1772726470720867800,2.178867919921875,9.317651748657227,3.5605201721191406,-0.46420758962631226
1772726470730385400,2.188385498046875,9.291330337524414,3.524627685546875,-0.4498506486415863
1772726470739903000,2.197903076171875,9.281759262084961,3.538984775543213,-0.4570291340351105
1772726470749420500,2.207420654296875,9.253045082092285,3.517449378967285,-0.4570291340351105
1772726470758938000,2.216938232421875,9.243474006652832,3.5365917682647705,-0.4426721930503845
1772726470768455700,2.22645556640625,9.276973724365234,3.541377544403076,-0.4618147611618042
1772726470777973200,2.23597314453125,9.360722541809082,3.5270206928253174,-0.5096712112426758
1772726470787490800,2.24549072265625,9.346364974975586,3.493520975112915,-0.5240281820297241
1772726470797008400,2.25500830078125,9.260223388671875,3.452843189239502,-0.5168496966362
1772726470806526000,2.26452587890625,9.205188751220703,3.4815568923950195,-0.5000999569892883
1772726470816043500,2.27404345703125,9.190832138061523,3.4791641235351562,-0.5000999569892883
1772726470825561000,2.28356103515625,9.190832138061523,3.507878065109253,-0.4905286431312561
1772726470835078400,2.293078369140625,9.198010444641113,3.510270833969116,-0.4713860750198364
1772726470844596200,2.30259619140625,9.20279598236084,3.469592809677124,-0.4618147611618042
1772726470854113500,2.312113525390625,9.265008926391602,3.4480574131011963,-0.4618147611618042
1772726470863631400,2.32163134765625,9.370293617248535,3.4265220165252686,-0.48813581466674805
1772726470873148700,2.331148681640625,9.389435768127441,3.414557933807373,-0.48095735907554626
1772726470882666200,2.340666259765625,9.42772102355957,3.4265220165252686,-0.47617170214653015
1772726470892183800,2.350183837890625,9.45882797241211,3.4576287269592285,-0.48574298620224
1772726470901701400,2.359701416015625,9.461220741271973,3.4576287269592285,-0.5072783827781677
1772726470911219000,2.369218994140625,9.375079154968262,3.445664644241333,-0.4546363055706024
1772726470920736500,2.378736572265625,9.298508644104004,3.4648072719573975,-0.38763725757598877
1772726470930254000,2.388254150390625,9.20997428894043,3.517449378967285,-0.39960137009620667
1772726470939771600,2.397771728515625,9.186046600341797,3.541377544403076,-0.3732803463935852
1772726470949289200,2.407289306640625,9.154939651489258,3.5676984786987305,-0.3732803463935852
1772726470958806800,2.416806884765625,9.17886734008789,3.548556089401245,-0.38285163044929504
1772726470968324400,2.426324462890625,9.30329418182373,3.572484254837036,-0.380458801984787
1772726470977842000,2.435842041015625,9.355937004089355,3.5222349166870117,-0.3756731450557709
1772726470987359200,2.445359130859375,9.389435768127441,3.483949661254883,-0.3684946894645691
1772726470996877000,2.454876953125,9.44447135925293,3.4743785858154297,-0.3924229145050049
1772726471006394400,2.464394287109375,9.489934921264648,3.4815568923950195,-0.4019941985607147
1772726471015912200,2.473912109375,9.492327690124512,3.486342668533325,-0.45942193269729614
1772726471025429500,2.483429443359375,9.44447135925293,3.4983067512512207,-0.5000999569892883
1772726471034947000,2.492947021484375,9.370293617248535,3.4887354373931885,-0.4977070987224579
1772726471044464600,2.502464599609375,9.284152030944824,3.476771354675293,-0.4977070987224579
1772726471053982200,2.511982177734375,9.226723670959473,3.4552359580993652,-0.4785645306110382
1772726471063499800,2.521499755859375,9.162117958068848,3.4672000408172607,-0.45224347710609436
1772726471073017300,2.531017333984375,9.140582084655762,3.4791641235351562,-0.4331009089946747
1772726471082535000,2.540534912109375,9.133403778076172,3.500699520111084,-0.39960137009620667
1772726471092052500,2.550052490234375,9.19561767578125,3.4815568923950195,-0.3613162338733673
1772726471101570000,2.559570068359375,9.260223388671875,3.460021495819092,-0.3445664644241333
1772726471111087600,2.569087646484375,9.346364974975586,3.4552359580993652,-0.37088751792907715
1772726471120605200,2.578605224609375,9.41336441040039,3.445664644241333,-0.38285163044929504
1772726471130122800,2.588122802734375,9.42772102355957,3.431307554244995,-0.41874396800994873
1772726471139640000,2.59764013671875,9.379864692687988,3.4432718753814697,-0.44027936458587646
1772726471149158000,2.607157958984375,9.363115310668945,3.462414264678955,-0.4211367964744568
1772726471158675200,2.61667529296875,9.322437286376953,3.4719855785369873,-0.4043870270252228
1772726471168192800,2.62619287109375,9.30329418182373,3.4672000408172607,-0.38763725757598877
1772726471177710300,2.63571044921875,9.315258979797363,3.4887354373931885,-0.38285163044929504
1772726471187228000,2.645227783203125,9.41336441040039,3.4719855785369873,-0.41874396800994873
1772726471196745500,2.654745361328125,9.470791816711426,3.4743785858154297,-0.4977070987224579
1772726471206263000,2.664262939453125,9.456435203552246,3.462414264678955,-0.5216353535652161
1772726471215780600,2.673780517578125,9.42772102355957,3.460021495819092,-0.4833501875400543
1772726471225298200,2.683298095703125,9.394221305847168,3.4743785858154297,-0.5048855543136597
1772726471234815700,2.692815673828125,9.343972206115723,3.4719855785369873,-0.4666004180908203
1772726471244333300,2.702333251953125,9.274580955505371,3.486342668533325,-0.47617170214653015
1772726471253851000,2.711850830078125,9.229117393493652,3.4648072719573975,-0.47617170214653015
1772726471263368400,2.721368408203125,9.212367057800293,3.483949661254883,-0.4618147611618042
1772726471272886000,2.730885986328125,9.267401695251465,3.4719855785369873,-0.5096712112426758
1772726471282403300,2.7404033203125,9.308079719543457,3.452843189239502,-0.5264210104942322
1772726471291921000,2.7499208984375,9.29611587524414,3.421736478805542,-0.5431707501411438
1772726471301438700,2.759438720703125,9.286544799804688,3.4193434715270996,-0.5288137793540955
1772726471310956000,2.7689560546875,9.250652313232422,3.436093330383301,-0.5024927258491516
1772726471320473900,2.778473876953125,9.267401695251465,3.462414264678955,-0.48574298620224
1772726471329991200,2.7879912109375,9.31047248840332,3.4480574131011963,-0.5096712112426758
1772726471339508700,2.7975087890625,9.32004451751709,3.4576287269592285,-0.48813581466674805
1772726471349026300,2.8070263671875,9.351150512695312,3.4265220165252686,-0.4737788736820221
1772726471358544000,2.8165439453125,9.355937004089355,3.452843189239502,-0.4785645306110382
1772726471368061400,2.8260615234375,9.339186668395996,3.428914785385132,-0.48574298620224
1772726471377579000,2.8355791015625,9.324830055236816,3.445664644241333,-0.5072783827781677
1772726471387096600,2.8450966796875,9.32722282409668,3.436093330383301,-0.48574298620224
1772726471396614100,2.8546142578125,9.298508644104004,3.460021495819092,-0.48574298620224
1772726471406131700,2.864131591796875,9.31047248840332,3.4672000408172607,-0.4785645306110382
1772726471415649300,2.873649169921875,9.343972206115723,3.4743785858154297,-0.48574298620224
1772726471425166800,2.883166748046875,9.384650230407715,3.476771354675293,-0.5383850932121277
1772726471434684400,2.892684326171875,9.375079154968262,3.452843189239502,-0.5264210104942322
1772726471444202000,2.902201904296875,9.346364974975586,3.4887354373931885,-0.5048855543136597
1772726471453719600,2.911719482421875,9.324830055236816,3.4504501819610596,-0.48574298620224
1772726471463236900,2.92123681640625,9.300901412963867,3.476771354675293,-0.4570291340351105
1772726471472754700,2.930754638671875,9.322437286376953,3.4719855785369873,-0.45942193269729614
1772726471482272000,2.94027197265625,9.346364974975586,3.4719855785369873,-0.4570291340351105
1772726471491789600,2.94978955078125,9.377471923828125,3.462414264678955,-0.4666004180908203
1772726471501307100,2.95930712890625,9.401400566101074,3.4504501819610596,-0.4666004180908203
1772726471510824700,2.96882470703125,9.415757179260254,3.4408788681030273,-0.44027936458587646
1772726471520342300,2.97834228515625,9.394221305847168,3.397808074951172,-0.4259224236011505
1772726471529859800,2.98785986328125,9.391828536987305,3.4121651649475098,-0.4163511395454407
1772726471539377400,2.99737744140625,9.377471923828125,3.436093330383301,-0.4426721930503845
1772726471548895000,3.00689501953125,9.315258979797363,3.438486099243164,-0.46899324655532837
1772726471558412500,3.01641259765625,9.370293617248535,3.469592809677124,-0.4426721930503845
1772726471567930000,3.02593017578125,9.399007797241211,3.4097721576690674,-0.47617170214653015
1772726471577447700,3.03544775390625,9.339186668395996,3.4121651649475098,-0.5072783827781677
1772726471586965200,3.04496533203125,9.291330337524414,3.4097721576690674,-0.5312066078186035
1772726471596482800,3.05448291015625,9.214759826660156,3.4121651649475098,-0.5359922647476196
1772726471606000400,3.06400048828125,9.154939651489258,3.436093330383301,-0.5742774605751038
1772726471615518000,3.07351806640625,9.095118522644043,3.469592809677124,-0.607776939868927
1772726471625035500,3.083035400390625,9.07119083404541,3.4887354373931885,-0.6173482537269592
1772726471634553000,3.092552978515625,9.097511291503906,3.4815568923950195,-0.6173482537269592
1772726471644070400,3.1020703125,9.145368576049805,3.436093330383301,-0.605384111404419
1772726471653588200,3.111588134765625,9.20279598236084,3.431307554244995,-0.5647061467170715
1772726471663105500,3.12110546875,9.272188186645508,3.4241292476654053,-0.4953143000602722
1772726471672623000,3.130623046875,9.363115310668945,3.428914785385132,-0.4666004180908203
1772726471682140700,3.140140625,9.461220741271973,3.428914785385132,-0.42831525206565857
1772726471691658200,3.149658203125,9.525827407836914,3.4241292476654053,-0.4163511395454407
1772726471701175800,3.15917578125,9.588040351867676,3.414557933807373,-0.39481574296951294
1772726471710693400,3.168693359375,9.592825889587402,3.404986619949341,-0.39481574296951294
1772726471720211000,3.1782109375,9.56889820098877,3.4193434715270996,-0.40677985548973083
1772726471729728500,3.187728515625,9.499505996704102,3.4576287269592285,-0.41874396800994873
1772726471739246000,3.19724609375,9.422935485839844,3.4552359580993652,-0.43549370765686035
1772726471748763600,3.206763671875,9.403793334960938,3.4719855785369873,-0.4331009089946747
1772726471758281200,3.21628125,9.42054271697998,3.4576287269592285,-0.45224347710609436
1772726471767798800,3.225798828125,9.42772102355957,3.4408788681030273,-0.4546363055706024
1772726471777316400,3.23531640625,9.446864128112793,3.4337005615234375,-0.4546363055706024
1772726471786834000,3.244833984375,9.442078590393066,3.4408788681030273,-0.4331009089946747
1772726471796351200,3.254351318359375,9.387042999267578,3.436093330383301,-0.45942193269729614
1772726471805869000,3.263869140625,9.339186668395996,3.431307554244995,-0.4666004180908203
1772726471815386400,3.273386474609375,9.322437286376953,3.438486099243164,-0.4666004180908203
1772726471824904000,3.282904052734375,9.32004451751709,3.4265220165252686,-0.4713860750198364
1772726471834421500,3.29242138671875,9.363115310668945,3.4193434715270996,-0.48095735907554626
1772726471843939000,3.30193896484375,9.379864692687988,3.3858439922332764,-0.5240281820297241
1772726471853456600,3.31145654296875,9.384650230407715,3.3786656856536865,-0.5359922647476196
1772726471862974200,3.32097412109375,9.363115310668945,3.373879909515381,-0.5647061467170715
1772726471872491800,3.33049169921875,9.274580955505371,3.414557933807373,-0.5623133182525635
1772726471882009300,3.34000927734375,9.221938133239746,3.4337005615234375,-0.5407779216766357
1772726471891527000,3.34952685546875,9.145368576049805,3.4504501819610596,-0.519242525100708
1772726471901044500,3.35904443359375,9.114261627197266,3.4576287269592285,-0.5120640397071838
1772726471910562000,3.36856201171875,9.119047164916992,3.445664644241333,-0.4977070987224579
1772726471920079600,3.37807958984375,9.147761344909668,3.469592809677124,-0.4953143000602722
1772726471929597200,3.38759716796875,9.181260108947754,3.4337005615234375,-0.4618147611618042
1772726471939114800,3.39711474609375,9.18843936920166,3.462414264678955,-0.5072783827781677
1772726471948632000,3.406632080078125,9.257830619812012,3.4648072719573975,-0.5312066078186035
1772726471958150000,3.41614990234375,9.291330337524414,3.4887354373931885,-0.5551348328590393
1772726471967667200,3.425667236328125,9.34157943725586,3.452843189239502,-0.550349235534668
1772726471977184800,3.435184814453125,9.422935485839844,3.431307554244995,-0.5838487148284912
1772726471986702300,3.444702392578125,9.45882797241211,3.404986619949341,-0.5838487148284912
1772726471996220000,3.454219970703125,9.477970123291016,3.4097721576690674,-0.5814558863639832
1772726472005737500,3.463737548828125,9.485149383544922,3.4193434715270996,-0.5599204897880554
1772726472015255000,3.473255126953125,9.45882797241211,3.4169507026672363,-0.5838487148284912
1772726472024772600,3.482772705078125,9.389435768127441,3.414557933807373,-0.607776939868927
1772726472034290200,3.492290283203125,9.315258979797363,3.452843189239502,-0.6173482537269592
1772726472043807700,3.501807861328125,9.267401695251465,3.469592809677124,-0.6293123364448547
1772726472053325300,3.5113251953125,9.236295700073242,3.4576287269592285,-0.6173482537269592
1772726472062843000,3.5208427734375,9.205188751220703,3.462414264678955,-0.6269195079803467
1772726472072360400,3.5303603515625,9.200403213500977,3.476771354675293,-0.6245267391204834
1772726472081878000,3.5398779296875,9.279366493225098,3.4648072719573975,-0.6340979933738708
1772726472091395600,3.5493955078125,9.343972206115723,3.4552359580993652,-0.6364908218383789
1772726472100913000,3.558912841796875,9.375079154968262,3.452843189239502,-0.6340979933738708
1772726472110430700,3.5684306640625,9.363115310668945,3.4480574131011963,-0.605384111404419
1772726472119948000,3.577947998046875,9.34157943725586,3.469592809677124,-0.5838487148284912
1772726472129465600,3.587465576171875,9.300901412963867,3.4743785858154297,-0.5742774605751038
1772726472138983200,3.596983154296875,9.231510162353516,3.4887354373931885,-0.5551348328590393
1772726472148500700,3.606500732421875,9.183652877807617,3.486342668533325,-0.5335994362831116
1772726472158018300,3.616018310546875,9.20279598236084,3.476771354675293,-0.5623133182525635
1772726472167535900,3.625535888671875,9.298508644104004,3.4552359580993652,-0.6005984544754028
1772726472177053400,3.635053466796875,9.336793899536133,3.428914785385132,-0.6245267391204834
1772726472186571000,3.644571044921875,9.391828536987305,3.414557933807373,-0.6628118753433228
1772726472196088600,3.654088623046875,9.394221305847168,3.438486099243164,-0.6317051649093628
1772726472205606100,3.663606201171875,9.34157943725586,3.4504501819610596,-0.6364908218383789
1772726472215123700,3.673123779296875,9.250652313232422,3.476771354675293,-0.6556333899497986
1772726472224641300,3.682641357421875,9.169296264648438,3.5150563716888428,-0.672383189201355
1772726472234158800,3.692158935546875,9.166903495788574,3.4959139823913574,-0.6484549641609192
1772726472243676400,3.701676513671875,9.181260108947754,3.4576287269592285,-0.6364908218383789
1772726472253194000,3.711194091796875,9.231510162353516,3.4815568923950195,-0.6317051649093628
1772726472262711600,3.720711669921875,9.253045082092285,3.4911282062530518,-0.5982056856155396
1772726472272229000,3.73022900390625,9.300901412963867,3.4815568923950195,-0.5599204897880554
1772726472281746400,3.739746337890625,9.329615592956543,3.452843189239502,-0.5647061467170715
1772726472291264300,3.74926416015625,9.396614074707031,3.4552359580993652,-0.5431707501411438
1772726472300781600,3.758781494140625,9.45164966583252,3.4408788681030273,-0.5312066078186035
1772726472310299100,3.768299072265625,9.477970123291016,3.4432718753814697,-0.5024927258491516
1772726472319816700,3.777816650390625,9.533005714416504,3.469592809677124,-0.5216353535652161
1772726472329334300,3.787334228515625,9.501898765563965,3.4815568923950195,-0.5575276613235474
1772726472338851800,3.796851806640625,9.480362892150879,3.4791641235351562,-0.5359922647476196
1772726472348369400,3.806369384765625,9.437292098999023,3.4887354373931885,-0.5527420043945312
1772726472357887000,3.815886962890625,9.324830055236816,3.469592809677124,-0.5168496966362
1772726472367404500,3.825404541015625,9.20997428894043,3.493520975112915,-0.5455635786056519
1772726472376922000,3.834922119140625,9.20279598236084,3.507878065109253,-0.550349235534668
1772726472386439700,3.844439697265625,9.198010444641113,3.4672000408172607,-0.5623133182525635
1772726472395957200,3.853957275390625,9.18843936920166,3.4408788681030273,-0.5958128571510315
1772726472405474800,3.863474853515625,9.221938133239746,3.4480574131011963,-0.6149554252624512
1772726472414992400,3.872992431640625,9.28893756866455,3.431307554244995,-0.6197410821914673
1772726472424510000,3.882510009765625,9.322437286376953,3.407379388809204,-0.6699903607368469
1772726472434027300,3.89202734375,9.28893756866455,3.3858439922332764,-0.6460621356964111
1772726472443545000,3.901545166015625,9.205188751220703,3.407379388809204,-0.6221339106559753
1772726472453062400,3.9110625,9.140582084655762,3.421736478805542,-0.6029912829399109
1772726472462580000,3.920580078125,9.107083320617676,3.4576287269592285,-0.5958128571510315
1772726472472097500,3.93009765625,9.147761344909668,3.462414264678955,-0.607776939868927
1772726472481615000,3.939614990234375,9.21715259552002,3.460021495819092,-0.6317051649093628
1772726472491132700,3.949132568359375,9.300901412963867,3.4337005615234375,-0.6340979933738708
1772726472500650200,3.958650146484375,9.377471923828125,3.445664644241333,-0.5838487148284912
1772726472510167800,3.968167724609375,9.41336441040039,3.4408788681030273,-0.5838487148284912
1772726472519685400,3.977685302734375,9.415757179260254,3.436093330383301,-0.5910272002220154
1772726472529203000,3.987202880859375,9.391828536987305,3.486342668533325,-0.5790630578994751
1772726472538720500,3.996720458984375,9.353543281555176,3.4552359580993652,-0.5551348328590393
1772726472548238000,4.006238037109375,9.403793334960938,3.483949661254883,-0.5431707501411438
1772726472557755600,4.015755615234375,9.497113227844238,3.4791641235351562,-0.5910272002220154
1772726472567273200,4.025273193359375,9.554540634155273,3.4815568923950195,-0.6221339106559753
1772726472576790800,4.034790771484375,9.58325481414795,3.4719855785369873,-0.6173482537269592
1772726472586308000,4.04430810546875,9.494720458984375,3.4552359580993652,-0.6197410821914673
1772726472595826000,4.053825927734375,9.391828536987305,3.4719855785369873,-0.5910272002220154
1772726472605343200,4.06334326171875,9.284152030944824,3.4672000408172607,-0.576670229434967
1772726472614860800,4.07286083984375,9.219545364379883,3.476771354675293,-0.5312066078186035
1772726472624378400,4.08237841796875,9.164510726928711,3.469592809677124,-0.5288137793540955
1772726472633896000,4.09189599609375,9.140582084655762,3.4672000408172607,-0.5575276613235474
1772726472643413500,4.10141357421875,9.154939651489258,3.4815568923950195,-0.5838487148284912
1772726472652931000,4.11093115234375,9.157332420349121,3.469592809677124,-0.5886343717575073
1772726472662448600,4.12044873046875,9.181260108947754,3.445664644241333,-0.6173482537269592
1772726472671966200,4.12996630859375,9.193224906921387,3.4193434715270996,-0.6317051649093628
1772726472681483800,4.13948388671875,9.226723670959473,3.436093330383301,-0.641276478767395
1772726472691001300,4.14900146484375,9.308079719543457,3.421736478805542,-0.6245267391204834
1772726472700519000,4.158518798828125,9.34157943725586,3.4265220165252686,-0.6340979933738708
1772726472710036500,4.168036376953125,9.322437286376953,3.4025938510894775,-0.5910272002220154
1772726472719554000,4.177553955078125,9.30329418182373,3.4265220165252686,-0.5551348328590393
1772726472729071600,4.187071533203125,9.30329418182373,3.469592809677124,-0.5407779216766357
1772726472738589200,4.196589111328125,9.286544799804688,3.493520975112915,-0.550349235534668
1772726472748106800,4.206106689453125,9.281759262084961,3.4887354373931885,-0.5718846321105957
1772726472757624300,4.215624267578125,9.329615592956543,3.469592809677124,-0.5694918036460876
1772726472767141600,4.2251416015625,9.410971641540527,3.4791641235351562,-0.6005984544754028
1772726472776659500,4.234659423828125,9.415757179260254,3.4648072719573975,-0.6293123364448547
1772726472786176800,4.2441767578125,9.32722282409668,3.4743785858154297,-0.6149554252624512
1772726472795694300,4.2536943359375,9.250652313232422,3.5054850578308105,-0.6125625967979431
1772726472805212000,4.2632119140625,9.22433090209961,3.541377544403076,-0.5982056856155396
1772726472814729500,4.2727294921875,9.250652313232422,3.538984775543213,-0.6293123364448547
1772726472824247000,4.2822470703125,9.245866775512695,3.507878065109253,-0.6484549641609192
1772726472833764600,4.2917646484375,9.274580955505371,3.5030922889709473,-0.6532405614852905
1772726472843282200,4.3012822265625,9.363115310668945,3.4791641235351562,-0.6364908218383789
1772726472852799700,4.3107998046875,9.396614074707031,3.4648072719573975,-0.6269195079803467
1772726472862317300,4.3203173828125,9.408578872680664,3.4504501819610596,-0.607776939868927
1772726472871835000,4.3298349609375,9.391828536987305,3.445664644241333,-0.550349235534668
1772726472881352400,4.3393525390625,9.42772102355957,3.4408788681030273,-0.5312066078186035
1772726472890870000,4.3488701171875,9.41336441040039,3.460021495819092,-0.576670229434967
1772726472900387600,4.3583876953125,9.384650230407715,3.428914785385132,-0.5575276613235474
1772726472909905200,4.3679052734375,9.33440113067627,3.436093330383301,-0.5359922647476196
1772726472919422500,4.37742236328125,9.329615592956543,3.4672000408172607,-0.5312066078186035
1772726472928940300,4.386940185546875,9.276973724365234,3.4911282062530518,-0.5886343717575073
1772726472938457600,4.39645751953125,9.233902931213379,3.4791641235351562,-0.5814558863639832
1772726472947975200,4.40597509765625,9.205188751220703,3.483949661254883,-0.5862415432929993
1772726472957492700,4.41549267578125,9.19561767578125,3.4983067512512207,-0.5742774605751038
1772726472967010300,4.42501025390625,9.205188751220703,3.4959139823913574,-0.576670229434967
1772726472976528000,4.43452783203125,9.250652313232422,3.5030922889709473,-0.6125625967979431
1772726472986045400,4.44404541015625,9.308079719543457,3.4983067512512207,-0.6197410821914673
1772726472995563000,4.45356298828125,9.351150512695312,3.4887354373931885,-0.6269195079803467
1772726473005080600,4.46308056640625,9.34875774383545,3.500699520111084,-0.6197410821914673
1772726473014598100,4.47259814453125,9.360722541809082,3.4648072719573975,-0.6125625967979431
1772726473024115700,4.48211572265625,9.355937004089355,3.469592809677124,-0.6317051649093628
1772726473033633300,4.49163330078125,9.408578872680664,3.493520975112915,-0.6197410821914673
1772726473043150800,4.50115087890625,9.42772102355957,3.517449378967285,-0.6293123364448547
1772726473052668400,4.51066845703125,9.389435768127441,3.4648072719573975,-0.5862415432929993
1772726473062186000,4.52018603515625,9.32722282409668,3.4672000408172607,-0.5670989751815796
1772726473071703300,4.529703369140625,9.20997428894043,3.4911282062530518,-0.5312066078186035
1772726473081221000,4.53922119140625,9.133403778076172,3.517449378967285,-0.5072783827781677
1772726473090738400,4.548738525390625,9.073583602905273,3.517449378967285,-0.4977070987224579
1772726473100256300,4.55825634765625,9.097511291503906,3.483949661254883,-0.46899324655532837
1772726473109773600,4.567773681640625,9.145368576049805,3.4959139823913574,-0.5120640397071838
1772726473119291100,4.577291015625,9.226723670959473,3.4815568923950195,-0.5288137793540955
1772726473128808700,4.58680859375,9.286544799804688,3.4719855785369873,-0.576670229434967
1772726473138326300,4.596326171875,9.32004451751709,3.462414264678955,-0.5814558863639832
1772726473147843800,4.60584375,9.346364974975586,3.4648072719573975,-0.5742774605751038
1772726473157361400,4.615361328125,9.346364974975586,3.4672000408172607,-0.5527420043945312
1772726473166879000,4.62487890625,9.370293617248535,3.4815568923950195,-0.5407779216766357
1772726473176396500,4.634396484375,9.379864692687988,3.500699520111084,-0.5407779216766357
1772726473185914000,4.6439140625,9.399007797241211,3.500699520111084,-0.550349235534668
1772726473195431700,4.653431640625,9.358329772949219,3.4791641235351562,-0.5359922647476196
1772726473204949200,4.66294921875,9.382257461547852,3.469592809677124,-0.5096712112426758
1772726473214466800,4.672466796875,9.42772102355957,3.4911282062530518,-0.5288137793540955
1772726473223984400,4.681984375,9.389435768127441,3.4743785858154297,-0.519242525100708
1772726473233502000,4.691501953125,9.391828536987305,3.483949661254883,-0.5120640397071838
1772726473243019500,4.70101953125,9.4061861038208,3.493520975112915,-0.5383850932121277
1772726473252537000,4.710537109375,9.384650230407715,3.500699520111084,-0.5623133182525635
1772726473262054700,4.7200546875,9.353543281555176,3.493520975112915,-0.5407779216766357
1772726473271572000,4.729572021484375,9.29611587524414,3.4719855785369873,-0.5240281820297241
1772726473281089800,4.73908984375,9.312865257263184,3.469592809677124,-0.5431707501411438
1772726473290607000,4.748607177734375,9.28893756866455,3.4743785858154297,-0.5647061467170715
1772726473300124700,4.758124755859375,9.260223388671875,3.4648072719573975,-0.5455635786056519
1772726473309642200,4.767642333984375,9.243474006652832,3.4887354373931885,-0.5264210104942322
1772726473319159800,4.777159912109375,9.221938133239746,3.4911282062530518,-0.5910272002220154
1772726473328677400,4.786677490234375,9.17886734008789,3.486342668533325,-0.5838487148284912
1772726473338195000,4.79619482421875,9.154939651489258,3.476771354675293,-0.5431707501411438
1772726473347712500,4.80571240234375,9.164510726928711,3.452843189239502,-0.519242525100708
1772726473357230000,4.81522998046875,9.205188751220703,3.4504501819610596,-0.5312066078186035
1772726473366747600,4.82474755859375,9.212367057800293,3.428914785385132,-0.5335994362831116
1772726473376265200,4.83426513671875,9.286544799804688,3.436093330383301,-0.5455635786056519
1772726473385782800,4.84378271484375,9.33440113067627,3.462414264678955,-0.607776939868927
1772726473395300400,4.85330029296875,9.33440113067627,3.4504501819610596,-0.6532405614852905
1772726473404818000,4.86281787109375,9.34875774383545,3.4504501819610596,-0.672383189201355
1772726473414335500,4.87233544921875,9.34875774383545,3.4265220165252686,-0.638883650302887
1772726473423852800,4.881852783203125,9.360722541809082,3.4121651649475098,-0.6245267391204834
1772726473433370600,4.89137060546875,9.360722541809082,3.4337005615234375,-0.5694918036460876
1772726473442888000,4.900887939453125,9.387042999267578,3.4408788681030273,-0.5096712112426758
1772726473452405500,4.910405517578125,9.358329772949219,3.4408788681030273,-0.5144568681716919
1772726473461923000,4.919923095703125,9.34875774383545,3.436093330383301,-0.5048855543136597
1772726473471440600,4.929440673828125,9.32722282409668,3.4672000408172607,-0.5168496966362
1772726473480958200,4.938958251953125,9.332008361816406,3.469592809677124,-0.5000999569892883
1772726473490475800,4.948475830078125,9.339186668395996,3.4576287269592285,-0.5527420043945312
1772726473499993300,4.957993408203125,9.372686386108398,3.428914785385132,-0.5335994362831116
1772726473509511000,4.967510986328125,9.45164966583252,3.4337005615234375,-0.5431707501411438
1772726473519028500,4.977028564453125,9.422935485839844,3.383451223373413,-0.607776939868927
1772726473528546000,4.986546142578125,9.284152030944824,3.4002010822296143,-0.5838487148284912
1772726473538063600,4.996063720703125,9.159725189208984,3.4265220165252686,-0.5407779216766357
1772726473547581200,5.005581298828125,9.128618240356445,3.428914785385132,-0.5407779216766357
1772726473557098800,5.0150986328125,9.121439933776855,3.4169507026672363,-0.5527420043945312
1772726473566616300,5.0246162109375,9.152546882629395,3.4169507026672363,-0.5670989751815796
1772726473576133600,5.034133544921875,9.236295700073242,3.4241292476654053,-0.5838487148284912
1772726473585651500,5.0436513671875,9.358329772949219,3.404986619949341,-0.6460621356964111
1772726473595168800,5.053168701171875,9.43489933013916,3.3882367610931396,-0.6675975322723389
1772726473604686300,5.062686279296875,9.43489933013916,3.3690943717956543,-0.6675975322723389
1772726473614204200,5.0722041015625,9.418149948120117,3.407379388809204,-0.6580262184143066
1772726473623721500,5.081721435546875,9.408578872680664,3.3954153060913086,-0.6293123364448547
1772726473633239000,5.091239013671875,9.384650230407715,3.421736478805542,-0.6125625967979431
1772726473642756600,5.100756591796875,9.355937004089355,3.428914785385132,-0.5910272002220154
1772726473652274200,5.110274169921875,9.329615592956543,3.4169507026672363,-0.5718846321105957
1772726473661791700,5.119791748046875,9.32004451751709,3.4504501819610596,-0.6101697683334351
1772726473671309300,5.129309326171875,9.360722541809082,3.4480574131011963,-0.6173482537269592
1772726473680827000,5.138826904296875,9.432506561279297,3.4719855785369873,-0.5742774605751038
1772726473690344400,5.148344482421875,9.468399047851562,3.438486099243164,-0.607776939868927
1772726473699862000,5.157862060546875,9.482755661010742,3.438486099243164,-0.605384111404419
1772726473709379600,5.167379638671875,9.456435203552246,3.4480574131011963,-0.5790630578994751
1772726473718897200,5.176897216796875,9.396614074707031,3.431307554244995,-0.5862415432929993
1772726473728414700,5.186414794921875,9.360722541809082,3.4552359580993652,-0.5647061467170715
1772726473737932300,5.195932373046875,9.329615592956543,3.438486099243164,-0.5742774605751038
1772726473747449900,5.205449951171875,9.324830055236816,3.445664644241333,-0.5718846321105957
1772726473756967200,5.21496728515625,9.34875774383545,3.414557933807373,-0.5742774605751038
1772726473766485000,5.224485107421875,9.41336441040039,3.4193434715270996,-0.605384111404419
1772726473776002300,5.234002197265625,9.42054271697998,3.3786656856536865,-0.6149554252624512
1772726473785519900,5.243519775390625,9.351150512695312,3.3619158267974854,-0.6173482537269592
1772726473795037400,5.253037353515625,9.257830619812012,3.3882367610931396,-0.5814558863639832
1772726473804555000,5.262554931640625,9.205188751220703,3.4002010822296143,-0.5742774605751038
1772726473814072600,5.272072509765625,9.207581520080566,3.4121651649475098,-0.5647061467170715
1772726473823590100,5.281590087890625,9.19561767578125,3.4241292476654053,-0.5479564070701599
1772726473833107700,5.291107666015625,9.250652313232422,3.4193434715270996,-0.5982056856155396
1772726473842625300,5.300625244140625,9.267401695251465,3.445664644241333,-0.6269195079803467
1772726473852142800,5.310142822265625,9.257830619812012,3.428914785385132,-0.605384111404419
1772726473861660400,5.319660400390625,9.265008926391602,3.4025938510894775,-0.5670989751815796
1772726473871178000,5.329177978515625,9.281759262084961,3.4097721576690674,-0.576670229434967
1772726473880695600,5.338695556640625,9.315258979797363,3.3882367610931396,-0.5359922647476196
1772726473890213000,5.348213134765625,9.365508079528809,3.4002010822296143,-0.5479564070701599
1772726473899730700,5.357730712890625,9.410971641540527,3.3930225372314453,-0.5647061467170715
1772726473909248000,5.367248046875,9.499505996704102,3.4121651649475098,-0.5575276613235474
1772726473918765800,5.376765869140625,9.518648147583008,3.445664644241333,-0.5934200286865234
1772726473928283100,5.386283203125,9.454042434692383,3.4097721576690674,-0.5982056856155396
1772726473937800700,5.39580078125,9.370293617248535,3.376272678375244,-0.5383850932121277
1772726473947318300,5.405318359375,9.343972206115723,3.3930225372314453,-0.5240281820297241
1772726473956835800,5.4148359375,9.336793899536133,3.4169507026672363,-0.5599204897880554
1772726473966353400,5.424353515625,9.343972206115723,3.4169507026672363,-0.5934200286865234
1772726473975871000,5.43387109375,9.332008361816406,3.4169507026672363,-0.6029912829399109
1772726473985388500,5.443388427734375,9.298508644104004,3.4169507026672363,-0.6173482537269592
1772726473994906000,5.452906005859375,9.269794464111328,3.4121651649475098,-0.6364908218383789
1772726474004423700,5.462423583984375,9.236295700073242,3.421736478805542,-0.6508477330207825
1772726474013941200,5.471941162109375,9.22433090209961,3.4002010822296143,-0.5982056856155396
1772726474023458800,5.481458740234375,9.221938133239746,3.3690943717956543,-0.5670989751815796
1772726474032976400,5.490976318359375,9.265008926391602,3.373879909515381,-0.5240281820297241
1772726474042494000,5.500493896484375,9.31047248840332,3.3643085956573486,-0.48574298620224
1772726474052011500,5.510011474609375,9.367900848388672,3.3643085956573486,-0.5288137793540955
1772726474061529000,5.519529052734375,9.382257461547852,3.3690943717956543,-0.5216353535652161
1772726474071046700,5.529046630859375,9.372686386108398,3.38105845451355,-0.5120640397071838
1772726474080564200,5.538564208984375,9.367900848388672,3.404986619949341,-0.5383850932121277
1772726474090081500,5.54808154296875,9.329615592956543,3.421736478805542,-0.5479564070701599
1772726474099599400,5.557599365234375,9.32722282409668,3.4504501819610596,-0.5407779216766357
1772726474109116700,5.56711669921875,9.300901412963867,3.4432718753814697,-0.5647061467170715
1772726474118634200,5.57663427734375,9.322437286376953,3.436093330383301,-0.5240281820297241
1772726474128151800,5.58615185546875,9.365508079528809,3.436093330383301,-0.5479564070701599
1772726474137669400,5.59566943359375,9.353543281555176,3.431307554244995,-0.5575276613235474
1772726474147187000,5.60518701171875,9.391828536987305,3.438486099243164,-0.5527420043945312
1772726474156704500,5.61470458984375,9.4061861038208,3.414557933807373,-0.5647061467170715
1772726474166222000,5.62422216796875,9.473184585571289,3.4193434715270996,-0.5623133182525635
1772726474175739600,5.63373974609375,9.4660062789917,3.4121651649475098,-0.5910272002220154
1772726474185257200,5.64325732421875,9.432506561279297,3.414557933807373,-0.5862415432929993
1772726474194774800,5.65277490234375,9.384650230407715,3.3930225372314453,-0.6149554252624512
1772726474204292400,5.662292236328125,9.33440113067627,3.3954153060913086,-0.5814558863639832
1772726474213810000,5.671809814453125,9.291330337524414,3.3930225372314453,-0.5694918036460876
1772726474223327500,5.681327392578125,9.245866775512695,3.376272678375244,-0.5790630578994751
1772726474232845000,5.690844970703125,9.221938133239746,3.3930225372314453,-0.5551348328590393
1772726474242362400,5.7003623046875,9.250652313232422,3.3786656856536865,-0.5120640397071838
1772726474251880200,5.709880126953125,9.269794464111328,3.359523057937622,-0.4977070987224579
1772726474261397500,5.7193974609375,9.300901412963867,3.3547372817993164,-0.5359922647476196
1772726474270915000,5.7289150390625,9.363115310668945,3.376272678375244,-0.5431707501411438
1772726474280432600,5.7384326171875,9.394221305847168,3.3690943717956543,-0.576670229434967
1772726474289950200,5.7479501953125,9.41336441040039,3.3690943717956543,-0.5551348328590393
1772726474299467800,5.7574677734375,9.391828536987305,3.3690943717956543,-0.5359922647476196
1772726474308985300,5.7669853515625,9.399007797241211,3.3858439922332764,-0.5335994362831116
1772726474318503000,5.7765029296875,9.391828536987305,3.4002010822296143,-0.5383850932121277
1772726474328020500,5.7860205078125,9.382257461547852,3.4121651649475098,-0.5551348328590393
1772726474337538000,5.7955380859375,9.358329772949219,3.431307554244995,-0.5527420043945312
1772726474347055600,5.8050556640625,9.34875774383545,3.4241292476654053,-0.5623133182525635
1772726474356573200,5.8145732421875,9.339186668395996,3.4265220165252686,-0.5551348328590393
1772726474366090800,5.8240908203125,9.360722541809082,3.438486099243164,-0.5479564070701599
1772726474375608300,5.8336083984375,9.353543281555176,3.421736478805542,-0.5407779216766357
1772726474385126000,5.8431259765625,9.329615592956543,3.431307554244995,-0.5551348328590393
1772726474394643200,5.852643310546875,9.355937004089355,3.4025938510894775,-0.5335994362831116
1772726474404161000,5.8621611328125,9.370293617248535,3.4121651649475098,-0.5599204897880554
1772726474413678300,5.87167822265625,9.391828536987305,3.366701364517212,-0.5742774605751038
1772726474423196000,5.88119580078125,9.34157943725586,3.3714871406555176,-0.5527420043945312
1772726474432713700,5.890713623046875,9.29611587524414,3.359523057937622,-0.550349235534668
1772726474442231000,5.90023095703125,9.212367057800293,3.383451223373413,-0.5551348328590393
1772726474451748600,5.90974853515625,9.17886734008789,3.4002010822296143,-0.5407779216766357
1772726474461266200,5.91926611328125,9.20279598236084,3.4097721576690674,-0.5288137793540955
1772726474470783700,5.92878369140625,9.276973724365234,3.366701364517212,-0.5144568681716919
1772726474480301300,5.93830126953125,9.329615592956543,3.397808074951172,-0.5575276613235474
1772726474489819000,5.94781884765625,9.375079154968262,3.404986619949341,-0.5718846321105957
1772726474499336400,5.95733642578125,9.4061861038208,3.397808074951172,-0.5838487148284912
1772726474508854000,5.96685400390625,9.41336441040039,3.3690943717956543,-0.5623133182525635
1772726474518371600,5.97637158203125,9.42054271697998,3.359523057937622,-0.5431707501411438
1772726474527889200,5.98588916015625,9.430113792419434,3.352344512939453,-0.5288137793540955
1772726474537406700,5.99540673828125,9.43489933013916,3.366701364517212,-0.5168496966362
1772726474546924300,6.00492431640625,9.439684867858887,3.3786656856536865,-0.5335994362831116
1772726474556441900,6.01444189453125,9.358329772949219,3.407379388809204,-0.550349235534668
1772726474565959400,6.02395947265625,9.31047248840332,3.421736478805542,-0.5718846321105957
1772726474575476700,6.033476806640625,9.281759262084961,3.4265220165252686,-0.5958128571510315
1772726474584994600,6.04299462890625,9.291330337524414,3.383451223373413,-0.5910272002220154
1772726474594512000,6.052511962890625,9.317651748657227,3.4002010822296143,-0.5551348328590393
1772726474604029400,6.062029541015625,9.346364974975586,3.4002010822296143,-0.5335994362831116
1772726474613547000,6.071547119140625,9.410971641540527,3.397808074951172,-0.5024927258491516
1772726474623064600,6.081064697265625,9.42772102355957,3.3858439922332764,-0.4977070987224579
1772726474632582100,6.09058203125,9.43489933013916,3.390629768371582,-0.5096712112426758
1772726474642099700,6.100099609375,9.454042434692383,3.3858439922332764,-0.5024927258491516
1772726474651617300,6.1096171875,9.430113792419434,3.390629768371582,-0.5024927258491516
1772726474661134800,6.119134765625,9.415757179260254,3.3858439922332764,-0.5168496966362
1772726474670652400,6.12865234375,9.389435768127441,3.373879909515381,-0.5024927258491516
1772726474680170000,6.138169921875,9.33440113067627,3.38105845451355,-0.5072783827781677
1772726474689687600,6.1476875,9.29611587524414,3.366701364517212,-0.5288137793540955
1772726474699205000,6.157205078125,9.257830619812012,3.383451223373413,-0.5407779216766357
1772726474708722700,6.16672265625,9.22433090209961,3.38105845451355,-0.5264210104942322
1772726474718240300,6.176240234375,9.159725189208984,3.390629768371582,-0.5670989751815796
1772726474727757600,6.185757568359375,9.138189315795898,3.3930225372314453,-0.5599204897880554
1772726474737275400,6.195275390625,9.145368576049805,3.414557933807373,-0.5670989751815796
1772726474746792700,6.204792724609375,9.233902931213379,3.4097721576690674,-0.5790630578994751
1772726474756310300,6.214310302734375,9.32004451751709,3.4169507026672363,-0.6101697683334351
1772726474765827800,6.223827880859375,9.403793334960938,3.3882367610931396,-0.6125625967979431
1772726474775345400,6.233345458984375,9.504291534423828,3.3930225372314453,-0.6005984544754028
1772726474784863000,6.242863037109375,9.547362327575684,3.38105845451355,-0.6317051649093628
1772726474794380500,6.252380615234375,9.535398483276367,3.390629768371582,-0.6173482537269592
1772726474803898000,6.261898193359375,9.45164966583252,3.4265220165252686,-0.605384111404419
1772726474813415700,6.271415771484375,9.360722541809082,3.460021495819092,-0.5527420043945312
1772726474822933200,6.280933349609375,9.293723106384277,3.486342668533325,-0.5694918036460876
1772726474832450800,6.290450927734375,9.257830619812012,3.462414264678955,-0.576670229434967
1772726474841968400,6.299968505859375,9.300901412963867,3.4911282062530518,-0.5694918036460876
1772726474851486000,6.30948583984375,9.34875774383545,3.4648072719573975,-0.576670229434967
1772726474861003500,6.31900341796875,9.370293617248535,3.460021495819092,-0.5958128571510315
1772726474870521000,6.32852099609375,9.351150512695312,3.4480574131011963,-0.5958128571510315
1772726474880038700,6.33803857421875,9.332008361816406,3.452843189239502,-0.5790630578994751
1772726474889556200,6.34755615234375,9.322437286376953,3.4408788681030273,-0.5670989751815796
1772726474899073800,6.35707373046875,9.34875774383545,3.4408788681030273,-0.519242525100708
1772726474908591000,6.366591064453125,9.34157943725586,3.4241292476654053,-0.5216353535652161
1772726474918109000,6.37610888671875,9.329615592956543,3.3954153060913086,-0.5216353535652161
1772726474927626200,6.385626220703125,9.315258979797363,3.428914785385132,-0.5407779216766357
1772726474937144000,6.39514404296875,9.253045082092285,3.4241292476654053,-0.5455635786056519
1772726474946661400,6.404661376953125,9.22433090209961,3.404986619949341,-0.5431707501411438
1772726474956179000,6.414178955078125,9.205188751220703,3.445664644241333,-0.5359922647476196
1772726474965696500,6.423696533203125,9.159725189208984,3.4504501819610596,-0.5335994362831116
1772726474975214000,6.433214111328125,9.159725189208984,3.4504501819610596,-0.5288137793540955
1772726474984731600,6.442731689453125,9.233902931213379,3.4504501819610596,-0.5431707501411438
1772726474994249200,6.452249267578125,9.32722282409668,3.4337005615234375,-0.6197410821914673
1772726475003766800,6.461766845703125,9.391828536987305,3.414557933807373,-0.6221339106559753
1772726475013284400,6.471284423828125,9.422935485839844,3.421736478805542,-0.6125625967979431
1772726475022802000,6.480802001953125,9.437292098999023,3.407379388809204,-0.5982056856155396
1772726475032319500,6.490319580078125,9.418149948120117,3.4337005615234375,-0.5958128571510315
1772726475041837000,6.499837158203125,9.370293617248535,3.414557933807373,-0.5694918036460876
1772726475051354600,6.509354736328125,9.336793899536133,3.445664644241333,-0.5455635786056519
1772726475060872200,6.5188720703125,9.308079719543457,3.4480574131011963,-0.5575276613235474
1772726475070389800,6.5283896484375,9.279366493225098,3.4648072719573975,-0.5599204897880554
1772726475079907000,6.537906982421875,9.248259544372559,3.476771354675293,-0.5790630578994751
1772726475089425000,6.5474248046875,9.265008926391602,3.4480574131011963,-0.5742774605751038
1772726475098942200,6.556942138671875,9.272188186645508,3.460021495819092,-0.5814558863639832
1772726475108459800,6.566459716796875,9.312865257263184,3.428914785385132,-0.5551348328590393
1772726475117977300,6.575977294921875,9.363115310668945,3.4097721576690674,-0.550349235534668
1772726475127495000,6.585494873046875,9.396614074707031,3.4097721576690674,-0.5670989751815796
1772726475137012500,6.595012451171875,9.343972206115723,3.431307554244995,-0.5910272002220154
1772726475146530000,6.604530029296875,9.300901412963867,3.4576287269592285,-0.6436693072319031
1772726475156047600,6.614047607421875,9.279366493225098,3.4504501819610596,-0.6269195079803467
1772726475165565200,6.623565185546875,9.298508644104004,3.452843189239502,-0.6173482537269592
1772726475175082800,6.633082763671875,9.336793899536133,3.438486099243164,-0.605384111404419
1772726475184600300,6.642600341796875,9.332008361816406,3.421736478805542,-0.5838487148284912
1772726475194118000,6.652117919921875,9.343972206115723,3.4265220165252686,-0.5814558863639832
1772726475203635500,6.661635498046875,9.375079154968262,3.4337005615234375,-0.550349235534668
1772726475213153000,6.671153076171875,9.45164966583252,3.4480574131011963,-0.5479564070701599
1772726475222670600,6.680670654296875,9.540184020996094,3.452843189239502,-0.5527420043945312
1772726475232188000,6.69018798828125,9.559326171875,3.4169507026672363,-0.5551348328590393
1772726475241705700,6.699705810546875,9.513862609863281,3.4169507026672363,-0.5647061467170715
1772726475251223000,6.70922314453125,9.41336441040039,3.4193434715270996,-0.5527420043945312
1772726475260740600,6.71874072265625,9.300901412963867,3.4719855785369873,-0.5527420043945312
1772726475270258200,6.728258056640625,9.229117393493652,3.4648072719573975,-0.5264210104942322
1772726475279775700,6.737775634765625,9.183652877807617,3.4648072719573975,-0.5670989751815796
1772726475289293300,6.747293212890625,9.133403778076172,3.462414264678955,-0.5886343717575073
1772726475298811000,6.756810791015625,9.107083320617676,3.445664644241333,-0.6173482537269592
1772726475308328400,6.766328369140625,9.159725189208984,3.431307554244995,-0.6340979933738708
1772726475317846000,6.775845947265625,9.32004451751709,3.407379388809204,-0.6149554252624512
1772726475327363600,6.785363525390625,9.41336441040039,3.3930225372314453,-0.638883650302887
1772726475336881200,6.794881103515625,9.432506561279297,3.366701364517212,-0.6556333899497986
1772726475346398700,6.804398681640625,9.422935485839844,3.38105845451355,-0.6747759580612183
1772726475355916300,6.813916259765625,9.384650230407715,3.3786656856536865,-0.6747759580612183
1772726475365433900,6.823433837890625,9.358329772949219,3.3930225372314453,-0.6460621356964111
1772726475374951400,6.832951416015625,9.363115310668945,3.4193434715270996,-0.6556333899497986
1772726475384469000,6.842468994140625,9.33440113067627,3.4337005615234375,-0.6340979933738708
1772726475393986600,6.851986572265625,9.305686950683594,3.414557933807373,-0.5910272002220154
1772726475403504000,6.861504150390625,9.272188186645508,3.4241292476654053,-0.5982056856155396
1772726475413021400,6.871021484375,9.22433090209961,3.4432718753814697,-0.5551348328590393
1772726475422539300,6.880539306640625,9.233902931213379,3.4672000408172607,-0.5407779216766357
1772726475432056600,6.890056640625,9.269794464111328,3.460021495819092,-0.5096712112426758
1772726475441574100,6.89957421875,9.305686950683594,3.4648072719573975,-0.5455635786056519
1772726475451091700,6.909091796875,9.33440113067627,3.445664644241333,-0.5862415432929993
1772726475460609300,6.918609375,9.351150512695312,3.4576287269592285,-0.5910272002220154
1772726475470126800,6.928126953125,9.343972206115723,3.469592809677124,-0.607776939868927
1772726475479644400,6.93764453125,9.365508079528809,3.4791641235351562,-0.607776939868927
1772726475489162000,6.947161865234375,9.358329772949219,3.469592809677124,-0.6173482537269592
1772726475498679600,6.956679443359375,9.343972206115723,3.4480574131011963,-0.605384111404419
1772726475508197000,6.966197021484375,9.33440113067627,3.4408788681030273,-0.5958128571510315
1772726475517714700,6.975714599609375,9.305686950683594,3.4408788681030273,-0.6340979933738708
1772726475527232300,6.985232177734375,9.279366493225098,3.4504501819610596,-0.6436693072319031
1772726475536749800,6.994749755859375,9.286544799804688,3.469592809677124,-0.6460621356964111
1772726475546267400,7.004267333984375,9.305686950683594,3.452843189239502,-0.641276478767395
1772726475555785000,7.013784912109375,9.375079154968262,3.4121651649475098,-0.6317051649093628
1772726475565302300,7.02330224609375,9.372686386108398,3.428914785385132,-0.6221339106559753
1772726475574820000,7.032820068359375,9.34875774383545,3.4408788681030273,-0.6293123364448547
1772726475584337400,7.04233740234375,9.32004451751709,3.4576287269592285,-0.607776939868927
1772726475593855000,7.05185498046875,9.260223388671875,3.445664644241333,-0.5838487148284912
1772726475603372500,7.06137255859375,9.200403213500977,3.4504501819610596,-0.5790630578994751
1772726475612890000,7.07089013671875,9.198010444641113,3.4504501819610596,-0.5455635786056519
1772726475622407700,7.08040771484375,9.174081802368164,3.4672000408172607,-0.5575276613235474
1772726475631925200,7.08992529296875,9.152546882629395,3.4815568923950195,-0.5479564070701599
1772726475641442800,7.09944287109375,9.174081802368164,3.4791641235351562,-0.5647061467170715
1772726475650960400,7.10896044921875,9.226723670959473,3.4672000408172607,-0.5958128571510315
1772726475660478000,7.11847802734375,9.284152030944824,3.438486099243164,-0.6149554252624512
1772726475669995500,7.12799560546875,9.312865257263184,3.460021495819092,-0.6293123364448547
1772726475679513000,7.13751318359375,9.332008361816406,3.462414264678955,-0.6436693072319031
1772726475689030700,7.14703076171875,9.355937004089355,3.462414264678955,-0.6436693072319031
1772726475698548200,7.15654833984375,9.394221305847168,3.4672000408172607,-0.6269195079803467
1772726475708065800,7.166065673828125,9.410971641540527,3.476771354675293,-0.6436693072319031
1772726475717583000,7.1755830078125,9.403793334960938,3.4815568923950195,-0.6580262184143066
1772726475727101000,7.185100830078125,9.418149948120117,3.4648072719573975,-0.7441678643226624
1772726475736618200,7.1946181640625,9.377471923828125,3.462414264678955,-0.7250252366065979
1772726475746135800,7.2041357421875,9.339186668395996,3.4480574131011963,-0.6819544434547424
1772726475755653600,7.213653564453125,9.291330337524414,3.4672000408172607,-0.607776939868927
1772726475765171000,7.2231708984375,9.281759262084961,3.4815568923950195,-0.5910272002220154
1772726475774688500,7.2326884765625,9.265008926391602,3.483949661254883,-0.605384111404419
1772726475784206000,7.2422060546875,9.286544799804688,3.438486099243164,-0.5623133182525635
1772726475793723600,7.2517236328125,9.32004451751709,3.4241292476654053,-0.5479564070701599
1772726475803241200,7.2612412109375,9.360722541809082,3.4265220165252686,-0.5694918036460876
1772726475812758800,7.2707587890625,9.408578872680664,3.445664644241333,-0.5982056856155396
1772726475822276400,7.2802763671875,9.372686386108398,3.4648072719573975,-0.605384111404419
1772726475831794000,7.2897939453125,9.353543281555176,3.462414264678955,-0.5958128571510315
1772726475841311500,7.2993115234375,9.291330337524414,3.486342668533325,-0.5670989751815796
1772726475850829000,7.3088291015625,9.253045082092285,3.4672000408172607,-0.550349235534668
1772726475860346600,7.3183466796875,9.20997428894043,3.4672000408172607,-0.6005984544754028
1772726475869864200,7.3278642578125,9.205188751220703,3.4719855785369873,-0.6149554252624512
1772726475879381800,7.3373818359375,9.21715259552002,3.4432718753814697,-0.607776939868927
1772726475888899300,7.3468994140625,9.231510162353516,3.438486099243164,-0.5910272002220154
1772726475898416600,7.356416748046875,9.29611587524414,3.4432718753814697,-0.5958128571510315
1772726475907934500,7.3659345703125,9.391828536987305,3.4432718753814697,-0.6125625967979431
1772726475917451800,7.37545166015625,9.401400566101074,3.4480574131011963,-0.6269195079803467
1772726475926969300,7.38496923828125,9.389435768127441,3.4241292476654053,-0.6101697683334351
1772726475936487000,7.39448681640625,9.367900848388672,3.414557933807373,-0.6245267391204834
1772726475946004500,7.40400439453125,9.34157943725586,3.431307554244995,-0.6269195079803467
1772726475955522000,7.41352197265625,9.300901412963867,3.431307554244995,-0.607776939868927
1772726475965039600,7.42303955078125,9.293723106384277,3.4576287269592285,-0.607776939868927
1772726475974557200,7.43255712890625,9.305686950683594,3.4576287269592285,-0.5910272002220154
1772726475984074800,7.44207470703125,9.300901412963867,3.431307554244995,-0.5647061467170715
1772726475993592300,7.45159228515625,9.31047248840332,3.460021495819092,-0.5742774605751038
1772726476003110000,7.46110986328125,9.360722541809082,3.4743785858154297,-0.5647061467170715
1772726476012627500,7.47062744140625,9.358329772949219,3.445664644241333,-0.5599204897880554
1772726476022145000,7.48014501953125,9.324830055236816,3.4576287269592285,-0.5407779216766357
1772726476031662600,7.48966259765625,9.33440113067627,3.4648072719573975,-0.5407779216766357
1772726476041180200,7.49918017578125,9.329615592956543,3.507878065109253,-0.5694918036460876
1772726476050697500,7.508697509765625,9.286544799804688,3.4791641235351562,-0.5814558863639832
1772726476060215300,7.51821533203125,9.250652313232422,3.462414264678955,-0.5575276613235474
1772726476069732600,7.527732666015625,9.250652313232422,3.486342668533325,-0.5455635786056519
1772726476079250200,7.537250244140625,9.260223388671875,3.4576287269592285,-0.550349235534668
1772726476088767700,7.546767822265625,9.248259544372559,3.4743785858154297,-0.5575276613235474
1772726476098285300,7.556285400390625,9.276973724365234,3.4408788681030273,-0.5742774605751038
1772726476107803000,7.565802978515625,9.33440113067627,3.4480574131011963,-0.5718846321105957
1772726476117320400,7.575320556640625,9.336793899536133,3.4480574131011963,-0.605384111404419
1772726476126838000,7.584838134765625,9.317651748657227,3.438486099243164,-0.6149554252624512
1772726476136355600,7.59435546875,9.34157943725586,3.431307554244995,-0.5934200286865234
1772726476145873200,7.603873046875,9.375079154968262,3.428914785385132,-0.605384111404419
1772726476155390700,7.613390625,9.355937004089355,3.4193434715270996,-0.5647061467170715
1772726476164908300,7.622908203125,9.351150512695312,3.414557933807373,-0.5551348328590393
1772726476174425900,7.63242578125,9.346364974975586,3.407379388809204,-0.5359922647476196
1772726476183943400,7.641943359375,9.31047248840332,3.4097721576690674,-0.5623133182525635
1772726476193461000,7.6514609375,9.274580955505371,3.436093330383301,-0.5599204897880554
1772726476202978300,7.660978271484375,9.274580955505371,3.4743785858154297,-0.5575276613235474
1772726476212496100,7.67049609375,9.298508644104004,3.4815568923950195,-0.5790630578994751
1772726476222013400,7.680013427734375,9.32722282409668,3.4815568923950195,-0.6005984544754028
1772726476231531000,7.689531005859375,9.332008361816406,3.4480574131011963,-0.5718846321105957
1772726476241048600,7.699048583984375,9.339186668395996,3.4552359580993652,-0.5240281820297241
1772726476250566100,7.708566162109375,9.336793899536133,3.438486099243164,-0.5144568681716919
1772726476260083700,7.718083740234375,9.32004451751709,3.428914785385132,-0.5144568681716919
1772726476269601300,7.727601318359375,9.28893756866455,3.4672000408172607,-0.5527420043945312
1772726476279118800,7.737118896484375,9.241081237792969,3.4959139823913574,-0.5718846321105957
1772726476288636400,7.746636474609375,9.219545364379883,3.4791641235351562,-0.5934200286865234
1772726476298154000,7.756154052734375,9.20997428894043,3.436093330383301,-0.5838487148284912
1772726476307671600,7.765671630859375,9.286544799804688,3.4265220165252686,-0.605384111404419
1772726476317189000,7.775189208984375,9.365508079528809,3.4097721576690674,-0.5982056856155396
1772726476326706700,7.784706787109375,9.437292098999023,3.3954153060913086,-0.5742774605751038
1772726476336224300,7.794224365234375,9.492327690124512,3.373879909515381,-0.5647061467170715
1772726476345741800,7.803741943359375,9.518648147583008,3.383451223373413,-0.5383850932121277
1772726476355259400,7.81325927734375,9.518648147583008,3.3930225372314453,-0.5431707501411438
1772726476364777000,7.82277685546875,9.492327690124512,3.3954153060913086,-0.5312066078186035
1772726476374294500,7.83229443359375,9.461220741271973,3.4097721576690674,-0.5335994362831116
1772726476383811800,7.841811767578125,9.34875774383545,3.436093330383301,-0.5623133182525635
1772726476393329700,7.85132958984375,9.248259544372559,3.4791641235351562,-0.5288137793540955
1772726476402847000,7.860846923828125,9.186046600341797,3.4791641235351562,-0.5359922647476196
1772726476412364500,7.870364501953125,9.119047164916992,3.4911282062530518,-0.5431707501411438
1772726476421882000,7.879882080078125,9.131011009216309,3.486342668533325,-0.5455635786056519
1772726476431399700,7.889399658203125,9.18843936920166,3.476771354675293,-0.5670989751815796
1772726476440917200,7.898917236328125,9.274580955505371,3.438486099243164,-0.5982056856155396
1772726476450434800,7.908434814453125,9.387042999267578,3.4097721576690674,-0.638883650302887
1772726476459952400,7.917952392578125,9.446864128112793,3.390629768371582,-0.6221339106559753
1772726476469470000,7.927469970703125,9.454042434692383,3.38105845451355,-0.6197410821914673
1772726476478987500,7.936987548828125,9.430113792419434,3.4193434715270996,-0.6149554252624512
1772726476488505000,7.946505126953125,9.382257461547852,3.4193434715270996,-0.5910272002220154
1772726476498022700,7.956022705078125,9.34157943725586,3.4097721576690674,-0.5790630578994751
1772726476507540200,7.965540283203125,9.324830055236816,3.407379388809204,-0.5910272002220154
1772726476517057800,7.975057861328125,9.312865257263184,3.404986619949341,-0.5694918036460876
1772726476526575400,7.984575439453125,9.312865257263184,3.4169507026672363,-0.5359922647476196
1772726476536092700,7.9940927734375,9.293723106384277,3.4193434715270996,-0.5264210104942322
1772726476545610500,8.003610595703124,9.308079719543457,3.397808074951172,-0.4977070987224579
1772726476555127800,8.0131279296875,9.336793899536133,3.407379388809204,-0.5240281820297241
1772726476564645400,8.022645263671874,9.379864692687988,3.431307554244995,-0.5718846321105957
1772726476574163000,8.032162841796875,9.365508079528809,3.4241292476654053,-0.5288137793540955
1772726476583680500,8.041680419921875,9.382257461547852,3.4337005615234375,-0.5551348328590393
1772726476593198000,8.051197998046876,9.367900848388672,3.436093330383301,-0.5742774605751038
1772726476602715600,8.060715576171875,9.312865257263184,3.4408788681030273,-0.5623133182525635
1772726476612233200,8.070233154296876,9.250652313232422,3.4504501819610596,-0.5455635786056519
1772726476621750800,8.079750732421875,9.241081237792969,3.4504501819610596,-0.550349235534668
1772726476631268400,8.089268310546874,9.231510162353516,3.431307554244995,-0.5120640397071838
1772726476640786000,8.098785888671875,9.257830619812012,3.4265220165252686,-0.5288137793540955
1772726476650303500,8.108303466796874,9.276973724365234,3.431307554244995,-0.5479564070701599
1772726476659821000,8.117821044921875,9.281759262084961,3.438486099243164,-0.5886343717575073
1772726476669338600,8.127338623046874,9.322437286376953,3.452843189239502,-0.5790630578994751
1772726476678856200,8.136856201171875,9.375079154968262,3.428914785385132,-0.5934200286865234
1772726476688373500,8.14637353515625,9.42054271697998,3.438486099243164,-0.6029912829399109
1772726476697891300,8.155891357421876,9.432506561279297,3.407379388809204,-0.5886343717575073
1772726476707408600,8.16540869140625,9.391828536987305,3.4337005615234375,-0.5670989751815796
1772726476716926500,8.174926513671876,9.339186668395996,3.4241292476654053,-0.5024927258491516
1772726476726443800,8.18444384765625,9.274580955505371,3.438486099243164,-0.49292147159576416
1772726476735961300,8.19396142578125,9.243474006652832,3.4121651649475098,-0.4953143000602722
1772726476745479000,8.20347900390625,9.255437850952148,3.438486099243164,-0.5120640397071838
1772726476754996500,8.21299658203125,9.322437286376953,3.3930225372314453,-0.4785645306110382
1772726476764514000,8.22251416015625,9.389435768127441,3.3714871406555176,-0.5000999569892883
1772726476774031600,8.232031494140625,9.42054271697998,3.4025938510894775,-0.550349235534668
1772726476783549200,8.241549072265625,9.432506561279297,3.414557933807373,-0.5910272002220154
1772726476793066800,8.251066650390625,9.42772102355957,3.407379388809204,-0.5742774605751038
1772726476802584300,8.260584228515626,9.351150512695312,3.3690943717956543,-0.5742774605751038
1772726476812102000,8.270101806640625,9.281759262084961,3.3571300506591797,-0.5551348328590393
1772726476821619500,8.279619384765626,9.257830619812012,3.373879909515381,-0.5527420043945312
1772726476831137000,8.289136962890625,9.265008926391602,3.383451223373413,-0.5670989751815796
1772726476840654300,8.298654296875,9.20997428894043,3.4025938510894775,-0.5814558863639832
1772726476850172200,8.308172119140625,9.19561767578125,3.4121651649475098,-0.5838487148284912
1772726476859689500,8.317689453125,9.20997428894043,3.431307554244995,-0.6197410821914673
1772726476869207300,8.327207275390625,9.253045082092285,3.4025938510894775,-0.6245267391204834
1772726476878724600,8.336724609375,9.33440113067627,3.3930225372314453,-0.6245267391204834
1772726476888242200,8.3462421875,9.365508079528809,3.3954153060913086,-0.5958128571510315
1772726476897760000,8.355760009765625,9.408578872680664,3.366701364517212,-0.5527420043945312
1772726476907277300,8.36527734375,9.4061861038208,3.404986619949341,-0.5359922647476196
1772726476916795000,8.374794921875,9.425328254699707,3.3930225372314453,-0.5024927258491516
1772726476926312400,8.3843125,9.516255378723145,3.3714871406555176,-0.4666004180908203
1772726476935830000,8.393830078125,9.549755096435547,3.359523057937622,-0.4977070987224579
1772726476945347600,8.40334765625,9.58325481414795,3.3547372817993164,-0.5096712112426758
1772726476954865200,8.412865234375,9.542576789855957,3.383451223373413,-0.5312066078186035
1772726476964382700,8.4223828125,9.456435203552246,3.407379388809204,-0.5288137793540955
1772726476973900300,8.431900390625,9.384650230407715,3.4193434715270996,-0.5072783827781677
1772726476983417900,8.44141796875,9.281759262084961,3.414557933807373,-0.4833501875400543
1772726476992935400,8.450935302734376,9.18843936920166,3.407379388809204,-0.4905286431312561
1772726477002453000,8.460452880859375,9.145368576049805,3.4169507026672363,-0.5359922647476196
1772726477011970600,8.469970458984376,9.142974853515625,3.421736478805542,-0.5335994362831116
1772726477021488000,8.479488037109375,9.22433090209961,3.390629768371582,-0.5551348328590393
1772726477031005700,8.489005615234374,9.308079719543457,3.3643085956573486,-0.5742774605751038
1772726477040523000,8.49852294921875,9.360722541809082,3.3714871406555176,-0.6125625967979431
1772726477050040800,8.508040771484374,9.410971641540527,3.3690943717956543,-0.6221339106559753
1772726477059558100,8.51755810546875,9.473184585571289,3.3858439922332764,-0.6317051649093628
1772726477069075700,8.52707568359375,9.487542152404785,3.345165967941284,-0.6197410821914673
1772726477078593300,8.53659326171875,9.461220741271973,3.335594654083252,-0.5910272002220154
1772726477088110800,8.54611083984375,9.415757179260254,3.3690943717956543,-0.5814558863639832
1772726477097628400,8.55562841796875,9.394221305847168,3.404986619949341,-0.5742774605751038
1772726477107146000,8.56514599609375,9.312865257263184,3.4241292476654053,-0.5647061467170715
1772726477116663600,8.57466357421875,9.260223388671875,3.4432718753814697,-0.5359922647476196
1772726477126181000,8.58418115234375,9.236295700073242,3.460021495819092,-0.5264210104942322
1772726477135698700,8.59369873046875,9.31047248840332,3.4743785858154297,-0.48574298620224
1772726477145216300,8.60321630859375,9.367900848388672,3.452843189239502,-0.519242525100708
1772726477154733800,8.61273388671875,9.401400566101074,3.436093330383301,-0.5359922647476196
1772726477164251400,8.62225146484375,9.394221305847168,3.4193434715270996,-0.5216353535652161
1772726477173769000,8.63176904296875,9.358329772949219,3.4265220165252686,-0.5431707501411438
1772726477183286500,8.64128662109375,9.265008926391602,3.4241292476654053,-0.519242525100708
1772726477192803800,8.650803955078125,9.200403213500977,3.438486099243164,-0.5168496966362
1772726477202321700,8.66032177734375,9.221938133239746,3.4025938510894775,-0.5120640397071838
1772726477211839000,8.6698388671875,9.253045082092285,3.4025938510894775,-0.5216353535652161
1772726477221356500,8.6793564453125,9.346364974975586,3.3930225372314453,-0.576670229434967
1772726477230874000,8.6888740234375,9.425328254699707,3.404986619949341,-0.5814558863639832
1772726477240391700,8.6983916015625,9.449256896972656,3.383451223373413,-0.605384111404419
1772726477249909200,8.7079091796875,9.422935485839844,3.38105845451355,-0.5862415432929993
1772726477259426800,8.7174267578125,9.32004451751709,3.38105845451355,-0.5455635786056519
1772726477268944400,8.7269443359375,9.248259544372559,3.397808074951172,-0.550349235534668
1772726477278462000,8.7364619140625,9.18843936920166,3.383451223373413,-0.5072783827781677
1772726477287979500,8.7459794921875,9.238688468933105,3.397808074951172,-0.5120640397071838
1772726477297497000,8.7554970703125,9.286544799804688,3.3882367610931396,-0.5144568681716919
1772726477307014700,8.7650146484375,9.336793899536133,3.407379388809204,-0.576670229434967
1772726477316532200,8.7745322265625,9.372686386108398,3.414557933807373,-0.5551348328590393
1772726477326049800,8.7840498046875,9.375079154968262,3.397808074951172,-0.5096712112426758
1772726477335567400,8.7935673828125,9.34875774383545,3.4097721576690674,-0.4785645306110382
1772726477345084700,8.803084716796874,9.286544799804688,3.407379388809204,-0.5000999569892883
1772726477354602500,8.8126025390625,9.269794464111328,3.4576287269592285,-0.519242525100708
1772726477364119800,8.822119873046875,9.329615592956543,3.4432718753814697,-0.5168496966362
1772726477373637400,8.831637451171876,9.375079154968262,3.397808074951172,-0.5551348328590393
1772726477383155000,8.841155029296875,9.399007797241211,3.3619158267974854,-0.5264210104942322
1772726477392672500,8.850672607421876,9.379864692687988,3.359523057937622,-0.5742774605751038
1772726477402190000,8.860190185546875,9.343972206115723,3.3930225372314453,-0.5694918036460876
1772726477411707600,8.869707763671874,9.293723106384277,3.390629768371582,-0.5335994362831116
1772726477421225200,8.87922509765625,9.241081237792969,3.4121651649475098,-0.5551348328590393
1772726477430742800,8.88874267578125,9.262616157531738,3.4265220165252686,-0.5934200286865234
1772726477440260400,8.89826025390625,9.260223388671875,3.4121651649475098,-0.5862415432929993
1772726477449778000,8.90777783203125,9.272188186645508,3.407379388809204,-0.6005984544754028
1772726477459295500,8.91729541015625,9.260223388671875,3.4025938510894775,-0.5934200286865234
1772726477468813000,8.92681298828125,9.243474006652832,3.3954153060913086,-0.5479564070701599
1772726477478330600,8.93633056640625,9.269794464111328,3.404986619949341,-0.5144568681716919
1772726477487848200,8.94584814453125,9.351150512695312,3.4169507026672363,-0.4737788736820221
1772726477497365500,8.955365478515626,9.497113227844238,3.383451223373413,-0.4737788736820221
1772726477506883300,8.96488330078125,9.571290969848633,3.352344512939453,-0.4833501875400543
1772726477516400600,8.974400634765624,9.600004196166992,3.359523057937622,-0.5120640397071838
1772726477525918200,8.983918212890625,9.513862609863281,3.3714871406555176,-0.5000999569892883
1772726477535435800,8.993435791015624,9.370293617248535,3.4121651649475098,-0.48813581466674805
1772726477544953300,9.002953369140625,9.226723670959473,3.4121651649475098,-0.5120640397071838
1772726477554471000,9.012470947265625,9.22433090209961,3.397808074951172,-0.5000999569892883
1772726477563988500,9.021988525390626,9.274580955505371,3.4025938510894775,-0.4977070987224579
1772726477573506000,9.031506103515625,9.324830055236816,3.397808074951172,-0.5240281820297241
1772726477583023600,9.041023681640626,9.324830055236816,3.373879909515381,-0.5479564070701599
1772726477592541200,9.050541259765625,9.281759262084961,3.390629768371582,-0.5838487148284912
1772726477602058800,9.060058837890624,9.279366493225098,3.404986619949341,-0.641276478767395
1772726477611576300,9.069576416015625,9.315258979797363,3.414557933807373,-0.6436693072319031
1772726477621094000,9.079093994140624,9.300901412963867,3.38105845451355,-0.607776939868927
1772726477630611500,9.088611572265625,9.31047248840332,3.38105845451355,-0.5718846321105957
1772726477640129000,9.09812890625,9.28893756866455,3.366701364517212,-0.5670989751815796
1772726477649646300,9.107646240234375,9.250652313232422,3.3786656856536865,-0.5718846321105957
1772726477659164200,9.1171640625,9.243474006652832,3.4408788681030273,-0.6125625967979431
1772726477668681500,9.126681396484376,9.212367057800293,3.445664644241333,-0.607776939868927
1772726477678199000,9.136198974609375,9.243474006652832,3.4097721576690674,-0.5886343717575073
1772726477687716600,9.145716552734376,9.332008361816406,3.414557933807373,-0.576670229434967
1772726477697234200,9.155234130859375,9.387042999267578,3.4169507026672363,-0.5910272002220154
1772726477706751700,9.164751708984374,9.480362892150879,3.376272678375244,-0.5694918036460876
1772726477716269300,9.174269287109375,9.554540634155273,3.345165967941284,-0.5599204897880554
1772726477725787000,9.183786865234374,9.578469276428223,3.3379876613616943,-0.519242525100708
1772726477735304400,9.193304443359375,9.547362327575684,3.3308091163635254,-0.4953143000602722
1772726477744822000,9.202822021484375,9.403793334960938,3.383451223373413,-0.5024927258491516
1772726477754339600,9.212339599609376,9.30329418182373,3.421736478805542,-0.5120640397071838
1772726477763857200,9.221857177734375,9.276973724365234,3.4719855785369873,-0.5527420043945312
1772726477773374700,9.231374755859376,9.336793899536133,3.4743785858154297,-0.6245267391204834
1772726477782892300,9.240892333984375,9.44447135925293,3.428914785385132,-0.6245267391204834
1772726477792409900,9.250409912109374,9.499505996704102,3.4025938510894775,-0.6029912829399109
1772726477801927200,9.25992724609375,9.513862609863281,3.3786656856536865,-0.638883650302887
1772726477811445000,9.269445068359374,9.449256896972656,3.414557933807373,-0.6532405614852905
1772726477820962300,9.27896240234375,9.317651748657227,3.4241292476654053,-0.607776939868927
1772726477830480000,9.28847998046875,9.145368576049805,3.431307554244995,-0.638883650302887
1772726477839997400,9.29799755859375,9.052047729492188,3.4552359580993652,-0.5862415432929993
1772726477849515000,9.307514892578125,9.032905578613281,3.4672000408172607,-0.5383850932121277
1772726477859032600,9.317032470703126,9.044869422912598,3.4408788681030273,-0.519242525100708
1772726477868550100,9.326550048828125,9.090332984924316,3.4408788681030273,-0.5096712112426758
1772726477878067700,9.336067626953126,9.315258979797363,3.3858439922332764,-0.5790630578994751
1772726477887585300,9.345585205078125,9.470791816711426,3.31884503364563,-0.6149554252624512
1772726477897102800,9.355102783203124,9.504291534423828,3.297309637069702,-0.5455635786056519
1772726477906620400,9.364620361328125,9.42772102355957,3.321237802505493,-0.5383850932121277
1772726477916138000,9.374137939453124,9.332008361816406,3.3858439922332764,-0.5814558863639832
1772726477925655600,9.383655517578125,9.284152030944824,3.452843189239502,-0.6101697683334351
1772726477935173000,9.393173095703125,9.291330337524414,3.4576287269592285,-0.5934200286865234
1772726477944690700,9.402690673828126,9.308079719543457,3.4408788681030273,-0.5288137793540955
1772726477954208300,9.412208251953125,9.377471923828125,3.3930225372314453,-0.5288137793540955
1772726477963725600,9.4217255859375,9.473184585571289,3.366701364517212,-0.5599204897880554
1772726477973243400,9.431243408203125,9.528220176696777,3.3571300506591797,-0.5862415432929993
1772726477982760700,9.4407607421875,9.506684303283691,3.3571300506591797,-0.576670229434967
1772726477992278500,9.450278564453125,9.477970123291016,3.352344512939453,-0.6173482537269592
1772726478001795800,9.4597958984375,9.4660062789917,3.383451223373413,-0.6532405614852905
1772726478011313400,9.4693134765625,9.379864692687988,3.390629768371582,-0.6771687865257263
1772726478020831000,9.4788310546875,9.28893756866455,3.4121651649475098,-0.6843472719192505
1772726478030348500,9.4883486328125,9.162117958068848,3.436093330383301,-0.6795616149902344
1772726478039866000,9.4978662109375,9.119047164916992,3.445664644241333,-0.641276478767395
1772726478049383700,9.5073837890625,9.17886734008789,3.428914785385132,-0.6628118753433228
1772726478058901200,9.5169013671875,9.262616157531738,3.414557933807373,-0.5958128571510315
1772726478068418800,9.526418701171876,9.336793899536133,3.383451223373413,-0.5479564070701599
1772726478077936400,9.535936279296875,9.379864692687988,3.3643085956573486,-0.5623133182525635
1772726478087454000,9.545453857421874,9.367900848388672,3.373879909515381,-0.5407779216766357
1772726478096971500,9.554971435546875,9.358329772949219,3.431307554244995,-0.6149554252624512
1772726478106489000,9.564489013671874,9.281759262084961,3.5030922889709473,-0.6819544434547424
1772726478116006700,9.574006591796875,9.339186668395996,3.5294134616851807,-0.6843472719192505
1772726478125524200,9.583524169921875,9.4061861038208,3.3643085956573486,-0.5790630578994751
1772726478135041500,9.59304150390625,9.604789733886719,3.1992039680480957,-0.28953152894973755
1772726478144559400,9.602559326171875,9.633503913879395,3.13220477104187,-0.3278166949748993
1772726478154076700,9.61207666015625,9.343972206115723,3.311666488647461,-0.7417750358581543
1772726478163594200,9.62159423828125,9.305686950683594,3.476771354675293,-0.8638089895248413
1772726478173111800,9.63111181640625,9.401400566101074,3.4983067512512207,-0.8255237936973572
1772726478182629400,9.64062939453125,9.446864128112793,3.5126636028289795,-0.849452018737793
1772726478192147000,9.65014697265625,9.33440113067627,3.3858439922332764,-0.6532405614852905
1772726478201664500,9.65966455078125,9.53061294555664,3.359523057937622,-0.7010970115661621
