time,seconds_elapsed,z,y,x
1772726468654449200,0.11244921875,-0.000610864779446274,-0.04367683082818985,0.12156209349632263
1772726468663967000,0.121967041015625,-0.003665188793092966,-0.015577051788568497,0.11728604137897491
1772726468673484300,0.131484375,-0.0030543238390237093,0.011300998739898205,0.09529490768909454
1772726468683001900,0.141001953125,-0.002443459117785096,0.029016077518463135,0.05803215503692627
1772726468692519400,0.15051953125,0,0.03023780696094036,0.01649334840476513
1772726468702037000,0.160037109375,0.001221729558892548,0.023518294095993042,-0.020158538594841957
1772726468711554600,0.169554443359375,0.0030543238390237093,0.00946840364485979,-0.049480047076940536
1772726468721072000,0.179072021484375,0.006719512399286032,-0.005192350596189499,-0.06841685622930527
1772726468730589700,0.188589599609375,0.010995565913617611,-0.024740023538470268,-0.08613193035125732
1772726468740107300,0.198107177734375,0.007330377586185932,-0.047952886670827866,-0.10690133273601532
1772726468749624800,0.207624755859375,-0.003665188793092966,-0.0668896958231926,-0.12767073512077332
1772726468759142400,0.217142333984375,-0.01588248461484909,-0.07849612087011337,-0.1441640853881836
1772726468768660000,0.226659912109375,-0.025045456364750862,-0.0870482325553894,-0.1490510106086731
1772726468778177500,0.236177490234375,-0.029932374134659767,-0.09315688163042068,-0.1441640853881836
1772726468787695000,0.245695068359375,-0.025045456364750862,-0.09071341902017593,-0.1288924664258957
1772726468797212700,0.255212646484375,-0.017715077847242355,-0.0766635313630104,-0.1026252806186676
1772726468806730000,0.26472998046875,-0.009773836471140385,-0.04734202101826668,-0.07086031138896942
1772726468816247600,0.27424755859375,-0.003665188793092966,-0.010079269297420979,-0.03543015569448471
1772726468825765000,0.28376513671875,0,0.016798781231045723,0
1772726468835282700,0.29328271484375,-0.001832594396546483,0.026572618633508682,0.034208428114652634
1772726468844800300,0.30280029296875,-0.0054977829568088055,0.032681263983249664,0.06841685622930527
1772726468854317800,0.31231787109375,-0.004886918235570192,0.021685699000954628,0.10079269111156464
1772726468863835400,0.32183544921875,-0.000610864779446274,0.004581485874950886,0.1233946830034256
1772726468873353000,0.33135302734375,-0.002443459117785096,-0.0204639695584774,0.1282816082239151
1772726468882870500,0.34087060546875,-0.014660755172371864,-0.04367683082818985,0.11423171311616898
1772726468892388000,0.35038818359375,-0.02932151034474373,-0.04062250629067421,0.0873536616563797
1772726468901905400,0.359905517578125,-0.036651886999607086,-0.0204639695584774,0.0616973415017128
1772726468911423200,0.36942333984375,-0.034208428114652634,0.011911863461136818,0.04214967042207718
1772726468920940800,0.37894091796875,-0.026878049597144127,0.035124726593494415,0.027488915249705315
1772726468930458000,0.3884580078125,-0.021991131827235222,0.04428769648075104,0.01649334840476513
1772726468939976000,0.397975830078125,-0.021991131827235222,0.03817904740571976,0.002443459117785096
1772726468949493200,0.4074931640625,-0.020769402384757996,0.03390299528837204,-0.010995565913617611
1772726468959010800,0.4170107421875,-0.01588248461484909,0.035124726593494415,-0.024434590712189674
1772726468968528400,0.4265283203125,-0.008552107028663158,0.025961752980947495,-0.03909534588456154
1772726468978046000,0.4360458984375,-0.002443459117785096,0.013744457624852657,-0.0616973415017128
1772726468987563500,0.4455634765625,0,0.005192350596189499,-0.08674279600381851
1772726468997081000,0.4550810546875,-0.0030543238390237093,-0.011911863461136818,-0.1130099818110466
1772726469006598700,0.4645986328125,-0.013439024798572063,-0.04001164436340332,-0.12583814561367035
1772726469016116200,0.4741162109375,-0.02260199747979641,-0.035735588520765305,-0.12217295914888382
1772726469025633800,0.4836337890625,-0.02871064469218254,-0.015577051788568497,-0.10934479534626007
1772726469035151400,0.4931513671875,-0.033597562462091446,-0.005192350596189499,-0.09590577334165573
1772726469044669000,0.5026689453125,-0.033597562462091446,-0.004581485874950886,-0.08368847519159317
1772726469054186500,0.5121865234375,-0.026878049597144127,-0.012522728182375431,-0.07269290834665298
1772726469063704000,0.5217041015625,-0.02626718580722809,-0.014966187067329884,-0.059864748269319534
1772726469073221400,0.531221435546875,-0.029932374134659767,-0.004581485874950886,-0.043982263654470444
1772726469082739000,0.540739013671875,-0.03543015569448471,0.008246674202382565,-0.023823726922273636
1772726469092256800,0.5502568359375,-0.033597562462091446,0.021685699000954628,-0.009162971749901772
1772726469101774000,0.559774169921875,-0.028099779039621353,0.0308486707508564,0.006108647678047419
1772726469111291600,0.569291748046875,-0.021991131827235222,0.03817904740571976,0.017715077847242355
1772726469120809200,0.578809326171875,-0.01649334840476513,0.03329212963581085,0.026878049597144127
1772726469130326800,0.588326904296875,-0.014660755172371864,0.019853105768561363,0.025045456364750862
1772726469139844400,0.59784423828125,-0.013439024798572063,0.00946840364485979,0.013439024798572063
1772726469149362000,0.60736181640625,-0.009773836471140385,0.018631376326084137,0.004276053514331579
1772726469158879500,0.61687939453125,-0.0030543238390237093,0.03023780696094036,0.002443459117785096
1772726469168397000,0.62639697265625,0,0.02107483521103859,0.011606430634856224
1772726469177914600,0.63591455078125,0,0.0021380267571657896,0.027488915249705315
1772726469187432200,0.64543212890625,-0.001221729558892548,-0.011300998739898205,0.043371398001909256
1772726469196949800,0.65494970703125,0.000610864779446274,-0.011911863461136818,0.053145237267017365
1772726469206467000,0.664467041015625,0.004276053514331579,-0.005803215317428112,0.05558869615197182
1772726469215985000,0.67398486328125,0.009773836471140385,0.0015271619195118546,0.05253437161445618
1772726469225502200,0.683502197265625,0.01649334840476513,0.010079269297420979,0.043371398001909256
1772726469235019800,0.693019775390625,0.023823726922273636,0.016187917441129684,0.0256563201546669
1772726469244537300,0.702537353515625,0.028099779039621353,0.023518294095993042,0.003665188793092966
1772726469254055000,0.712054931640625,0.02871064469218254,0.041844237595796585,-0.01649334840476513
1772726469263572500,0.721572509765625,0.031154103577136993,0.05222893878817558,-0.034208428114652634
1772726469273090000,0.731090087890625,0.034208428114652634,0.047952886670827866,-0.05192350596189499
1772726469282607600,0.740607666015625,0.0360410213470459,0.04062250629067421,-0.06841685622930527
1772726469292125200,0.750125244140625,0.037262752652168274,0.0412333719432354,-0.0818558782339096
1772726469301642800,0.759642822265625,0.03481929376721382,0.04367683082818985,-0.09285144507884979
1772726469311160300,0.769160400390625,0.03176496922969818,0.03634645417332649,-0.10018182545900345
1772726469320678000,0.778677978515625,0.03237583488225937,0.013133592903614044,-0.10079269111156464
1772726469330195500,0.788195556640625,0.033597562462091446,-0.01740964688360691,-0.09712749719619751
1772726469339713000,0.797713134765625,0.030543239787220955,-0.04673115536570549,-0.08918625861406326
1772726469349230600,0.807230712890625,0.0256563201546669,-0.06811141967773438,-0.0818558782339096
1772726469358748000,0.816747802734375,0.021380268037319183,-0.07788526266813278,-0.07574722915887833
1772726469368265700,0.826265625,0.018325943499803543,-0.07299833744764328,-0.07635809481143951
1772726469377783000,0.835782958984375,0.017104214057326317,-0.047952886670827866,-0.07757982611656189
1772726469387300600,0.845300537109375,0.018325943499803543,-0.021685699000954628,-0.07941242307424545
1772726469396818200,0.854818115234375,0.020158538594841957,-0.0027488914784044027,-0.07941242307424545
1772726469406335700,0.864335693359375,0.020769402384757996,0.008246674202382565,-0.07635809481143951
1772726469415853300,0.873853271484375,0.01893680728971958,0.016187917441129684,-0.07330377399921417
1772726469425371000,0.883370849609375,0.012217295356094837,0.01740964688360691,-0.07147117704153061
1772726469434888400,0.892888427734375,0.004886918235570192,0.008857538923621178,-0.06841685622930527
1772726469444406000,0.902406005859375,0.000610864779446274,0.0009162971982732415,-0.06475166976451874
1772726469453923600,0.911923583984375,-0.003665188793092966,0.004581485874950886,-0.053756099194288254
1772726469463441200,0.921441162109375,-0.004276053514331579,0.011300998739898205,-0.039706211537122726
1772726469472958700,0.930958740234375,-0.001832594396546483,0.008246674202382565,-0.0256563201546669
1772726469482476300,0.940476318359375,0.001221729558892548,0.007024944759905338,-0.014049889519810677
1772726469491993900,0.949993896484375,0.001221729558892548,0.0027488914784044027,-0.009162971749901772
1772726469501511400,0.959511474609375,0,0.003359756199643016,-0.01282816007733345
1772726469511028700,0.96902880859375,0.000610864779446274,0.003359756199643016,-0.021991131827235222
1772726469520546600,0.978546630859375,0.000610864779446274,0.003970621153712273,-0.03543015569448471
1772726469530064000,0.98806396484375,0,0.003359756199643016,-0.0513126403093338
1772726469539581400,0.99758154296875,0.000610864779446274,0.007635809946805239,-0.059864748269319534
1772726469549099000,1.00709912109375,0.002443459117785096,0.010690134018659592,-0.05864302068948746
1772726469558616600,1.016616455078125,0.003665188793092966,0.003970621153712273,-0.04886918142437935
1772726469568134100,1.026134033203125,-0.000610864779446274,-0.007635809946805239,-0.033597562462091446
1772726469577651700,1.035651611328125,-0.006108647678047419,-0.013744457624852657,-0.023823726922273636
1772726469587169300,1.045169189453125,-0.012217295356094837,-0.003970621153712273,-0.013439024798572063
1772726469596686800,1.054686767578125,-0.017104214057326317,0.008857538923621178,-0.007941242307424545
1772726469606204400,1.064204345703125,-0.02260199747979641,0.007635809946805239,-0.010384701192378998
1772726469615722000,1.073721923828125,-0.025045456364750862,0.003970621153712273,-0.010384701192378998
1772726469625239600,1.083239501953125,-0.023823726922273636,0.016187917441129684,-0.004886918235570192
1772726469634757000,1.092757080078125,-0.023823726922273636,0.02779434807598591,0.004276053514331579
1772726469644274700,1.102274658203125,-0.0256563201546669,0.023518294095993042,0.009162971749901772
1772726469653792300,1.111792236328125,-0.0256563201546669,0.01435532234609127,0.009773836471140385
1772726469663309600,1.1213095703125,-0.02626718580722809,0.010690134018659592,0.003665188793092966
1772726469672827400,1.130827392578125,-0.02932151034474373,0.005803215317428112,-0.007941242307424545
1772726469682344700,1.1403447265625,-0.03237583488225937,0.006414080038666725,-0.020769402384757996
1772726469691862300,1.1498623046875,-0.031154103577136993,0.011911863461136818,-0.02871064469218254
1772726469701379800,1.1593798828125,-0.030543239787220955,0.011300998739898205,-0.03543015569448471
1772726469710897400,1.1688974609375,-0.033597562462091446,0.00946840364485979,-0.043371398001909256
1772726469720415000,1.1784150390625,-0.03848448023200035,0.008246674202382565,-0.04825831577181816
1772726469729932500,1.1879326171875,-0.04459312930703163,0.006414080038666725,-0.04581485688686371
1772726469739450000,1.1974501953125,-0.046425722539424896,0.007024944759905338,-0.03848448023200035
1772726469748967700,1.2069677734375,-0.043371398001909256,-0.0015271619195118546,-0.02871064469218254
1772726469758485200,1.2164853515625,-0.040317077189683914,-0.006414080038666725,-0.013439024798572063
1772726469768002800,1.2260029296875,-0.04153880476951599,-0.010079269297420979,0.007941242307424545
1772726469777520400,1.235520263671875,-0.04153880476951599,-0.021685699000954628,0.023823726922273636
1772726469787037700,1.24503759765625,-0.04459312930703163,-0.038789913058280945,0.027488915249705315
1772726469796555500,1.254555419921875,-0.047036588191986084,-0.04306596517562866,0.020158538594841957
1772726469806072800,1.26407275390625,-0.047036588191986084,-0.02779434807598591,0.006108647678047419
1772726469815590400,1.27359033203125,-0.047036588191986084,-0.008246674202382565,-0.009773836471140385
1772726469825108000,1.28310791015625,-0.04825831577181816,0.007635809946805239,-0.021991131827235222
1772726469834625500,1.29262548828125,-0.04825831577181816,0.022296564653515816,-0.027488915249705315
1772726469844143000,1.30214306640625,-0.046425722539424896,0.03756818547844887,-0.023212861269712448
1772726469853660700,1.31166064453125,-0.043371398001909256,0.047952886670827866,-0.01282816007733345
1772726469863178200,1.32117822265625,-0.03787361457943916,0.05406153202056885,0
1772726469872695800,1.33069580078125,-0.03176496922969818,0.05711585655808449,0.006108647678047419
1772726469882213400,1.34021337890625,-0.026878049597144127,0.05345066636800766,0.004886918235570192
1772726469891731000,1.34973095703125,-0.023212861269712448,0.03817904740571976,-0.006108647678047419
1772726469901248500,1.35924853515625,-0.021380268037319183,0.010690134018659592,-0.02260199747979641
1772726469910766000,1.36876611328125,-0.023212861269712448,-0.018631376326084137,-0.03787361457943916
1772726469920283600,1.37828369140625,-0.024434590712189674,-0.04062250629067421,-0.050090912729501724
1772726469929801200,1.38780126953125,-0.02260199747979641,-0.03817904740571976,-0.056199558079242706
1772726469939318500,1.397318603515625,-0.020158538594841957,-0.02107483521103859,-0.05253437161445618
1772726469948836400,1.40683642578125,-0.020158538594841957,-0.008857538923621178,-0.040317077189683914
1772726469958353700,1.416353759765625,-0.01893680728971958,0.003970621153712273,-0.0256563201546669
1772726469967871200,1.425871337890625,-0.015271619893610477,0.0204639695584774,-0.01282816007733345
1772726469977388800,1.435388916015625,-0.01282816007733345,0.04306596517562866,-0.006108647678047419
1772726469986906400,1.44490625,-0.007941242307424545,0.04978547990322113,-0.004886918235570192
1772726469996424000,1.454423828125,-0.003665188793092966,0.0412333719432354,-0.006719512399286032
1772726470005941500,1.46394140625,-0.0030543238390237093,0.03329212963581085,-0.004886918235570192
1772726470015459000,1.473458984375,-0.004276053514331579,0.028405211865901947,-0.0030543238390237093
1772726470024976600,1.4829765625,-0.007330377586185932,0.029016077518463135,0.000610864779446274
1772726470034494200,1.492494140625,-0.006108647678047419,0.025350889191031456,0.006108647678047419
1772726470044011800,1.50201171875,-0.0054977829568088055,0.01802051067352295,0.007330377586185932
1772726470053529300,1.511529296875,-0.006719512399286032,0.016187917441129684,0.001832594396546483
1772726470063047000,1.521046875,-0.009773836471140385,0.01740964688360691,-0.014660755172371864
1772726470072564500,1.530564453125,-0.012217295356094837,0.019242240116000175,-0.03176496922969818
1772726470082082000,1.54008203125,-0.012217295356094837,0.029626941308379173,-0.037262752652168274
1772726470091599400,1.549599365234375,-0.009162971749901772,0.04917461425065994,-0.02871064469218254
1772726470101117200,1.5591171875,-0.004276053514331579,0.05711585655808449,-0.011606430634856224
1772726470110634500,1.568634521484375,0.001832594396546483,0.04245510324835777,0.009162971749901772
1772726470120152000,1.578152099609375,0.0054977829568088055,0.025350889191031456,0.027488915249705315
1772726470129669600,1.587669677734375,0.008552107028663158,0.0015271619195118546,0.0409279391169548
1772726470139187200,1.597187255859375,0.009162971749901772,-0.021685699000954628,0.04825831577181816
1772726470148704800,1.606704833984375,0.007330377586185932,-0.03329212963581085,0.04886918142437935
1772726470158222300,1.616222412109375,0.004276053514331579,-0.03756818547844887,0.04276053607463837
1772726470167740000,1.625739990234375,0.001221729558892548,-0.03940077871084213,0.03237583488225937
1772726470177257500,1.635257568359375,-0.001832594396546483,-0.04734202101826668,0.01588248461484909
1772726470186775000,1.644775146484375,-0.006719512399286032,-0.029626941308379173,-0.001221729558892548
1772726470196292600,1.654292724609375,-0.001832594396546483,-0.01740964688360691,-0.014049889519810677
1772726470205810200,1.66381005859375,0.004276053514331579,0.0009162971982732415,-0.021991131827235222
1772726470215327700,1.67332763671875,0.007941242307424545,0.010079269297420979,-0.024434590712189674
1772726470224845300,1.68284521484375,0.009773836471140385,0.02107483521103859,-0.01893680728971958
1772726470234363000,1.69236279296875,0.013439024798572063,0.024740023538470268,-0.007941242307424545
1772726470243880200,1.701880126953125,0.018325943499803543,0.023518294095993042,0.004886918235570192
1772726470253398000,1.71139794921875,0.024434590712189674,0.02779434807598591,0.017104214057326317
1772726470262915300,1.720915283203125,0.027488915249705315,0.03145953640341759,0.023823726922273636
1772726470272433000,1.730432861328125,0.028099779039621353,0.029626941308379173,0.024434590712189674
1772726470281950500,1.739950439453125,0.02932151034474373,0.02412915788590908,0.01649334840476513
1772726470291468000,1.749468017578125,0.028099779039621353,0.019242240116000175,-0.000610864779446274
1772726470300985600,1.758985595703125,0.028099779039621353,0.016187917441129684,-0.023212861269712448
1772726470310503200,1.768503173828125,0.026878049597144127,0.019853105768561363,-0.04214967042207718
1772726470320020700,1.778020751953125,0.0256563201546669,0.019242240116000175,-0.05497783049941063
1772726470329538300,1.787538330078125,0.025045456364750862,0.016187917441129684,-0.06108647957444191
1772726470339055900,1.797055908203125,0.0256563201546669,0.016187917441129684,-0.05436696484684944
1772726470348573400,1.806573486328125,0.026878049597144127,0.021685699000954628,-0.04214967042207718
1772726470358091000,1.816091064453125,0.02626718580722809,0.02412915788590908,-0.026878049597144127
1772726470367608600,1.825608642578125,0.025045456364750862,0.029016077518463135,-0.010384701192378998
1772726470377126100,1.835126220703125,0.023212861269712448,0.03817904740571976,0.001832594396546483
1772726470386643700,1.844643798828125,0.021380268037319183,0.047952886670827866,0.004276053514331579
1772726470396161000,1.8541611328125,0.017715077847242355,0.05955931544303894,0
1772726470405678800,1.863678955078125,0.014660755172371864,0.07055488228797913,-0.001221729558892548
1772726470415196200,1.873196044921875,0.018325943499803543,0.07299833744764328,0.010384701192378998
1772726470424713700,1.882713623046875,0.027488915249705315,0.06750056147575378,0.03237583488225937
1772726470434231300,1.892231201171875,0.0360410213470459,0.05039634555578232,0.05436696484684944
1772726470443748900,1.901748779296875,0.04153880476951599,0.029016077518463135,0.0665842592716217
1772726470453266400,1.911266357421875,0.043371398001909256,0.015577051788568497,0.05925388261675835
1772726470462784000,1.920783935546875,0.04153880476951599,0.007635809946805239,0.03298669680953026
1772726470472301600,1.930301513671875,0.03481929376721382,0.000305432389723137,-0.007330377586185932
1772726470481819100,1.939819091796875,0.02626718580722809,-0.005192350596189499,-0.0513126403093338
1772726470491336700,1.949336669921875,0.01649334840476513,-0.008857538923621178,-0.08552107214927673
1772726470500854300,1.958854248046875,0.009162971749901772,-0.011300998739898205,-0.10018182545900345
1772726470510371800,1.968371826171875,0.004276053514331579,-0.02107483521103859,-0.10079269111156464
1772726470519889400,1.977889404296875,0.001221729558892548,-0.0308486707508564,-0.08918625861406326
1772726470529407000,1.987406982421875,0.001832594396546483,-0.028405211865901947,-0.06780599057674408
1772726470538924500,1.996924560546875,0.007330377586185932,-0.010690134018659592,-0.037262752652168274
1772726470548441900,2.00644189453125,0.01282816007733345,0.008857538923621178,-0.007330377586185932
1772726470557959700,2.015959716796875,0.017715077847242355,0.025350889191031456,0.01588248461484909
1772726470567477000,2.02547705078125,0.021380268037319183,0.03145953640341759,0.029932374134659767
1772726470576994600,2.03499462890625,0.020769402384757996,0.014966187067329884,0.029932374134659767
1772726470586512100,2.04451220703125,0.017104214057326317,-0.016187917441129684,0.017104214057326317
1772726470596029700,2.05402978515625,0.011606430634856224,-0.03634645417332649,-0.002443459117785096
1772726470605547300,2.06354736328125,0.004276053514331579,-0.04001164436340332,-0.024434590712189674
1772726470615064800,2.07306494140625,-0.001221729558892548,-0.02718348242342472,-0.0409279391169548
1772726470624582400,2.08258251953125,-0.0030543238390237093,-0.000305432389723137,-0.046425722539424896
1772726470634100000,2.092099853515625,-0.002443459117785096,0.02412915788590908,-0.04214967042207718
1772726470643617500,2.101617431640625,-0.001221729558892548,0.026572618633508682,-0.02871064469218254
1772726470653135000,2.111135009765625,0.001832594396546483,0.0204639695584774,-0.01282816007733345
1772726470662652700,2.120652587890625,0.001832594396546483,0.013133592903614044,0.0030543238390237093
1772726470672170200,2.130170166015625,0.001832594396546483,0.008857538923621178,0.014049889519810677
1772726470681687800,2.139687744140625,0.000610864779446274,0.008857538923621178,0.018325943499803543
1772726470691205400,2.149205322265625,-0.001221729558892548,0.008246674202382565,0.017104214057326317
1772726470700722700,2.15872265625,-0.001832594396546483,0.003359756199643016,0.010384701192378998
1772726470710240500,2.168240478515625,0,-0.0021380267571657896,0.003665188793092966
1772726470719757800,2.1777578125,0.003665188793092966,-0.003359756199643016,-0.000610864779446274
1772726470729275400,2.187275390625,0.0054977829568088055,-0.006414080038666725,-0.0030543238390237093
1772726470738793000,2.19679296875,0.003665188793092966,-0.007024944759905338,-0.003665188793092966
1772726470748310500,2.206310546875,0.0030543238390237093,0.003359756199643016,-0.001832594396546483
1772726470757828000,2.215828125,0.001221729558892548,0.015577051788568497,0
1772726470767345700,2.225345703125,0.000610864779446274,0.024740023538470268,0.001221729558892548
1772726470776863200,2.23486328125,0.002443459117785096,0.03329212963581085,0.004276053514331579
1772726470786380800,2.244380859375,0.0054977829568088055,0.032681263983249664,0.008552107028663158
1772726470795898400,2.2538984375,0.007941242307424545,0.016798781231045723,0.010995565913617611
1772726470805416000,2.263416015625,0.007330377586185932,-0.0015271619195118546,0.007330377586185932
1772726470814933500,2.27293359375,0.006108647678047419,-0.010079269297420979,-0.000610864779446274
1772726470824451000,2.282451171875,0.002443459117785096,-0.00946840364485979,-0.014660755172371864
1772726470833968600,2.29196875,0.001832594396546483,0.003359756199643016,-0.02626718580722809
1772726470843486200,2.301486328125,0.001221729558892548,0.016187917441129684,-0.03543015569448471
1772726470853003500,2.31100341796875,0.001221729558892548,0.025350889191031456,-0.03787361457943916
1772726470862521300,2.320521240234375,0.004276053514331579,0.029626941308379173,-0.034208428114652634
1772726470872038700,2.33003857421875,0.007941242307424545,0.026572618633508682,-0.027488915249705315
1772726470881556200,2.33955615234375,0.010995565913617611,0.01802051067352295,-0.020158538594841957
1772726470891073800,2.34907373046875,0.011606430634856224,0.01740964688360691,-0.012217295356094837
1772726470900591400,2.35859130859375,0.014049889519810677,0.00946840364485979,0
1772726470910109000,2.36810888671875,0.014660755172371864,-0.000305432389723137,0.014660755172371864
1772726470919626500,2.37762646484375,0.009773836471140385,-0.011300998739898205,0.024434590712189674
1772726470929144000,2.38714404296875,0.0030543238390237093,-0.013133592903614044,0.02626718580722809
1772726470938661600,2.39666162109375,0,-0.016187917441129684,0.018325943499803543
1772726470948179200,2.40617919921875,0,-0.016187917441129684,0.000610864779446274
1772726470957696800,2.41569677734375,0.002443459117785096,-0.007635809946805239,-0.020769402384757996
1772726470967214300,2.42521435546875,0.0030543238390237093,0.003359756199643016,-0.037262752652168274
1772726470976732000,2.43473193359375,0.001832594396546483,0.01435532234609127,-0.043371398001909256
1772726470986249500,2.44424951171875,0.000610864779446274,0.028405211865901947,-0.039706211537122726
1772726470995767000,2.45376708984375,0.001832594396546483,0.041844237595796585,-0.028099779039621353
1772726471005284400,2.463284423828125,0.0030543238390237093,0.04062250629067421,-0.010995565913617611
1772726471014802200,2.47280224609375,0.002443459117785096,0.025350889191031456,0.009773836471140385
1772726471024319500,2.482319580078125,0.001221729558892548,0.01435532234609127,0.02626718580722809
1772726471033837000,2.491837158203125,-0.001221729558892548,0.015577051788568497,0.037262752652168274
1772726471043354600,2.501354736328125,-0.000610864779446274,0.021685699000954628,0.04214967042207718
1772726471052872200,2.5108720703125,0.000610864779446274,0.019853105768561363,0.039706211537122726
1772726471062389800,2.5203896484375,0.001221729558892548,0.004581485874950886,0.02626718580722809
1772726471071907300,2.5299072265625,-0.001832594396546483,-0.013744457624852657,0.006108647678047419
1772726471081425000,2.5394248046875,-0.006719512399286032,-0.026572618633508682,-0.01649334840476513
1772726471090942500,2.5489423828125,-0.011606430634856224,-0.03390299528837204,-0.036651886999607086
1772726471100460000,2.5584599609375,-0.015271619893610477,-0.029016077518463135,-0.050090912729501724
1772726471109977600,2.5679775390625,-0.017104214057326317,-0.015577051788568497,-0.053756099194288254
1772726471119495200,2.5774951171875,-0.01588248461484909,-0.0009162971982732415,-0.043371398001909256
1772726471129012700,2.5870126953125,-0.011606430634856224,0.0015271619195118546,-0.02871064469218254
1772726471138530300,2.5965302734375,-0.007330377586185932,-0.005192350596189499,-0.014660755172371864
1772726471148048000,2.6060478515625,-0.006108647678047419,-0.011300998739898205,-0.004276053514331579
1772726471157565200,2.615565185546875,-0.007941242307424545,-0.012522728182375431,-0.000610864779446274
1772726471167082800,2.625082763671875,-0.013439024798572063,-0.006414080038666725,-0.0054977829568088055
1772726471176600300,2.634600341796875,-0.020158538594841957,0.007635809946805239,-0.010384701192378998
1772726471186118000,2.644117919921875,-0.025045456364750862,0.015577051788568497,-0.012217295356094837
1772726471195635500,2.653635498046875,-0.023823726922273636,0.00946840364485979,-0.007330377586185932
1772726471205153000,2.663153076171875,-0.020158538594841957,-0.0027488914784044027,0.000610864779446274
1772726471214670600,2.672670654296875,-0.015271619893610477,-0.01435532234609127,0.007941242307424545
1772726471224188200,2.682188232421875,-0.012217295356094837,-0.022296564653515816,0.011606430634856224
1772726471233705700,2.691705810546875,-0.010384701192378998,-0.018631376326084137,0.014660755172371864
1772726471243223300,2.701223388671875,-0.012217295356094837,-0.004581485874950886,0.014049889519810677
1772726471252740900,2.710740966796875,-0.01282816007733345,0.011300998739898205,0.009162971749901772
1772726471262258400,2.720258544921875,-0.013439024798572063,0.025350889191031456,0.004276053514331579
1772726471271776000,2.72977587890625,-0.015271619893610477,0.028405211865901947,-0.001221729558892548
1772726471281293300,2.739293212890625,-0.014660755172371864,0.01435532234609127,-0.006719512399286032
1772726471290811100,2.74881103515625,-0.013439024798572063,-0.006414080038666725,-0.009773836471140385
1772726471300328700,2.75832861328125,-0.014660755172371864,-0.019853105768561363,-0.010995565913617611
1772726471309846000,2.767845947265625,-0.014660755172371864,-0.02412915788590908,-0.013439024798572063
1772726471319363800,2.77736376953125,-0.015271619893610477,-0.016187917441129684,-0.017715077847242355
1772726471328881200,2.786881103515625,-0.01649334840476513,-0.006414080038666725,-0.017104214057326317
1772726471338398700,2.796398681640625,-0.015271619893610477,-0.000305432389723137,-0.014049889519810677
1772726471347916300,2.805916259765625,-0.014049889519810677,0.0015271619195118546,-0.010384701192378998
1772726471357433900,2.815433837890625,-0.011606430634856224,0.006414080038666725,-0.0030543238390237093
1772726471366951400,2.824951416015625,-0.008552107028663158,0.007635809946805239,0.001221729558892548
1772726471376469000,2.834468994140625,-0.004886918235570192,0.004581485874950886,-0.000610864779446274
1772726471385986600,2.843986572265625,-0.003665188793092966,0.005803215317428112,-0.004886918235570192
1772726471395504000,2.853504150390625,-0.003665188793092966,0.008246674202382565,-0.010995565913617611
1772726471405021700,2.863021728515625,-0.0054977829568088055,0.008246674202382565,-0.017104214057326317
1772726471414539300,2.872539306640625,-0.008552107028663158,0.012522728182375431,-0.01893680728971958
1772726471424056800,2.882056884765625,-0.009162971749901772,0.011911863461136818,-0.017104214057326317
1772726471433574400,2.891574462890625,-0.007941242307424545,0.006414080038666725,-0.010995565913617611
1772726471443092000,2.901092041015625,-0.007330377586185932,0.0009162971982732415,-0.0054977829568088055
1772726471452609500,2.910609619140625,-0.006108647678047419,-0.005803215317428112,-0.002443459117785096
1772726471462126800,2.920126953125,-0.0030543238390237093,-0.014966187067329884,-0.002443459117785096
1772726471471644700,2.929644775390625,0,-0.016187917441129684,-0.0054977829568088055
1772726471481162000,2.939161865234375,-0.000610864779446274,-0.013133592903614044,-0.007941242307424545
1772726471490679600,2.948679443359375,-0.000610864779446274,-0.007024944759905338,-0.010384701192378998
1772726471500197000,2.958197021484375,0.001221729558892548,0.003970621153712273,-0.009773836471140385
1772726471509714700,2.967714599609375,0.003665188793092966,0.014966187067329884,-0.0054977829568088055
1772726471519232300,2.977232177734375,0.001832594396546483,0.01802051067352295,0.000610864779446274
1772726471528749800,2.986749755859375,-0.002443459117785096,0.010690134018659592,0.0054977829568088055
1772726471538267400,2.996267333984375,-0.009773836471140385,-0.007024944759905338,0.007941242307424545
1772726471547785000,3.005784912109375,-0.014049889519810677,-0.016187917441129684,0.004886918235570192
1772726471557302500,3.015302490234375,-0.015271619893610477,-0.003970621153712273,0.006108647678047419
1772726471566820000,3.024820068359375,-0.014660755172371864,0.011911863461136818,0.014660755172371864
1772726471576337700,3.034337646484375,-0.010995565913617611,0.024740023538470268,0.028099779039621353
1772726471585855200,3.043855224609375,-0.004886918235570192,0.035124726593494415,0.03787361457943916
1772726471595372800,3.053372802734375,-0.001221729558892548,0.04001164436340332,0.04276053607463837
1772726471604890400,3.062890380859375,0.001221729558892548,0.04001164436340332,0.04276053607463837
1772726471614408000,3.072407958984375,0.002443459117785096,0.032070402055978775,0.031154103577136993
1772726471623925500,3.081925537109375,0.001221729558892548,0.024740023538470268,0.010995565913617611
1772726471633443000,3.091443115234375,0.001221729558892548,0.0204639695584774,-0.01282816007733345
1772726471642960400,3.10096044921875,0.006108647678047419,0.007635809946805239,-0.03543015569448471
1772726471652478200,3.110478271484375,0.009162971749901772,-0.00946840364485979,-0.05742128938436508
1772726471661995500,3.11999560546875,0.008552107028663158,-0.024740023538470268,-0.07452550530433655
1772726471671513000,3.12951318359375,0.004276053514331579,-0.03695731982588768,-0.0824667438864708
1772726471681030700,3.13903076171875,-0.000610864779446274,-0.038789913058280945,-0.08124501258134842
1772726471690548200,3.14854833984375,-0.003665188793092966,-0.03695731982588768,-0.06902772188186646
1772726471700065800,3.158065673828125,-0.006719512399286032,-0.029016077518463135,-0.049480047076940536
1772726471709583400,3.167583251953125,-0.007330377586185932,-0.008857538923621178,-0.024434590712189674
1772726471719101000,3.177100830078125,-0.006719512399286032,0.010079269297420979,-0.001221729558892548
1772726471728618500,3.186618408203125,-0.003665188793092966,0.0204639695584774,0.01588248461484909
1772726471738136000,3.196135986328125,-0.0030543238390237093,0.024740023538470268,0.023823726922273636
1772726471747653600,3.205653564453125,-0.001832594396546483,0.028405211865901947,0.02626718580722809
1772726471757171200,3.215171142578125,-0.000610864779446274,0.028405211865901947,0.0256563201546669
1772726471766688800,3.224688720703125,-0.0030543238390237093,0.021685699000954628,0.021380268037319183
1772726471776206300,3.234206298828125,-0.007941242307424545,0.016187917441129684,0.017104214057326317
1772726471785724000,3.243723876953125,-0.013439024798572063,0.016798781231045723,0.017104214057326317
1772726471795241200,3.2532412109375,-0.014660755172371864,0.013133592903614044,0.020158538594841957
1772726471804759000,3.262759033203125,-0.013439024798572063,0.007024944759905338,0.023823726922273636
1772726471814276400,3.2722763671875,-0.013439024798572063,0.01435532234609127,0.027488915249705315
1772726471823794000,3.2817939453125,-0.011606430634856224,0.02718348242342472,0.03237583488225937
1772726471833311500,3.2913115234375,-0.011606430634856224,0.04062250629067421,0.037262752652168274
1772726471842829000,3.3008291015625,-0.009773836471140385,0.048563748598098755,0.04581485688686371
1772726471852346600,3.3103466796875,-0.006108647678047419,0.04367683082818985,0.056199558079242706
1772726471861864200,3.3198642578125,-0.004276053514331579,0.02779434807598591,0.06108647957444191
1772726471871381800,3.3293818359375,-0.004886918235570192,0.015577051788568497,0.056810423731803894
1772726471880899300,3.3388994140625,-0.006719512399286032,0.012522728182375431,0.04581485688686371
1772726471890417000,3.3484169921875,-0.009162971749901772,0.011911863461136818,0.031154103577136993
1772726471899934500,3.3579345703125,-0.01282816007733345,0.010690134018659592,0.01588248461484909
1772726471909452000,3.3674521484375,-0.014660755172371864,0.01802051067352295,0.003665188793092966
1772726471918969600,3.376969482421875,-0.01588248461484909,0.029626941308379173,-0.004276053514331579
1772726471928487200,3.386487060546875,-0.01649334840476513,0.03451386094093323,-0.013439024798572063
1772726471938004700,3.396004638671875,-0.017715077847242355,0.03695731982588768,-0.0256563201546669
1772726471947522000,3.40552197265625,-0.01893680728971958,0.03390299528837204,-0.03787361457943916
1772726471957039900,3.415039794921875,-0.018325943499803543,0.019242240116000175,-0.04459312930703163
1772726471966557200,3.42455712890625,-0.01893680728971958,0.011300998739898205,-0.04520399495959282
1772726471976074800,3.43407470703125,-0.017715077847242355,0.015577051788568497,-0.036651886999607086
1772726471985592300,3.44359228515625,-0.013439024798572063,0.0204639695584774,-0.02626718580722809
1772726471995110000,3.45310986328125,-0.011606430634856224,0.03023780696094036,-0.012217295356094837
1772726472004627500,3.46262744140625,-0.011606430634856224,0.0412333719432354,0.003665188793092966
1772726472014145000,3.47214501953125,-0.009162971749901772,0.048563748598098755,0.017715077847242355
1772726472023662600,3.48166259765625,-0.006719512399286032,0.04428769648075104,0.02932151034474373
1772726472033180200,3.49118017578125,-0.0054977829568088055,0.032681263983249664,0.03298669680953026
1772726472042697700,3.50069775390625,-0.0030543238390237093,0.022296564653515816,0.030543239787220955
1772726472052215300,3.51021533203125,-0.001221729558892548,0.016798781231045723,0.024434590712189674
1772726472061732900,3.51973291015625,0.000610864779446274,0.012522728182375431,0.01282816007733345
1772726472071250400,3.52925048828125,0.0030543238390237093,0.00946840364485979,0.002443459117785096
1772726472080768000,3.53876806640625,0.007330377586185932,0.013744457624852657,-0.0054977829568088055
1772726472090285600,3.54828564453125,0.010384701192378998,0.0204639695584774,-0.007330377586185932
1772726472099803000,3.557802978515625,0.01282816007733345,0.0204639695584774,-0.0054977829568088055
1772726472109320700,3.56732080078125,0.013439024798572063,0.01802051067352295,-0.001832594396546483
1772726472118838000,3.576838134765625,0.009773836471140385,0.016798781231045723,-0.001221729558892548
1772726472128355600,3.58635546875,0.0054977829568088055,0.0204639695584774,0.000610864779446274
1772726472137873200,3.595873046875,0.003665188793092966,0.022296564653515816,0.004276053514331579
1772726472147390700,3.605390625,0.001221729558892548,0.026572618633508682,0.0054977829568088055
1772726472156908300,3.614908203125,-0.001832594396546483,0.032681263983249664,0.002443459117785096
1772726472166425900,3.62442578125,0,0.03634645417332649,-0.001832594396546483
1772726472175943400,3.633943359375,0.003665188793092966,0.02779434807598591,-0.003665188793092966
1772726472185461000,3.6434609375,0.006108647678047419,0.016187917441129684,-0.002443459117785096
1772726472194978600,3.652978515625,0.007941242307424545,0.011300998739898205,0.006108647678047419
1772726472204496100,3.66249609375,0.007330377586185932,0.013744457624852657,0.017104214057326317
1772726472214013700,3.672013671875,0.006719512399286032,0.018631376326084137,0.027488915249705315
1772726472223531300,3.68153125,0.006108647678047419,0.026572618633508682,0.031154103577136993
1772726472233048800,3.691048828125,0.009162971749901772,0.03451386094093323,0.026878049597144127
1772726472242566400,3.70056640625,0.010995565913617611,0.029626941308379173,0.011606430634856224
1772726472252084000,3.710083984375,0.013439024798572063,0.01802051067352295,-0.007330377586185932
1772726472261601500,3.7196015625,0.014660755172371864,0.004581485874950886,-0.025045456364750862
1772726472271119000,3.729119140625,0.014660755172371864,-0.011300998739898205,-0.03787361457943916
1772726472280636700,3.73863671875,0.014049889519810677,-0.023518294095993042,-0.04214967042207718
1772726472290154200,3.748154296875,0.012217295356094837,-0.03145953640341759,-0.04214967042207718
1772726472299671600,3.757671630859375,0.011606430634856224,-0.029016077518463135,-0.036651886999607086
1772726472309189000,3.767189208984375,0.009773836471140385,-0.01802051067352295,-0.029932374134659767
1772726472318706700,3.776706787109375,0.006108647678047419,-0.0027488914784044027,-0.018325943499803543
1772726472328224300,3.786224365234375,0.006108647678047419,0.011300998739898205,0.000610864779446274
1772726472337741800,3.795741943359375,0.007330377586185932,0.019853105768561363,0.023823726922273636
1772726472347259400,3.80525927734375,0.007330377586185932,0.02107483521103859,0.046425722539424896
1772726472356777000,3.81477685546875,0.0054977829568088055,0.019853105768561363,0.05925388261675835
1772726472366294500,3.82429443359375,0.002443459117785096,0.016187917441129684,0.056199558079242706
1772726472375812000,3.83381201171875,-0.001221729558892548,0.010690134018659592,0.04459312930703163
1772726472385329700,3.84332958984375,-0.0030543238390237093,0.003359756199643016,0.02871064469218254
1772726472394847200,3.85284716796875,-0.004276053514331579,-0.010690134018659592,0.010384701192378998
1772726472404364800,3.86236474609375,-0.006719512399286032,-0.014966187067329884,-0.006719512399286032
1772726472413882400,3.87188232421875,-0.004276053514331579,-0.003970621153712273,-0.014660755172371864
1772726472423400000,3.88139990234375,0.002443459117785096,0.005192350596189499,-0.011606430634856224
1772726472432917500,3.89091748046875,0.006719512399286032,0.011300998739898205,-0.002443459117785096
1772726472442435000,3.90043505859375,0.009162971749901772,0.013133592903614044,0.007941242307424545
1772726472451952400,3.909952392578125,0.006108647678047419,0.00946840364485979,0.009162971749901772
1772726472461470200,3.91947021484375,0.002443459117785096,0.005803215317428112,-0.001832594396546483
1772726472470987500,3.928987548828125,0.001221729558892548,0.0027488914784044027,-0.017715077847242355
1772726472480505000,3.938505126953125,0,-0.005192350596189499,-0.03543015569448471
1772726472490022700,3.948022705078125,0.001221729558892548,-0.011300998739898205,-0.043982263654470444
1772726472499540200,3.957540283203125,0.004276053514331579,-0.005192350596189499,-0.04153880476951599
1772726472509057800,3.967057861328125,0.004886918235570192,0.000305432389723137,-0.034208428114652634
1772726472518575400,3.976575439453125,0.007941242307424545,0.008246674202382565,-0.024434590712189674
1772726472528093000,3.986093017578125,0.007330377586185932,0.013744457624852657,-0.015271619893610477
1772726472537610500,3.995610595703125,0.004886918235570192,0.016187917441129684,-0.009773836471140385
1772726472547128000,4.005128173828125,0.001832594396546483,0.016187917441129684,-0.007941242307424545
1772726472556645600,4.014645751953125,0.002443459117785096,0.008857538923621178,-0.004276053514331579
1772726472566163200,4.0241630859375,0.004886918235570192,0.003970621153712273,0.002443459117785096
1772726472575680800,4.0336806640625,0.007330377586185932,0.003970621153712273,0.01588248461484909
1772726472585198300,4.0431982421875,0.009162971749901772,0.000305432389723137,0.03298669680953026
1772726472594716000,4.0527158203125,0.010384701192378998,-0.008246674202382565,0.04581485688686371
1772726472604233200,4.062233154296875,0.010995565913617611,-0.010690134018659592,0.05253437161445618
1772726472613751000,4.0717509765625,0.007330377586185932,-0.0021380267571657896,0.05192350596189499
1772726472623268400,4.081268310546875,0.002443459117785096,0.003970621153712273,0.04276053607463837
1772726472632786000,4.090785888671875,-0.000610864779446274,0.008246674202382565,0.03176496922969818
1772726472642303500,4.100303466796875,-0.004276053514331579,0.011911863461136818,0.020769402384757996
1772726472651821000,4.109821044921875,-0.0054977829568088055,0.007024944759905338,0.007941242307424545
1772726472661338600,4.119338623046875,-0.004886918235570192,0.005192350596189499,0
1772726472670856200,4.128856201171875,-0.002443459117785096,0.0009162971982732415,-0.009773836471140385
1772726472680373800,4.138373779296875,0.001221729558892548,0.0009162971982732415,-0.017104214057326317
1772726472689891300,4.147891357421875,0.0030543238390237093,-0.006414080038666725,-0.01893680728971958
1772726472699409000,4.157408935546875,0.0030543238390237093,-0.024740023538470268,-0.015271619893610477
1772726472708926500,4.166926513671875,0.001832594396546483,-0.03756818547844887,-0.008552107028663158
1772726472718444000,4.176444091796875,-0.001221729558892548,-0.035735588520765305,-0.0030543238390237093
1772726472727961600,4.185961669921875,-0.004886918235570192,-0.024740023538470268,-0.001832594396546483
1772726472737479200,4.195479248046875,-0.004276053514331579,-0.006414080038666725,-0.000610864779446274
1772726472746996700,4.204996826171875,0,0.012522728182375431,-0.001221729558892548
1772726472756514300,4.214514404296875,0.001832594396546483,0.019242240116000175,-0.006719512399286032
1772726472766032000,4.224031982421875,0.003665188793092966,0.013744457624852657,-0.009162971749901772
1772726472785066800,4.243066650390625,0.006108647678047419,-0.02107483521103859,0.000610864779446274
1772726472794584600,4.25258447265625,0.001221729558892548,-0.03023780696094036,0
1772726472804102000,4.262101806640625,-0.004276053514331579,-0.018631376326084137,-0.0030543238390237093
1772726472813619500,4.271619384765625,-0.0054977829568088055,-0.0009162971982732415,-0.008552107028663158
1772726472823137000,4.281136962890625,-0.004886918235570192,0.010079269297420979,-0.012217295356094837
1772726472832654600,4.290654541015625,-0.001221729558892548,0.007635809946805239,-0.017715077847242355
1772726472842172200,4.300172119140625,-0.000610864779446274,-0.0009162971982732415,-0.021991131827235222
1772726472851689700,4.309689697265625,0,-0.013744457624852657,-0.021380268037319183
1772726472861207300,4.319207275390625,0.001832594396546483,-0.02718348242342472,-0.018325943499803543
1772726472870724900,4.328724853515625,-0.000610864779446274,-0.03634645417332649,-0.014049889519810677
1772726472880242400,4.338242431640625,-0.003665188793092966,-0.03451386094093323,-0.012217295356094837
1772726472889760000,4.347760009765625,-0.004276053514331579,-0.023518294095993042,-0.008552107028663158
1772726472899277600,4.357277587890625,-0.003665188793092966,-0.010690134018659592,-0.001832594396546483
1772726472908795100,4.366795166015625,-0.001832594396546483,0.003359756199643016,0.007330377586185932
1772726472918312700,4.376312744140625,-0.000610864779446274,0.011911863461136818,0.017715077847242355
1772726472927830300,4.385830322265625,0.001221729558892548,0.010079269297420979,0.02626718580722809
1772726472937347600,4.39534765625,0.004276053514331579,0.004581485874950886,0.030543239787220955
1772726472946865400,4.404865478515625,0.003665188793092966,-0.005803215317428112,0.025045456364750862
1772726472956382700,4.4143828125,0.001221729558892548,-0.010690134018659592,0.013439024798572063
1772726472965900300,4.423900390625,0.000610864779446274,-0.010690134018659592,0.000610864779446274
1772726472975417900,4.43341796875,0.004276053514331579,-0.008857538923621178,-0.012217295356094837
1772726472984935400,4.442935302734375,0.007330377586185932,-0.004581485874950886,-0.01954767294228077
1772726472994453000,4.452452880859375,0.009162971749901772,0.004581485874950886,-0.018325943499803543
1772726473003970600,4.461970458984375,0.009773836471140385,0.010079269297420979,-0.013439024798572063
1772726473013488000,4.471488037109375,0.010384701192378998,0.00946840364485979,-0.006719512399286032
1772726473023005700,4.481005615234375,0.009162971749901772,0.000305432389723137,-0.001832594396546483
1772726473032523300,4.490523193359375,0.009773836471140385,-0.01435532234609127,-0.000610864779446274
1772726473042040800,4.500040771484375,0.012217295356094837,-0.018631376326084137,0.004276053514331579
1772726473051558400,4.509558349609375,0.014660755172371864,-0.019853105768561363,0.011606430634856224
1772726473061076000,4.519075927734375,0.01649334840476513,-0.025961752980947495,0.01954767294228077
1772726473070593500,4.528593505859375,0.015271619893610477,-0.028405211865901947,0.02260199747979641
1772726473080111000,4.538111083984375,0.011606430634856224,-0.024740023538470268,0.018325943499803543
1772726473089628400,4.54762841796875,0.006719512399286032,-0.018631376326084137,0.0030543238390237093
1772726473099146200,4.557146240234375,0.002443459117785096,-0.011911863461136818,-0.014660755172371864
1772726473108663600,4.56666357421875,-0.000610864779446274,-0.005192350596189499,-0.030543239787220955
1772726473118181000,4.57618115234375,-0.000610864779446274,0.0015271619195118546,-0.037262752652168274
1772726473127698700,4.58569873046875,0.001832594396546483,0.003359756199643016,-0.0360410213470459
1772726473137216300,4.59521630859375,0.0054977829568088055,0.0015271619195118546,-0.02871064469218254
1772726473146733800,4.60473388671875,0.008552107028663158,-0.005192350596189499,-0.021991131827235222
1772726473156251400,4.61425146484375,0.010384701192378998,-0.011300998739898205,-0.01649334840476513
1772726473165769000,4.62376904296875,0.007330377586185932,-0.01740964688360691,-0.015271619893610477
1772726473175286500,4.63328662109375,0.006719512399286032,-0.019853105768561363,-0.017715077847242355
1772726473184804000,4.64280419921875,0.006108647678047419,-0.01740964688360691,-0.01954767294228077
1772726473194321700,4.65232177734375,0.007941242307424545,-0.014966187067329884,-0.017104214057326317
1772726473203839200,4.661839111328125,0.009773836471140385,-0.00946840364485979,-0.010384701192378998
1772726473213356800,4.671356689453125,0.010384701192378998,-0.005192350596189499,-0.004276053514331579
1772726473222874400,4.680874267578125,0.010384701192378998,0.0009162971982732415,0.000610864779446274
1772726473232392000,4.690391845703125,0.009773836471140385,0.005192350596189499,0.003665188793092966
1772726473241909500,4.699909423828125,0.009773836471140385,0.003970621153712273,0.004276053514331579
1772726473251427000,4.709427001953125,0.009773836471140385,0.0015271619195118546,0.006719512399286032
1772726473260944600,4.718944580078125,0.008552107028663158,0.0021380267571657896,0.008552107028663158
1772726473270462000,4.7284619140625,0.004276053514331579,0.004581485874950886,0.010995565913617611
1772726473279979800,4.737979736328125,0.001221729558892548,0.008246674202382565,0.010995565913617611
1772726473289497000,4.7474970703125,-0.001832594396546483,0.010690134018659592,0.014049889519810677
1772726473299014700,4.7570146484375,-0.0054977829568088055,0.010690134018659592,0.020158538594841957
1772726473308532200,4.7665322265625,-0.007941242307424545,0.005803215317428112,0.02260199747979641
1772726473318049800,4.7760498046875,-0.008552107028663158,-0.000305432389723137,0.021380268037319183
1772726473327567400,4.7855673828125,-0.0054977829568088055,-0.005192350596189499,0.015271619893610477
1772726473337085000,4.7950849609375,-0.001832594396546483,-0.003359756199643016,0.003665188793092966
1772726473346602500,4.8046025390625,0,0.004581485874950886,-0.010995565913617611
1772726473356120000,4.8141201171875,0.001221729558892548,0.007024944759905338,-0.023823726922273636
1772726473365637600,4.8236376953125,0.000610864779446274,0.00946840364485979,-0.03298669680953026
1772726473375155200,4.8331552734375,-0.002443459117785096,0.01435532234609127,-0.037262752652168274
1772726473384672800,4.8426728515625,-0.004886918235570192,0.021685699000954628,-0.03481929376721382
1772726473394190300,4.8521904296875,-0.004886918235570192,0.022907428443431854,-0.02626718580722809
1772726473403708000,4.8617080078125,-0.001832594396546483,0.016798781231045723,-0.015271619893610477
1772726473413225500,4.8712255859375,0.0030543238390237093,0.003359756199643016,-0.008552107028663158
1772726473422742800,4.88074267578125,0.006719512399286032,-0.013133592903614044,-0.010995565913617611
1772726473432260600,4.890260498046875,0.004276053514331579,-0.02412915788590908,-0.017104214057326317
1772726473441778000,4.89977783203125,0,-0.024740023538470268,-0.024434590712189674
1772726473451295500,4.90929541015625,-0.004886918235570192,-0.024740023538470268,-0.030543239787220955
1772726473460813000,4.91881298828125,-0.008552107028663158,-0.022296564653515816,-0.03237583488225937
1772726473470330600,4.92833056640625,-0.010384701192378998,-0.010079269297420979,-0.031154103577136993
1772726473479848200,4.93784814453125,-0.009773836471140385,-0.0009162971982732415,-0.025045456364750862
1772726473489365800,4.94736572265625,-0.009773836471140385,0.007635809946805239,-0.018325943499803543
1772726473498883300,4.95688330078125,-0.006719512399286032,0.01802051067352295,-0.009773836471140385
1772726473508401000,4.96640087890625,-0.004886918235570192,0.02412915788590908,0.001832594396546483
1772726473517918500,4.97591845703125,-0.004276053514331579,0.011911863461136818,0.013439024798572063
1772726473527436000,4.98543603515625,-0.0030543238390237093,0.004581485874950886,0.01954767294228077
1772726473536953600,4.99495361328125,-0.004276053514331579,0.005192350596189499,0.017715077847242355
1772726473546471200,5.00447119140625,-0.009773836471140385,0.0027488914784044027,0.006108647678047419
1772726473555988700,5.01398876953125,-0.01282816007733345,0.0015271619195118546,-0.01282816007733345
1772726473565506300,5.02350634765625,-0.014049889519810677,0.008246674202382565,-0.03237583488225937
1772726473575023600,5.033023681640625,-0.015271619893610477,0.016187917441129684,-0.046425722539424896
1772726473584541400,5.04254150390625,-0.01282816007733345,0.014966187067329884,-0.04825831577181816
1772726473594058800,5.052058837890625,-0.007330377586185932,0.01740964688360691,-0.039706211537122726
1772726473603576300,5.061576416015625,-0.000610864779446274,0.019242240116000175,-0.02626718580722809
1772726473613094100,5.07109423828125,0.001832594396546483,0.018631376326084137,-0.012217295356094837
1772726473622611500,5.080611572265625,0.0030543238390237093,0.014966187067329884,-0.001832594396546483
1772726473632129000,5.09012890625,0.001221729558892548,0.007635809946805239,0.000610864779446274
1772726473641646600,5.099646484375,-0.001221729558892548,-0.004581485874950886,-0.004886918235570192
1772726473651164200,5.1091640625,-0.006719512399286032,-0.013133592903614044,-0.01588248461484909
1772726473660681700,5.118681640625,-0.007941242307424545,-0.016187917441129684,-0.029932374134659767
1772726473670199300,5.12819921875,-0.006719512399286032,-0.011911863461136818,-0.04153880476951599
1772726473679716900,5.137716796875,-0.0030543238390237093,-0.0015271619195118546,-0.04214967042207718
1772726473689234400,5.147234375,0,0.008857538923621178,-0.03298669680953026
1772726473698752000,5.156751953125,0.003665188793092966,0.01740964688360691,-0.014660755172371864
1772726473708269600,5.16626953125,0.006108647678047419,0.019853105768561363,0.004886918235570192
1772726473717787100,5.175787109375,0.006108647678047419,0.013133592903614044,0.017715077847242355
1772726473727304700,5.1853046875,0.003665188793092966,0.010690134018659592,0.021380268037319183
1772726473736822300,5.194822265625,0.003665188793092966,0.011300998739898205,0.017715077847242355
1772726473746339800,5.20433984375,0.002443459117785096,0.012522728182375431,0.010995565913617611
1772726473755857200,5.213857177734375,0.001832594396546483,0.01740964688360691,0.0054977829568088055
1772726473765375000,5.223375,0.0030543238390237093,0.021685699000954628,0.006108647678047419
1772726473774892300,5.232892333984375,0.004276053514331579,0.022296564653515816,0.013439024798572063
1772726473784409900,5.242409912109375,0.003665188793092966,0.019242240116000175,0.026878049597144127
1772726473793927400,5.251927490234375,0.002443459117785096,0.012522728182375431,0.033597562462091446
1772726473803445000,5.261445068359375,-0.000610864779446274,0.003359756199643016,0.03176496922969818
1772726473812962600,5.270962646484375,-0.002443459117785096,0.004581485874950886,0.025045456364750862
1772726473822480100,5.280480224609375,-0.003665188793092966,0.004581485874950886,0.010995565913617611
1772726473831997700,5.289997802734375,-0.002443459117785096,0.000305432389723137,-0.006108647678047419
1772726473841515300,5.299515380859375,0.001832594396546483,-0.0027488914784044027,-0.01893680728971958
1772726473851032800,5.30903271484375,0.006108647678047419,-0.003970621153712273,-0.02626718580722809
1772726473860550400,5.31855029296875,0.010384701192378998,-0.0021380267571657896,-0.030543239787220955
1772726473870068000,5.32806787109375,0.01282816007733345,-0.003970621153712273,-0.030543239787220955
1772726473879585500,5.33758544921875,0.012217295356094837,-0.00946840364485979,-0.02932151034474373
1772726473889103000,5.34710302734375,0.008552107028663158,-0.0204639695584774,-0.028099779039621353
1772726473898620700,5.35662060546875,0.0030543238390237093,-0.025961752980947495,-0.025045456364750862
1772726473908138000,5.366137939453125,0,-0.02779434807598591,-0.017715077847242355
1772726473917655800,5.37565576171875,0.001221729558892548,-0.025961752980947495,-0.003665188793092966
1772726473927173000,5.385173095703125,0.007330377586185932,-0.02412915788590908,0.007941242307424545
1772726473936690700,5.394690673828125,0.010384701192378998,-0.01435532234609127,0.013439024798572063
1772726473946208300,5.404208251953125,0.007941242307424545,-0.004581485874950886,0.014660755172371864
1772726473955725800,5.413725830078125,0.0030543238390237093,-0.0015271619195118546,0.01282816007733345
1772726473965243600,5.42324365234375,0.001221729558892548,0.008857538923621178,0.01282816007733345
1772726473974761000,5.432760986328125,0.000610864779446274,0.022907428443431854,0.017104214057326317
1772726473984278500,5.442278564453125,-0.001221729558892548,0.021685699000954628,0.020158538594841957
1772726473993796000,5.451796142578125,-0.000610864779446274,0.007635809946805239,0.018325943499803543
1772726474003313700,5.461313720703125,0.001832594396546483,-0.005803215317428112,0.012217295356094837
1772726474012831200,5.470831298828125,0.004276053514331579,-0.01740964688360691,0.001221729558892548
1772726474022348800,5.480348876953125,0.003665188793092966,-0.022296564653515816,-0.011606430634856224
1772726474031866400,5.489866455078125,0.0030543238390237093,-0.022296564653515816,-0.02260199747979641
1772726474041384000,5.499384033203125,-0.000610864779446274,-0.0204639695584774,-0.030543239787220955
1772726474050901500,5.508901611328125,-0.004886918235570192,-0.016798781231045723,-0.028099779039621353
1772726474060419000,5.518419189453125,-0.0054977829568088055,-0.01435532234609127,-0.020769402384757996
1772726474069936600,5.5279365234375,-0.004276053514331579,-0.00946840364485979,-0.010384701192378998
1772726474079454200,5.5374541015625,-0.0030543238390237093,-0.003970621153712273,-0.001832594396546483
1772726474088971800,5.5469716796875,-0.000610864779446274,0.0027488914784044027,0.001832594396546483
1772726474098489300,5.5564892578125,0.002443459117785096,0.011911863461136818,0.0030543238390237093
1772726474108006700,5.566006591796875,0.0030543238390237093,0.016798781231045723,0.000610864779446274
1772726474117524500,5.5755244140625,0.004276053514331579,0.010690134018659592,-0.002443459117785096
1772726474127041800,5.585041748046875,0.001221729558892548,-0.005192350596189499,-0.006108647678047419
1772726474136559400,5.594559326171875,-0.002443459117785096,-0.0204639695584774,-0.008552107028663158
1772726474146077000,5.604076904296875,-0.006108647678047419,-0.029016077518463135,-0.014049889519810677
1772726474155594500,5.613594482421875,-0.008552107028663158,-0.032070402055978775,-0.01954767294228077
1772726474165112000,5.623112060546875,-0.009162971749901772,-0.02412915788590908,-0.020158538594841957
1772726474174629600,5.632629638671875,-0.004886918235570192,-0.007635809946805239,-0.015271619893610477
1772726474184147200,5.642147216796875,-0.001221729558892548,0.006414080038666725,-0.003665188793092966
1772726474193664800,5.651664794921875,0.0030543238390237093,0.010079269297420979,0.009773836471140385
1772726474203182300,5.661182373046875,0.006719512399286032,0.005192350596189499,0.020158538594841957
1772726474212700000,5.670699951171875,0.007941242307424545,-0.008246674202382565,0.021991131827235222
1772726474222217500,5.680217529296875,0.004276053514331579,-0.02779434807598591,0.013439024798572063
1772726474231735000,5.689735107421875,0.002443459117785096,-0.03451386094093323,-0.001221729558892548
1772726474241252600,5.699252685546875,0.000610864779446274,-0.02779434807598591,-0.014660755172371864
1772726474250770200,5.708770263671875,-0.001221729558892548,-0.016798781231045723,-0.020769402384757996
1772726474260287500,5.71828759765625,-0.002443459117785096,-0.010690134018659592,-0.02260199747979641
1772726474269805300,5.727805419921875,-0.001832594396546483,-0.010079269297420979,-0.020158538594841957
1772726474279322600,5.737322509765625,-0.001832594396546483,0.000305432389723137,-0.010995565913617611
1772726474288840200,5.746840087890625,0.001221729558892548,0.008857538923621178,0.000610864779446274
1772726474298357800,5.756357666015625,0.001221729558892548,0.012522728182375431,0.012217295356094837
1772726474307875300,5.765875244140625,-0.000610864779446274,0.013744457624852657,0.01954767294228077
1772726474317393000,5.775392822265625,-0.000610864779446274,0.013744457624852657,0.020769402384757996
1772726474326910500,5.784910400390625,-0.000610864779446274,0.011911863461136818,0.018325943499803543
1772726474336428000,5.794427978515625,0.001221729558892548,0.010079269297420979,0.015271619893610477
1772726474345945600,5.803945556640625,0.001832594396546483,0.003359756199643016,0.010995565913617611
1772726474355463200,5.813463134765625,0.001832594396546483,0.0009162971982732415,0.0054977829568088055
1772726474364980700,5.822980712890625,0.004276053514331579,0.003359756199643016,0.001832594396546483
1772726474374498300,5.832498291015625,0.004886918235570192,-0.000305432389723137,-0.000610864779446274
1772726474384016000,5.842015869140625,0.004276053514331579,0.003970621153712273,0.000610864779446274
1772726474393533400,5.851533447265625,0.002443459117785096,0.011911863461136818,0.0030543238390237093
1772726474403051000,5.861051025390625,0.001832594396546483,0.01740964688360691,0.007330377586185932
1772726474412568300,5.870568359375,0.003665188793092966,0.0204639695584774,0.014660755172371864
1772726474422086100,5.880086181640625,0.004276053514331579,0.013744457624852657,0.023823726922273636
1772726474431603700,5.889603759765625,0.002443459117785096,0.0021380267571657896,0.02626718580722809
1772726474441121000,5.89912109375,0.000610864779446274,-0.010079269297420979,0.017104214057326317
1772726474450638600,5.908638671875,-0.000610864779446274,-0.010690134018659592,0.002443459117785096
1772726474460156200,5.91815625,-0.002443459117785096,-0.006414080038666725,-0.013439024798572063
1772726474469673700,5.927673828125,-0.006108647678047419,-0.0015271619195118546,-0.02626718580722809
1772726474479191300,5.93719140625,-0.007941242307424545,-0.000305432389723137,-0.029932374134659767
1772726474488708900,5.946708984375,-0.006108647678047419,-0.003970621153712273,-0.026878049597144127
1772726474498226400,5.956226318359375,-0.000610864779446274,-0.008246674202382565,-0.020158538594841957
1772726474507744000,5.965743896484375,0.004886918235570192,-0.011300998739898205,-0.015271619893610477
1772726474517261600,5.975261474609375,0.006719512399286032,-0.007024944759905338,-0.012217295356094837
1772726474526779100,5.984779052734375,0.007330377586185932,0.0009162971982732415,-0.009773836471140385
1772726474536296700,5.994296630859375,0.006108647678047419,0.007635809946805239,-0.004276053514331579
1772726474545814300,6.003814208984375,0.004276053514331579,0.008246674202382565,0.004276053514331579
1772726474555331800,6.013331787109375,0,0.005192350596189499,0.011606430634856224
1772726474564849400,6.022849365234375,-0.002443459117785096,0.005192350596189499,0.017104214057326317
1772726474574367000,6.032366943359375,-0.002443459117785096,0.003970621153712273,0.021380268037319183
1772726474583884500,6.041884521484375,-0.001832594396546483,0.000305432389723137,0.020769402384757996
1772726474593401900,6.05140185546875,-0.000610864779446274,-0.010079269297420979,0.013439024798572063
1772726474602919700,6.060919677734375,-0.000610864779446274,-0.015577051788568497,0.0030543238390237093
1772726474612437000,6.07043701171875,-0.001832594396546483,-0.014966187067329884,-0.007941242307424545
1772726474621954600,6.07995458984375,-0.004276053514331579,-0.018631376326084137,-0.014049889519810677
1772726474631472000,6.08947216796875,-0.007330377586185932,-0.019853105768561363,-0.014660755172371864
1772726474640989700,6.09898974609375,-0.009162971749901772,-0.016187917441129684,-0.007941242307424545
1772726474650507300,6.10850732421875,-0.007941242307424545,-0.011911863461136818,0.001832594396546483
1772726474660024800,6.11802490234375,-0.006719512399286032,-0.003359756199643016,0.014049889519810677
1772726474669542400,6.12754248046875,-0.003665188793092966,0.008246674202382565,0.02871064469218254
1772726474679060000,6.13706005859375,-0.000610864779446274,0.0204639695584774,0.040317077189683914
1772726474688577500,6.14657763671875,0.001221729558892548,0.03145953640341759,0.049480047076940536
1772726474698095000,6.15609521484375,0.0030543238390237093,0.03390299528837204,0.053145237267017365
1772726474707612700,6.16561279296875,0.002443459117785096,0.022907428443431854,0.046425722539424896
1772726474717130200,6.175130126953125,0.000610864779446274,0.010690134018659592,0.03298669680953026
1772726474726647800,6.184647705078125,-0.0030543238390237093,-0.0021380267571657896,0.013439024798572063
1772726474736165400,6.194165283203125,-0.0054977829568088055,-0.010690134018659592,-0.010995565913617611
1772726474745682700,6.2036826171875,-0.006108647678047419,-0.013133592903614044,-0.03237583488225937
1772726474755200500,6.213200439453125,-0.004886918235570192,-0.003970621153712273,-0.043982263654470444
1772726474764717800,6.2227177734375,-0.001832594396546483,0.005192350596189499,-0.043982263654470444
1772726474774235400,6.2322353515625,0.001832594396546483,0.008246674202382565,-0.034208428114652634
1772726474783753000,6.2417529296875,0.0030543238390237093,0.010690134018659592,-0.014660755172371864
1772726474793270500,6.2512705078125,0.006108647678047419,0.011300998739898205,0.007330377586185932
1772726474802788000,6.2607880859375,0.007941242307424545,0.008857538923621178,0.02626718580722809
1772726474812305700,6.2703056640625,0.006719512399286032,0.005803215317428112,0.03848448023200035
1772726474821823200,6.2798232421875,0.003665188793092966,0.008246674202382565,0.03909534588456154
1772726474831340800,6.2893408203125,0,0.01435532234609127,0.031154103577136993
1772726474840858400,6.2988583984375,0,0.016187917441129684,0.01954767294228077
1772726474850376000,6.3083759765625,0.001221729558892548,0.016798781231045723,0.010995565913617611
1772726474859893500,6.3178935546875,0.002443459117785096,0.016187917441129684,0.011606430634856224
1772726474869411000,6.3274111328125,0.006108647678047419,0.006414080038666725,0.017715077847242355
1772726474878928600,6.3369287109375,0.007941242307424545,-0.0021380267571657896,0.024434590712189674
1772726474888446200,6.3464462890625,0.009162971749901772,-0.0021380267571657896,0.025045456364750862
1772726474897963800,6.3559638671875,0.009162971749901772,0.005192350596189499,0.02260199747979641
1772726474907481300,6.3654814453125,0.007941242307424545,0.01740964688360691,0.020769402384757996
1772726474916999000,6.3749990234375,0.006719512399286032,0.025350889191031456,0.020158538594841957
1772726474926516200,6.38451611328125,0.0054977829568088055,0.024740023538470268,0.021991131827235222
1772726474936034000,6.394033935546875,0.0054977829568088055,0.019242240116000175,0.02626718580722809
1772726474945551400,6.40355126953125,0.006719512399286032,0.011300998739898205,0.028099779039621353
1772726474955069000,6.41306884765625,0.0054977829568088055,0.003359756199643016,0.021991131827235222
1772726474964586500,6.42258642578125,0.004276053514331579,0.005803215317428112,0.014049889519810677
1772726474974104000,6.43210400390625,0.0030543238390237093,0.012522728182375431,0.000610864779446274
1772726474983621600,6.44162158203125,0.003665188793092966,0.014966187067329884,-0.01282816007733345
1772726474993139200,6.45113916015625,0.004886918235570192,0.013744457624852657,-0.021380268037319183
1772726475002656800,6.46065673828125,0.008552107028663158,0.007635809946805239,-0.024434590712189674
1772726475012174300,6.47017431640625,0.009773836471140385,0.003359756199643016,-0.02260199747979641
1772726475021692000,6.47969189453125,0.009162971749901772,0.003970621153712273,-0.01649334840476513
1772726475031209500,6.48920947265625,0.006108647678047419,0.000305432389723137,-0.006719512399286032
1772726475040727000,6.49872705078125,0.004276053514331579,-0.003359756199643016,0
1772726475050244600,6.50824462890625,-0.001221729558892548,-0.007024944759905338,0.004886918235570192
1772726475059762200,6.51776220703125,-0.006719512399286032,-0.003359756199643016,0.0054977829568088055
1772726475069279700,6.52727978515625,-0.009162971749901772,0.000305432389723137,0.004276053514331579
1772726475078797000,6.536797119140625,-0.009162971749901772,0.006414080038666725,-0.001221729558892548
1772726475088315000,6.54631494140625,-0.006108647678047419,0.016798781231045723,-0.006108647678047419
1772726475097832200,6.555832275390625,-0.0030543238390237093,0.026572618633508682,-0.009162971749901772
1772726475107349800,6.565349853515625,0,0.029016077518463135,-0.010995565913617611
1772726475116867300,6.574867431640625,0.001221729558892548,0.022907428443431854,-0.009162971749901772
1772726475126385000,6.584385009765625,-0.001832594396546483,0.012522728182375431,-0.006108647678047419
1772726475135902500,6.59390234375,-0.0030543238390237093,0.010690134018659592,-0.0030543238390237093
1772726475145420000,6.603419921875,-0.003665188793092966,0.012522728182375431,0.001221729558892548
1772726475154937600,6.6129375,-0.001221729558892548,0.010079269297420979,0.004276053514331579
1772726475164455200,6.622455078125,0.000610864779446274,0.008857538923621178,0.001832594396546483
1772726475173972700,6.63197265625,0.001221729558892548,0.007024944759905338,-0.006108647678047419
1772726475183490300,6.641490234375,0.001221729558892548,0.0027488914784044027,-0.017104214057326317
1772726475193007900,6.6510078125,-0.000610864779446274,-0.0021380267571657896,-0.0256563201546669
1772726475202525400,6.660525390625,-0.001832594396546483,-0.007635809946805239,-0.030543239787220955
1772726475212043000,6.67004296875,-0.0030543238390237093,-0.010079269297420979,-0.030543239787220955
1772726475221560600,6.679560546875,-0.0030543238390237093,-0.0015271619195118546,-0.020158538594841957
1772726475231078000,6.689077880859375,-0.0030543238390237093,0.008246674202382565,0.001221729558892548
1772726475240595700,6.698595703125,0.000610864779446274,0.007635809946805239,0.0256563201546669
1772726475250113000,6.708113037109375,0.003665188793092966,0.005803215317428112,0.046425722539424896
1772726475259630600,6.717630615234375,0.001221729558892548,0.006414080038666725,0.05436696484684944
1772726475269148200,6.727148193359375,0,0.011300998739898205,0.049480047076940536
1772726475278665700,6.736665771484375,-0.002443459117785096,0.015577051788568497,0.037262752652168274
1772726475288183300,6.746183349609375,-0.004276053514331579,0.016798781231045723,0.021991131827235222
1772726475297700900,6.755700927734375,-0.004886918235570192,0.01435532234609127,0.007330377586185932
1772726475307218400,6.765218505859375,-0.004886918235570192,0.013133592903614044,-0.0054977829568088055
1772726475316736000,6.774736083984375,-0.003665188793092966,0.010079269297420979,-0.01649334840476513
1772726475326253600,6.784253662109375,-0.002443459117785096,0.012522728182375431,-0.01954767294228077
1772726475335771100,6.793771240234375,0,0.011911863461136818,-0.012217295356094837
1772726475345288700,6.803288818359375,0.001832594396546483,0.007635809946805239,-0.0030543238390237093
1772726475354806300,6.81280615234375,0.004886918235570192,-0.0027488914784044027,0.004886918235570192
1772726475364323800,6.82232373046875,0.0054977829568088055,-0.008246674202382565,0.010384701192378998
1772726475373841400,6.83184130859375,0.004276053514331579,-0.004581485874950886,0.009162971749901772
1772726475383359000,6.84135888671875,0.006108647678047419,0.000305432389723137,0.006719512399286032
1772726475392876500,6.85087646484375,0.008552107028663158,0.0027488914784044027,0.007941242307424545
1772726475402394000,6.86039404296875,0.007941242307424545,-0.0009162971982732415,0.008552107028663158
1772726475411911400,6.869911376953125,0.008552107028663158,-0.003359756199643016,0.006719512399286032
1772726475421429200,6.87942919921875,0.0054977829568088055,0.0021380267571657896,0.002443459117785096
1772726475430946600,6.888946533203125,0.001832594396546483,0.007635809946805239,-0.000610864779446274
1772726475440464100,6.898464111328125,-0.000610864779446274,0.011911863461136818,-0.002443459117785096
1772726475449981700,6.907981689453125,-0.001832594396546483,0.011300998739898205,-0.000610864779446274
1772726475459499300,6.917499267578125,-0.002443459117785096,0.008857538923621178,0.002443459117785096
1772726475469016800,6.927016845703125,-0.001832594396546483,0.00946840364485979,0.006108647678047419
1772726475478534400,6.936534423828125,-0.001221729558892548,0.013744457624852657,0.008552107028663158
1772726475488052000,6.946052001953125,0.001221729558892548,0.0204639695584774,0.010995565913617611
1772726475497569500,6.955569580078125,0.001221729558892548,0.025350889191031456,0.015271619893610477
1772726475507087000,6.965087158203125,0.001221729558892548,0.025350889191031456,0.017104214057326317
1772726475516604700,6.974604736328125,-0.001221729558892548,0.018631376326084137,0.01649334840476513
1772726475526122200,6.984122314453125,-0.003665188793092966,0.011300998739898205,0.009162971749901772
1772726475535639800,6.993639892578125,-0.004886918235570192,-0.007024944759905338,0.001832594396546483
1772726475545157400,7.003157470703125,-0.0030543238390237093,-0.011300998739898205,-0.004276053514331579
1772726475554675000,7.012675048828125,-0.001221729558892548,-0.013133592903614044,-0.006719512399286032
1772726475564192300,7.022192138671875,0,-0.016187917441129684,-0.001832594396546483
1772726475573710000,7.0317099609375,0.001832594396546483,-0.013133592903614044,0.0054977829568088055
1772726475583227400,7.041227294921875,0.003665188793092966,-0.005803215317428112,0.014660755172371864
1772726475592745000,7.050744873046875,0.006108647678047419,-0.0009162971982732415,0.020769402384757996
1772726475602262500,7.060262451171875,0.004886918235570192,0.0021380267571657896,0.02260199747979641
1772726475611780000,7.069780029296875,0.002443459117785096,0.0021380267571657896,0.017715077847242355
1772726475621297700,7.079297607421875,0.000610864779446274,-0.005192350596189499,0.007941242307424545
1772726475630815200,7.088815185546875,-0.000610864779446274,-0.010079269297420979,-0.0054977829568088055
1772726475640332800,7.098332763671875,-0.0030543238390237093,-0.008246674202382565,-0.017104214057326317
1772726475649850400,7.107850341796875,-0.003665188793092966,-0.004581485874950886,-0.021991131827235222
1772726475659368000,7.117367919921875,-0.003665188793092966,-0.000305432389723137,-0.0256563201546669
1772726475668885500,7.126885498046875,-0.001221729558892548,0.0021380267571657896,-0.02260199747979641
1772726475678403000,7.136403076171875,-0.001221729558892548,-0.005803215317428112,-0.01954767294228077
1772726475687920600,7.145920654296875,0,-0.015577051788568497,-0.018325943499803543
1772726475697438200,7.155438232421875,0.000610864779446274,-0.015577051788568497,-0.01649334840476513
1772726475706955800,7.164955810546875,-0.000610864779446274,-0.007635809946805239,-0.012217295356094837
1772726475716473000,7.17447314453125,0.001221729558892548,0.0021380267571657896,-0.006108647678047419
1772726475725991000,7.183990966796875,0.006108647678047419,0.003359756199643016,0.000610864779446274
1772726475735508200,7.19350830078125,0.011606430634856224,-0.003359756199643016,0.006108647678047419
1772726475745026000,7.203026123046875,0.015271619893610477,-0.015577051788568497,0.008552107028663158
1772726475754543600,7.212543701171875,0.013439024798572063,-0.026572618633508682,0.0030543238390237093
1772726475764061000,7.22206103515625,0.009773836471140385,-0.029016077518463135,-0.004886918235570192
1772726475773578800,7.231578857421875,0.007330377586185932,-0.019853105768561363,-0.011606430634856224
1772726475783096000,7.241095947265625,0.004886918235570192,-0.010690134018659592,-0.012217295356094837
1772726475792613600,7.250613525390625,0.001221729558892548,-0.003970621153712273,-0.008552107028663158
1772726475802131200,7.260131103515625,-0.000610864779446274,-0.005803215317428112,-0.001832594396546483
1772726475811648800,7.269648681640625,-0.000610864779446274,-0.010079269297420979,0.006719512399286032
1772726475821166300,7.279166259765625,0.001832594396546483,-0.012522728182375431,0.014049889519810677
1772726475830684000,7.288683837890625,0.003665188793092966,-0.007635809946805239,0.020158538594841957
1772726475840201500,7.298201416015625,0.007330377586185932,0.008246674202382565,0.024434590712189674
1772726475849719000,7.307718994140625,0.007941242307424545,0.02107483521103859,0.025045456364750862
1772726475859236600,7.317236572265625,0.008552107028663158,0.019853105768561363,0.01954767294228077
1772726475868754200,7.326754150390625,0.008552107028663158,0.007635809946805239,0.009162971749901772
1772726475878271700,7.336271728515625,0.007941242307424545,-0.00946840364485979,-0.007330377586185932
1772726475887789300,7.345789306640625,0.004886918235570192,-0.0204639695584774,-0.021991131827235222
1772726475897307000,7.355306884765625,0.002443459117785096,-0.021685699000954628,-0.030543239787220955
1772726475906824400,7.364824462890625,0.003665188793092966,-0.012522728182375431,-0.02871064469218254
1772726475916341800,7.374341796875,0.007330377586185932,0.000305432389723137,-0.017104214057326317
1772726475925859600,7.383859619140625,0.010995565913617611,0.008246674202382565,-0.003665188793092966
1772726475935377000,7.393376953125,0.01282816007733345,0.007635809946805239,0.006719512399286032
1772726475944894500,7.40289453125,0.012217295356094837,0.0015271619195118546,0.008552107028663158
1772726475954412000,7.412412109375,0.010995565913617611,-0.0021380267571657896,0.004886918235570192
1772726475963929600,7.4219296875,0.009162971749901772,-0.008246674202382565,-0.001221729558892548
1772726475973447200,7.431447265625,0.007330377586185932,-0.00946840364485979,-0.004886918235570192
1772726475982964700,7.44096484375,0.006719512399286032,-0.005803215317428112,-0.004886918235570192
1772726475992482300,7.450482421875,0.006108647678047419,-0.003970621153712273,-0.003665188793092966
1772726476002000000,7.459999755859375,0.004886918235570192,0.0009162971982732415,-0.002443459117785096
1772726476011517400,7.469517333984375,0.004886918235570192,0.008246674202382565,0.002443459117785096
1772726476021035000,7.479034912109375,0.004886918235570192,0.008857538923621178,0.006719512399286032
1772726476030552600,7.488552490234375,0.0054977829568088055,0.00946840364485979,0.009773836471140385
1772726476040070100,7.498070068359375,0.004886918235570192,0.008246674202382565,0.012217295356094837
1772726476049587700,7.507587646484375,0.0054977829568088055,0.007024944759905338,0.010995565913617611
1772726476059105300,7.517105224609375,0.004886918235570192,0.007024944759905338,0.009162971749901772
1772726476068622600,7.52662255859375,0.0030543238390237093,0.006414080038666725,0.006108647678047419
1772726476078140400,7.536140380859375,0,0.005192350596189499,0
1772726476087657700,7.54565771484375,-0.001832594396546483,0.005192350596189499,-0.006719512399286032
1772726476097175300,7.55517529296875,-0.0030543238390237093,0.0027488914784044027,-0.01282816007733345
1772726476106692900,7.56469287109375,-0.0030543238390237093,0.000305432389723137,-0.01588248461484909
1772726476116210400,7.57421044921875,-0.002443459117785096,-0.005192350596189499,-0.01649334840476513
1772726476125728000,7.58372802734375,0.001221729558892548,-0.011300998739898205,-0.01649334840476513
1772726476135245600,7.59324560546875,0.003665188793092966,-0.013744457624852657,-0.01588248461484909
1772726476144763100,7.60276318359375,0.004886918235570192,-0.01435532234609127,-0.014049889519810677
1772726476154280700,7.61228076171875,0.006108647678047419,-0.010690134018659592,-0.009162971749901772
1772726476163798300,7.62179833984375,0.006108647678047419,-0.003970621153712273,-0.001221729558892548
1772726476173315800,7.63131591796875,0.006108647678047419,0.000305432389723137,0.004276053514331579
1772726476182833400,7.64083349609375,0.001832594396546483,-0.007024944759905338,0.004276053514331579
1772726476192351000,7.65035107421875,-0.001221729558892548,-0.015577051788568497,-0.001221729558892548
1772726476201868500,7.65986865234375,-0.003665188793092966,-0.019242240116000175,-0.008552107028663158
1772726476211386000,7.66938623046875,-0.004886918235570192,-0.022296564653515816,-0.01588248461484909
1772726476220903400,7.6789033203125,-0.0030543238390237093,-0.012522728182375431,-0.017104214057326317
1772726476230421200,7.688421142578125,0.001832594396546483,-0.004581485874950886,-0.01282816007733345
1772726476239938600,7.6979384765625,0.004276053514331579,-0.0021380267571657896,-0.004886918235570192
1772726476249456000,7.7074560546875,0.0054977829568088055,0.000305432389723137,0.003665188793092966
1772726476258974000,7.716973876953125,0.0054977829568088055,-0.0021380267571657896,0.008552107028663158
1772726476268491300,7.7264912109375,0.002443459117785096,-0.012522728182375431,0.003665188793092966
1772726476278008800,7.7360087890625,-0.004886918235570192,-0.015577051788568497,-0.004886918235570192
1772726476287526400,7.7455263671875,-0.007941242307424545,-0.008246674202382565,-0.014049889519810677
1772726476297044000,7.7550439453125,-0.006719512399286032,-0.0027488914784044027,-0.021991131827235222
1772726476306561500,7.7645615234375,-0.0030543238390237093,-0.0009162971982732415,-0.026878049597144127
1772726476316079000,7.7740791015625,0,-0.000305432389723137,-0.029932374134659767
1772726476325596700,7.7835966796875,0.000610864779446274,-0.005803215317428112,-0.030543239787220955
1772726476335114200,7.7931142578125,-0.001221729558892548,-0.011911863461136818,-0.029932374134659767
1772726476344631800,7.8026318359375,-0.002443459117785096,-0.014966187067329884,-0.025045456364750862
1772726476354149400,7.8121494140625,-0.004276053514331579,-0.016798781231045723,-0.01282816007733345
1772726476363667000,7.8216669921875,-0.006108647678047419,-0.013744457624852657,0.004276053514331579
1772726476373184500,7.8311845703125,-0.007330377586185932,-0.008246674202382565,0.025045456364750862
1772726476382702000,7.8407021484375,-0.0054977829568088055,-0.005192350596189499,0.0409279391169548
1772726476392219600,7.8502197265625,-0.0030543238390237093,0.0021380267571657896,0.047036588191986084
1772726476401737000,7.859737060546875,-0.002443459117785096,0.004581485874950886,0.04153880476951599
1772726476411254800,7.8692548828125,-0.002443459117785096,-0.0021380267571657896,0.020769402384757996
1772726476420772000,7.878772216796875,-0.0054977829568088055,-0.003359756199643016,-0.002443459117785096
1772726476430289700,7.88828955078125,-0.004276053514331579,-0.005803215317428112,-0.023212861269712448
1772726476439807200,7.89780712890625,-0.002443459117785096,-0.00946840364485979,-0.03298669680953026
1772726476449324800,7.90732470703125,0.001832594396546483,-0.011911863461136818,-0.034208428114652634
1772726476458842400,7.91684228515625,0.0054977829568088055,-0.010690134018659592,-0.02626718580722809
1772726476468360000,7.92635986328125,0.007941242307424545,-0.011300998739898205,-0.014660755172371864
1772726476477877500,7.93587744140625,0.007941242307424545,-0.013744457624852657,-0.0054977829568088055
1772726476487395000,7.94539501953125,0.006719512399286032,-0.007635809946805239,0.002443459117785096
1772726476496912600,7.95491259765625,0.006719512399286032,-0.0015271619195118546,0.007330377586185932
1772726476506430200,7.96443017578125,0.0054977829568088055,-0.0021380267571657896,0.006719512399286032
1772726476515947800,7.97394775390625,0.004886918235570192,-0.006414080038666725,0.0054977829568088055
1772726476525465300,7.98346533203125,0.0030543238390237093,-0.008246674202382565,0.001832594396546483
1772726476534983000,7.99298291015625,0.000610864779446274,-0.011300998739898205,-0.003665188793092966
1772726476544500500,8.00250048828125,-0.000610864779446274,-0.006414080038666725,-0.008552107028663158
1772726476554017800,8.012017822265625,-0.002443459117785096,0.000305432389723137,-0.01282816007733345
1772726476563535600,8.02153564453125,-0.0030543238390237093,0.003970621153712273,-0.010384701192378998
1772726476573053000,8.031052978515625,-0.001221729558892548,0.007635809946805239,-0.002443459117785096
1772726476582570500,8.040570556640626,0,0.007024944759905338,0.006108647678047419
1772726476592088000,8.050088134765625,0.001832594396546483,0.003359756199643016,0.014049889519810677
1772726476601605600,8.059605712890624,0.0030543238390237093,0.004581485874950886,0.01893680728971958
1772726476611123200,8.069123291015625,0.001832594396546483,0.007024944759905338,0.01954767294228077
1772726476620640800,8.078640869140624,0.002443459117785096,0.011300998739898205,0.017104214057326317
1772726476630158300,8.088158447265625,0.003665188793092966,0.01435532234609127,0.010995565913617611
1772726476639676000,8.097676025390625,0.0030543238390237093,0.013133592903614044,0.002443459117785096
1772726476649193500,8.107193359375,0.001221729558892548,0.005803215317428112,-0.008552107028663158
1772726476658711000,8.1167109375,-0.000610864779446274,-0.000305432389723137,-0.01893680728971958
1772726476668228600,8.126228515625,-0.000610864779446274,-0.00946840364485979,-0.02871064469218254
1772726476677746200,8.13574609375,0.001221729558892548,-0.01802051067352295,-0.034208428114652634
1772726476687263700,8.145263671875,0.004886918235570192,-0.019853105768561363,-0.03237583488225937
1772726476696781300,8.15478125,0.006108647678047419,-0.019853105768561363,-0.024434590712189674
1772726476706298600,8.164298583984374,0.008552107028663158,-0.021685699000954628,-0.018325943499803543
1772726476715816400,8.17381640625,0.007941242307424545,-0.01802051067352295,-0.012217295356094837
1772726476725333800,8.183333740234374,0.0054977829568088055,-0.008857538923621178,-0.01282816007733345
1772726476734851300,8.192851318359375,0.001832594396546483,-0.0009162971982732415,-0.015271619893610477
1772726476744369000,8.202368896484375,0.000610864779446274,0.003359756199643016,-0.018325943499803543
1772726476753886500,8.211886474609376,-0.001832594396546483,0.004581485874950886,-0.01893680728971958
1772726476763404000,8.221404052734375,-0.0030543238390237093,0.004581485874950886,-0.017715077847242355
1772726476772921600,8.230921630859376,-0.004886918235570192,0.003970621153712273,-0.014660755172371864
1772726476782439200,8.240439208984375,-0.004886918235570192,0.003359756199643016,-0.009162971749901772
1772726476791956700,8.249956787109374,-0.003665188793092966,0.007635809946805239,0.001221729558892548
1772726476801474300,8.259474365234375,-0.002443459117785096,0.008246674202382565,0.010384701192378998
1772726476810991900,8.268991943359374,0.001221729558892548,0.006414080038666725,0.013439024798572063
1772726476820509400,8.278509521484375,0.001832594396546483,0.005803215317428112,0.010384701192378998
1772726476830027000,8.288027099609375,0.001221729558892548,0.004581485874950886,0.0054977829568088055
1772726476839544600,8.297544677734376,0.001221729558892548,0.007024944759905338,-0.003665188793092966
1772726476849062100,8.307062255859375,0,0.011300998739898205,-0.014049889519810677
1772726476858579500,8.316579345703126,0.000610864779446274,0.01435532234609127,-0.023823726922273636
1772726476868097300,8.32609716796875,0.003665188793092966,0.013744457624852657,-0.02932151034474373
1772726476877614600,8.335614501953126,0.006719512399286032,0.004581485874950886,-0.03237583488225937
1772726476887132200,8.345132080078125,0.007330377586185932,-0.013744457624852657,-0.03481929376721382
1772726476896650000,8.35464990234375,0.006108647678047419,-0.03023780696094036,-0.0360410213470459
1772726476906167300,8.364167236328125,0.003665188793092966,-0.04306596517562866,-0.03787361457943916
1772726476915684900,8.373684814453124,-0.000610864779446274,-0.04673115536570549,-0.040317077189683914
1772726476925202400,8.383202392578125,-0.004276053514331579,-0.03145953640341759,-0.03787361457943916
1772726476934720000,8.392719970703125,-0.004886918235570192,-0.015577051788568497,-0.029932374134659767
1772726476944237600,8.402237548828126,-0.000610864779446274,-0.000305432389723137,-0.014660755172371864
1772726476953755100,8.411755126953125,0.003665188793092966,0.00946840364485979,0.006719512399286032
1772726476963272700,8.421272705078126,0.007330377586185932,0.015577051788568497,0.02932151034474373
1772726476972790300,8.430790283203125,0.007941242307424545,0.015577051788568497,0.04459312930703163
1772726476982307800,8.440307861328124,0.006719512399286032,0.010690134018659592,0.04764745384454727
1772726476991825400,8.449825439453125,0.0030543238390237093,0.005192350596189499,0.03909534588456154
1772726477001343000,8.459343017578124,-0.002443459117785096,0.0015271619195118546,0.020158538594841957
1772726477010860500,8.468860595703125,-0.003665188793092966,0.004581485874950886,-0.001832594396546483
1772726477020378000,8.478378173828125,-0.003665188793092966,0.007024944759905338,-0.020769402384757996
1772726477029895700,8.487895751953126,-0.001221729558892548,0.005803215317428112,-0.031154103577136993
1772726477039413000,8.4974130859375,0.001221729558892548,0.003359756199643016,-0.03237583488225937
1772726477048930800,8.506930908203126,0.002443459117785096,0.0021380267571657896,-0.0256563201546669
1772726477058448100,8.5164482421875,0.0030543238390237093,0.0027488914784044027,-0.01282816007733345
1772726477067965700,8.525965576171876,0.0054977829568088055,0.008246674202382565,0.006108647678047419
1772726477077483300,8.535483154296875,0.007941242307424545,0.012522728182375431,0.023212861269712448
1772726477087000800,8.545000732421874,0.007330377586185932,0.011300998739898205,0.03481929376721382
1772726477096518400,8.554518310546875,0.0054977829568088055,0.005803215317428112,0.036651886999607086
1772726477106036000,8.564035888671874,0.004276053514331579,0.0015271619195118546,0.03176496922969818
1772726477115553500,8.573553466796875,0.004276053514331579,-0.005192350596189499,0.01954767294228077
1772726477125071000,8.583071044921875,0.003665188793092966,-0.008246674202382565,0.0054977829568088055
1772726477134588700,8.592588623046876,0.004276053514331579,0.000305432389723137,-0.004276053514331579
1772726477144106200,8.602106201171875,0.004886918235570192,0.006414080038666725,-0.0054977829568088055
1772726477153623800,8.611623779296876,0.006108647678047419,0.010690134018659592,0.0030543238390237093
1772726477163141400,8.621141357421875,0.008552107028663158,0.015577051788568497,0.01588248461484909
1772726477172659000,8.630658935546874,0.010384701192378998,0.010690134018659592,0.02932151034474373
1772726477182176500,8.640176513671875,0.009162971749901772,-0.000305432389723137,0.03543015569448471
1772726477191693800,8.64969384765625,0.006108647678047419,-0.003970621153712273,0.027488915249705315
1772726477201211600,8.659211669921875,0.0030543238390237093,0.0015271619195118546,0.014049889519810677
1772726477210729000,8.66872900390625,-0.000610864779446274,0.0027488914784044027,-0.0030543238390237093
1772726477220246500,8.67824658203125,-0.0030543238390237093,0.007024944759905338,-0.010995565913617611
1772726477229764000,8.68776416015625,0,0.010690134018659592,-0.006719512399286032
1772726477239281700,8.69728173828125,0.004886918235570192,0.003359756199643016,0.006108647678047419
1772726477248799200,8.70679931640625,0.008552107028663158,-0.006414080038666725,0.01954767294228077
1772726477258316800,8.71631689453125,0.010384701192378998,-0.013133592903614044,0.0256563201546669
1772726477267834400,8.72583447265625,0.011606430634856224,-0.016187917441129684,0.021991131827235222
1772726477277352000,8.73535205078125,0.011606430634856224,-0.015577051788568497,0.009773836471140385
1772726477286869500,8.744869384765625,0.009773836471140385,-0.005803215317428112,-0.006108647678047419
1772726477296387000,8.754386962890624,0.007330377586185932,0.0009162971982732415,-0.018325943499803543
1772726477305904600,8.763904541015625,0.0054977829568088055,-0.004581485874950886,-0.023212861269712448
1772726477315422200,8.773422119140625,0.004276053514331579,-0.008246674202382565,-0.021991131827235222
1772726477324939800,8.782939697265626,0.0030543238390237093,-0.003970621153712273,-0.015271619893610477
1772726477334457300,8.792457275390625,-0.001221729558892548,-0.0027488914784044027,-0.004886918235570192
1772726477343974700,8.801974609375,-0.004276053514331579,-0.005803215317428112,0.002443459117785096
1772726477353492500,8.811492431640625,-0.004276053514331579,-0.0009162971982732415,0.006108647678047419
1772726477363009800,8.821009765625,-0.0030543238390237093,0.003359756199643016,0.0054977829568088055
1772726477372527400,8.83052734375,0.000610864779446274,0.008857538923621178,0.002443459117785096
1772726477382045000,8.840044921875,0.003665188793092966,0.010079269297420979,-0.001832594396546483
1772726477391562500,8.8495625,0.006719512399286032,0.0021380267571657896,-0.006719512399286032
1772726477401080000,8.859080078125,0.007941242307424545,-0.004581485874950886,-0.009773836471140385
1772726477410597600,8.86859765625,0.004276053514331579,0.0009162971982732415,-0.007941242307424545
1772726477420115200,8.878115234375,-0.000610864779446274,0.016187917441129684,-0.003665188793092966
1772726477429632800,8.8876328125,-0.0030543238390237093,0.028405211865901947,0.000610864779446274
1772726477439150300,8.897150390625,-0.003665188793092966,0.032070402055978775,0.002443459117785096
1772726477448668000,8.90666796875,-0.002443459117785096,0.021685699000954628,-0.000610864779446274
1772726477458185500,8.916185546875,0,0.0021380267571657896,-0.008552107028663158
1772726477467703000,8.925703125,0.002443459117785096,-0.022296564653515816,-0.020769402384757996
1772726477477220600,8.935220703125,0.0030543238390237093,-0.03634645417332649,-0.037262752652168274
1772726477486738200,8.94473828125,0.0030543238390237093,-0.03145953640341759,-0.049480047076940536
1772726477496255500,8.95425537109375,0.002443459117785096,-0.014966187067329884,-0.05070177838206291
1772726477505773300,8.963773193359375,0,-0.0015271619195118546,-0.03848448023200035
1772726477515290600,8.97329052734375,-0.000610864779446274,0.005803215317428112,-0.01282816007733345
1772726477524808200,8.98280810546875,0,0.006414080038666725,0.017104214057326317
1772726477534325800,8.99232568359375,0.003665188793092966,0.010690134018659592,0.0360410213470459
1772726477543843300,9.00184326171875,0.0054977829568088055,0.01740964688360691,0.039706211537122726
1772726477553361000,9.01136083984375,0.0054977829568088055,0.019242240116000175,0.030543239787220955
1772726477562878500,9.02087841796875,0.001221729558892548,0.011911863461136818,0.017104214057326317
1772726477572396000,9.03039599609375,-0.003665188793092966,0.016798781231045723,0.010384701192378998
1772726477581913600,9.03991357421875,-0.010995565913617611,0.016187917441129684,0.006108647678047419
1772726477591431200,9.04943115234375,-0.015271619893610477,0.011911863461136818,-0.001221729558892548
1772726477600948700,9.05894873046875,-0.009773836471140385,0.00946840364485979,-0.011606430634856224
1772726477610466300,9.06846630859375,-0.000610864779446274,0.000305432389723137,-0.01588248461484909
1772726477619984000,9.07798388671875,0.0030543238390237093,-0.005192350596189499,-0.01282816007733345
1772726477629501400,9.08750146484375,0,-0.0009162971982732415,-0.006719512399286032
1772726477639019000,9.09701904296875,-0.001221729558892548,0.00946840364485979,0.002443459117785096
1772726477648536300,9.106536376953125,0.001832594396546483,0.028405211865901947,0.007330377586185932
1772726477658054100,9.11605419921875,0.007941242307424545,0.044898562133312225,0.0054977829568088055
1772726477667571500,9.125571533203125,0.017715077847242355,0.04550942778587341,-0.003665188793092966
1772726477677089000,9.135089111328124,0.02260199747979641,0.04245510324835777,-0.01649334840476513
1772726477686606600,9.144606689453125,0.021380268037319183,0.03329212963581085,-0.027488915249705315
1772726477696124200,9.154124267578124,0.015271619893610477,0.02107483521103859,-0.031154103577136993
1772726477705641700,9.163641845703125,0.010995565913617611,0.019242240116000175,-0.02626718580722809
1772726477715159300,9.1731591796875,0.009773836471140385,0.015577051788568497,-0.013439024798572063
1772726477724676900,9.1826767578125,0.004276053514331579,0.005192350596189499,0.009162971749901772
1772726477734194400,9.1921943359375,-0.007941242307424545,-0.008246674202382565,0.030543239787220955
1772726477743712000,9.2017119140625,-0.020158538594841957,-0.005803215317428112,0.03787361457943916
1772726477753229600,9.2112294921875,-0.027488915249705315,0.013744457624852657,0.027488915249705315
1772726477762747100,9.2207470703125,-0.023823726922273636,0.03023780696094036,0.006719512399286032
1772726477772264700,9.2302646484375,-0.01282816007733345,0.035124726593494415,-0.009773836471140385
1772726477781782300,9.2397822265625,0.000610864779446274,0.03756818547844887,-0.011606430634856224
1772726477791299800,9.2492998046875,0.0054977829568088055,0.03023780696094036,0.001832594396546483
1772726477800817200,9.258817138671875,0.007330377586185932,0.011911863461136818,0.01893680728971958
1772726477810335000,9.2683349609375,0.010384701192378998,-0.005192350596189499,0.034208428114652634
1772726477819852300,9.277852294921875,0.011606430634856224,-0.010690134018659592,0.04520399495959282
1772726477829369900,9.287369873046876,0.015271619893610477,-0.010690134018659592,0.04276053607463837
1772726477838887400,9.296887451171875,0.01649334840476513,-0.008857538923621178,0.029932374134659767
1772726477848405000,9.306405029296876,0.017104214057326317,0.0015271619195118546,0.010995565913617611
1772726477857922600,9.315922607421875,0.01588248461484909,0.018631376326084137,-0.009773836471140385
1772726477867440000,9.325440185546874,0.01588248461484909,0.04001164436340332,-0.031154103577136993
1772726477876957700,9.334957763671875,0.01649334840476513,0.03695731982588768,-0.04764745384454727
1772726477886475300,9.344475341796874,0.011606430634856224,0.0009162971982732415,-0.04520399495959282
1772726477895992800,9.353992919921875,-0.004276053514331579,-0.02718348242342472,-0.027488915249705315
1772726477905510400,9.363510498046875,-0.023212861269712448,-0.03817904740571976,-0.007941242307424545
1772726477915028000,9.373028076171876,-0.02932151034474373,-0.03329212963581085,-0.001221729558892548
1772726477924545500,9.382545654296875,-0.020158538594841957,-0.01740964688360691,-0.0030543238390237093
1772726477934063000,9.39206298828125,-0.0054977829568088055,0.0027488914784044027,-0.007330377586185932
1772726477943580700,9.40158056640625,0.007330377586185932,0.03451386094093323,-0.014660755172371864
1772726477953098200,9.41109814453125,0.01893680728971958,0.0772743970155716,-0.02260199747979641
1772726477962615600,9.420615478515625,0.02626718580722809,0.0821613147854805,-0.02260199747979641
1772726477972133400,9.43013330078125,0.028099779039621353,0.06444623321294785,-0.014049889519810677
1772726477981651000,9.43965087890625,0.017104214057326317,0.0412333719432354,-0.002443459117785096
1772726477991168500,9.44916845703125,0.001221729558892548,0.01740964688360691,0.007330377586185932
1772726478000685800,9.458685791015625,-0.01588248461484909,0.005803215317428112,0.020158538594841957
1772726478010203600,9.46820361328125,-0.02932151034474373,0.004581485874950886,0.031154103577136993
1772726478019721000,9.477720947265626,-0.03298669680953026,0.008246674202382565,0.030543239787220955
1772726478029238500,9.487238525390625,-0.026878049597144127,0.02107483521103859,0.017715077847242355
1772726478038756000,9.496756103515626,-0.012217295356094837,0.035735588520765305,-0.004886918235570192
1772726478048273700,9.506273681640625,0.001832594396546483,0.03634645417332649,-0.027488915249705315
1772726478057791200,9.515791259765624,0.013439024798572063,0.029626941308379173,-0.036651886999607086
1772726478067308800,9.525308837890625,0.01649334840476513,0.022907428443431854,-0.033597562462091446
1772726478076826400,9.534826416015624,0.013439024798572063,0.01435532234609127,-0.021380268037319183
1772726478086344000,9.544343994140625,0.010995565913617611,0.016187917441129684,-0.009162971749901772
1772726478095861500,9.553861572265625,0.010384701192378998,0.03145953640341759,-0.007330377586185932
1772726478105379000,9.563379150390626,0.020769402384757996,0.04978547990322113,-0.020769402384757996
1772726478114896600,9.572896728515625,0.04153880476951599,0.07422006875276566,-0.04214967042207718
1772726478124414200,9.582414306640626,0.06291907280683517,0.1127045527100563,-0.0256563201546669
1772726478133931800,9.591931884765625,0.06108647957444191,0.15790854394435883,0.03176496922969818
1772726478143449300,9.601449462890624,-0.003665188793092966,0.16157373785972595,0.14172062277793884
1772726478152966700,9.610966552734375,-0.06352993845939636,0.08338304609060287,0.16798780858516693
1772726478162484500,9.620484375,-0.05864302068948746,0.06444623321294785,0.1185077652335167
1772726478181519400,9.639519287109374,-0.008552107028663158,-0.026572618633508682,-0.031154103577136993
1772726478191037000,9.649036865234375,-0.004276053514331579,-0.016187917441129684,-0.08307760953903198
1772726478200554500,9.658554443359375,-0.050090912729501724,-0.007024944759905338,-0.1288924664258957
