time,seconds_elapsed,z,y,x
1772725830699807000,0.122806884765625,9.308079719543457,3.8835511207580566,-0.38285163044929504
1772725830709324000,0.132323974609375,9.53779125213623,3.964907169342041,-0.4618147611618042
1772725830718841300,0.14184130859375,9.616754531860352,4.022335052490234,-0.4139583110809326
1772725830728358700,0.151358642578125,9.626325607299805,3.8907296657562256,-0.27038896083831787
1772725830737876000,0.1608759765625,9.678967475891113,3.751945972442627,-0.09810572862625122
1772725830747393000,0.17039306640625,9.525827407836914,3.6849467754364014,-0.02153540402650833
1772725830756910300,0.179910400390625,9.157332420349121,3.704089403152466,-0.02632104977965355
1772725830766427600,0.189427734375,8.851051330566406,3.730410575866699,-0.09571290761232376
1772725830775944700,0.19894482421875,8.819944381713867,3.737588882446289,-0.11246266216039658
1772725830785462000,0.2084619140625,8.949156761169434,3.735196113586426,-0.15314064919948578
1772725830794979300,0.217979248046875,9.154939651489258,3.78544545173645,-0.22971096634864807
1772725830804496600,0.22749658203125,9.233902931213379,3.9146578311920166,-0.33020952343940735
1772725830814013700,0.237013671875,9.286544799804688,4.060619831085205,-0.4737788736820221
1772725830823531000,0.246531005859375,9.22433090209961,4.082155227661133,-0.46420758962631226
1772725830833048300,0.25604833984375,9.006584167480469,3.9936211109161377,-0.31824541091918945
1772725830842565600,0.265565673828125,9.123832702636719,3.87876558303833,-0.20578274130821228
1772725830852082700,0.275082763671875,9.257830619812012,3.864408493041992,-0.23449662327766418
1772725830861600000,0.28460009765625,9.391828536987305,3.8189449310302734,-0.20099709928035736
1772725830871117300,0.294117431640625,9.286544799804688,3.8596229553222656,-0.08614161610603333
1772725830880634400,0.30363427734375,9.142974853515625,3.8524444103240967,0.01196411345154047
1772725830890151700,0.313151611328125,9.080761909484863,3.84765887260437,0.02871387079358101
1772725830899669000,0.3226689453125,9.087940216064453,3.845266103744507,-0.059820566326379776
1772725830909186300,0.332186279296875,9.075976371765137,3.809373617172241,-0.10049854964017868
1772725830918703400,0.341703369140625,9.059226989746094,3.864408493041992,-0.13160525262355804
1772725830928220700,0.351220703125,9.135796546936035,3.926621913909912,-0.16271193325519562
1772725830937738000,0.360738037109375,9.164510726928711,3.91705060005188,-0.14117653667926788
1772725830947255300,0.37025537109375,9.183652877807617,3.9146578311920166,-0.17706887423992157
1772725830956772400,0.3797724609375,9.169296264648438,3.9361932277679443,-0.15314064919948578
1772725830966289700,0.38928955078125,9.231510162353516,3.9433717727661133,-0.14117653667926788
1772725830975807000,0.398806884765625,9.207581520080566,3.9122650623321533,-0.08135596662759781
1772725830985324300,0.40832421875,9.183652877807617,3.840480327606201,-0.01196411345154047
1772725830994841300,0.41784130859375,9.114261627197266,3.799802303314209,0.02632104977965355
1772725831004358700,0.427358642578125,9.138189315795898,3.7878382205963135,-0.0023928226437419653
1772725831013876000,0.4368759765625,9.193224906921387,3.84765887260437,-0.019142581149935722
1772725831023393000,0.44639306640625,9.17886734008789,3.9194436073303223,-0.02871387079358101
1772725831032910300,0.455910400390625,9.133403778076172,4.00319242477417,0.019142581149935722
1772725831042427600,0.465427734375,9.140582084655762,4.00319242477417,0.02632104977965355
1772725831051945000,0.474945068359375,9.126225471496582,3.9936211109161377,0.004785645287483931
1772725831061462000,0.4844619140625,9.154939651489258,3.9314076900482178,-0.009571290574967861
1772725831070979300,0.493979248046875,9.142974853515625,3.8811583518981934,-0.031106693670153618
1772725831080496600,0.50349658203125,9.131011009216309,3.8739798069000244,-0.02871387079358101
1772725831090014000,0.513013916015625,9.128618240356445,3.8835511207580566,-0.01196411345154047
1772725831099531300,0.52253125,9.128618240356445,3.871587038040161,-0.014356935396790504
1772725831109048300,0.53204833984375,9.123832702636719,3.8835511207580566,0.014356935396790504
1772725831118565600,0.541565673828125,9.135796546936035,3.924229145050049,-0.040677983313798904
1772725831128083000,0.5510830078125,9.121439933776855,3.9625144004821777,-0.08614161610603333
1772725831137600000,0.56060009765625,9.140582084655762,3.9792640209198,-0.07417750358581543
1772725831147117300,0.570117431640625,9.119047164916992,3.950550079345703,-0.06699903309345245
1772725831156634600,0.579634521484375,9.056833267211914,3.9050865173339844,-0.07178468257188797
1772725831166151700,0.589151611328125,8.980263710021973,3.9122650623321533,-0.038285162299871445
1772725831175669000,0.5986689453125,8.96829891204834,3.9074792861938477,-0.019142581149935722
1772725831185186300,0.608186279296875,8.94676399230957,3.9146578311920166,-0.007178467698395252
1772725831194703600,0.61770361328125,8.944371223449707,3.9194436073303223,-0.014356935396790504
1772725831204221000,0.627220947265625,9.030512809753418,3.893122434616089,-0.038285162299871445
1772725831213738000,0.636738037109375,9.078369140625,3.895515203475952,-0.05503492057323456
1772725831223255300,0.64625537109375,9.09990406036377,3.8668015003204346,0.007178467698395252
1772725831232772600,0.655772705078125,9.145368576049805,3.864408493041992,0.009571290574967861
1772725831242290000,0.6652900390625,9.214759826660156,3.9314076900482178,-0.04785645380616188
1772725831251807000,0.674806884765625,9.276973724365234,3.955335855484009,-0.07657032459974289
1772725831261324300,0.68432421875,9.245866775512695,3.950550079345703,-0.07178468257188797
1772725831270841600,0.693841552734375,9.166903495788574,3.9218363761901855,-0.02632104977965355
1772725831280358700,0.703358642578125,9.142974853515625,3.9074792861938477,0.0023928226437419653
1772725831289876000,0.7128759765625,9.154939651489258,3.950550079345703,0.007178467698395252
1772725831299393300,0.722393310546875,9.221938133239746,3.9912281036376953,0.04546362906694412
1772725831308910600,0.73191064453125,9.269794464111328,4.000799655914307,0.062213387340307236
1772725831318427600,0.741427734375,9.255437850952148,4.00319242477417,0.04785645380616188
1772725831327945000,0.750945068359375,9.200403213500977,4.0079779624938965,0.04307080805301666
1772725831337462300,0.760462158203125,9.1716890335083,3.9792640209198,0.01196411345154047
1772725831346979600,0.7699794921875,9.162117958068848,3.9744784832000732,0.02632104977965355
1772725831356497000,0.779496826171875,9.123832702636719,3.988835334777832,0.009571290574967861
1772725831366014000,0.789013916015625,9.10229778289795,3.964907169342041,-0.0023928226437419653
1772725831375531300,0.79853125,9.128618240356445,3.9529430866241455,-0.031106693670153618
1772725831385048600,0.808048583984375,9.131011009216309,3.9146578311920166,-0.031106693670153618
1772725831394565600,0.817565673828125,9.09990406036377,3.9074792861938477,0.02871387079358101
1772725831404083000,0.8270830078125,9.030512809753418,3.8763725757598877,0.06699903309345245
1772725831413600300,0.836600341796875,9.001798629760742,3.893122434616089,0.04307080805301666
1772725831423117600,0.84611767578125,8.937192916870117,3.8763725757598877,0.007178467698395252
1772725831432634600,0.855634521484375,8.930013656616211,3.8883368968963623,0.03349951654672623
1772725831442152000,0.86515185546875,8.941978454589844,3.88594388961792,-0.04307080805301666
1772725831451669200,0.874669189453125,8.96829891204834,3.8883368968963623,-0.07657032459974289
1772725831461186600,0.8841865234375,9.042476654052734,3.9146578311920166,-0.09571290761232376
1772725831470703900,0.893703857421875,9.114261627197266,3.9361932277679443,-0.10289137065410614
1772725831480221000,0.903220947265625,9.123832702636719,3.9385859966278076,-0.08374879509210587
1772725831489738200,0.91273828125,9.145368576049805,3.94097900390625,-0.05742774158716202
1772725831499255600,0.922255615234375,9.152546882629395,3.9146578311920166,-0.038285162299871445
1772725831508772600,0.931772705078125,9.166903495788574,3.90987229347229,-0.01196411345154047
1772725831518290000,0.9412900390625,9.200403213500977,3.9361932277679443,-0.02392822690308094
1772725831527807200,0.95080712890625,9.293723106384277,4.005585193634033,-0.007178467698395252
1772725831537324500,0.960324462890625,9.394221305847168,4.015156269073486,0.014356935396790504
1772725831546841600,0.969841552734375,9.387042999267578,4.0079779624938965,0.02392822690308094
1772725831556359000,0.97935888671875,9.291330337524414,3.9792640209198,0.02392822690308094
1772725831565876200,0.988876220703125,9.142974853515625,3.94097900390625,0.016749758273363113
1772725831575393500,0.9983935546875,9.08554744720459,3.964907169342041,0.014356935396790504
1772725831584910600,1.00791064453125,9.083154678344727,3.9840497970581055,-0.02632104977965355
1772725831594428000,1.017427978515625,9.083154678344727,3.9984066486358643,-0.07178468257188797
1772725831603945200,1.0269453125,9.097511291503906,4.01037073135376,-0.09571290761232376
1772725831613462500,1.036462646484375,9.09272575378418,3.9457645416259766,-0.07657032459974289
1772725831622979600,1.0459794921875,9.107083320617676,3.9050865173339844,-0.06939185410737991
1772725831632497000,1.055496826171875,9.09272575378418,3.933800458908081,-0.11724831163883209
1772725831642014200,1.06501416015625,9.087940216064453,3.933800458908081,-0.13639089465141296
1772725831651531500,1.074531494140625,9.078369140625,3.9361932277679443,-0.11485548317432404
1772725831661048800,1.084048828125,9.07119083404541,3.9290146827697754,-0.0933200865983963
1772725831670566000,1.09356591796875,9.06401252746582,3.9146578311920166,-0.10767702013254166
1772725831680083200,1.103083251953125,9.061619758605957,3.9194436073303223,-0.11006984114646912
1772725831689600500,1.1126005859375,9.114261627197266,3.893122434616089,-0.11485548317432404
1772725831699117800,1.122117919921875,9.126225471496582,3.9290146827697754,-0.1052841991186142
1772725831708635100,1.13163525390625,9.111868858337402,3.9314076900482178,-0.10767702013254166
1772725831718152200,1.141152099609375,9.123832702636719,3.9768712520599365,-0.1052841991186142
1772725831727669500,1.15066943359375,9.157332420349121,3.94815731048584,-0.12681959569454193
1772725831737186600,1.1601865234375,9.214759826660156,3.9792640209198,-0.1746760457754135
1772725831746704000,1.169703857421875,9.241081237792969,3.9601213932037354,-0.1698904037475586
1772725831756221200,1.17922119140625,9.255437850952148,3.957728624343872,-0.1459621787071228
1772725831765738500,1.188738525390625,9.219545364379883,3.94815731048584,-0.06939185410737991
1772725831775255800,1.198255859375,9.176474571228027,3.9696927070617676,-0.10767702013254166
1772725831784772900,1.20777294921875,9.121439933776855,3.9768712520599365,-0.11724831163883209
1772725831794290200,1.217290283203125,9.133403778076172,3.9792640209198,-0.14835500717163086
1772725831803807500,1.226807373046875,9.169296264648438,3.9457645416259766,-0.11006984114646912
1772725831813324800,1.23632470703125,9.157332420349121,3.924229145050049,-0.08135596662759781
1772725831822842000,1.245842041015625,9.145368576049805,3.933800458908081,-0.09810572862625122
1772725831832359200,1.255359130859375,9.119047164916992,3.9194436073303223,-0.11246266216039658
1772725831841876500,1.26487646484375,9.107083320617676,3.9314076900482178,-0.1052841991186142
1772725831851393800,1.274393798828125,9.10229778289795,3.9146578311920166,-0.11485548317432404
1772725831860910800,1.283910888671875,9.073583602905273,3.9050865173339844,-0.12203395366668701
1772725831870428200,1.29342822265625,9.068798065185547,3.871587038040161,-0.15074782073497772
1772725831879945500,1.302945556640625,9.09272575378418,3.893122434616089,-0.12442677468061447
1772725831889462800,1.312462890625,9.116654396057129,3.9290146827697754,-0.1459621787071228
1772725831898980000,1.32197998046875,9.114261627197266,3.964907169342041,-0.18903298676013947
1772725831908497200,1.3314970703125,9.119047164916992,3.9672999382019043,-0.19621145725250244
1772725831918014500,1.341014404296875,9.133403778076172,3.9529430866241455,-0.1746760457754135
1772725831927531800,1.35053173828125,9.145368576049805,3.924229145050049,-0.14117653667926788
1772725831937049000,1.360049072265625,9.128618240356445,3.900300979614258,-0.11964113265275955
1772725831946566100,1.369566162109375,9.123832702636719,3.933800458908081,-0.13878370821475983
1772725831956083500,1.37908349609375,9.135796546936035,3.9457645416259766,-0.14835500717163086
1772725831965600800,1.388600830078125,9.138189315795898,3.9433717727661133,-0.08853443711996078
1772725831975118000,1.3981181640625,9.157332420349121,3.9361932277679443,-0.08853443711996078
1772725831984635100,1.40763525390625,9.159725189208984,3.9672999382019043,-0.06939185410737991
1772725831994152400,1.41715234375,9.159725189208984,3.950550079345703,-0.08614161610603333
1772725832003669800,1.426669677734375,9.166903495788574,3.9290146827697754,-0.06699903309345245
1772725832013187000,1.43618701171875,9.176474571228027,3.9314076900482178,0.004785645287483931
1772725832022704400,1.445704345703125,9.183652877807617,3.981656789779663,-0.038285162299871445
1772725832032221700,1.4552216796875,9.241081237792969,3.972085475921631,-0.09810572862625122
1772725832041738800,1.46473876953125,9.255437850952148,3.9936211109161377,-0.15074782073497772
1772725832051256000,1.474256103515625,9.190832138061523,3.955335855484009,-0.09571290761232376
1772725832060773000,1.483773193359375,9.09990406036377,3.924229145050049,-0.07417750358581543
1772725832070290400,1.49329052734375,9.095118522644043,3.902693748474121,-0.07417750358581543
1772725832079807700,1.502807861328125,9.150154113769531,3.9194436073303223,-0.10767702013254166
1772725832089325000,1.512324951171875,9.152546882629395,3.9385859966278076,-0.10289137065410614
1772725832098842400,1.52184228515625,9.126225471496582,3.933800458908081,-0.12681959569454193
1772725832108359700,1.531359619140625,9.080761909484863,3.94097900390625,-0.16510476171970367
1772725832117876700,1.540876708984375,9.011369705200195,3.9146578311920166,-0.1818545162677765
1772725832127394000,1.55039404296875,8.97787094116211,3.9050865173339844,-0.1866401731967926
1772725832136911400,1.559911376953125,8.973084449768066,3.9122650623321533,-0.14835500717163086
1772725832146428700,1.5694287109375,9.013762474060059,3.926621913909912,-0.1459621787071228
1772725832155945700,1.57894580078125,9.066405296325684,3.94097900390625,-0.16031911969184875
1772725832165463000,1.588463134765625,9.109476089477539,3.9385859966278076,-0.14117653667926788
1772725832174980400,1.59798046875,9.131011009216309,3.9122650623321533,-0.08135596662759781
1772725832184497700,1.60749755859375,9.1716890335083,3.9074792861938477,-0.10049854964017868
1772725832194014700,1.6170146484375,9.20997428894043,3.9433717727661133,-0.12442677468061447
1772725832203532000,1.626531982421875,9.214759826660156,3.981656789779663,-0.17706887423992157
1772725832213049300,1.63604931640625,9.164510726928711,4.015156269073486,-0.1698904037475586
1772725832222566700,1.645566650390625,9.133403778076172,3.996013879776001,-0.1459621787071228
1772725832232084000,1.655083984375,9.166903495788574,3.9601213932037354,-0.13639089465141296
1772725832241601300,1.664601318359375,9.226723670959473,3.9696927070617676,-0.16271193325519562
1772725832251118300,1.674118408203125,9.274580955505371,3.9840497970581055,-0.13639089465141296
1772725832260635600,1.6836357421875,9.332008361816406,3.9864425659179688,-0.08614161610603333
1772725832270152700,1.693152587890625,9.360722541809082,3.9768712520599365,-0.06939185410737991
1772725832279670000,1.702669921875,9.339186668395996,3.950550079345703,-0.09810572862625122
1772725832289187300,1.712187255859375,9.291330337524414,3.9457645416259766,-0.11246266216039658
1772725832298704600,1.72170458984375,9.200403213500977,3.9601213932037354,-0.12921242415905
1772725832308222000,1.731221923828125,9.135796546936035,3.933800458908081,-0.08853443711996078
1772725832317739300,1.7407392578125,9.05444049835205,3.972085475921631,-0.05742774158716202
1772725832327256300,1.75025634765625,9.008976936340332,3.964907169342041,-0.08853443711996078
1772725832336773600,1.759773681640625,8.95394229888916,3.9529430866241455,-0.10049854964017868
1772725832346291000,1.769291015625,8.918049812316895,3.9457645416259766,-0.10049854964017868
1772725832355808300,1.778808349609375,8.963513374328613,3.9936211109161377,-0.10049854964017868
1772725832365325300,1.7883251953125,8.987442016601562,4.012763500213623,-0.09571290761232376
1772725832374842600,1.797842529296875,8.980263710021973,3.988835334777832,-0.09092725813388824
1772725832384360000,1.80735986328125,8.994620323181152,4.012763500213623,-0.13160525262355804
1772725832393877200,1.816877197265625,9.040083885192871,4.029513359069824,-0.1579262912273407
1772725832403394600,1.82639453125,9.07119083404541,4.039084434509277,-0.12442677468061447
1772725832412911600,1.83591162109375,9.114261627197266,3.988835334777832,-0.12442677468061447
1772725832422429000,1.845428955078125,9.126225471496582,3.988835334777832,-0.12681959569454193
1772725832431946200,1.8549462890625,9.186046600341797,3.9433717727661133,-0.06939185410737991
1772725832441463600,1.864463623046875,9.250652313232422,3.955335855484009,-0.1052841991186142
1772725832450980900,1.87398095703125,9.200403213500977,3.964907169342041,-0.04546362906694412
1772725832460498000,1.883497802734375,9.133403778076172,4.00319242477417,-0.06699903309345245
1772725832470015200,1.89301513671875,9.066405296325684,3.9912281036376953,-0.09810572862625122
1772725832479532500,1.902532470703125,9.040083885192871,3.9840497970581055,-0.1459621787071228
1772725832489049600,1.912049560546875,9.049654960632324,4.022335052490234,-0.15314064919948578
1772725832498567000,1.92156689453125,9.061619758605957,4.027120590209961,-0.12921242415905
1772725832508084200,1.931084228515625,9.061619758605957,4.043870449066162,-0.12681959569454193
1772725832517601500,1.9406015625,9.018548965454102,4.024727821350098,-0.10289137065410614
1772725832527118800,1.950118896484375,9.06401252746582,4.01037073135376,-0.08853443711996078
1772725832536636200,1.95963623046875,9.095118522644043,3.9864425659179688,-0.13878370821475983
1772725832546153200,1.9691533203125,9.109476089477539,3.9696927070617676,-0.14356936514377594
1772725832555670500,1.97867041015625,9.140582084655762,3.981656789779663,-0.11964113265275955
1772725832565187800,1.988187744140625,9.116654396057129,3.9601213932037354,-0.09092725813388824
1772725832574705000,1.997704833984375,9.10229778289795,3.9529430866241455,-0.07657032459974289
1772725832584222200,2.00722216796875,9.128618240356445,3.9768712520599365,-0.11246266216039658
1772725832593739500,2.016739501953125,9.164510726928711,3.9696927070617676,-0.12442677468061447
1772725832603256800,2.0262568359375,9.121439933776855,3.9768712520599365,-0.08135596662759781
1772725832612774100,2.035774169921875,9.075976371765137,3.9625144004821777,-0.059820566326379776
1772725832622291200,2.045291259765625,9.035298347473145,3.955335855484009,-0.10049854964017868
1772725832631808500,2.05480859375,8.997013092041016,3.957728624343872,-0.0933200865983963
1772725832641325800,2.064325927734375,8.992227554321289,3.981656789779663,-0.10289137065410614
1772725832650843100,2.073843017578125,9.028120040893555,3.9864425659179688,-0.09092725813388824
1772725832660360400,2.0833603515625,9.09272575378418,4.01037073135376,-0.07896314561367035
1772725832669877500,2.09287744140625,9.095118522644043,4.000799655914307,-0.059820566326379776
1772725832679394800,2.102394775390625,9.10229778289795,4.000799655914307,-0.04785645380616188
1772725832688912100,2.111912109375,9.119047164916992,3.964907169342041,-0.031106693670153618
1772725832698429400,2.121429443359375,9.162117958068848,3.957728624343872,-0.05742774158716202
1772725832707946800,2.13094677734375,9.147761344909668,3.964907169342041,-0.05742774158716202
1772725832717464000,2.140464111328125,9.162117958068848,3.996013879776001,-0.07417750358581543
1772725832726981000,2.149981201171875,9.174081802368164,3.9936211109161377,-0.038285162299871445
1772725832736498400,2.15949853515625,9.111868858337402,4.00319242477417,-0.007178467698395252
1772725832746015700,2.169015625,9.047262191772461,4.005585193634033,-0.007178467698395252
1772725832755533000,2.178532958984375,8.980263710021973,4.019941806793213,-0.059820566326379776
1772725832765050000,2.188050048828125,8.96112060546875,4.024727821350098,-0.09092725813388824
1772725832774567400,2.1975673828125,8.987442016601562,4.01037073135376,-0.13160525262355804
1772725832784084700,2.207084716796875,9.080761909484863,3.9984066486358643,-0.14356936514377594
1772725832793602000,2.21660205078125,9.17886734008789,4.005585193634033,-0.12681959569454193
1772725832803119400,2.226119384765625,9.221938133239746,3.996013879776001,-0.08374879509210587
1772725832812636400,2.235636474609375,9.183652877807617,3.9792640209198,-0.040677983313798904
1772725832822153700,2.24515380859375,9.138189315795898,3.94097900390625,-0.038285162299871445
1772725832831671000,2.254671142578125,9.083154678344727,3.9385859966278076,-0.004785645287483931
1772725832841188400,2.264188232421875,9.006584167480469,3.9361932277679443,0.02153540402650833
1772725832850705400,2.273705322265625,9.001798629760742,3.9625144004821777,0.009571290574967861
1772725832860222700,2.28322265625,9.013762474060059,3.988835334777832,-0.04785645380616188
1772725832869740000,2.292739990234375,9.042476654052734,4.022335052490234,-0.10767702013254166
1772725832879257300,2.30225732421875,9.056833267211914,4.015156269073486,-0.11485548317432404
1772725832888774400,2.3117744140625,9.097511291503906,3.9840497970581055,-0.11724831163883209
1772725832898292000,2.3212919921875,9.131011009216309,3.9744784832000732,-0.11246266216039658
1772725832907809000,2.33080908203125,9.150154113769531,3.9385859966278076,-0.11246266216039658
1772725832917326300,2.340326416015625,9.20279598236084,3.9194436073303223,-0.09571290761232376
1772725832926843600,2.34984375,9.253045082092285,3.9529430866241455,-0.1052841991186142
1772725832936361000,2.35936083984375,9.255437850952148,3.9696927070617676,-0.1052841991186142
1772725832945878000,2.3688779296875,9.269794464111328,3.9672999382019043,-0.08853443711996078
1772725832955395300,2.378395263671875,9.190832138061523,3.957728624343872,-0.03349951654672623
1772725832964912600,2.38791259765625,9.109476089477539,3.964907169342041,-0.0023928226437419653
1772725832974430000,2.397429931640625,9.078369140625,3.9744784832000732,-0.016749758273363113
1772725832983947300,2.406947265625,9.080761909484863,3.9696927070617676,-0.08135596662759781
1772725832993464300,2.41646435546875,9.028120040893555,3.9768712520599365,-0.11006984114646912
1772725833002981600,2.425981689453125,9.004191398620605,3.9792640209198,-0.07417750358581543
1772725833012499000,2.4354990234375,8.997013092041016,3.9768712520599365,-0.08614161610603333
1772725833022016300,2.445016357421875,8.992227554321289,3.9792640209198,-0.02871387079358101
1772725833031533600,2.454533447265625,9.008976936340332,3.950550079345703,0.038285162299871445
1772725833041050600,2.464050537109375,9.095118522644043,3.9529430866241455,0.038285162299871445
1772725833050568000,2.47356787109375,9.154939651489258,3.964907169342041,0.014356935396790504
1772725833060085200,2.483085205078125,9.205188751220703,3.9625144004821777,0.03349951654672623
1772725833069602600,2.4926025390625,9.159725189208984,3.955335855484009,0.038285162299871445
1772725833079120000,2.502119873046875,9.174081802368164,3.964907169342041,0
1772725833088637000,2.511636962890625,9.22433090209961,3.9672999382019043,-0.0526420995593071
1772725833098154200,2.521154296875,9.243474006652832,3.955335855484009,-0.05024927482008934
1772725833107671600,2.530671630859375,9.19561767578125,3.955335855484009,-0.02871387079358101
1772725833117188900,2.54018896484375,9.128618240356445,3.9768712520599365,0
1772725833126706200,2.5497060546875,9.119047164916992,3.9864425659179688,-0.0526420995593071
1772725833136223200,2.55922314453125,9.128618240356445,4.000799655914307,-0.062213387340307236
1772725833145740500,2.568740478515625,9.121439933776855,3.981656789779663,-0.10767702013254166
1772725833155257900,2.5782578125,9.104690551757812,3.9744784832000732,-0.09571290761232376
1772725833164775200,2.587775146484375,9.073583602905273,3.9672999382019043,-0.04546362906694412
1772725833174292500,2.59729248046875,9.028120040893555,3.9529430866241455,-0.02632104977965355
1772725833183809800,2.606809814453125,9.004191398620605,3.9361932277679443,0.007178467698395252
1772725833193326800,2.616326904296875,9.078369140625,3.924229145050049,-0.038285162299871445
1772725833202844200,2.62584423828125,9.126225471496582,3.94097900390625,-0.04546362906694412
1772725833212361500,2.635361572265625,9.150154113769531,3.94097900390625,-0.031106693670153618
1772725833221878800,2.644878662109375,9.186046600341797,3.9385859966278076,-0.01196411345154047
1772725833231395800,2.654395751953125,9.226723670959473,3.9696927070617676,-0.038285162299871445
1772725833240913200,2.6639130859375,9.214759826660156,3.9744784832000732,-0.02871387079358101
1772725833250430500,2.673430419921875,9.150154113769531,3.972085475921631,-0.01196411345154047
1772725833259947800,2.68294775390625,9.109476089477539,3.9601213932037354,0.004785645287483931
1772725833269465000,2.692465087890625,9.095118522644043,3.94815731048584,0.009571290574967861
1772725833278982400,2.701982421875,9.150154113769531,3.9768712520599365,0.02632104977965355
1772725833288499500,2.71149951171875,9.164510726928711,3.9744784832000732,0.038285162299871445
1772725833298016800,2.721016845703125,9.145368576049805,3.9912281036376953,0.05024927482008934
1772725833307534000,2.7305341796875,9.147761344909668,3.9912281036376953,-0.016749758273363113
1772725833317051400,2.740051513671875,9.121439933776855,3.9696927070617676,-0.007178467698395252
1772725833326568400,2.749568359375,9.133403778076172,4.005585193634033,-0.059820566326379776
1772725833336085800,2.759085693359375,9.241081237792969,4.000799655914307,-0.10289137065410614
1772725833345603000,2.76860302734375,9.236295700073242,3.981656789779663,-0.0526420995593071
1772725833355120400,2.778120361328125,9.1716890335083,3.964907169342041,-0.01196411345154047
1772725833364637700,2.7876376953125,9.128618240356445,3.924229145050049,0.0023928226437419653
1772725833374155000,2.797155029296875,9.08554744720459,3.90987229347229,-0.038285162299871445
1772725833383672300,2.80667236328125,9.037691116333008,3.94815731048584,-0.07657032459974289
1772725833393189400,2.816189453125,8.956335067749023,3.9625144004821777,-0.12442677468061447
1772725833402706700,2.825706787109375,8.913264274597168,3.9672999382019043,-0.15553347766399384
1772725833412224000,2.83522412109375,8.944371223449707,3.972085475921631,-0.19621145725250244
1772725833421741300,2.8447412109375,9.040083885192871,3.955335855484009,-0.16510476171970367
1772725833431258400,2.85425830078125,9.138189315795898,3.9768712520599365,-0.12442677468061447
1772725833440775700,2.863775634765625,9.169296264648438,3.964907169342041,-0.07896314561367035
1772725833450293000,2.87329296875,9.138189315795898,3.9625144004821777,-0.03349951654672623
1772725833459810300,2.882810302734375,9.126225471496582,3.94097900390625,0.0023928226437419653
1772725833469327600,2.89232763671875,9.145368576049805,3.926621913909912,0.009571290574967861
1772725833478845000,2.901844970703125,9.226723670959473,3.9361932277679443,-0.0023928226437419653
1772725833488362000,2.911362060546875,9.274580955505371,3.950550079345703,0.007178467698395252
1772725833497879300,2.92087939453125,9.281759262084961,3.9696927070617676,0.007178467698395252
1772725833507396600,2.930396728515625,9.269794464111328,3.9792640209198,-0.02632104977965355
1772725833516914000,2.939913818359375,9.226723670959473,3.9840497970581055,-0.059820566326379776
1772725833526431200,2.94943115234375,9.121439933776855,3.996013879776001,-0.06939185410737991
1772725833535948300,2.9589482421875,9.030512809753418,3.981656789779663,-0.08853443711996078
1772725833545465600,2.968465576171875,8.963513374328613,3.972085475921631,-0.08614161610603333
1772725833554983000,2.97798291015625,8.973084449768066,3.9625144004821777,-0.08614161610603333
1772725833564500200,2.987500244140625,9.05444049835205,3.9529430866241455,-0.07178468257188797
1772725833574017500,2.997017578125,9.095118522644043,3.9433717727661133,-0.09092725813388824
1772725833583534600,3.00653466796875,9.157332420349121,3.9194436073303223,-0.11246266216039658
1772725833593052000,3.016052001953125,9.198010444641113,3.893122434616089,-0.11485548317432404
1772725833602569200,3.0255693359375,9.1716890335083,3.9194436073303223,-0.12442677468061447
1772725833612086500,3.03508642578125,9.138189315795898,3.924229145050049,-0.12442677468061447
1772725833621603800,3.044603759765625,9.116654396057129,3.9433717727661133,-0.10289137065410614
1772725833631121200,3.05412109375,9.028120040893555,3.9433717727661133,-0.09571290761232376
1772725833640638500,3.063638427734375,9.028120040893555,3.9361932277679443,-0.09092725813388824
1772725833650155500,3.073155517578125,9.056833267211914,3.972085475921631,-0.14117653667926788
1772725833659672800,3.0826728515625,9.104690551757812,3.9768712520599365,-0.16749759018421173
1772725833669190100,3.092190185546875,9.140582084655762,3.9457645416259766,-0.11246266216039658
1772725833678707500,3.10170751953125,9.09990406036377,3.94815731048584,-0.06699903309345245
1772725833688224500,3.111224609375,9.08554744720459,3.94097900390625,-0.04546362906694412
1772725833697741800,3.120741943359375,9.154939651489258,3.9672999382019043,-0.031106693670153618
1772725833707259100,3.130259033203125,9.250652313232422,3.964907169342041,-0.038285162299871445
1772725833716776400,3.1397763671875,9.34875774383545,3.9984066486358643,-0.09092725813388824
1772725833726293800,3.149293701171875,9.336793899536133,4.015156269073486,-0.040677983313798904
1772725833735811000,3.15881103515625,9.248259544372559,3.9744784832000732,-0.007178467698395252
1772725833745328000,3.168328125,9.214759826660156,3.9625144004821777,-0.009571290574967861
1772725833754845400,3.177845458984375,9.198010444641113,3.950550079345703,-0.02871387079358101
1772725833764362800,3.18736279296875,9.154939651489258,3.9625144004821777,-0.10049854964017868
1772725833773880000,3.196880126953125,9.1716890335083,4.00319242477417,-0.07657032459974289
1772725833783397400,3.2063974609375,9.052047729492188,3.9984066486358643,-0.02153540402650833
1772725833792914700,3.215914794921875,8.95394229888916,3.981656789779663,-0.0526420995593071
1772725833802431700,3.225431640625,8.949156761169434,3.9314076900482178,-0.10289137065410614
1772725833811949000,3.234948974609375,8.96829891204834,3.94097900390625,-0.12681959569454193
1772725833821466400,3.24446630859375,8.980263710021973,3.964907169342041,-0.08374879509210587
1772725833830983700,3.253983642578125,8.958727836608887,3.9361932277679443,-0.02632104977965355
1772725833840500700,3.263500732421875,9.006584167480469,3.926621913909912,-0.02871387079358101
1772725833850018000,3.27301806640625,9.066405296325684,3.94097900390625,-0.038285162299871445
1772725833859535400,3.282535400390625,9.116654396057129,3.94815731048584,-0.06939185410737991
1772725833869052700,3.292052734375,9.154939651489258,3.9529430866241455,-0.07417750358581543
1772725833878570000,3.301570068359375,9.169296264648438,3.9768712520599365,-0.04307080805301666
1772725833888087300,3.31108740234375,9.164510726928711,3.957728624343872,-0.04785645380616188
1772725833897604600,3.3206044921875,9.157332420349121,3.955335855484009,-0.062213387340307236
1772725833907121700,3.33012158203125,9.121439933776855,3.950550079345703,-0.040677983313798904
1772725833916639000,3.339638916015625,9.214759826660156,3.950550079345703,-0.035892341285943985
1772725833926156300,3.34915625,9.279366493225098,3.972085475921631,-0.08853443711996078
1772725833935673600,3.358673583984375,9.272188186645508,3.981656789779663,-0.07417750358581543
1772725833945191000,3.36819091796875,9.18843936920166,3.972085475921631,-0.031106693670153618
1772725833954708000,3.3777080078125,9.073583602905273,3.9290146827697754,-0.009571290574967861
1772725833964225300,3.387225341796875,9.037691116333008,3.933800458908081,-0.040677983313798904
1772725833973742600,3.39674267578125,9.047262191772461,3.9672999382019043,-0.05503492057323456
1772725833983260000,3.406260009765625,9.068798065185547,3.9625144004821777,-0.014356935396790504
1772725833992777200,3.415777099609375,9.154939651489258,3.950550079345703,-0.04785645380616188
1772725834002294300,3.425294189453125,9.19561767578125,3.9074792861938477,-0.07417750358581543
1772725834011811600,3.4348115234375,9.174081802368164,3.9122650623321533,-0.10767702013254166
1772725834021329000,3.444328857421875,9.131011009216309,3.957728624343872,-0.12442677468061447
1772725834030846200,3.45384619140625,9.107083320617676,3.9601213932037354,-0.11246266216039658
1772725834040363500,3.463363525390625,9.080761909484863,3.9601213932037354,-0.0933200865983963
1772725834049880800,3.472880859375,9.032905578613281,3.9625144004821777,-0.09571290761232376
1772725834059398100,3.482398193359375,8.975478172302246,3.964907169342041,-0.07896314561367035
1772725834068915200,3.491915283203125,8.97787094116211,3.9625144004821777,-0.1339980661869049
1772725834078432500,3.5014326171875,9.018548965454102,3.9601213932037354,-0.18424734473228455
1772725834087949800,3.51094970703125,9.097511291503906,3.9601213932037354,-0.16031911969184875
1772725834097467100,3.520467041015625,9.147761344909668,3.9625144004821777,-0.10289137065410614
1772725834106984400,3.529984375,9.207581520080566,3.9768712520599365,-0.038285162299871445
1772725834116501800,3.539501708984375,9.226723670959473,3.955335855484009,-0.035892341285943985
1772725834126018800,3.549018798828125,9.183652877807617,3.924229145050049,-0.007178467698395252
1772725834135536000,3.5585361328125,9.159725189208984,3.9314076900482178,0.016749758273363113
1772725834145053400,3.568053466796875,9.1716890335083,3.94097900390625,0.031106693670153618
1772725834154570800,3.57757080078125,9.198010444641113,3.9672999382019043,-0.0023928226437419653
1772725834164087800,3.587087890625,9.19561767578125,3.9601213932037354,-0.014356935396790504
1772725834173605000,3.596605224609375,9.152546882629395,3.9696927070617676,-0.04546362906694412
1772725834183122400,3.606122314453125,9.109476089477539,3.9529430866241455,-0.07417750358581543
1772725834192639700,3.6156396484375,9.075976371765137,3.9601213932037354,-0.04307080805301666
1772725834202157000,3.625156982421875,9.095118522644043,3.94097900390625,-0.05503492057323456
1772725834211674400,3.63467431640625,9.133403778076172,3.9385859966278076,-0.08135596662759781
1772725834221191700,3.644191650390625,9.174081802368164,3.9074792861938477,-0.04785645380616188
1772725834230709000,3.653708984375,9.183652877807617,3.8835511207580566,-0.0526420995593071
1772725834240226000,3.66322607421875,9.159725189208984,3.9290146827697754,-0.04785645380616188
1772725834249743400,3.672743408203125,9.176474571228027,3.90987229347229,-0.07417750358581543
1772725834259260700,3.6822607421875,9.181260108947754,3.933800458908081,-0.07417750358581543
1772725834268778000,3.691778076171875,9.17886734008789,3.9361932277679443,-0.06699903309345245
1772725834278295300,3.70129541015625,9.138189315795898,3.9768712520599365,-0.08374879509210587
1772725834287812600,3.7108125,9.104690551757812,3.9696927070617676,-0.09571290761232376
1772725834297329700,3.72032958984375,9.05444049835205,3.94815731048584,-0.09810572862625122
1772725834306847000,3.729846923828125,9.011369705200195,3.9529430866241455,-0.07896314561367035
1772725834316364300,3.7393642578125,9.05444049835205,3.957728624343872,-0.09092725813388824
1772725834325881600,3.748881591796875,9.08554744720459,3.9529430866241455,-0.11964113265275955
1772725834335399000,3.75839892578125,9.128618240356445,3.9601213932037354,-0.09571290761232376
1772725834344916000,3.767916015625,9.162117958068848,3.94815731048584,-0.09810572862625122
1772725834354433300,3.777433349609375,9.226723670959473,3.9433717727661133,-0.035892341285943985
1772725834363950600,3.78695068359375,9.253045082092285,3.9625144004821777,-0.009571290574967861
1772725834373468000,3.796468017578125,9.236295700073242,3.955335855484009,-0.02632104977965355
1772725834382985200,3.805985107421875,9.250652313232422,3.9361932277679443,-0.040677983313798904
1772725834392502500,3.81550244140625,9.221938133239746,3.94097900390625,-0.05503492057323456
1772725834402019600,3.82501953125,9.17886734008789,3.9146578311920166,-0.02871387079358101
1772725834411537000,3.834536865234375,9.119047164916992,3.91705060005188,-0.02632104977965355
1772725834421054200,3.84405419921875,9.111868858337402,3.9290146827697754,0.0023928226437419653
1772725834430571500,3.853571533203125,9.133403778076172,3.924229145050049,-0.035892341285943985
1772725834440088800,3.8630888671875,9.147761344909668,3.9385859966278076,-0.059820566326379776
1772725834449606100,3.872606201171875,9.080761909484863,3.94097900390625,-0.09810572862625122
1772725834459123500,3.88212353515625,9.052047729492188,3.9146578311920166,-0.08374879509210587
1772725834468640800,3.891640869140625,9.032905578613281,3.94097900390625,-0.07417750358581543
1772725834478157800,3.90115771484375,9.066405296325684,3.9529430866241455,-0.06939185410737991
1772725834487675100,3.910675048828125,9.131011009216309,3.9601213932037354,-0.07417750358581543
1772725834497192400,3.9201923828125,9.152546882629395,3.955335855484009,-0.06939185410737991
1772725834506709800,3.929709716796875,9.181260108947754,3.950550079345703,-0.059820566326379776
1772725834516227000,3.93922705078125,9.186046600341797,3.950550079345703,-0.05742774158716202
1772725834525744000,3.948744140625,9.193224906921387,3.926621913909912,-0.06939185410737991
1772725834535261400,3.958261474609375,9.200403213500977,3.9361932277679443,-0.06699903309345245
1772725834544778800,3.96777880859375,9.1716890335083,3.933800458908081,-0.004785645287483931
1772725834554296000,3.977296142578125,9.142974853515625,3.9314076900482178,0.004785645287483931
1772725834563813400,3.9868134765625,9.06401252746582,3.91705060005188,-0.014356935396790504
1772725834573330400,3.996330322265625,9.07119083404541,3.91705060005188,-0.019142581149935722
1772725834582847700,4.00584765625,9.066405296325684,3.9361932277679443,-0.04307080805301666
1772725834592365000,4.015364990234375,9.059226989746094,3.957728624343872,-0.07896314561367035
1772725834601882400,4.02488232421875,9.066405296325684,3.950550079345703,-0.07178468257188797
1772725834611399700,4.034399658203125,9.111868858337402,3.94815731048584,-0.08374879509210587
1772725834620917000,4.0439169921875,9.116654396057129,3.9122650623321533,0.0023928226437419653
1772725834630434300,4.053434326171875,9.116654396057129,3.9122650623321533,0.04546362906694412
1772725834639951400,4.062951416015625,9.200403213500977,3.94097900390625,0.02392822690308094
1772725834649468700,4.07246875,9.176474571228027,3.957728624343872,0
1772725834658986000,4.081986083984375,9.135796546936035,3.9385859966278076,0.016749758273363113
1772725834668503300,4.09150341796875,9.133403778076172,3.9290146827697754,0.0023928226437419653
1772725834678020600,4.1010205078125,9.166903495788574,3.9074792861938477,-0.02871387079358101
1772725834687538000,4.110537841796875,9.193224906921387,3.9218363761901855,-0.04307080805301666
1772725834697055200,4.12005517578125,9.205188751220703,3.957728624343872,-0.05503492057323456
1772725834706572300,4.129572265625,9.169296264648438,3.964907169342041,-0.03349951654672623
1772725834716089600,4.139089599609375,9.080761909484863,3.9457645416259766,-0.007178467698395252
1772725834725607000,4.14860693359375,8.994620323181152,3.9290146827697754,-0.04785645380616188
1772725834735124200,4.158124267578125,8.93240737915039,3.900300979614258,-0.07178468257188797
1772725834744641500,4.1676416015625,8.96829891204834,3.933800458908081,-0.059820566326379776
1772725834754158800,4.177158935546875,9.037691116333008,3.926621913909912,-0.02392822690308094
1772725834763676200,4.18667626953125,9.080761909484863,3.9457645416259766,-0.009571290574967861
1772725834773193200,4.196193115234375,9.119047164916992,3.9146578311920166,0.035892341285943985
1772725834782710500,4.20571044921875,9.135796546936035,3.9050865173339844,0.05024927482008934
1772725834792227800,4.215227783203125,9.159725189208984,3.8907296657562256,0.08374879509210587
1772725834801745200,4.2247451171875,9.212367057800293,3.893122434616089,0.09571290761232376
1772725834811262500,4.234262451171875,9.236295700073242,3.9433717727661133,0.07896314561367035
1772725834820779800,4.24377978515625,9.18843936920166,3.9864425659179688,0.04307080805301666
1772725834830296800,4.253296875,9.150154113769531,3.9984066486358643,-0.01196411345154047
1772725834839814100,4.262814208984375,9.080761909484863,3.9744784832000732,-0.009571290574967861
1772725834849331500,4.27233154296875,9.109476089477539,3.9912281036376953,0.007178467698395252
1772725834858848800,4.281848876953125,9.174081802368164,3.9744784832000732,0.02632104977965355
1772725834868366000,4.291365966796875,9.205188751220703,3.9744784832000732,0.03349951654672623
1772725834877883100,4.300883056640625,9.21715259552002,3.964907169342041,0.007178467698395252
1772725834887400400,4.310400390625,9.212367057800293,3.9194436073303223,-0.02871387079358101
1772725834896917800,4.319917724609375,9.207581520080566,3.950550079345703,-0.040677983313798904
1772725834906435000,4.32943505859375,9.22433090209961,3.955335855484009,-0.11006984114646912
1772725834915952400,4.338952392578125,9.212367057800293,3.9768712520599365,-0.09092725813388824
1772725834925469700,4.3484697265625,9.186046600341797,3.9361932277679443,-0.08614161610603333
1772725834934987000,4.357987060546875,9.097511291503906,3.924229145050049,-0.05024927482008934
1772725834944504000,4.367504150390625,9.052047729492188,3.9194436073303223,0.0023928226437419653
1772725834954021400,4.377021484375,9.052047729492188,3.9290146827697754,0.0023928226437419653
1772725834963538700,4.38653857421875,9.05444049835205,3.9385859966278076,0.009571290574967861
1772725834973056000,4.396055908203125,9.047262191772461,3.933800458908081,-0.004785645287483931
1772725834982573300,4.4055732421875,9.109476089477539,3.950550079345703,-0.03349951654672623
1772725834992090600,4.415090576171875,9.09990406036377,3.9672999382019043,-0.06699903309345245
1772725835001608000,4.42460791015625,9.020941734313965,3.9672999382019043,-0.035892341285943985
1772725835011125000,4.434125,9.006584167480469,3.9672999382019043,-0.019142581149935722
1772725835020642300,4.443642333984375,9.07119083404541,4.005585193634033,-0.01196411345154047
1772725835030159600,4.45315966796875,9.121439933776855,3.9912281036376953,0.014356935396790504
1772725835039677000,4.462677001953125,9.169296264648438,3.9625144004821777,0.062213387340307236
1772725835049194200,4.4721943359375,9.19561767578125,3.9457645416259766,0.07417750358581543
1772725835058711600,4.481711669921875,9.212367057800293,3.957728624343872,0.08614161610603333
1772725835068228900,4.491228759765625,9.17886734008789,3.981656789779663,0.06699903309345245
1772725835077746200,4.50074609375,9.214759826660156,3.9792640209198,0.009571290574967861
1772725835087263200,4.51026318359375,9.238688468933105,3.9936211109161377,-0.02153540402650833
1772725835096780500,4.519780517578125,9.207581520080566,3.964907169342041,-0.031106693670153618
1772725835106297900,4.5292978515625,9.152546882629395,3.9601213932037354,-0.016749758273363113
1772725835115815200,4.538815185546875,9.09990406036377,3.924229145050049,-0.01196411345154047
1772725835125332500,4.54833251953125,9.078369140625,3.91705060005188,-0.016749758273363113
1772725835134849800,4.557849853515625,9.083154678344727,3.893122434616089,-0.031106693670153618
1772725835144367000,4.5673671875,9.142974853515625,3.924229145050049,-0.035892341285943985
1772725835153884200,4.57688427734375,9.10229778289795,3.9457645416259766,-0.07896314561367035
1772725835163401500,4.5864013671875,9.040083885192871,3.9457645416259766,-0.019142581149935722
1772725835172918800,4.595918701171875,9.001798629760742,3.9433717727661133,-0.009571290574967861
1772725835182436000,4.60543603515625,9.008976936340332,3.9457645416259766,-0.009571290574967861
1772725835191953400,4.614953369140625,9.025727272033691,3.950550079345703,0.004785645287483931
1772725835201470700,4.624470703125,9.040083885192871,3.9625144004821777,-0.004785645287483931
1772725835210988000,4.633988037109375,9.049654960632324,3.957728624343872,-0.019142581149935722
1772725835220505300,4.64350537109375,9.078369140625,3.924229145050049,-0.007178467698395252
1772725835230022400,4.6530224609375,9.131011009216309,3.9122650623321533,0.0023928226437419653
1772725835239539700,4.662539794921875,9.214759826660156,3.9433717727661133,-0.02392822690308094
1772725835249057000,4.67205712890625,9.274580955505371,3.955335855484009,-0.035892341285943985
1772725835258574300,4.68157421875,9.298508644104004,3.957728624343872,-0.03349951654672623
1772725835268091600,4.691091552734375,9.257830619812012,3.9768712520599365,-0.014356935396790504
1772725835277609000,4.70060888671875,9.236295700073242,3.950550079345703,0.031106693670153618
1772725835287126000,4.7101259765625,9.255437850952148,3.9744784832000732,0.019142581149935722
1772725835296643300,4.719643310546875,9.253045082092285,3.9912281036376953,-0.01196411345154047
1772725835306160600,4.72916064453125,9.200403213500977,3.9792640209198,0.004785645287483931
1772725835315678000,4.738677978515625,9.164510726928711,3.9625144004821777,0.009571290574967861
1772725835325195300,4.7481953125,9.087940216064453,3.9290146827697754,0.01196411345154047
1772725835334712600,4.757712646484375,9.061619758605957,3.924229145050049,-0.016749758273363113
1772725835344230000,4.76722998046875,9.135796546936035,3.893122434616089,0.0023928226437419653
1772725835353747000,4.776746826171875,9.174081802368164,3.895515203475952,-0.02871387079358101
1772725835363264300,4.78626416015625,9.142974853515625,3.9385859966278076,-0.031106693670153618
1772725835372781600,4.795781494140625,9.123832702636719,3.933800458908081,-0.0526420995593071
1772725835382299000,4.805298828125,9.042476654052734,3.94097900390625,-0.05742774158716202
1772725835391816200,4.814816162109375,8.918049812316895,3.94815731048584,-0.07178468257188797
1772725835401333500,4.82433349609375,8.86780071258545,3.9433717727661133,-0.07178468257188797
1772725835410850600,4.8338505859375,8.896514892578125,3.957728624343872,-0.1339980661869049
1772725835420368000,4.843367919921875,8.992227554321289,3.9529430866241455,-0.12681959569454193
1772725835429885200,4.85288525390625,9.123832702636719,3.9457645416259766,-0.12442677468061447
1772725835439402500,4.862402587890625,9.169296264648438,3.9768712520599365,-0.07178468257188797
1772725835448919800,4.871919921875,9.198010444641113,3.988835334777832,-0.06939185410737991
1772725835458437000,4.88143701171875,9.159725189208984,3.996013879776001,-0.016749758273363113
1772725835467954400,4.890954345703125,9.186046600341797,3.926621913909912,-0.009571290574967861
1772725835477471700,4.9004716796875,9.269794464111328,3.9050865173339844,-0.0526420995593071
1772725835486988800,4.90998876953125,9.324830055236816,3.933800458908081,-0.0023928226437419653
1772725835496506000,4.919506103515625,9.332008361816406,3.9601213932037354,0.016749758273363113
1772725835506023400,4.9290234375,9.286544799804688,3.9696927070617676,0.064606212079525
1772725835515540700,4.938540771484375,9.207581520080566,3.9984066486358643,0.059820566326379776
1772725835525058000,4.94805810546875,9.152546882629395,3.988835334777832,-0.009571290574967861
1772725835534575400,4.957575439453125,9.121439933776855,3.9672999382019043,-0.02871387079358101
1772725835544092400,4.967092529296875,9.104690551757812,3.955335855484009,-0.014356935396790504
1772725835553609700,4.976609619140625,9.059226989746094,3.9361932277679443,0.01196411345154047
1772725835563127000,4.986126953125,9.008976936340332,3.9290146827697754,0.0023928226437419653
1772725835572644400,4.995644287109375,9.028120040893555,3.9433717727661133,-0.03349951654672623
1772725835582161700,5.00516162109375,9.078369140625,3.9625144004821777,-0.11724831163883209
1772725835591679000,5.014678955078125,9.159725189208984,3.9433717727661133,-0.12921242415905
1772725835601196300,5.0241962890625,9.150154113769531,3.964907169342041,-0.1052841991186142
1772725835610713600,5.033713623046875,9.111868858337402,3.981656789779663,-0.07417750358581543
1772725835620230700,5.043230712890625,9.114261627197266,3.955335855484009,-0.07896314561367035
1772725835629748000,5.052748046875,9.116654396057129,3.964907169342041,-0.08135596662759781
1772725835639265300,5.062265380859375,9.123832702636719,3.972085475921631,-0.05503492057323456
1772725835648782600,5.071782470703125,9.128618240356445,3.9625144004821777,-0.059820566326379776
1772725835658300000,5.0812998046875,9.128618240356445,3.972085475921631,-0.07178468257188797
1772725835667817200,5.090817138671875,9.097511291503906,3.964907169342041,-0.04785645380616188
1772725835677334500,5.10033447265625,9.073583602905273,3.981656789779663,-0.05742774158716202
1772725835686851800,5.109851806640625,9.114261627197266,3.964907169342041,-0.05503492057323456
1772725835696368600,5.11936865234375,9.169296264648438,3.972085475921631,-0.062213387340307236
1772725835705886200,5.12888623046875,9.20997428894043,3.9601213932037354,-0.04785645380616188
1772725835715403500,5.138403564453125,9.20997428894043,3.9601213932037354,-0.004785645287483931
1772725835724920800,5.1479208984375,9.183652877807617,3.955335855484009,-0.019142581149935722
1772725835734438100,5.157438232421875,9.162117958068848,3.950550079345703,-0.035892341285943985
1772725835743955500,5.16695556640625,9.135796546936035,3.957728624343872,0.004785645287483931
1772725835753472800,5.17647265625,9.145368576049805,3.9672999382019043,-0.02153540402650833
1772725835762989800,5.18598974609375,9.159725189208984,3.9625144004821777,-0.05742774158716202
1772725835772507100,5.195507080078125,9.174081802368164,3.9792640209198,-0.04307080805301666
1772725835782024400,5.2050244140625,9.157332420349121,3.94815731048584,-0.04307080805301666
1772725835791541800,5.214541748046875,9.068798065185547,3.9433717727661133,-0.064606212079525
1772725835801059000,5.22405908203125,9.004191398620605,3.9314076900482178,-0.05024927482008934
1772725835810576400,5.233576416015625,8.944371223449707,3.9361932277679443,-0.040677983313798904
1772725835820093700,5.24309375,8.973084449768066,3.91705060005188,-0.019142581149935722
1772725835829611000,5.252611083984375,9.042476654052734,3.9433717727661133,-0.035892341285943985
1772725835839128000,5.262128173828125,9.107083320617676,3.9936211109161377,-0.04307080805301666
1772725835848645400,5.271645263671875,9.162117958068848,3.9601213932037354,-0.059820566326379776
1772725835858162700,5.28116259765625,9.181260108947754,3.972085475921631,-0.08853443711996078
1772725835867680000,5.290679931640625,9.140582084655762,3.9625144004821777,-0.10289137065410614
1772725835877197300,5.300197265625,9.133403778076172,3.996013879776001,-0.11964113265275955
1772725835886714600,5.309714599609375,9.123832702636719,4.00319242477417,-0.12203395366668701
1772725835896232000,5.31923193359375,9.104690551757812,3.9840497970581055,-0.08374879509210587
1772725835905749200,5.328749267578125,9.133403778076172,3.972085475921631,-0.05742774158716202
1772725835915266600,5.3382666015625,9.111868858337402,3.9625144004821777,-0.04546362906694412
1772725835924783600,5.34778369140625,9.097511291503906,3.9696927070617676,-0.02392822690308094
1772725835934301000,5.357301025390625,9.107083320617676,3.9290146827697754,-0.02153540402650833
1772725835943818200,5.366818359375,9.140582084655762,3.924229145050049,-0.07896314561367035
1772725835953335600,5.37633544921875,9.265008926391602,3.9194436073303223,-0.064606212079525
1772725835962852900,5.385852783203125,9.42054271697998,3.9290146827697754,-0.03349951654672623
1772725835972370200,5.3953701171875,9.470791816711426,3.955335855484009,-0.014356935396790504
1772725835981887500,5.404887451171875,9.33440113067627,3.9529430866241455,-0.019142581149935722
1772725835991404800,5.41440478515625,9.18843936920166,3.926621913909912,-0.03349951654672623
1772725836000921900,5.423921875,9.126225471496582,3.8907296657562256,-0.05024927482008934
1772725836010439200,5.433439208984375,9.095118522644043,3.9314076900482178,-0.10289137065410614
1772725836019956500,5.44295654296875,9.030512809753418,3.94097900390625,-0.059820566326379776
1772725836029473800,5.452473876953125,8.95394229888916,3.94097900390625,-0.016749758273363113
1772725836038991000,5.4619912109375,8.930013656616211,3.9529430866241455,-0.06699903309345245
1772725836048508200,5.471508056640625,8.927620887756348,3.9672999382019043,-0.14835500717163086
1772725836058025700,5.481025634765625,8.901300430297852,3.9696927070617676,-0.16031911969184875
1772725836067542800,5.490542724609375,8.891729354858398,3.9672999382019043,-0.18903298676013947
1772725836077060000,5.50006005859375,8.93958568572998,3.9744784832000732,-0.20099709928035736
1772725836086577400,5.509577392578125,8.999405860900879,3.9744784832000732,-0.1746760457754135
1772725836096094700,5.5190947265625,9.116654396057129,3.9744784832000732,-0.1698904037475586
1772725836105612000,5.528612060546875,9.207581520080566,3.9625144004821777,-0.1579262912273407
1772725836115129300,5.53812939453125,9.276973724365234,3.933800458908081,-0.10049854964017868
1772725836124646700,5.547646728515625,9.32004451751709,3.9433717727661133,-0.064606212079525
1772725836134164000,5.5571640625,9.317651748657227,3.957728624343872,0
1772725836143681300,5.566681396484375,9.260223388671875,3.957728624343872,0.031106693670153618
1772725836153198300,5.5761982421875,9.19561767578125,3.988835334777832,-0.0023928226437419653
1772725836162715600,5.585715576171875,9.150154113769531,4.036691665649414,-0.07178468257188797
1772725836172233000,5.59523291015625,9.095118522644043,4.046263217926025,-0.10049854964017868
1772725836181750300,5.604750244140625,9.059226989746094,4.060619831085205,-0.1339980661869049
1772725836191267600,5.614267578125,9.049654960632324,4.01754903793335,-0.12681959569454193
1772725836200785000,5.623784912109375,9.040083885192871,3.981656789779663,-0.08853443711996078
1772725836210302200,5.63330224609375,9.075976371765137,3.9744784832000732,-0.07657032459974289
1772725836219819300,5.6428193359375,9.104690551757812,3.9672999382019043,-0.07657032459974289
1772725836229336600,5.652336669921875,9.147761344909668,3.9457645416259766,-0.08135596662759781
1772725836238854000,5.66185400390625,9.186046600341797,3.9457645416259766,-0.05742774158716202
1772725836248371200,5.67137109375,9.205188751220703,3.933800458908081,-0.02392822690308094
1772725836257888500,5.680888427734375,9.207581520080566,3.9433717727661133,-0.04785645380616188
1772725836267405800,5.69040576171875,9.221938133239746,3.964907169342041,-0.04307080805301666
1772725836276923100,5.699923095703125,9.174081802368164,3.9529430866241455,-0.06939185410737991
1772725836286440400,5.7094404296875,9.07119083404541,3.950550079345703,-0.06939185410737991
1772725836295957500,5.71895751953125,8.994620323181152,3.9290146827697754,-0.07657032459974289
1772725836305474800,5.728474853515625,8.93958568572998,3.9290146827697754,-0.08374879509210587
1772725836314992000,5.7379921875,8.927620887756348,3.9385859966278076,-0.07178468257188797
1772725836324509400,5.747509521484375,8.925228118896484,3.94097900390625,-0.04785645380616188
1772725836334026800,5.75702685546875,8.93958568572998,3.94097900390625,-0.031106693670153618
1772725836343544000,5.7665439453125,8.982656478881836,3.926621913909912,-0.02392822690308094
1772725836353061400,5.776061279296875,9.020941734313965,3.924229145050049,-0.02153540402650833
1772725836362578700,5.78557861328125,9.07119083404541,3.9194436073303223,-0.03349951654672623
1772725836372095700,5.795095703125,9.09990406036377,3.926621913909912,-0.07417750358581543
1772725836381613000,5.804613037109375,9.174081802368164,3.9529430866241455,-0.0933200865983963
1772725836391130400,5.81413037109375,9.241081237792969,3.9864425659179688,-0.10767702013254166
1772725836400647700,5.823647705078125,9.248259544372559,3.9936211109161377,-0.08614161610603333
1772725836410165000,5.8331650390625,9.269794464111328,3.9744784832000732,-0.04546362906694412
1772725836419682300,5.842682373046875,9.193224906921387,3.972085475921631,-0.02871387079358101
1772725836429199600,5.85219970703125,9.152546882629395,3.9625144004821777,-0.02392822690308094
1772725836438717000,5.861717041015625,9.111868858337402,3.9792640209198,-0.05742774158716202
1772725836448234200,5.871234130859375,9.114261627197266,3.9792640209198,-0.11724831163883209
1772725836457751600,5.88075146484375,9.116654396057129,3.964907169342041,-0.12921242415905
1772725836467268900,5.890268798828125,9.107083320617676,3.9146578311920166,-0.07178468257188797
1772725836476786000,5.899785888671875,9.126225471496582,3.9361932277679443,-0.040677983313798904
1772725836486303200,5.90930322265625,9.150154113769531,3.955335855484009,-0.02392822690308094
1772725836495820500,5.918820556640625,9.135796546936035,3.9625144004821777,-0.062213387340307236
1772725836505337900,5.928337890625,9.109476089477539,3.981656789779663,-0.10049854964017868
1772725836514855200,5.937855224609375,9.068798065185547,3.9625144004821777,-0.05503492057323456
1772725836524372500,5.94737255859375,9.040083885192871,3.9385859966278076,-0.03349951654672623
1772725836533889800,5.956889892578125,9.020941734313965,3.955335855484009,-0.04785645380616188
1772725836543407000,5.966406982421875,9.013762474060059,3.964907169342041,-0.07896314561367035
1772725836552924200,5.975924072265625,9.037691116333008,3.972085475921631,-0.08135596662759781
1772725836562441500,5.98544140625,9.061619758605957,3.957728624343872,-0.07896314561367035
1772725836571958800,5.994958740234375,9.044869422912598,3.9672999382019043,-0.02392822690308094
1772725836581476000,6.00447607421875,9.011369705200195,3.9385859966278076,-0.05503492057323456
1772725836590993400,6.013993408203125,8.999405860900879,3.926621913909912,-0.02871387079358101
1772725836600510700,6.0235107421875,9.042476654052734,3.9361932277679443,-0.01196411345154047
1772725836610028000,6.033028076171875,9.104690551757812,3.9433717727661133,-0.059820566326379776
1772725836619545300,6.04254541015625,9.22433090209961,3.9433717727661133,-0.08853443711996078
1772725836629062400,6.0520625,9.28893756866455,3.9218363761901855,-0.12203395366668701
1772725836638579700,6.061579833984375,9.276973724365234,3.90987229347229,-0.07178468257188797
1772725836648097000,6.071096923828125,9.291330337524414,3.8668015003204346,-0.08135596662759781
1772725836657614300,6.0806142578125,9.286544799804688,3.8596229553222656,-0.04307080805301666
1772725836667131600,6.090131591796875,9.279366493225098,3.8979079723358154,-0.04785645380616188
1772725836676649000,6.09964892578125,9.243474006652832,3.9146578311920166,-0.04546362906694412
1772725836686166300,6.109166259765625,9.174081802368164,3.9194436073303223,-0.04307080805301666
1772725836695683600,6.11868359375,9.080761909484863,3.9433717727661133,-0.07657032459974289
1772725836705200600,6.12820068359375,9.028120040893555,3.9744784832000732,-0.14356936514377594
1772725836714718000,6.137718017578125,9.059226989746094,3.988835334777832,-0.22013968229293823
1772725836724235300,6.1472353515625,9.114261627197266,3.996013879776001,-0.20338992774486542
1772725836733752600,6.156752685546875,9.200403213500977,3.9314076900482178,-0.12203395366668701
1772725836743270000,6.166269775390625,9.253045082092285,3.926621913909912,-0.08374879509210587
1772725836752787200,6.175787109375,9.231510162353516,3.9314076900482178,-0.06939185410737991
1772725836762304500,6.185304443359375,9.169296264648438,3.924229145050049,-0.06939185410737991
1772725836771821800,6.19482177734375,9.097511291503906,3.91705060005188,-0.04785645380616188
1772725836781339100,6.204339111328125,9.037691116333008,3.88594388961792,-0.007178467698395252
1772725836790856400,6.2138564453125,9.047262191772461,3.90987229347229,-0.007178467698395252
1772725836800373800,6.223373779296875,9.097511291503906,3.9218363761901855,-0.03349951654672623
1772725836809891000,6.23289111328125,9.21715259552002,3.9314076900482178,-0.0526420995593071
1772725836819408100,6.242408203125,9.243474006652832,3.9314076900482178,-0.062213387340307236
1772725836828925400,6.251925537109375,9.20279598236084,3.933800458908081,-0.05503492057323456
1772725836838442800,6.26144287109375,9.135796546936035,3.900300979614258,-0.09810572862625122
1772725836847960000,6.2709599609375,9.05444049835205,3.8979079723358154,-0.08135596662759781
1772725836857477400,6.280477294921875,9.030512809753418,3.9218363761901855,-0.10049854964017868
1772725836866994700,6.28999462890625,9.066405296325684,3.9314076900482178,-0.12203395366668701
1772725836876512000,6.299511962890625,9.126225471496582,3.91705060005188,-0.14117653667926788
1772725836886029000,6.309029052734375,9.154939651489258,3.9361932277679443,-0.11485548317432404
1772725836895546400,6.31854638671875,9.145368576049805,3.94097900390625,-0.12681959569454193
1772725836905063700,6.328063720703125,9.090332984924316,3.9314076900482178,-0.10049854964017868
1772725836914581000,6.3375810546875,9.123832702636719,3.950550079345703,-0.10767702013254166
1772725836924098300,6.347098388671875,9.114261627197266,3.94097900390625,-0.13878370821475983
1772725836933615600,6.35661572265625,9.131011009216309,3.996013879776001,-0.14835500717163086
1772725836943133000,6.3661328125,9.162117958068848,3.9601213932037354,-0.14117653667926788
1772725836952650200,6.375650146484375,9.19561767578125,3.9529430866241455,-0.12681959569454193
1772725836962167600,6.38516748046875,9.243474006652832,3.9601213932037354,-0.1052841991186142
1772725836971684900,6.394684814453125,9.241081237792969,3.9146578311920166,-0.07417750358581543
1772725836981202000,6.404201904296875,9.19561767578125,3.91705060005188,-0.06939185410737991
1772725836990719200,6.41371923828125,9.214759826660156,3.900300979614258,-0.05742774158716202
1772725837000236500,6.423236572265625,9.20997428894043,3.902693748474121,-0.04307080805301666
1772725837009753900,6.43275390625,9.1716890335083,3.8739798069000244,-0.016749758273363113
1772725837019271200,6.442271240234375,9.154939651489258,3.87876558303833,-0.007178467698395252
1772725837028788500,6.45178857421875,9.121439933776855,3.8883368968963623,-0.007178467698395252
1772725837038305800,6.461305908203125,9.109476089477539,3.895515203475952,-0.035892341285943985
1772725837047823000,6.470822998046875,9.097511291503906,3.8811583518981934,-0.01196411345154047
1772725837057340400,6.48034033203125,9.095118522644043,3.87876558303833,-0.02871387079358101
1772725837066857700,6.489857666015625,9.131011009216309,3.864408493041992,-0.09810572862625122
1772725837076374800,6.499374755859375,9.140582084655762,3.8763725757598877,-0.09092725813388824
1772725837085892000,6.50889208984375,9.123832702636719,3.8883368968963623,-0.08853443711996078
1772725837095409400,6.518409423828125,9.111868858337402,3.9122650623321533,-0.14117653667926788
1772725837104926700,6.5279267578125,9.107083320617676,3.9122650623321533,-0.1459621787071228
1772725837114444000,6.537444091796875,9.061619758605957,3.9074792861938477,-0.08135596662759781
1772725837123961300,6.54696142578125,9.008976936340332,3.88594388961792,-0.04307080805301666
1772725837133478700,6.556478759765625,8.982656478881836,3.895515203475952,-0.02153540402650833
1772725837142996000,6.565995849609375,9.006584167480469,3.85483717918396,-0.04307080805301666
1772725837152513000,6.575512939453125,9.047262191772461,3.8213376998901367,-0.035892341285943985
1772725837162030300,6.5850302734375,9.169296264648438,3.864408493041992,-0.08135596662759781
1772725837171547600,6.594547607421875,9.272188186645508,3.869194269180298,-0.09092725813388824
1772725837181065000,6.60406494140625,9.312865257263184,3.85483717918396,-0.10049854964017868
1772725837190582300,6.613582275390625,9.317651748657227,3.8524444103240967,-0.12681959569454193
1772725837200099600,6.623099609375,9.300901412963867,3.864408493041992,-0.12681959569454193
1772725837209617000,6.632616943359375,9.262616157531738,3.840480327606201,-0.08614161610603333
1772725837219134200,6.64213427734375,9.212367057800293,3.830909013748169,-0.02392822690308094
1772725837228651500,6.651651611328125,9.131011009216309,3.7878382205963135,0.019142581149935722
1772725837238168800,6.6611689453125,9.075976371765137,3.7878382205963135,0.014356935396790504
1772725837247686100,6.67068603515625,9.107083320617676,3.8045880794525146,-0.0023928226437419653
1772725837257203500,6.680203369140625,9.133403778076172,3.840480327606201,-0.05503492057323456
1772725837266720800,6.689720703125,9.174081802368164,3.8668015003204346,-0.07417750358581543
1772725837276237800,6.69923779296875,9.159725189208984,3.85483717918396,-0.05742774158716202
1772725837285755100,6.708755126953125,9.142974853515625,3.862015724182129,-0.059820566326379776
1772725837295272400,6.7182724609375,9.135796546936035,3.8261234760284424,-0.11006984114646912
1772725837304789800,6.727789794921875,9.152546882629395,3.8189449310302734,-0.11006984114646912
1772725837314307000,6.73730712890625,9.1716890335083,3.799802303314209,-0.06699903309345245
1772725837323824400,6.746824462890625,9.193224906921387,3.809373617172241,-0.040677983313798904
1772725837333341700,6.756341796875,9.1716890335083,3.830909013748169,-0.062213387340307236
1772725837342858800,6.765858642578125,9.133403778076172,3.845266103744507,-0.07178468257188797
1772725837352376000,6.7753759765625,9.111868858337402,3.85483717918396,-0.11724831163883209
1772725837361893400,6.784893310546875,9.169296264648438,3.8596229553222656,-0.19142581522464752
1772725837371410700,6.79441064453125,9.262616157531738,3.85483717918396,-0.16031911969184875
1772725837380928000,6.803927978515625,9.336793899536133,3.85483717918396,-0.07178468257188797
1772725837390445300,6.8134453125,9.360722541809082,3.862015724182129,-0.038285162299871445
1772725837399962600,6.822962646484375,9.365508079528809,3.840480327606201,-0.007178467698395252
1772725837409480000,6.83247998046875,9.332008361816406,3.8117663860321045,0
1772725837418997200,6.841997314453125,9.312865257263184,3.8189449310302734,0.05024927482008934
1772725837428514600,6.8515146484375,9.269794464111328,3.809373617172241,0.06699903309345245
1772725837438032000,6.861031982421875,9.193224906921387,3.7902309894561768,0.05742774158716202
1772725837447549200,6.870549072265625,9.128618240356445,3.8117663860321045,0.009571290574967861
1772725837457066500,6.88006640625,9.104690551757812,3.81655216217041,-0.06699903309345245
1772725837466583600,6.88958349609375,9.119047164916992,3.8285162448883057,-0.059820566326379776
1772725837476100900,6.899100830078125,9.128618240356445,3.838087558746338,-0.059820566326379776
1772725837485618200,6.9086181640625,9.152546882629395,3.8356947898864746,-0.07417750358581543
1772725837495135500,6.918135498046875,9.142974853515625,3.806980848312378,-0.09810572862625122
1772725837504652800,6.92765283203125,9.17886734008789,3.7902309894561768,-0.12921242415905
1772725837514170000,6.937170166015625,9.190832138061523,3.7878382205963135,-0.11246266216039658
1772725837523687400,6.9466875,9.245866775512695,3.783052682876587,-0.07896314561367035
1772725837533204500,6.95620458984375,9.300901412963867,3.7902309894561768,-0.09810572862625122
1772725837542721800,6.9657216796875,9.343972206115723,3.792623996734619,-0.064606212079525
1772725837552239000,6.975239013671875,9.370293617248535,3.7950167655944824,-0.04785645380616188
1772725837561756400,6.98475634765625,9.370293617248535,3.814159393310547,-0.0526420995593071
1772725837571273700,6.994273681640625,9.298508644104004,3.8333017826080322,-0.08374879509210587
1772725837580791000,7.003791015625,9.166903495788574,3.8428730964660645,-0.08614161610603333
1772725837590308400,7.013308349609375,9.068798065185547,3.845266103744507,-0.09571290761232376
1772725837599825700,7.02282568359375,9.06401252746582,3.8356947898864746,-0.13639089465141296
1772725837609343000,7.032343017578125,9.07119083404541,3.8285162448883057,-0.12921242415905
1772725837618860300,7.0418603515625,9.061619758605957,3.840480327606201,-0.09810572862625122
1772725837628377600,7.051377685546875,9.06401252746582,3.8572301864624023,-0.10767702013254166
1772725837637895000,7.06089501953125,9.037691116333008,3.8524444103240967,-0.05024927482008934
1772725837647412200,7.070412109375,9.068798065185547,3.838087558746338,-0.04546362906694412
1772725837656929300,7.07992919921875,9.164510726928711,3.8189449310302734,-0.05503492057323456
1772725837666446600,7.089446533203125,9.22433090209961,3.81655216217041,-0.07178468257188797
1772725837675964000,7.0989638671875,9.250652313232422,3.806980848312378,-0.04785645380616188
1772725837685481200,7.108481201171875,9.22433090209961,3.81655216217041,-0.007178467698395252
1772725837694998500,7.11799853515625,9.212367057800293,3.792623996734619,0.009571290574967861
1772725837704515800,7.127515869140625,9.22433090209961,3.809373617172241,-0.009571290574967861
1772725837714033200,7.137033203125,9.219545364379883,3.830909013748169,-0.016749758273363113
1772725837723550500,7.146550537109375,9.17886734008789,3.799802303314209,-0.07178468257188797
1772725837733067800,7.15606787109375,9.17886734008789,3.81655216217041,-0.11006984114646912
1772725837742585000,7.165585205078125,9.154939651489258,3.8356947898864746,-0.10049854964017868
1772725837752102400,7.175102294921875,9.169296264648438,3.8524444103240967,-0.09092725813388824
1772725837761619700,7.18461962890625,9.21715259552002,3.871587038040161,-0.11485548317432404
1772725837771136800,7.19413671875,9.212367057800293,3.84765887260437,-0.12681959569454193
1772725837780654000,7.203654052734375,9.186046600341797,3.8261234760284424,-0.09810572862625122
1772725837790171400,7.21317138671875,9.169296264648438,3.792623996734619,-0.10049854964017868
1772725837799688700,7.222688720703125,9.138189315795898,3.8285162448883057,-0.11964113265275955
1772725837809206000,7.2322060546875,9.142974853515625,3.8285162448883057,-0.12681959569454193
1772725837818723300,7.241723388671875,9.140582084655762,3.8261234760284424,-0.11006984114646912
1772725837828240600,7.25124072265625,9.138189315795898,3.84765887260437,-0.11724831163883209
1772725837837758000,7.260758056640625,9.147761344909668,3.840480327606201,-0.16749759018421173
1772725837847275000,7.27027490234375,9.116654396057129,3.830909013748169,-0.19621145725250244
1772725837856792300,7.279792236328125,9.131011009216309,3.8524444103240967,-0.20338992774486542
1772725837866309600,7.2893095703125,9.157332420349121,3.8213376998901367,-0.15553347766399384
1772725837875827000,7.298826904296875,9.186046600341797,3.81655216217041,-0.12921242415905
1772725837885344300,7.30834423828125,9.186046600341797,3.82373046875,-0.09810572862625122
1772725837894861600,7.317861572265625,9.186046600341797,3.8213376998901367,-0.08135596662759781
1772725837904379000,7.32737890625,9.150154113769531,3.8261234760284424,-0.0933200865983963
1772725837913896200,7.336896240234375,9.119047164916992,3.830909013748169,-0.09810572862625122
1772725837923413500,7.34641357421875,9.126225471496582,3.830909013748169,-0.08853443711996078
1772725837932930800,7.355930908203125,9.116654396057129,3.8500516414642334,-0.08374879509210587
1772725837942448000,7.3654482421875,9.174081802368164,3.81655216217041,-0.11485548317432404
1772725837951965400,7.37496533203125,9.186046600341797,3.7950167655944824,-0.12681959569454193
1772725837961482500,7.384482421875,9.183652877807617,3.7710886001586914,-0.11246266216039658
1772725837970999800,7.393999755859375,9.226723670959473,3.7902309894561768,-0.10289137065410614
1772725837980517000,7.40351708984375,9.245866775512695,3.7974095344543457,-0.11964113265275955
1772725837990034400,7.413034423828125,9.238688468933105,3.78544545173645,-0.14835500717163086
1772725837999551700,7.4225517578125,9.166903495788574,3.775874137878418,-0.13639089465141296
1772725838009069000,7.432069091796875,9.142974853515625,3.7782669067382812,-0.15074782073497772
1772725838018586400,7.44158642578125,9.116654396057129,3.806980848312378,-0.18424734473228455
1772725838028103700,7.451103759765625,9.162117958068848,3.7950167655944824,-0.2392822653055191
1772725838037621000,7.46062109375,9.226723670959473,3.7974095344543457,-0.24406790733337402
1772725838047138300,7.47013818359375,9.262616157531738,3.792623996734619,-0.17946170270442963
1772725838056655600,7.479655517578125,9.243474006652832,3.809373617172241,-0.13160525262355804
1772725838066173000,7.4891728515625,9.245866775512695,3.806980848312378,-0.07896314561367035
1772725838075690200,7.498690185546875,9.205188751220703,3.809373617172241,-0.07178468257188797
1772725838085207300,7.508207275390625,9.181260108947754,3.792623996734619,-0.0933200865983963
1772725838094724600,7.517724609375,9.233902931213379,3.751945972442627,-0.07178468257188797
1772725838104242000,7.527241943359375,9.32722282409668,3.7543387413024902,-0.10049854964017868
1772725838113759200,7.53675927734375,9.379864692687988,3.799802303314209,-0.17946170270442963
1772725838123276500,7.546276611328125,9.332008361816406,3.814159393310547,-0.16510476171970367
1772725838132793900,7.5557939453125,9.231510162353516,3.7950167655944824,-0.11006984114646912
1772725838142311200,7.565311279296875,9.162117958068848,3.7734813690185547,-0.1052841991186142
1772725838151828500,7.574828369140625,9.166903495788574,3.775874137878418,-0.15553347766399384
1772725838161345800,7.584345703125,9.248259544372559,3.7902309894561768,-0.21296121180057526
1772725838170863000,7.593863037109375,9.279366493225098,3.7950167655944824,-0.20578274130821228
1772725838180380400,7.60338037109375,9.265008926391602,3.799802303314209,-0.17228323221206665
1772725838189897500,7.6128974609375,9.250652313232422,3.761517286300659,-0.19381862878799438
1772725838199414800,7.622414794921875,9.274580955505371,3.735196113586426,-0.17946170270442963
1772725838208932000,7.63193212890625,9.272188186645508,3.7471601963043213,-0.16031911969184875
1772725838218449400,7.641449462890625,9.260223388671875,3.7663028240203857,-0.08853443711996078
1772725838227966700,7.650966796875,9.21715259552002,3.775874137878418,-0.10767702013254166
1772725838237484000,7.660484130859375,9.145368576049805,3.7567315101623535,-0.11246266216039658
1772725838247001300,7.67000146484375,9.09990406036377,3.7423746585845947,-0.11485548317432404
1772725838256518700,7.6795185546875,9.10229778289795,3.744767427444458,-0.10289137065410614
1772725838266036000,7.689035888671875,9.17886734008789,3.7543387413024902,-0.13639089465141296
1772725838275553300,7.69855322265625,9.164510726928711,3.78544545173645,-0.14835500717163086
1772725838285070600,7.708070556640625,9.131011009216309,3.7495529651641846,-0.1579262912273407
1772725838294588000,7.717587890625,9.133403778076172,3.7328033447265625,-0.1052841991186142
1772725838304105200,7.727105224609375,9.150154113769531,3.7423746585845947,-0.08374879509210587
1772725838313622500,7.73662255859375,9.181260108947754,3.78544545173645,-0.064606212079525
1772725838323139600,7.7461396484375,9.22433090209961,3.8117663860321045,-0.05742774158716202
1772725838332657000,7.755656982421875,9.253045082092285,3.81655216217041,-0.09092725813388824
1772725838342174200,7.76517431640625,9.253045082092285,3.8021950721740723,-0.11485548317432404
1772725838351691500,7.77469140625,9.267401695251465,3.7902309894561768,-0.10767702013254166
1772725838361208800,7.784208740234375,9.241081237792969,3.7734813690185547,-0.13878370821475983
1772725838370726100,7.79372607421875,9.279366493225098,3.7782669067382812,-0.13160525262355804
1772725838380243500,7.803243408203125,9.336793899536133,3.768695592880249,-0.11724831163883209
1772725838389760800,7.8127607421875,9.31047248840332,3.7495529651641846,-0.14117653667926788
1772725838399278000,7.822278076171875,9.233902931213379,3.744767427444458,-0.16749759018421173
1772725838408795400,7.83179541015625,9.162117958068848,3.744767427444458,-0.16031911969184875
1772725838418312700,7.841312744140625,9.075976371765137,3.7088751792907715,-0.13878370821475983
1772725838427830000,7.850830078125,9.073583602905273,3.744767427444458,-0.15553347766399384
1772725838437347300,7.860347412109375,9.131011009216309,3.783052682876587,-0.1818545162677765
1772725838446864400,7.869864501953125,9.193224906921387,3.809373617172241,-0.2153540402650833
1772725838456381700,7.879381591796875,9.253045082092285,3.8117663860321045,-0.23688943684101105
1772725838465899000,7.88889892578125,9.219545364379883,3.7567315101623535,-0.20578274130821228
1772725838475416300,7.898416259765625,9.1716890335083,3.7423746585845947,-0.15553347766399384
1772725838484933600,7.90793359375,9.152546882629395,3.7112679481506348,-0.10049854964017868
1772725838494451000,7.917450927734375,9.219545364379883,3.7232320308685303,-0.11724831163883209
1772725838503968300,7.92696826171875,9.253045082092285,3.7399818897247314,-0.14117653667926788
1772725838513485600,7.936485595703125,9.281759262084961,3.7782669067382812,-0.17228323221206665
1772725838523003000,7.9460029296875,9.274580955505371,3.775874137878418,-0.19621145725250244
1772725838532520200,7.955520263671875,9.241081237792969,3.7734813690185547,-0.16271193325519562
1772725838542037500,7.96503759765625,9.243474006652832,3.7902309894561768,-0.1339980661869049
1772725838551554800,7.974554931640625,9.21715259552002,3.81655216217041,-0.13639089465141296
1772725838561071900,7.98407177734375,9.159725189208984,3.8356947898864746,-0.13639089465141296
1772725838570589200,7.993589111328125,9.1716890335083,3.792623996734619,-0.10767702013254166
1772725838580106500,8.0031064453125,9.212367057800293,3.7902309894561768,-0.09810572862625122
1772725838589623800,8.012623779296876,9.253045082092285,3.737588882446289,-0.11006984114646912
1772725838599141000,8.02214111328125,9.253045082092285,3.7160534858703613,-0.11964113265275955
1772725838608658400,8.031658447265626,9.250652313232422,3.7016966342926025,-0.14835500717163086
1772725838618175700,8.04117578125,9.315258979797363,3.7112679481506348,-0.1986042857170105
1772725838627693000,8.050693115234376,9.279366493225098,3.744767427444458,-0.22971096634864807
1772725838637210400,8.06021044921875,9.238688468933105,3.7471601963043213,-0.21296121180057526
1772725838646727700,8.069727783203126,9.162117958068848,3.7423746585845947,-0.23688943684101105
1772725838656245000,8.079244873046875,9.09272575378418,3.7543387413024902,-0.25363919138908386
1772725838665762300,8.08876220703125,9.066405296325684,3.737588882446289,-0.26560330390930176
1772725838675279600,8.098279541015625,9.05444049835205,3.7423746585845947,-0.25363919138908386
1772725838684796700,8.107796630859376,9.078369140625,3.7710886001586914,-0.275174617767334
1772725838694314000,8.11731396484375,9.186046600341797,3.7782669067382812,-0.2225325107574463
1772725838703831300,8.126831298828124,9.248259544372559,3.7663028240203857,-0.20099709928035736
1772725838713348600,8.1363486328125,9.245866775512695,3.783052682876587,-0.14835500717163086
1772725838722866000,8.145865966796874,9.22433090209961,3.7734813690185547,-0.10049854964017868
1772725838732383200,8.15538330078125,9.231510162353516,3.7543387413024902,-0.15553347766399384
1772725838741900500,8.164900634765624,9.233902931213379,3.78544545173645,-0.1459621787071228
1772725838751417900,8.17441796875,9.21715259552002,3.792623996734619,-0.15074782073497772
1772725838760935200,8.18393505859375,9.286544799804688,3.8045880794525146,-0.11485548317432404
1772725838770452500,8.193452392578125,9.389435768127441,3.792623996734619,-0.1579262912273407
1772725838779969800,8.2029697265625,9.437292098999023,3.792623996734619,-0.15074782073497772
1772725838789487000,8.212487060546875,9.418149948120117,3.7639100551605225,-0.16031911969184875
1772725838799004200,8.222004150390624,9.336793899536133,3.7160534858703613,-0.13160525262355804
1772725838808521500,8.231521484375,9.291330337524414,3.6921253204345703,-0.10289137065410614
1772725838818038800,8.241038818359375,9.262616157531738,3.6873397827148438,-0.14356936514377594
1772725838827556000,8.25055615234375,9.212367057800293,3.6993038654327393,-0.21774685382843018
1772725838837073400,8.260073486328125,9.142974853515625,3.7232320308685303,-0.2632105052471161
1772725838846590700,8.2695908203125,9.078369140625,3.7399818897247314,-0.25363919138908386
1772725838856108000,8.27910791015625,9.008976936340332,3.7543387413024902,-0.23210379481315613
1772725838865625300,8.288625244140626,9.047262191772461,3.751945972442627,-0.27038896083831787
1772725838875142700,8.298142578125,9.109476089477539,3.783052682876587,-0.27756741642951965
1772725838884660000,8.307659912109376,9.150154113769531,3.7878382205963135,-0.28235307335853577
1772725838894177300,8.31717724609375,9.231510162353516,3.768695592880249,-0.29431718587875366
1772725838903694600,8.326694580078126,9.248259544372559,3.751945972442627,-0.24406790733337402
1772725838913212000,8.3362119140625,9.229117393493652,3.7160534858703613,-0.1818545162677765
1772725838922729000,8.34572900390625,9.152546882629395,3.704089403152466,-0.11246266216039658
1772725838932246300,8.355246337890625,9.047262191772461,3.7184464931488037,-0.040677983313798904
1772725838941763600,8.364763671875,9.040083885192871,3.730410575866699,-0.05503492057323456
1772725838951281000,8.374281005859375,9.09990406036377,3.7567315101623535,-0.11964113265275955
1772725838960798200,8.383798095703124,9.272188186645508,3.7734813690185547,-0.19142581522464752
1772725838970315500,8.3933154296875,9.403793334960938,3.78544545173645,-0.20338992774486542
1772725838979832800,8.402832763671874,9.422935485839844,3.78544545173645,-0.20338992774486542
1772725838989350100,8.41235009765625,9.422935485839844,3.7471601963043213,-0.2153540402650833
1772725838998867500,8.421867431640624,9.370293617248535,3.7160534858703613,-0.2392822653055191
1772725839008384800,8.431384765625,9.351150512695312,3.730410575866699,-0.23688943684101105
1772725839017902000,8.440902099609374,9.34157943725586,3.720839262008667,-0.23449662327766418
1772725839027419400,8.45041943359375,9.29611587524414,3.7160534858703613,-0.24885354936122894
1772725839036936700,8.459936767578125,9.265008926391602,3.728017568588257,-0.2392822653055191
1772725839046453800,8.469453857421875,9.245866775512695,3.759124279022217,-0.24885354936122894
1772725839055971000,8.47897119140625,9.159725189208984,3.744767427444458,-0.24167509377002716
1772725839065488400,8.48848828125,9.047262191772461,3.751945972442627,-0.1986042857170105
1772725839075005700,8.498005615234375,9.018548965454102,3.7734813690185547,-0.18424734473228455
1772725839084523000,8.50752294921875,9.037691116333008,3.7710886001586914,-0.20817556977272034
1772725839094040300,8.517040283203125,9.07119083404541,3.7543387413024902,-0.24646073579788208
1772725839103557600,8.5265576171875,9.09990406036377,3.7902309894561768,-0.2679961323738098
1772725839113075000,8.536074951171875,9.133403778076172,3.7399818897247314,-0.22013968229293823
1772725839122592300,8.54559228515625,9.152546882629395,3.7423746585845947,-0.20817556977272034
1772725839132109600,8.555109619140625,9.186046600341797,3.730410575866699,-0.19621145725250244
1772725839141627000,8.564626953125,9.248259544372559,3.7423746585845947,-0.21296121180057526
1772725839151144200,8.574144287109375,9.312865257263184,3.7495529651641846,-0.2727817893028259
1772725839160661200,8.5836611328125,9.367900848388672,3.783052682876587,-0.31824541091918945
1772725839170178600,8.593178466796875,9.358329772949219,3.7734813690185547,-0.2727817893028259
1772725839179696000,8.602696044921874,9.332008361816406,3.7495529651641846,-0.2273181527853012
1772725839189213400,8.61221337890625,9.332008361816406,3.735196113586426,-0.1986042857170105
1772725839198730800,8.621730712890624,9.291330337524414,3.706482172012329,-0.18903298676013947
1772725839208247800,8.631247802734375,9.186046600341797,3.713660717010498,-0.1866401731967926
1772725839217765000,8.64076513671875,9.111868858337402,3.7567315101623535,-0.17706887423992157
1772725839227282400,8.650282470703125,9.07119083404541,3.783052682876587,-0.17706887423992157
1772725839236799700,8.6597998046875,9.104690551757812,3.792623996734619,-0.24646073579788208
1772725839246317000,8.669317138671875,9.190832138061523,3.759124279022217,-0.24646073579788208
1772725839255834400,8.67883447265625,9.274580955505371,3.735196113586426,-0.26081767678260803
1772725839265351700,8.6883515625,9.32722282409668,3.6921253204345703,-0.2512463629245758
1772725839274869000,8.697868896484374,9.377471923828125,3.656233072280884,-0.22971096634864807
1772725839284386300,8.70738623046875,9.389435768127441,3.6370904445648193,-0.21774685382843018
1772725839293903600,8.716903564453125,9.32004451751709,3.6634113788604736,-0.2560320198535919
1772725839303421000,8.7264208984375,9.181260108947754,3.706482172012329,-0.28953152894973755
1772725839312938200,8.735938232421875,9.006584167480469,3.761517286300659,-0.30628129839897156
1772725839322455600,8.74545556640625,8.922835350036621,3.7710886001586914,-0.28235307335853577
1772725839331972600,8.75497265625,8.94676399230957,3.761517286300659,-0.2919243574142456
1772725839341490000,8.764489990234376,9.068798065185547,3.7639100551605225,-0.28953152894973755
1772725839351007200,8.77400732421875,9.166903495788574,3.7806596755981445,-0.2727817893028259
1772725839360524500,8.783524658203126,9.20997428894043,3.7543387413024902,-0.25363919138908386
1772725839370041900,8.793041748046875,9.241081237792969,3.7399818897247314,-0.22971096634864807
1772725839379559200,8.80255908203125,9.243474006652832,3.730410575866699,-0.23449662327766418
1772725839389076500,8.812076416015625,9.324830055236816,3.7112679481506348,-0.20578274130821228
1772725839398593800,8.82159375,9.399007797241211,3.720839262008667,-0.1579262912273407
1772725839408111000,8.831111083984375,9.403793334960938,3.7016966342926025,-0.10049854964017868
1772725839417628400,8.84062841796875,9.394221305847168,3.7184464931488037,-0.11006984114646912
1772725839427145700,8.850145751953125,9.276973724365234,3.7232320308685303,-0.17706887423992157
1772725839436663000,8.8596630859375,9.17886734008789,3.7423746585845947,-0.17946170270442963
1772725839446180000,8.86918017578125,9.128618240356445,3.7710886001586914,-0.17706887423992157
1772725839455697400,8.878697509765624,9.154939651489258,3.768695592880249,-0.2105683982372284
1772725839465214700,8.888214599609375,9.212367057800293,3.783052682876587,-0.30149564146995544
1772725839474732000,8.89773193359375,9.293723106384277,3.7950167655944824,-0.31345975399017334
1772725839484249600,8.90724951171875,9.281759262084961,3.7328033447265625,-0.3278166949748993
1772725839493767000,8.916766845703124,9.262616157531738,3.7112679481506348,-0.2679961323738098
1772725839503284000,8.926283935546875,9.248259544372559,3.696911096572876,-0.275174617767334
1772725839512801300,8.93580126953125,9.205188751220703,3.7160534858703613,-0.23688943684101105
1772725839522318600,8.945318603515625,9.154939651489258,3.737588882446289,-0.25363919138908386
1772725839531836000,8.9548359375,9.131011009216309,3.7160534858703613,-0.2799602448940277
1772725839541353200,8.964353271484375,9.145368576049805,3.7232320308685303,-0.2847459018230438
1772725839550870500,8.97387060546875,9.135796546936035,3.737588882446289,-0.2584248483181
1772725839560387800,8.983387939453126,9.111868858337402,3.7328033447265625,-0.19381862878799438
1772725839569905200,8.9929052734375,9.135796546936035,3.7328033447265625,-0.1818545162677765
1772725839579422500,9.00242236328125,9.1716890335083,3.7663028240203857,-0.23449662327766418
1772725839588939800,9.011939697265625,9.142974853515625,3.7256247997283936,-0.24885354936122894
1772725839598457000,9.02145703125,9.116654396057129,3.680161237716675,-0.09810572862625122
1772725839607974400,9.030974365234375,9.34875774383545,3.840480327606201,-0.35413774847984314
1772725839617491500,9.040491455078126,9.284152030944824,3.7088751792907715,-0.12681959569454193
1772725839627008800,9.0500087890625,9.372686386108398,3.775874137878418,-0.1986042857170105
1772725839636526000,9.059526123046876,9.260223388671875,3.7184464931488037,-0.11006984114646912
1772725839646043400,9.06904345703125,9.29611587524414,3.7160534858703613,-0.11964113265275955
1772725839655560700,9.078560791015626,9.22433090209961,3.7878382205963135,-0.22013968229293823
1772725839665078000,9.088078125,9.293723106384277,3.7160534858703613,-0.11006984114646912
1772725839674595300,9.09759521484375,9.315258979797363,3.8596229553222656,-0.33738797903060913
1772725839684112600,9.107112548828125,9.353543281555176,3.6705899238586426,-0.12442677468061447
1772725839693630000,9.1166298828125,9.322437286376953,3.893122434616089,-0.4259224236011505
1772725839703147300,9.126147216796875,9.253045082092285,3.6227335929870605,-0.014356935396790504
1772725839712664600,9.13566455078125,9.166903495788574,3.9194436073303223,-0.4498506486415863
1772725839722182000,9.145181884765625,9.049654960632324,3.570091485977173,0
1772725839731699200,9.15469921875,9.097511291503906,3.9529430866241455,-0.5670989751815796
1772725839741216300,9.16421630859375,9.059226989746094,3.510270833969116,-0.009571290574967861
1772725839750733800,9.17373388671875,9.147761344909668,3.957728624343872,-0.5934200286865234
1772725839760251100,9.183251220703125,9.083154678344727,3.476771354675293,0.15553347766399384
1772725839769768400,9.1927685546875,9.214759826660156,4.005585193634033,-0.5838487148284912
1772725839779285800,9.20228564453125,9.109476089477539,3.469592809677124,0.16749759018421173
1772725839788802800,9.211802734375,9.267401695251465,4.051048755645752,-0.6652047038078308
1772725839798320000,9.221320068359375,9.174081802368164,3.4337005615234375,0.1746760457754135
1772725839807837400,9.23083740234375,9.253045082092285,4.019941806793213,-0.6843472719192505
1772725839817354800,9.240354736328126,9.042476654052734,3.3882367610931396,0.24167509377002716
1772725839826872000,9.2498720703125,9.233902931213379,4.043870449066162,-0.7178468108177185
1772725839836389400,9.259389404296876,9.200403213500977,3.4576287269592285,0.17706887423992157
1772725839845906700,9.26890673828125,9.454042434692383,4.158725738525391,-0.7680960893630981
1772725839855424000,9.278424072265626,9.257830619812012,3.4408788681030273,0.24167509377002716
1772725839864941300,9.28794140625,9.377471923828125,4.084548473358154,-0.7034898400306702
1772725839874458600,9.297458740234376,9.176474571228027,3.390629768371582,0.28235307335853577
1772725839883976000,9.306975830078125,9.322437286376953,4.000799655914307,-0.5527420043945312
1772725839893493200,9.3164931640625,9.231510162353516,3.682554006576538,-0.16749759018421173
1772725839903010300,9.32601025390625,9.243474006652832,3.7328033447265625,-0.2632105052471161
1772725839912527600,9.335527587890626,9.190832138061523,3.7256247997283936,-0.23688943684101105
1772725839922045200,9.345045166015625,9.157332420349121,3.7543387413024902,-0.26560330390930176
1772725839931562500,9.3545625,9.119047164916992,3.783052682876587,-0.2871387302875519
1772725839941079800,9.364079833984375,9.08554744720459,3.7710886001586914,-0.2919243574142456
1772725839950597000,9.37359716796875,9.049654960632324,3.7471601963043213,-0.22013968229293823
1772725839960114200,9.3831142578125,9.066405296325684,3.7471601963043213,-0.2560320198535919
1772725839969631500,9.392631591796874,9.104690551757812,3.7663028240203857,-0.3278166949748993
1772725839979148800,9.402148681640625,9.145368576049805,3.768695592880249,-0.33499518036842346
1772725839988666000,9.411666015625,9.166903495788574,3.814159393310547,-0.32303106784820557
1772725839998183400,9.421183349609375,9.20279598236084,3.7902309894561768,-0.27756741642951965
1772725840007700700,9.43070068359375,9.22433090209961,3.78544545173645,-0.27038896083831787
1772725840017218000,9.440218017578125,9.32004451751709,3.8045880794525146,-0.2679961323738098
1772725840026735400,9.4497353515625,9.317651748657227,3.761517286300659,-0.19142581522464752
1772725840036252700,9.459252685546875,9.305686950683594,3.759124279022217,-0.15074782073497772
1772725840045770000,9.46877001953125,9.312865257263184,3.759124279022217,-0.09810572862625122
1772725840055287300,9.478287353515626,9.322437286376953,3.7902309894561768,-0.14117653667926788
1772725840064804600,9.4878046875,9.28893756866455,3.8428730964660645,-0.20817556977272034
1772725840074321700,9.49732177734375,9.226723670959473,3.862015724182129,-0.21774685382843018
1772725840083839000,9.5068388671875,9.166903495788574,3.8668015003204346,-0.275174617767334
1772725840093356300,9.516356201171876,9.198010444641113,3.7016966342926025,-0.08374879509210587
1772725840102873900,9.525873779296875,9.236295700073242,3.981656789779663,-0.5216353535652161
1772725840112391200,9.53539111328125,9.226723670959473,3.5605201721191406,0.04546362906694412
1772725840121908200,9.544908203125,9.377471923828125,3.9984066486358643,-0.607776939868927
1772725840131425500,9.554425537109376,9.34875774383545,3.5605201721191406,0.02871387079358101
1772725840140942800,9.56394287109375,9.418149948120117,4.053441524505615,-0.6963114142417908
1772725840150460200,9.573460205078124,9.183652877807617,3.483949661254883,0.1698904037475586
1772725840159977500,9.5829775390625,9.236295700073242,4.046263217926025,-0.5742774605751038
1772725840169494800,9.592494873046874,9.07119083404541,3.4648072719573975,0.275174617767334
1772725840179012000,9.60201220703125,9.164510726928711,4.1036906242370605,-0.6436693072319031
1772725840188529400,9.611529296875,8.918049812316895,3.493520975112915,0.2560320198535919
1772725840198046700,9.621046630859375,9.044869422912598,4.139583110809326,-0.6771687865257263
1772725840207564000,9.63056396484375,8.8438720703125,3.476771354675293,0.3038884699344635
1772725840217081300,9.640081298828125,9.05444049835205,4.153940200805664,-0.698704183101654
1772725840226598700,9.6495986328125,8.980263710021973,3.4911282062530518,0.2512463629245758
1772725840236116000,9.659115966796875,9.241081237792969,4.216153621673584,-0.7752745151519775
1772725840245633000,9.668633056640624,9.095118522644043,3.493520975112915,0.23688943684101105
1772725840255150300,9.678150390625,9.29611587524414,4.125226020812988,-0.7345965504646301
1772725840264667600,9.687667724609375,9.119047164916992,3.4169507026672363,0.27756741642951965
1772725840274185200,9.697185302734376,9.346364974975586,4.12761926651001,-0.6771687865257263
1772725840283702500,9.70670263671875,9.207581520080566,3.436093330383301,0.30149564146995544
1772725840293219600,9.716219482421875,9.43489933013916,4.130012035369873,-0.6149554252624512
1772725840302737000,9.72573681640625,9.198010444641113,3.4576287269592285,0.3326023519039154
1772725840312254200,9.735254150390626,9.32722282409668,4.106083869934082,-0.5718846321105957
1772725840321771500,9.744771484375,9.097511291503906,3.517449378967285,0.23210379481315613
1772725840331288800,9.754288818359376,9.262616157531738,4.132404804229736,-0.6580262184143066
1772725840340806100,9.76380615234375,9.044869422912598,3.5533416271209717,0.12681959569454193
1772725840350323500,9.773323486328126,9.17886734008789,4.077369689941406,-0.6436693072319031
1772725840359840800,9.7828408203125,8.93240737915039,3.5605201721191406,0.08374879509210587
1772725840369357800,9.79235791015625,9.095118522644043,4.082155227661133,-0.6436693072319031
1772725840378875400,9.80187548828125,9.040083885192871,3.5988051891326904,0
1772725840388392700,9.811392822265624,9.221938133239746,3.893122434616089,-0.3756731450557709
1772725840397910000,9.820909912109375,9.128618240356445,3.759124279022217,-0.22492532432079315
1772725840407427300,9.83042724609375,9.07119083404541,3.7328033447265625,-0.22013968229293823
1772725840416944400,9.8399443359375,9.107083320617676,3.751945972442627,-0.21774685382843018
1772725840426462000,9.8494619140625,9.150154113769531,3.7710886001586914,-0.2392822653055191
1772725840435979300,9.858979248046875,9.190832138061523,3.840480327606201,-0.2584248483181
1772725840445496600,9.86849658203125,9.159725189208984,3.85483717918396,-0.22492532432079315
1772725840455014000,9.878013916015625,9.159725189208984,3.8213376998901367,-0.27038896083831787
1772725840464531000,9.887531005859374,9.219545364379883,3.7734813690185547,-0.3206382393836975
1772725840474048300,9.89704833984375,9.265008926391602,3.7663028240203857,-0.35892340540885925
1772725840483565600,9.906565673828124,9.32004451751709,3.7639100551605225,-0.33020952343940735
1772725840493083000,9.916082763671875,9.418149948120117,3.792623996734619,-0.33499518036842346
1772725840502600200,9.92560009765625,9.430113792419434,3.8285162448883057,-0.2967100143432617
