time,seconds_elapsed,z,y,x
1772725830670145000,0.09314501953125,0,0,0
1772725830679662300,0.102662353515625,0.00016021728515625,-0.046889305114746094,0.025252580642700195
1772725830698697000,0.121697021484375,0.13372230529785156,-0.0507357120513916,-0.01824335753917694
1772725830708214000,0.131214111328125,0.31240367889404297,0.06384778022766113,-0.120311439037323
1772725830717731300,0.1407314453125,0.44880199432373047,0.12695550918579102,-0.18149042129516602
1772725830727248600,0.15024853515625,0.45023345947265625,0.16207289695739746,-0.1291462779045105
1772725830736766000,0.159765869140625,0.4014310836791992,0.027832508087158203,-0.0007134377956390381
1772725830746283000,0.169282958984375,0.40355968475341797,-0.09938335418701172,0.1391686648130417
1772725830755800300,0.17880029296875,0.22579193115234375,-0.15121221542358398,0.18636491894721985
1772725830765317600,0.188317626953125,-0.12963008880615234,-0.1202540397644043,0.16596756875514984
1772725830774834700,0.197834716796875,-0.40014076232910156,-0.08438277244567871,0.09583476930856705
1772725830784352000,0.20735205078125,-0.39848804473876953,-0.06980252265930176,0.08194177597761154
1772725830793869300,0.216869384765625,-0.24941635131835938,-0.06826186180114746,0.04388326406478882
1772725830803386600,0.22638671875,-0.039501190185546875,-0.019913434982299805,-0.03332388401031494
1772725830812903700,0.235903564453125,0.03742408752441406,0.10087323188781738,-0.13660159707069397
1772725830822421000,0.2454208984375,0.08483123779296875,0.23150300979614258,-0.2772532105445862
1772725830831938300,0.254938232421875,0.021707534790039062,0.2376422882080078,-0.2629413604736328
1772725830841455600,0.26445556640625,-0.18536949157714844,0.14000415802001953,-0.11891721189022064
1772725830850972700,0.27397265625,-0.06441211700439453,0.022660493850708008,-0.016279473900794983
1772725830860490000,0.283489990234375,0.06677055358886719,0.006142616271972656,-0.05506649613380432
1772725830870007300,0.29300732421875,0.19252967834472656,-0.0402216911315918,-0.033416032791137695
1772725830879524600,0.302524658203125,0.08478069305419922,-0.003118276596069336,0.06864377856254578
1772725830889041700,0.312041748046875,-0.054617881774902344,-0.014135599136352539,0.15554462373256683
1772725830898559000,0.32155908203125,-0.1103658676147461,-0.022484302520751953,0.16380669176578522
1772725830908076300,0.331076171875,-0.09745407104492188,-0.02809739112854004,0.07274335622787476
1772725830917593300,0.34059326171875,-0.10370254516601562,-0.06550002098083496,0.032754085958004
1772725830927110700,0.350110595703125,-0.11510848999023438,-0.012542963027954102,0.0019705742597579956
1772725830936628000,0.3596279296875,-0.03670024871826172,0.04667830467224121,-0.030217021703720093
1772725830946145300,0.369145263671875,-0.00727081298828125,0.03468585014343262,-0.012090399861335754
1772725830955662300,0.378662353515625,0.011820793151855469,0.030264616012573242,-0.05277322977781296
1772725830965179600,0.3881796875,-0.00228118896484375,0.04949545860290527,-0.03666175901889801
1772725830974697000,0.397697021484375,0.058541297912597656,0.05369853973388672,-0.032792218029499054
1772725830984214300,0.40721435546875,0.03452873229980469,0.01953434944152832,0.019072160124778748
1772725830993731300,0.4167314453125,0.011591911315917969,-0.05392050743103027,0.08139260858297348
1772725831003248600,0.42624853515625,-0.054749488830566406,-0.09543800354003906,0.11361716687679291
1772725831012766000,0.435765869140625,-0.028519630432128906,-0.10801577568054199,0.079825259745121
1772725831022283300,0.445283203125,0.027220726013183594,-0.05028843879699707,0.0583711713552475
1772725831031800300,0.45480029296875,0.013897895812988281,0.01768779754638672,0.04496122524142265
1772725831041317600,0.464317626953125,-0.029565811157226562,0.09600973129272461,0.08781715482473373
1772725831050835000,0.4738349609375,-0.020834922790527344,0.0912485122680664,0.08922310173511505
1772725831060352000,0.48335205078125,-0.033410072326660156,0.07747220993041992,0.06284821033477783
1772725831069869300,0.492869384765625,-0.0035715103149414062,0.012488603591918945,0.04450549557805061
1772725831079386600,0.50238671875,-0.014095306396484375,-0.039475202560424805,0.020027264952659607
1772725831088904000,0.511904052734375,-0.0242767333984375,-0.04845118522644043,0.019790172576904297
1772725831098421200,0.521421142578125,-0.024677276611328125,-0.04133892059326172,0.03487763553857803
1772725831107938300,0.530938232421875,-0.022551536560058594,-0.05589103698730469,0.032569482922554016
1772725831117455600,0.54045556640625,-0.025163650512695312,-0.04673600196838379,0.06103525310754776
1772725831126973000,0.549972900390625,-0.011553764343261719,-0.009139299392700195,0.005774889141321182
1772725831136490200,0.559490234375,-0.024194717407226562,0.025773048400878906,-0.03971337899565697
1772725831146007300,0.56900732421875,-0.0038728713989257812,0.03916025161743164,-0.028947249054908752
1772725831155524600,0.578524658203125,-0.023932456970214844,0.007924795150756836,-0.024038799107074738
1772725831165041700,0.588041748046875,-0.08373451232910156,-0.03868222236633301,-0.03114902228116989
1772725831174559000,0.59755908203125,-0.15692806243896484,-0.03188657760620117,0.00010779872536659241
1772725831184076300,0.607076171875,-0.16565513610839844,-0.03639793395996094,0.018034568056464195
1772725831193593600,0.616593505859375,-0.18399333953857422,-0.028359174728393555,0.02970775216817856
1772725831203111000,0.62611083984375,-0.18369007110595703,-0.021830320358276367,0.022088391706347466
1772725831212628000,0.6356279296875,-0.0968027114868164,-0.045157670974731445,-0.0024652406573295593
1772725831222145300,0.645145263671875,-0.04911613464355469,-0.0397188663482666,-0.018487516790628433
1772725831231662600,0.65466259765625,-0.02811717987060547,-0.06496787071228027,0.04403454810380936
1772725831241180000,0.664179931640625,0.015897750854492188,-0.06354665756225586,0.04538733512163162
1772725831250697000,0.673697021484375,0.08283710479736328,0.005773305892944336,-0.01388058066368103
1772725831260214300,0.68321435546875,0.14200401306152344,0.030645132064819336,-0.04505246505141258
1772725831269731600,0.692731689453125,0.10880184173583984,0.02597784996032715,-0.0428171306848526
1772725831279248600,0.70224853515625,0.02921009063720703,-0.0024030208587646484,-0.0003963075578212738
1772725831288766000,0.711765869140625,0.005087852478027344,-0.016247272491455078,0.02593577653169632
1772725831298283300,0.721283203125,0.016756057739257812,0.026401042938232422,0.029486123472452164
1772725831307800600,0.730800537109375,0.08261775970458984,0.06535983085632324,0.0664186179637909
1772725831317317600,0.740317626953125,0.12900638580322266,0.0720376968383789,0.0822758600115776
1772725831326835000,0.7498349609375,0.11369514465332031,0.07097196578979492,0.06802799552679062
1772725831336352300,0.759352294921875,0.05870819091796875,0.07212209701538086,0.06351993978023529
1772725831345869600,0.76886962890625,0.03063201904296875,0.04005122184753418,0.03320550173521042
1772725831355387000,0.778386962890625,0.021915435791015625,0.03188800811767578,0.04781948775053024
1772725831364904000,0.787904052734375,-0.014959335327148438,0.04284214973449707,0.031042560935020447
1772725831374421200,0.797421142578125,-0.034908294677734375,0.01633286476135254,0.01854267343878746
1772725831383938600,0.8069384765625,-0.007442474365234375,0.0019769668579101562,-0.010511238127946854
1772725831393455600,0.81645556640625,-0.003757476806640625,-0.03849172592163086,-0.010122638195753098
1772725831402973000,0.825972900390625,-0.03307151794433594,-0.04769778251647949,0.04991868883371353
1772725831412490200,0.835490234375,-0.0997915267944336,-0.07970380783081055,0.08859024196863174
1772725831422007600,0.845007568359375,-0.12573623657226562,-0.06333303451538086,0.06667226552963257
1772725831431524600,0.854524658203125,-0.18687820434570312,-0.0793921947479248,0.03459254279732704
1772725831441042000,0.8640419921875,-0.1910533905029297,-0.06574749946594238,0.06326974928379059
1772725831450559200,0.873559326171875,-0.17690181732177734,-0.06514477729797363,-0.011043697595596313
1772725831460076500,0.88307666015625,-0.1494140625,-0.058596134185791016,-0.042482420802116394
1772725831469593900,0.89259375,-0.0756216049194336,-0.027950525283813477,-0.06102448329329491
1772725831479111000,0.90211083984375,-0.005459785461425781,-0.00241851806640625,-0.06867806613445282
1772725831488628200,0.911628173828125,0.00249481201171875,0.0035521984100341797,-0.049979787319898605
1772725831498145500,0.9211455078125,0.022243499755859375,0.009058713912963867,-0.02354390174150467
1772725831507662800,0.930662841796875,0.027708053588867188,-0.014126062393188477,-0.0036463551223278046
1772725831517180000,0.940179931640625,0.04023170471191406,-0.015956878662109375,0.022963110357522964
1772725831526697200,0.949697265625,0.07152557373046875,0.0124664306640625,0.010937755927443504
1772725831536214500,0.959214599609375,0.16152191162109375,0.08183097839355469,0.026938296854496002
1772725831545731600,0.968731689453125,0.25786495208740234,0.08938980102539062,0.04822099208831787
1772725831555249000,0.978248779296875,0.24735546112060547,0.07889151573181152,0.058974381536245346
1772725831564766200,0.98776611328125,0.1502389907836914,0.046766042709350586,0.06195973604917526
1772725831574283500,0.997283447265625,0.0029172897338867188,0.005921602249145508,0.05942773073911667
1772725831583800600,1.006800537109375,-0.05270862579345703,0.02735304832458496,0.062330275774002075
1772725831593318000,1.01631787109375,-0.053467750549316406,0.04413914680480957,0.027319762855768204
1772725831602835200,1.025835205078125,-0.05201530456542969,0.0563046932220459,-0.011821877211332321
1772725831612352500,1.0353525390625,-0.036556243896484375,0.06612372398376465,-0.02936670184135437
1772725831621869800,1.044869873046875,-0.04036426544189453,0.0009059906005859375,-0.0053025707602500916
1772725831631387000,1.054386962890625,-0.025548934936523438,-0.03912019729614258,0.0044250935316085815
1772725831640904200,1.063904296875,-0.039455413818359375,-0.009722471237182617,-0.04199972003698349
1772725831650421500,1.07342138671875,-0.04388141632080078,-0.00868535041809082,-0.06008719652891159
1772725831659938800,1.082938720703125,-0.052982330322265625,-0.00520777702331543,-0.03771669417619705
1772725831669456000,1.092455810546875,-0.059599876403808594,-0.01114797592163086,-0.01540595293045044
1772725831678973200,1.10197314453125,-0.06609725952148438,-0.02404952049255371,-0.027882136404514313
1772725831688490500,1.111490478515625,-0.06779289245605469,-0.017862319946289062,-0.027432046830654144
1772725831698007800,1.1210078125,-0.015313148498535156,-0.04241943359375,-0.02870914340019226
1772725831707525000,1.130525146484375,-0.0037097930908203125,-0.005391120910644531,-0.016078665852546692
1772725831717042200,1.140042236328125,-0.01834583282470703,-0.0015556812286376953,-0.016101926565170288
1772725831726559500,1.1495595703125,-0.006926536560058594,0.04472851753234863,-0.01182854175567627
1772725831736076800,1.159076904296875,0.02551746368408203,0.017194747924804688,-0.031879350543022156
1772725831745593900,1.16859375,0.08111953735351562,0.04852175712585449,-0.07849343121051788
1772725831755111200,1.178111083984375,0.10548019409179688,0.029285430908203125,-0.07238741964101791
1772725831764628500,1.18762841796875,0.1180429458618164,0.026004314422607422,-0.04635843634605408
1772725831774145800,1.197145751953125,0.08119487762451172,0.01525259017944336,0.03181566298007965
1772725831783662800,1.206662841796875,0.03792858123779297,0.035218000411987305,-0.003955237567424774
1772725831793180200,1.21618017578125,-0.016473770141601562,0.04094052314758301,-0.011170931160449982
1772725831802697500,1.225697509765625,-0.004136085510253906,0.041962385177612305,-0.03991388529539108
1772725831812214800,1.23521484375,0.03159046173095703,0.0075168609619140625,-0.0002334490418434143
1772725831821732000,1.244732177734375,0.019682884216308594,-0.014640331268310547,0.029336988925933838
1772725831831249200,1.254249267578125,0.007996559143066406,-0.005892515182495117,0.013604208827018738
1772725831840766500,1.263766357421875,-0.01751708984375,-0.021032094955444336,0.0008215382695198059
1772725831850283800,1.27328369140625,-0.02848052978515625,-0.010040044784545898,0.009912647306919098
1772725831859800800,1.28280078125,-0.03232765197753906,-0.02715468406677246,0.0028882622718811035
1772725831869318100,1.292318115234375,-0.05978965759277344,-0.03656005859375,-0.0010397136211395264
1772725831878835500,1.30183544921875,-0.0633993148803711,-0.06902432441711426,-0.02616102248430252
1772725831888352800,1.311352783203125,-0.03891563415527344,-0.04640913009643555,0.0017775818705558777
1772725831897870000,1.3208701171875,-0.014920234680175781,-0.009894371032714844,-0.01868051290512085
1772725831907387100,1.33038720703125,-0.017274856567382812,0.026166200637817383,-0.06009386479854584
1772725831916904400,1.339904541015625,-0.012554168701171875,0.028730154037475586,-0.06572549045085907
1772725831926421800,1.349421875,0.0014677047729492188,0.014826059341430664,-0.04385700821876526
1772725831935939000,1.35893896484375,0.01290130615234375,-0.012968301773071289,-0.010879918932914734
1772725831945456400,1.368456298828125,-0.0041294097900390625,-0.03549075126647949,0.01020786166191101
1772725831954973400,1.377973388671875,-0.009172439575195312,-0.0010149478912353516,-0.00872066617012024
1772725831964490800,1.38749072265625,0.002407073974609375,0.011553287506103516,-0.01792171597480774
1772725831974008000,1.397008056640625,0.0043506622314453125,0.00985264778137207,0.04081936180591583
1772725831983525000,1.406525146484375,0.02265453338623047,0.00363922119140625,0.039274297654628754
1772725831993042400,1.41604248046875,0.02430438995361328,0.03491711616516113,0.057250186800956726
1772725832002559700,1.425559814453125,0.023659706115722656,0.01845836639404297,0.04093804955482483
1772725832012077000,1.4350771484375,0.030259132385253906,-0.0027921199798583984,0.0615730881690979
1772725832021594400,1.444594482421875,0.03924274444580078,-0.0004630088806152344,0.13421224057674408
1772725832031111700,1.454111572265625,0.04579925537109375,0.04867911338806152,0.09193137288093567
1772725832040628700,1.463628662109375,0.10196399688720703,0.037441253662109375,0.03302575647830963
1772725832050146000,1.47314599609375,0.11529731750488281,0.055930376052856445,-0.017481401562690735
1772725832059663400,1.482663330078125,0.05092811584472656,0.014924287796020508,0.039273522794246674
1772725832069180400,1.492180419921875,-0.038529396057128906,-0.017709970474243164,0.06165669858455658
1772725832078697700,1.50169775390625,-0.041977882385253906,-0.03997159004211426,0.06197482347488403
1772725832088215000,1.511215087890625,0.013554573059082031,-0.02442312240600586,0.02994333952665329
1772725832097732400,1.520732421875,0.016582489013671875,-0.007190704345703125,0.03668384253978729
1772725832107249700,1.530249755859375,-0.008592605590820312,-0.013976097106933594,0.014600798487663269
1772725832116766700,1.5397666015625,-0.052333831787109375,-0.008520364761352539,-0.021456241607666016
1772725832126284000,1.549283935546875,-0.11927986145019531,-0.035164833068847656,-0.03596174716949463
1772725832135801300,1.55880126953125,-0.15032196044921875,-0.04375100135803223,-0.03922303020954132
1772725832145318700,1.568318603515625,-0.15298843383789062,-0.03488636016845703,-0.0009714066982269287
1772725832154836000,1.5778359375,-0.1111459732055664,-0.018589258193969727,0.00040940940380096436
1772725832164353000,1.58735302734375,-0.058307647705078125,-0.0024099349975585938,-0.01497960090637207
1772725832173870300,1.596870361328125,-0.015709877014160156,-0.0030748844146728516,0.0031124502420425415
1772725832183387600,1.6063876953125,0.005120277404785156,-0.02751445770263672,0.06143292784690857
1772725832192904700,1.61590478515625,0.044727325439453125,-0.03104686737060547,0.041700996458530426
1772725832202422000,1.625422119140625,0.08165168762207031,0.004690885543823242,0.016837894916534424
1772725832211939300,1.634939208984375,0.0851144790649414,0.041914939880371094,-0.037160128355026245
1772725832221456600,1.64445654296875,0.034415245056152344,0.07375383377075195,-0.03236833214759827
1772725832230974000,1.653973876953125,0.0032138824462890625,0.05365872383117676,-0.01218615472316742
1772725832240491300,1.6634912109375,0.03603172302246094,0.017477750778198242,-0.007226884365081787
1772725832250008300,1.67300830078125,0.0942983627319336,0.026343822479248047,-0.03779415786266327
1772725832259525600,1.682525634765625,0.1401042938232422,0.03914451599121094,-0.015707194805145264
1772725832269043000,1.69204296875,0.1950244903564453,0.03892946243286133,0.0306306853890419
1772725832278560000,1.70156005859375,0.221343994140625,0.025705575942993164,0.043979495763778687
1772725832288077300,1.711077392578125,0.19821834564208984,-0.004708051681518555,0.012183085083961487
1772725832297594600,1.7205947265625,0.14988136291503906,-0.014117956161499023,-0.005854599177837372
1772725832307112000,1.73011181640625,0.060089111328125,-0.004756450653076172,-0.026258572936058044
1772725832316629200,1.739629150390625,-0.0022497177124023438,-0.035704851150512695,0.010500334203243256
1772725832326146300,1.749146240234375,-0.08002758026123047,-0.0025506019592285156,0.03828255087137222
1772725832335663600,1.75866357421875,-0.12126541137695312,-0.014493703842163086,0.006083667278289795
1772725832345181000,1.768180908203125,-0.17152881622314453,-0.030211448669433594,-0.005367979407310486
1772725832354698200,1.7776982421875,-0.20253372192382812,-0.04002213478088379,-0.004567272961139679
1772725832364215600,1.787215576171875,-0.15339088439941406,0.005282163619995117,-0.004236362874507904
1772725832373732600,1.796732666015625,-0.1266317367553711,0.022483110427856445,0.0007426738739013672
1772725832383250000,1.80625,-0.1313467025756836,-0.001965045928955078,0.0051176175475120544
1772725832392767200,1.815767333984375,-0.11513042449951172,0.021779537200927734,-0.03602534532546997
1772725832402284500,1.825284423828125,-0.06871509552001953,0.03832745552062988,-0.06284340471029282
1772725832411801600,1.834801513671875,-0.037265777587890625,0.04769420623779297,-0.031054876744747162
1772725832421319000,1.84431884765625,0.0054473876953125,-0.001970529556274414,-0.0329163521528244
1772725832430836200,1.853836181640625,0.016956329345703125,-0.001603841781616211,-0.03673522174358368
1772725832440353500,1.863353515625,0.07558917999267578,-0.04652214050292969,0.019010029733181
1772725832449870800,1.872870849609375,0.13834667205810547,-0.03510332107543945,-0.016864299774169922
1772725832459388000,1.882387939453125,0.08747196197509766,-0.02700662612915039,0.043311916291713715
1772725832468905200,1.8919052734375,0.0210723876953125,0.008985280990600586,0.023270122706890106
1772725832478422500,1.901422607421875,-0.044425010681152344,-0.004565238952636719,-0.0059765055775642395
1772725832487939600,1.910939697265625,-0.06904411315917969,-0.012719392776489258,-0.05201432853937149
1772725832497457000,1.920456787109375,-0.05822277069091797,0.024538040161132812,-0.05867195129394531
1772725832506974200,1.92997412109375,-0.04537200927734375,0.028545618057250977,-0.03525521606206894
1772725832516491500,1.939491455078125,-0.04465675354003906,0.044617414474487305,-0.03292011469602585
1772725832526008800,1.9490087890625,-0.08648395538330078,0.025543928146362305,-0.009060181677341461
1772725832535526100,1.958526123046875,-0.040602684020996094,0.011597156524658203,0.004840493202209473
1772725832545043200,1.968043212890625,-0.009557723999023438,-0.011637210845947266,-0.04525482654571533
1772725832554560500,1.977560546875,0.004591941833496094,-0.027635812759399414,-0.04964043200016022
1772725832564077800,1.987077880859375,0.03520679473876953,-0.01565241813659668,-0.025538578629493713
1772725832573595100,1.99659521484375,0.011307716369628906,-0.03706860542297363,0.002854779362678528
1772725832583112200,2.0061123046875,-0.00273895263671875,-0.0441129207611084,0.016338586807250977
1772725832592629500,2.01562939453125,0.023580551147460938,-0.020763635635375977,-0.02017846703529358
1772725832602146800,2.025146728515625,0.05901336669921875,-0.028706789016723633,-0.03246362507343292
1772725832611664100,2.0346640625,0.016214370727539062,-0.022399187088012695,0.010116912424564362
1772725832621181200,2.04418115234375,-0.02829265594482422,-0.03721475601196289,0.031110886484384537
1772725832630698500,2.053698486328125,-0.06748199462890625,-0.04441213607788086,-0.008930325508117676
1772725832640215800,2.0632158203125,-0.10392379760742188,-0.04150700569152832,-0.0018052458763122559
1772725832649733000,2.072733154296875,-0.1071462631225586,-0.016747713088989258,-0.012372352182865143
1772725832659250400,2.08225048828125,-0.07056903839111328,-0.010656356811523438,-0.0020587071776390076
1772725832668767700,2.091767822265625,-0.006411552429199219,0.014259815216064453,0.008014790713787079
1772725832678284800,2.101284912109375,-0.004451751708984375,0.005715608596801758,0.025187447667121887
1772725832687802000,2.110802001953125,0.002254486083984375,0.006572246551513672,0.03544788807630539
1772725832697319400,2.1203193359375,0.018465042114257812,-0.028345584869384766,0.05030544847249985
1772725832706836700,2.129836669921875,0.06051063537597656,-0.03496408462524414,0.021977461874485016
1772725832716354000,2.13935400390625,0.045538902282714844,-0.027716875076293945,0.019470825791358948
1772725832725871000,2.14887109375,0.05914115905761719,0.002731800079345703,0.00011260807514190674
1772725832735388400,2.158388427734375,0.0703268051147461,-0.0006306171417236328,0.03345322236418724
1772725832744905700,2.16790576171875,0.00853729248046875,0.007518768310546875,0.0636695846915245
1772725832754423000,2.177423095703125,-0.05446624755859375,0.008265018463134766,0.06471950560808182
1772725832763940000,2.186940185546875,-0.11897087097167969,0.021231412887573242,0.015056636184453964
1772725832773457400,2.19645751953125,-0.13575077056884766,0.025504112243652344,-0.012866966426372528
1772725832782974700,2.205974609375,-0.1079702377319336,0.011814594268798828,-0.05138307064771652
1772725832792492000,2.215491943359375,-0.015046119689941406,0.001276254653930664,-0.06397344172000885
1772725832802009300,2.22500927734375,0.08103370666503906,0.009685516357421875,-0.05103065073490143
1772725832811526400,2.2345263671875,0.12161540985107422,0.0009660720825195312,-0.01354958862066269
1772725832821043700,2.244043701171875,0.0817098617553711,-0.01508021354675293,0.023650523275136948
1772725832830561000,2.25356103515625,0.03567314147949219,-0.05260610580444336,0.021940603852272034
1772725832840078300,2.263078369140625,-0.018828392028808594,-0.054575443267822266,0.05359254032373428
1772725832849595600,2.272595703125,-0.09367561340332031,-0.05630183219909668,0.07998061180114746
1772725832859112700,2.28211279296875,-0.09688663482666016,-0.02929520606994629,0.06908474862575531
1772725832868630000,2.291630126953125,-0.0838022232055664,-0.0022203922271728516,0.013446088880300522
1772725832878147300,2.301147216796875,-0.05470085144042969,0.031980037689208984,-0.044743478298187256
1772725832887664400,2.310664306640625,-0.04048633575439453,0.026233196258544922,-0.051804348826408386
1772725832897182000,2.320181884765625,-0.0007696151733398438,-0.0026350021362304688,-0.05531264469027519
1772725832906699000,2.329698974609375,0.03125190734863281,-0.009898900985717773,-0.051586635410785675
1772725832916216300,2.33921630859375,0.048760414123535156,-0.04323577880859375,-0.05207914486527443
1772725832925733600,2.348733642578125,0.09916973114013672,-0.060118913650512695,-0.0359366349875927
1772725832935251000,2.3582509765625,0.14666175842285156,-0.025580883026123047,-0.045730747282505035
1772725832944768300,2.367768310546875,0.14660167694091797,-0.008766651153564453,-0.04572853446006775
1772725832954285300,2.377285400390625,0.15858078002929688,-0.011682987213134766,-0.029317501932382584
1772725832963802600,2.386802734375,0.0787811279296875,-0.022025108337402344,0.02495187148451805
1772725832973320000,2.39631982421875,-0.0020389556884765625,-0.01572275161743164,0.05560094118118286
1772725832982837200,2.405837158203125,-0.03204917907714844,-0.007276296615600586,0.041837193071842194
1772725832992354300,2.415354248046875,-0.028685569763183594,-0.012934207916259766,-0.021216586232185364
1772725833001871600,2.42487158203125,-0.07977485656738281,-0.006110668182373047,-0.04917857050895691
1772725833011389000,2.434388916015625,-0.10217475891113281,-0.0032219886779785156,-0.014521747827529907
1772725833020906200,2.44390625,-0.10805320739746094,-0.0043582916259765625,-0.028171375393867493
1772725833030423600,2.453423583984375,-0.11177444458007812,-0.00009179115295410156,0.02686677686870098
1772725833039940900,2.46294091796875,-0.094482421875,-0.025962352752685547,0.09061115980148315
1772725833049458000,2.4724580078125,-0.009356498718261719,-0.020550251007080078,0.08762241899967194
1772725833058975200,2.481975341796875,0.048607826232910156,-0.006127357482910156,0.06176567077636719
1772725833068492500,2.491492431640625,0.09644889831542969,-0.006633758544921875,0.07969148457050323
1772725833078009900,2.501009765625,0.04955863952636719,-0.012253284454345703,0.08353622257709503
1772725833087527000,2.51052685546875,0.06241035461425781,-0.0016207695007324219,0.04499352350831032
1772725833097044200,2.520044189453125,0.11066246032714844,0.0010445117950439453,-0.0064537376165390015
1772725833106561500,2.5295615234375,0.1278676986694336,-0.011233806610107422,-0.002196177840232849
1772725833116078800,2.539078857421875,0.07906532287597656,-0.011905670166015625,0.021315209567546844
1772725833125596200,2.54859619140625,0.0122528076171875,0.008610248565673828,0.051636602729558945
1772725833135113500,2.558113525390625,0.0030469894409179688,0.016968965530395508,0.0012826994061470032
1772725833144630500,2.567630615234375,0.012652397155761719,0.0302581787109375,-0.00694410502910614
1772725833154147800,2.57714794921875,0.00548553466796875,0.0106964111328125,-0.051662784069776535
1772725833163665200,2.5866650390625,-0.011159896850585938,0.0036399364471435547,-0.03959173336625099
1772725833173182500,2.596182373046875,-0.041778564453125,-0.002984285354614258,0.010351408272981644
1772725833182699800,2.60569970703125,-0.086181640625,-0.016137361526489258,0.029807791113853455
1772725833192216800,2.615216796875,-0.1089181900024414,-0.030849695205688477,0.06314822286367416
1772725833201734100,2.624734130859375,-0.034873008728027344,-0.04045581817626953,0.018009353429079056
1772725833211251500,2.63425146484375,0.012146949768066406,-0.021875858306884766,0.011306125670671463
1772725833220768800,2.643768798828125,0.034918785095214844,-0.020233154296875,0.025429056957364082
1772725833230286000,2.6532861328125,0.06925392150878906,-0.021387577056884766,0.043293021619319916
1772725833239803100,2.66280322265625,0.1079702377319336,0.009844541549682617,0.01587693765759468
1772725833249320400,2.672320556640625,0.09447956085205078,0.014204263687133789,0.02418915368616581
1772725833258837800,2.681837646484375,0.029404640197753906,0.01153874397277832,0.03953475132584572
1772725833268355000,2.69135498046875,-0.011236190795898438,-0.00007486343383789062,0.05504373833537102
1772725833277872400,2.700872314453125,-0.025310516357421875,-0.01149439811706543,0.059923652559518814
1772725833287389400,2.710389404296875,0.02917766571044922,0.01707005500793457,0.07688339799642563
1772725833296906800,2.71990673828125,0.042845726013183594,0.014364242553710938,0.08855964243412018
1772725833306424000,2.729424072265625,0.023345947265625,0.030528545379638672,0.10034052282571793
1772725833315941400,2.73894140625,0.02541351318359375,0.029796838760375977,0.034196436405181885
1772725833325458400,2.74845849609375,-0.0008840560913085938,0.008108377456665039,0.04304780438542366
1772725833334975700,2.757975830078125,0.010846138000488281,0.04335451126098633,-0.011356521397829056
1772725833344493000,2.7674931640625,0.11688232421875,0.037123680114746094,-0.056398916989564896
1772725833354010400,2.77701025390625,0.1109323501586914,0.016043663024902344,-0.007644936442375183
1772725833363527700,2.786527587890625,0.046469688415527344,-0.002800464630126953,0.03251079469919205
1772725833373045000,2.796044921875,0.004241943359375,-0.04480552673339844,0.04760068655014038
1772725833382562300,2.805562255859375,-0.03736686706542969,-0.06001758575439453,0.00945543497800827
1772725833392079400,2.815079345703125,-0.08316612243652344,-0.022792339324951172,-0.025125261396169662
1772725833401596700,2.8245966796875,-0.1615314483642578,-0.008829355239868164,-0.0689816027879715
1772725833411114000,2.834114013671875,-0.2014942169189453,-0.0032629966735839844,-0.09708568453788757
1772725833420631300,2.84363134765625,-0.16842937469482422,0.003509044647216797,-0.13632729649543762
1772725833430148400,2.8531484375,-0.07276058197021484,-0.010178327560424805,-0.1063767597079277
1772725833439665700,2.862665771484375,0.023662567138671875,0.014007806777954102,-0.06841515004634857
1772725833449183000,2.872182861328125,0.052712440490722656,0.004591464996337891,-0.026208724826574326
1772725833458700300,2.8817001953125,0.020244598388671875,0.0044324398040771484,0.01603909209370613
1772725833468217600,2.891217529296875,0.007236480712890625,-0.014754295349121094,0.049222033470869064
1772725833477735000,2.90073486328125,0.025246620178222656,-0.027030467987060547,0.055218733847141266
1772725833487252200,2.910252197265625,0.1045236587524414,-0.016457796096801758,0.04368574172258377
1772725833496769300,2.919769287109375,0.1500835418701172,-0.0026061534881591797,0.05426732450723648
1772725833506286600,2.92928662109375,0.15529441833496094,0.014783143997192383,0.05563507229089737
1772725833515804000,2.938803955078125,0.14181804656982422,0.02195000648498535,0.023585550487041473
1772725833525321200,2.9483212890625,0.09799575805664062,0.024239063262939453,-0.008891180157661438
1772725833534838300,2.95783837890625,-0.0063419342041015625,0.03370499610900879,-0.017430823296308517
1772725833544355600,2.96735546875,-0.0951375961303711,0.017861127853393555,-0.035128433257341385
1772725833553873000,2.976872802734375,-0.15935039520263672,0.007978200912475586,-0.03098253905773163
1772725833563390200,2.98639013671875,-0.14751338958740234,-0.0010094642639160156,-0.02863306552171707
1772725833572907500,2.995907470703125,-0.06541824340820312,-0.009534597396850586,-0.011863194406032562
1772725833582424600,3.005424560546875,-0.024666786193847656,-0.017969369888305664,-0.02787449210882187
1772725833591942000,3.01494189453125,0.03655529022216797,-0.0403289794921875,-0.04670193791389465
1772725833601459200,3.024459228515625,0.07566452026367188,-0.06487822532653809,-0.047659240663051605
1772725833610976500,3.0339765625,0.048320770263671875,-0.037462711334228516,-0.05679994076490402
1772725833620493800,3.043493896484375,0.014461517333984375,-0.031889915466308594,-0.05678703635931015
1772725833630011100,3.05301123046875,-0.006995201110839844,-0.012450456619262695,-0.034958161413669586
1772725833639528400,3.062528564453125,-0.09410476684570312,-0.011845111846923828,-0.026753626763820648
1772725833649045500,3.07204541015625,-0.09293556213378906,-0.017787933349609375,-0.021762050688266754
1772725833658562800,3.081562744140625,-0.06374073028564453,0.019137144088745117,-0.07218636572360992
1772725833668080000,3.091080078125,-0.01618480682373047,0.024804115295410156,-0.09835374355316162
1772725833677597400,3.100597412109375,0.018770217895507812,-0.004812479019165039,-0.04369741678237915
1772725833687114500,3.110114501953125,-0.022194862365722656,-0.0008895397186279297,0.000867307186126709
1772725833696631800,3.1196318359375,-0.03670692443847656,-0.006182670593261719,0.02126413583755493
1772725833706149000,3.129149169921875,0.031373023986816406,0.02155280113220215,0.033718086779117584
1772725833715666400,3.13866650390625,0.12439823150634766,0.020121097564697266,0.02375168353319168
1772725833725183700,3.148183837890625,0.2187938690185547,0.052703142166137695,-0.030128993093967438
1772725833734701000,3.157701171875,0.20395469665527344,0.06696844100952148,0.019772417843341827
1772725833744218400,3.16721826171875,0.11444282531738281,0.02369093894958496,0.054102905094623566
1772725833753735400,3.1767353515625,0.08077526092529297,0.008847236633300781,0.053804829716682434
1772725833763252700,3.186252685546875,0.06418609619140625,-0.0058519840240478516,0.03697506710886955
1772725833772770000,3.19577001953125,0.02196025848388672,0.0032777786254882812,-0.032612867653369904
1772725833782287400,3.205287353515625,0.03933906555175781,0.040284156799316406,-0.008585110306739807
1772725833791804700,3.2148046875,-0.0779409408569336,0.03254342079162598,0.04522892087697983
1772725833801321700,3.22432177734375,-0.17263317108154297,0.014417886734008789,0.013222843408584595
1772725833810839000,3.233839111328125,-0.17444515228271484,-0.03530693054199219,-0.03834323585033417
1772725833820356400,3.2433564453125,-0.15290069580078125,-0.024912357330322266,-0.06334830820560455
1772725833829873700,3.252873779296875,-0.1389942169189453,-0.00005412101745605469,-0.02101985365152359
1772725833839390700,3.262390625,-0.1585674285888672,-0.02664327621459961,0.035899706184864044
1772725833848908000,3.271907958984375,-0.10971641540527344,-0.03365206718444824,0.033219240605831146
1772725833858425300,3.28142529296875,-0.04998016357421875,-0.01685810089111328,0.023599326610565186
1772725833867942700,3.290942626953125,-0.0006742477416992188,-0.007350444793701172,-0.007066261023283005
1772725833877460000,3.3004599609375,0.036228179931640625,-0.0007700920104980469,-0.011032573878765106
1772725833886977300,3.309977294921875,0.049193382263183594,0.02405571937561035,0.02092791348695755
1772725833896494600,3.31949462890625,0.04316520690917969,0.006008625030517578,0.017030425369739532
1772725833906012000,3.329011962890625,0.03497505187988281,0.004523515701293945,0.003874935209751129
1772725833915529000,3.338529052734375,-0.0013828277587890625,0.0008692741394042969,0.02578781172633171
1772725833925046300,3.34804638671875,0.09002208709716797,0.0017230510711669922,0.02931579202413559
1772725833934563600,3.3575634765625,0.1519794464111328,0.023008346557617188,-0.02457265555858612
1772725833944081000,3.367080810546875,0.14263343811035156,0.03144383430480957,-0.01159927248954773
1772725833953598000,3.376597900390625,0.05828857421875,0.020603179931640625,0.03005030006170273
1772725833963115300,3.386115234375,-0.05539226531982422,-0.022633075714111328,0.05046258494257927
1772725833972632600,3.395632568359375,-0.08972644805908203,-0.017621517181396484,0.019805196672677994
1772725833982150000,3.40514990234375,-0.07889175415039062,0.015801429748535156,0.006687644869089127
1772725833991667200,3.414667236328125,-0.05656623840332031,0.011231660842895508,0.047542594373226166
1772725834001184500,3.4241845703125,0.02895641326904297,-0.0004229545593261719,0.014203112572431564
1772725834010701600,3.43370166015625,0.06852245330810547,-0.04288744926452637,-0.012243717908859253
1772725834020219000,3.443218994140625,0.046288490295410156,-0.0376896858215332,-0.04661322012543678
1772725834029736200,3.452736083984375,0.0031557083129882812,0.0076274871826171875,-0.06474638730287552
1772725834039253500,3.46225341796875,-0.020453453063964844,0.009886741638183594,-0.05398527532815933
1772725834048770800,3.471770751953125,-0.0459442138671875,0.009598016738891602,-0.03479476273059845
1772725834058288000,3.4812880859375,-0.09217357635498047,0.011665821075439453,-0.035081200301647186
1772725834067805400,3.490805419921875,-0.14719486236572266,0.014062881469726562,-0.015638723969459534
1772725834077322500,3.500322509765625,-0.14284229278564453,0.012544393539428711,-0.0683189406991005
1772725834086839800,3.50983984375,-0.1012430191040039,0.011777162551879883,-0.11720556020736694
1772725834096357000,3.519357177734375,-0.02292919158935547,0.013893604278564453,-0.09439349919557571
1772725834105874400,3.52887451171875,0.025742530822753906,0.018538713455200195,-0.040732491761446
1772725834115391700,3.538391845703125,0.0831441879272461,0.034563541412353516,0.018186163157224655
1772725834124908800,3.54790869140625,0.09988880157470703,0.014353513717651367,0.015766937285661697
1772725834134426000,3.557426025390625,0.05546092987060547,-0.01555490493774414,0.04120101407170296
1772725834143943400,3.566943359375,0.030834197998046875,-0.007839441299438477,0.063637375831604
1772725834153460700,3.576460693359375,0.042144775390625,0.0015795230865478516,0.07800304889678955
1772725834162978000,3.58597802734375,0.06763935089111328,0.02673649787902832,0.04609896242618561
1772725834172495000,3.5954951171875,0.06454181671142578,0.018375635147094727,0.03589509427547455
1772725834182012400,3.605012451171875,0.021401405334472656,0.026832103729248047,0.006239548325538635
1772725834191529700,3.61452978515625,-0.021271705627441406,0.009839773178100586,-0.02150839939713478
1772725834201047000,3.624047119140625,-0.05410289764404297,0.017287254333496094,0.008606020361185074
1772725834210564400,3.633564453125,-0.03478050231933594,-0.0009052753448486328,-0.004402469843626022
1772725834220081700,3.64308154296875,0.0031175613403320312,-0.0024793148040771484,-0.030050843954086304
1772725834229599000,3.652598876953125,0.042901039123535156,-0.03262829780578613,0.004573184996843338
1772725834239116300,3.6621162109375,0.05164051055908203,-0.05568504333496094,0.001987472176551819
1772725834248633300,3.67163330078125,0.02736186981201172,-0.010279417037963867,0.008707277476787567
1772725834258150700,3.681150634765625,0.04348182678222656,-0.029161691665649414,-0.016168799251317978
1772725834267668000,3.69066796875,0.04760932922363281,-0.005481243133544922,-0.01583711802959442
1772725834277185300,3.700185302734375,0.044554710388183594,-0.0032668113708496094,-0.009428881108760834
1772725834286702600,3.70970263671875,0.0039501190185546875,0.03645467758178711,-0.026671282947063446
1772725834296219600,3.7192197265625,-0.028936386108398438,0.028507471084594727,-0.038189321756362915
1772725834305737000,3.728737060546875,-0.07783031463623047,0.006783008575439453,-0.03914937376976013
1772725834315254300,3.738254150390625,-0.11907291412353516,0.011822700500488281,-0.018657084554433823
1772725834324771600,3.747771484375,-0.07505416870117188,0.01708817481994629,-0.02908874675631523
1772725834334289000,3.757288818359375,-0.043514251708984375,0.012800216674804688,-0.05603426694869995
1772725834343806000,3.766805908203125,-0.000762939453125,0.020398855209350586,-0.03189987689256668
1772725834353323300,3.7763232421875,0.03176307678222656,0.009255409240722656,-0.03553394228219986
1772725834362840600,3.785840576171875,0.09444332122802734,0.005098104476928711,0.023699358105659485
1772725834372358000,3.79535791015625,0.11872673034667969,0.023863554000854492,0.04714427888393402
1772725834381875200,3.804875244140625,0.10052871704101562,0.01580977439880371,0.028815705329179764
1772725834391392500,3.814392578125,0.1134490966796875,-0.004396677017211914,0.013556007295846939
1772725834400909800,3.823909912109375,0.0838937759399414,-0.0009469985961914062,-0.0012261830270290375
1772725834410427000,3.833427001953125,0.040810585021972656,-0.028354406356811523,0.025177184492349625
1772725834419944200,3.842944091796875,-0.018016815185546875,-0.027069091796875,0.02885759249329567
1772725834429461500,3.85246142578125,-0.02409648895263672,-0.016391515731811523,0.05877777189016342
1772725834438978800,3.861978759765625,-0.0017528533935546875,-0.02256917953491211,0.02211606875061989
1772725834448496000,3.87149609375,0.013133049011230469,-0.009768009185791016,-0.0006004385650157928
1772725834458013400,3.881013427734375,-0.052392005920410156,-0.008580923080444336,-0.03784777969121933
1772725834467530800,3.89053076171875,-0.07942581176757812,-0.035076141357421875,-0.023083645850419998
1772725834477047800,3.9000478515625,-0.09682273864746094,-0.008845329284667969,-0.013220764696598053
1772725834486565000,3.909565185546875,-0.06232166290283203,0.003194093704223633,-0.008236709982156754
1772725834496082400,3.91908251953125,0.00214385986328125,0.01043081283569336,-0.013314582407474518
1772725834505599700,3.928599853515625,0.02317523956298828,0.005782604217529297,-0.009604111313819885
1772725834515117000,3.938116943359375,0.050889015197753906,0.001264333724975586,-0.002166483551263809
1772725834524634000,3.947634033203125,0.054718971252441406,0.0012683868408203125,-0.002761024981737137
1772725834534151400,3.9571513671875,0.06103801727294922,-0.022727012634277344,-0.017881233245134354
1772725834543668700,3.966668701171875,0.06746101379394531,-0.01385045051574707,-0.017774172127246857
1772725834553186000,3.97618603515625,0.03862476348876953,-0.017199039459228516,0.04237082228064537
1772725834562703400,3.985703369140625,0.010319709777832031,-0.020595550537109375,0.050815388560295105
1772725834572220400,3.995220458984375,-0.06708049774169922,-0.03533530235290527,0.03130854666233063
1772725834581737700,4.00473779296875,-0.05869483947753906,-0.035241127014160156,0.025193369016051292
1772725834591255000,4.014255126953125,-0.06246757507324219,-0.01574993133544922,-0.0010369867086410522
1772725834600772400,4.0237724609375,-0.06878280639648438,0.006343364715576172,-0.03966103121638298
1772725834610289700,4.03328955078125,-0.06103706359863281,0.00019669532775878906,-0.036385517567396164
1772725834619807000,4.042806884765625,-0.015726089477539062,-0.0012459754943847656,-0.05280858650803566
1772725834629324300,4.05232421875,-0.011235237121582031,-0.03544807434082031,0.028408266603946686
1772725834638841600,4.061841552734375,-0.011498451232910156,-0.033837318420410156,0.06754474341869354
1772725834648358700,4.071358642578125,0.07089424133300781,-0.0046956539154052734,0.0433274507522583
1772725834657876000,4.0808759765625,0.04619121551513672,0.011830568313598633,0.018235379830002785
1772725834667393300,4.090393310546875,0.0055217742919921875,-0.007421016693115234,0.034702710807323456
1772725834676910600,4.09991064453125,0.0032444000244140625,-0.017096519470214844,0.02082221768796444
1772725834686428000,4.109427978515625,0.03639030456542969,-0.03858447074890137,-0.00957399606704712
1772725834695945200,4.1189453125,0.06205940246582031,-0.024734020233154297,-0.023366790264844894
1772725834705462500,4.128462646484375,0.0733652114868164,0.009644031524658203,-0.03415209800004959
1772725834714979600,4.1379794921875,0.03765296936035156,0.014693021774291992,-0.010464832186698914
1772725834724497000,4.147496826171875,-0.049225807189941406,-0.006224393844604492,0.01830947771668434
1772725834734014200,4.15701416015625,-0.13250732421875,-0.023970842361450195,-0.01954812929034233
1772725834743531500,4.166531494140625,-0.19137001037597656,-0.052039146423339844,-0.041812751442193985
1772725834753048800,4.176048828125,-0.15328598022460938,-0.01731705665588379,-0.030246760696172714
1772725834762566100,4.185566162109375,-0.08335018157958984,-0.022130727767944336,0.0030239373445510864
1772725834772083200,4.195083251953125,-0.040622711181640625,-0.0006160736083984375,0.013559245504438877
1772725834781600500,4.2046005859375,-0.0033121109008789062,-0.028870820999145508,0.05433673411607742
1772725834791117800,4.214117919921875,0.012293815612792969,-0.03568601608276367,0.06466648727655411
1772725834800635100,4.22363525390625,0.034882545471191406,-0.04751014709472656,0.095213383436203
1772725834810152400,4.23315234375,0.08571529388427734,-0.043552398681640625,0.10560273379087448
1772725834819669800,4.242669677734375,0.10782718658447266,0.0065631866455078125,0.08876216411590576
1772725834829186800,4.252186767578125,0.05907249450683594,0.04857635498046875,0.053378961980342865
1772725834838704000,4.2617041015625,0.02045154571533203,0.0595095157623291,-0.0010811127722263336
1772725834848221400,4.271221435546875,-0.048384666442871094,0.035592079162597656,0.0009938357397913933
1772725834857738800,4.28073876953125,-0.019739151000976562,0.05238676071166992,0.016652468591928482
1772725834867256000,4.290256103515625,0.04378986358642578,0.035803794860839844,0.03446345031261444
1772725834876773000,4.299773193359375,0.0735006332397461,0.03555107116699219,0.040810488164424896
1772725834886290400,4.30929052734375,0.08409404754638672,0.025421142578125,0.014849571511149406
1772725834895807700,4.318807861328125,0.07822227478027344,-0.020251750946044922,-0.019873283803462982
1772725834905325000,4.328324951171875,0.07251453399658203,0.009973764419555664,-0.031129902228713036
1772725834914842400,4.33784228515625,0.08821296691894531,0.013499736785888672,-0.10000575333833694
1772725834924359700,4.347359619140625,0.07550334930419922,0.033228158950805664,-0.08185464888811111
1772725834933877000,4.356876953125,0.048956871032714844,-0.008705854415893555,-0.0785796269774437
1772725834943394300,4.366394287109375,-0.03836822509765625,-0.021601200103759766,-0.04381655901670456
1772725834952911400,4.375911376953125,-0.08188343048095703,-0.027222871780395508,0.00815784651786089
1772725834962428700,4.3854287109375,-0.07999038696289062,-0.018581151962280273,0.008963409811258316
1772725834971946000,4.394946044921875,-0.07595443725585938,-0.009664773941040039,0.01727694645524025
1772725834981463300,4.40446337890625,-0.0816030502319336,-0.014545440673828125,0.003559964708983898
1772725834990980600,4.413980712890625,-0.019011497497558594,0.0020411014556884766,-0.025575147941708565
1772725835000498000,4.423497802734375,-0.028142929077148438,0.018559932708740234,-0.059774018824100494
1772725835010015200,4.43301513671875,-0.1057424545288086,0.019219636917114258,-0.030596964061260223
1772725835019532300,4.4425322265625,-0.11885643005371094,0.020650625228881836,-0.016873883083462715
1772725835029049600,4.452049560546875,-0.05408000946044922,0.05965232849121094,-0.012023706920444965
1772725835038567000,4.46156689453125,-0.0043888092041015625,0.04597949981689453,0.013149861246347427
1772725835048084200,4.471084228515625,0.042324066162109375,0.017946720123291016,0.06051996350288391
1772725835057601500,4.4806015625,0.0673980712890625,0.0014154911041259766,0.0739993155002594
1772725835067118800,4.490118896484375,0.08289051055908203,0.012821435928344727,0.08881409466266632
1772725835076636200,4.49963623046875,0.048850059509277344,0.03548932075500488,0.07279558479785919
1772725835086153500,4.509153564453125,0.08370304107666016,0.03168821334838867,0.018055763095617294
1772725835095670500,4.51867041015625,0.10638904571533203,0.044004201889038086,-0.011357559822499752
1772725835105187800,4.528187744140625,0.07464790344238281,0.013604879379272461,-0.019954640418291092
1772725835114705200,4.537705078125,0.01983642578125,0.007398128509521484,-0.0052894726395606995
1772725835124222500,4.547222412109375,-0.03172874450683594,-0.02924180030822754,-0.00034115277230739594
1772725835133739800,4.55673974609375,-0.051868438720703125,-0.036983489990234375,-0.004089980386197567
1772725835143257000,4.566257080078125,-0.04585742950439453,-0.06091046333312988,-0.01712203212082386
1772725835152774400,4.5757744140625,0.014056205749511719,-0.0300595760345459,-0.021330660209059715
1772725835162291500,4.58529150390625,-0.02587413787841797,-0.009082555770874023,-0.06360851973295212
1772725835171808800,4.594808837890625,-0.08654212951660156,-0.009109735488891602,-0.004243521951138973
1772725835181326000,4.604326171875,-0.12298870086669922,-0.010759115219116211,0.004339476116001606
1772725835190843400,4.613843505859375,-0.11434650421142578,-0.007153987884521484,0.003522610291838646
1772725835200360700,4.623360595703125,-0.09659290313720703,-0.0008914470672607422,0.017463060095906258
1772725835209878000,4.6328779296875,-0.08164405822753906,0.012691259384155273,0.008201522752642632
1772725835219395300,4.642395263671875,-0.07178688049316406,0.009889602661132812,-0.005387365818023682
1772725835228912400,4.651912353515625,-0.043313026428222656,-0.020995616912841797,0.007721738889813423
1772725835238429700,4.6614296875,0.008260726928710938,-0.030294179916381836,0.018207259476184845
1772725835247947000,4.670947021484375,0.08974266052246094,0.0024979114532470703,-0.007215820252895355
1772725835257464300,4.68046435546875,0.14663028717041016,0.01524209976196289,-0.01838786154985428
1772725835266981600,4.689981689453125,0.16763687133789062,0.01752781867980957,-0.015062587335705757
1772725835276499000,4.6994990234375,0.1250133514404297,0.03567147254943848,0.0052819326519966125
1772725835286016000,4.70901611328125,0.10210227966308594,0.00838923454284668,0.05088640749454498
1772725835295533300,4.718533203125,0.11966228485107422,0.030764102935791016,0.03852928802371025
1772725835305050600,4.728050537109375,0.11588859558105469,0.0453946590423584,0.007272103801369667
1772725835314568000,4.73756787109375,0.06285572052001953,0.03133702278137207,0.02375979907810688
1772725835324085200,4.747085205078125,0.02729034423828125,0.012547731399536133,0.028343554586172104
1772725835333602600,4.7566025390625,-0.04777050018310547,-0.022190093994140625,0.03111082687973976
1772725835343120000,4.766119873046875,-0.07221412658691406,-0.028008699417114258,0.0035119522362947464
1772725835352637000,4.775636962890625,0.0026655197143554688,-0.05982160568237305,0.023304816335439682
1772725835362154200,4.785154296875,0.041092872619628906,-0.05837106704711914,-0.006755376234650612
1772725835371671600,4.794671630859375,0.0106201171875,-0.016892671585083008,-0.0086395014077425
1772725835381188900,4.80418896484375,-0.007670402526855469,-0.02295684814453125,-0.029741967096924782
1772725835390706200,4.8137060546875,-0.08696556091308594,-0.016841888427734375,-0.033091139048337936
1772725835400223500,4.823223388671875,-0.2076702117919922,-0.009942293167114258,-0.044373370707035065
1772725835409740500,4.832740478515625,-0.2538290023803711,-0.013983964920043945,-0.04106920212507248
1772725835419257900,4.8422578125,-0.2220001220703125,0.00185394287109375,-0.09925338625907898
1772725835428775200,4.851775146484375,-0.1252269744873047,-0.00045943260192871094,-0.08909180760383606
1772725835438292500,4.86129248046875,0.0050640106201171875,-0.004723072052001953,-0.08525791764259338
1772725835447809800,4.870809814453125,0.04838275909423828,0.028940677642822266,-0.03323657810688019
1772725835457327000,4.8803271484375,0.07457733154296875,0.04306507110595703,-0.031970247626304626
1772725835466844400,4.889844482421875,0.034584999084472656,0.05193734169006348,0.018613308668136597
1772725835476361700,4.89936181640625,0.058948516845703125,-0.014996767044067383,0.02364068105816841
1772725835485878800,4.908878662109375,0.13980484008789062,-0.034748077392578125,-0.020686529576778412
1772725835495396000,4.91839599609375,0.19164466857910156,-0.006063222885131836,0.02815266326069832
1772725835504913400,4.927913330078125,0.19615554809570312,0.018433332443237305,0.04761847108602524
1772725835514430700,4.9374306640625,0.14919185638427734,0.025216341018676758,0.09651100635528564
1772725835523948000,4.946947998046875,0.07009124755859375,0.05065751075744629,0.0923767238855362
1772725835533465300,4.95646533203125,0.0157928466796875,0.0381317138671875,0.02449805848300457
1772725835542982400,4.965982421875,-0.014134407043457031,0.014206647872924805,0.007445923984050751
1772725835552499700,4.975499755859375,-0.029603958129882812,0.00045943260192871094,0.024015596136450768
1772725835562017000,4.98501708984375,-0.07324981689453125,-0.01964592933654785,0.05275394767522812
1772725835571534300,4.994534423828125,-0.12107563018798828,-0.02718067169189453,0.046151939779520035
1772725835581051600,5.0040517578125,-0.10011672973632812,-0.012839317321777344,0.013529673218727112
1772725835590569000,5.01356884765625,-0.04912757873535156,0.006437540054321289,-0.06677210330963135
1772725835600086300,5.023086181640625,0.031523704528808594,-0.012099742889404297,-0.07689377665519714
1772725835609603600,5.032603515625,0.021391868591308594,0.00972437858581543,-0.0522831529378891
1772725835619120600,5.04212060546875,-0.0168304443359375,0.026530981063842773,-0.02141876146197319
1772725835628638000,5.051637939453125,-0.014348983764648438,0.0005471706390380859,-0.026535116136074066
1772725835638155300,5.0611552734375,-0.011790275573730469,0.010027885437011719,-0.028618264943361282
1772725835647672600,5.070672607421875,-0.0044765472412109375,0.016787290573120117,-0.0018660426139831543
1772725835657190000,5.08018994140625,0.0004100799560546875,0.0068585872650146484,-0.005984485149383545
1772725835666707200,5.089707275390625,0.000530242919921875,0.01586627960205078,-0.017458464950323105
1772725835676224500,5.099224609375,-0.030124664306640625,0.008671760559082031,0.006076261401176453
1772725835685741800,5.108741943359375,-0.05337047576904297,0.02549266815185547,-0.0043329596519470215
1772725835695258600,5.118258544921875,-0.012861251831054688,0.009458065032958984,-0.0032056309282779694
1772725835704776200,5.127776123046875,0.041228294372558594,0.01690840721130371,-0.010971460491418839
1772725835714293500,5.13729345703125,0.0805511474609375,0.004838228225708008,0.003434848040342331
1772725835723810800,5.146810791015625,0.07944774627685547,0.004213571548461914,0.04629215970635414
1772725835733328100,5.156328125,0.052689552307128906,-0.001577615737915039,0.032761506736278534
1772725835742845400,5.165845458984375,0.031180381774902344,-0.007483005523681641,0.018190905451774597
1772725835752362800,5.17536279296875,0.005234718322753906,-0.0013155937194824219,0.06046074628829956
1772725835761879800,5.1848798828125,0.014988899230957031,0.007155895233154297,0.03539200872182846
1772725835771397000,5.194397216796875,0.029326438903808594,0.0012640953063964844,0.0007255785167217255
1772725835780914400,5.20391455078125,0.04349040985107422,0.01648998260498047,0.015481434762477875
1772725835790431700,5.213431640625,0.02689647674560547,-0.015753746032714844,0.015590056777000427
1772725835799949000,5.222948974609375,-0.060120582580566406,-0.0213165283203125,-0.005270861089229584
1772725835809466400,5.23246630859375,-0.12240409851074219,-0.03327155113220215,0.010188370943069458
1772725835818983700,5.241983642578125,-0.1792774200439453,-0.027773141860961914,0.021459542214870453
1772725835828501000,5.2515009765625,-0.14850521087646484,-0.04506111145019531,0.044433943927288055
1772725835838018000,5.26101806640625,-0.07842826843261719,-0.0169370174407959,0.02905813604593277
1772725835847535400,5.270535400390625,-0.014158248901367188,0.03409147262573242,0.023186922073364258
1772725835857052700,5.280052734375,0.039786338806152344,0.0015516281127929688,0.00797920674085617
1772725835866570000,5.289570068359375,0.05762481689453125,0.014050483703613281,-0.01946283131837845
1772725835876087300,5.29908740234375,0.016310691833496094,0.005214691162109375,-0.033560819923877716
1772725835885604600,5.3086044921875,0.008573532104492188,0.03898000717163086,-0.05084451287984848
1772725835895122000,5.318121826171875,-0.0014581680297851562,0.04645538330078125,-0.05440948158502579
1772725835904639200,5.32763916015625,-0.020803451538085938,0.02808070182800293,-0.01823500543832779
1772725835914156500,5.337156494140625,0.0071887969970703125,0.017176389694213867,0.006064034998416901
1772725835923673600,5.346673583984375,-0.014734268188476562,0.008913755416870117,0.017094332724809647
1772725835933191000,5.35619091796875,-0.029296875,0.01741957664489746,0.03804817795753479
1772725835942708200,5.365708251953125,-0.02017688751220703,-0.021063566207885742,0.040009960532188416
1772725835952225500,5.3752255859375,0.012388229370117188,-0.023768186569213867,-0.016877587884664536
1772725835961742800,5.384742919921875,0.13416004180908203,-0.027211666107177734,-0.0024008862674236298
1772725835971260200,5.39426025390625,0.28530311584472656,-0.01835799217224121,0.028320617973804474
1772725835980777500,5.403777587890625,0.3311920166015625,0.004993438720703125,0.047468237578868866
1772725835990294800,5.413294677734375,0.1932201385498047,-0.0012731552124023438,0.04346958547830582
1772725835999811800,5.422811767578125,0.04829692840576172,-0.03133273124694824,0.029804259538650513
1772725836009329200,5.4323291015625,-0.011882781982421875,-0.0702512264251709,0.01360289379954338
1772725836018846500,5.441846435546875,-0.040511131286621094,-0.033120155334472656,-0.03708445280790329
1772725836028363800,5.45136376953125,-0.10178184509277344,-0.02677631378173828,0.007653772830963135
1772725836037881000,5.460881103515625,-0.17417430877685547,-0.02905726432800293,0.05223844572901726
1772725836047398100,5.470398193359375,-0.19398021697998047,-0.01864910125732422,0.0045369938015937805
1772725836056915700,5.479915771484375,-0.19261837005615234,-0.005281209945678711,-0.07305847853422165
1772725836066432800,5.489432861328125,-0.21519756317138672,-0.003017425537109375,-0.0817771703004837
1772725836075950300,5.498950439453125,-0.22155189514160156,-0.004094839096069336,-0.10821820795536041
1772725836085467400,5.50846728515625,-0.17193317413330078,0.005606412887573242,-0.11942723393440247
1772725836094984700,5.517984619140625,-0.11186885833740234,0.009177923202514648,-0.09489480406045914
1772725836104502000,5.527501953125,0.0035343170166015625,0.012949943542480469,-0.09428463131189346
1772725836114019300,5.537019287109375,0.0913991928100586,0.0042705535888671875,-0.08779511600732803
1772725836123536600,5.54653662109375,0.15717792510986328,-0.021984100341796875,-0.03566693514585495
1772725836133054000,5.556053955078125,0.19674301147460938,-0.011872529983520508,-0.0031646788120269775
1772725836142571300,5.5655712890625,0.19168949127197266,0.0011096000671386719,0.06050380691885948
1772725836152088600,5.575088623046875,0.1330270767211914,-0.0011796951293945312,0.09268279373645782
1772725836161605600,5.584605712890625,0.0684051513671875,0.026897192001342773,0.06195978820323944
1772725836171123000,5.594123046875,0.023614883422851562,0.07113075256347656,-0.004024013876914978
1772725836180640300,5.60364013671875,-0.030098915100097656,0.07755255699157715,-0.03043752908706665
1772725836190157600,5.613157470703125,-0.0644216537475586,0.08930301666259766,-0.06269817054271698
1772725836199675000,5.6226748046875,-0.07259178161621094,0.04506421089172363,-0.05517447739839554
1772725836209192200,5.632192138671875,-0.08080482482910156,0.009039640426635742,-0.016859158873558044
1772725836218709500,5.64170947265625,-0.04416942596435547,0.0018503665924072266,-0.004305414855480194
1772725836228226600,5.6512265625,-0.015106201171875,-0.005428314208984375,-0.0031681880354881287
1772725836237743900,5.660743896484375,0.027589797973632812,-0.026705026626586914,-0.006719745695590973
1772725836247261200,5.67026123046875,0.06507587432861328,-0.026918411254882812,0.018374808132648468
1772725836256778500,5.679778564453125,0.08338165283203125,-0.03951597213745117,0.05215269327163696
1772725836266295800,5.6892958984375,0.08510780334472656,-0.031195402145385742,0.027899552136659622
1772725836275813000,5.698813232421875,0.09877204895019531,-0.011717081069946289,0.031705498695373535
1772725836285330400,5.708330322265625,0.051120758056640625,-0.025711774826049805,0.004950538277626038
1772725836294847700,5.71784765625,-0.04991722106933594,-0.029904603958129883,0.004911571741104126
1772725836304364800,5.72736474609375,-0.12377452850341797,-0.051965951919555664,-0.0022018402814865112
1772725836313882000,5.736882080078125,-0.1756143569946289,-0.05159926414489746,-0.009512484073638916
1772725836323399400,5.7463994140625,-0.18458080291748047,-0.04104471206665039,0.0019138529896736145
1772725836332916700,5.755916748046875,-0.18434715270996094,-0.03689122200012207,0.0251457542181015
1772725836342434000,5.76543408203125,-0.16791725158691406,-0.03453397750854492,0.041364580392837524
1772725836351951400,5.774951416015625,-0.12379169464111328,-0.04570937156677246,0.04837007820606232
1772725836361468700,5.78446875,-0.08521842956542969,-0.04467177391052246,0.05106040835380554
1772725836370985700,5.79398583984375,-0.03558921813964844,-0.04584670066833496,0.0396791473031044
1772725836380503000,5.8035029296875,-0.008015632629394531,-0.035134077072143555,-0.0007300004363059998
1772725836390020400,5.813020263671875,0.06388473510742188,-0.005986213684082031,-0.020703956484794617
1772725836399537700,5.82253759765625,0.12788867950439453,0.028900623321533203,-0.035915352404117584
1772725836409055000,5.832054931640625,0.13241291046142578,0.03638887405395508,-0.01513100415468216
1772725836418572300,5.841572265625,0.15134525299072266,0.01703929901123047,0.0248618945479393
1772725836428089600,5.851089599609375,0.07365894317626953,0.014118432998657227,0.04156757518649101
1772725836437607000,5.86060693359375,0.03249168395996094,0.0043451786041259766,0.046298086643218994
1772725836447124200,5.870124267578125,-0.008134841918945312,0.02093052864074707,0.012253068387508392
1772725836456641500,5.8796416015625,-0.005756378173828125,0.020819425582885742,-0.04777093976736069
1772725836466158800,5.889158935546875,-0.0034399032592773438,0.006644248962402344,-0.05946812033653259
1772725836475676000,5.898676025390625,-0.012946128845214844,-0.04253745079040527,-0.002601228654384613
1772725836485193200,5.908193115234375,0.006009101867675781,-0.020467281341552734,0.027539808303117752
1772725836494710500,5.91771044921875,0.02946949005126953,-0.0013782978057861328,0.04323989152908325
1772725836504227800,5.927227783203125,0.014958381652832031,0.005471944808959961,0.004449434578418732
1772725836513745200,5.9367451171875,-0.011097908020019531,0.024023771286010742,-0.03360596299171448
1772725836523262500,5.946262451171875,-0.05094718933105469,0.00487971305847168,0.011720366775989532
1772725836532779800,5.95577978515625,-0.07857131958007812,-0.01818060874938965,0.03285232186317444
1772725836542297000,5.965297119140625,-0.09650516510009766,-0.0004394054412841797,0.018337935209274292
1772725836551814400,5.974814453125,-0.10248756408691406,0.010206222534179688,-0.012495599687099457
1772725836561331500,5.98433154296875,-0.07784652709960938,0.01847696304321289,-0.014237701892852783
1772725836570848800,5.993848876953125,-0.053587913513183594,0.0053827762603759766,-0.01023901253938675
1772725836580366000,6.003365966796875,-0.06978893280029297,0.016193866729736328,0.046746641397476196
1772725836589883400,6.01288330078125,-0.10241127014160156,-0.0102996826171875,0.019030123949050903
1772725836599400700,6.022400634765625,-0.11367416381835938,-0.019045114517211914,0.048120688647031784
1772725836608918000,6.03191796875,-0.07106685638427734,-0.005476474761962891,0.06620606780052185
1772725836618435300,6.041435302734375,-0.010535240173339844,0.00593256950378418,0.019374564290046692
1772725836627952600,6.05095263671875,0.1055765151977539,0.009781599044799805,-0.00999700278043747
1772725836637469700,6.0604697265625,0.1659412384033203,-0.008339166641235352,-0.04465097188949585
1772725836646987000,6.069987060546875,0.1505575180053711,-0.01799798011779785,0.004652254283428192
1772725836656504300,6.07950439453125,0.16179466247558594,-0.05918145179748535,-0.004602611064910889
1772725836666021600,6.089021728515625,0.15440654754638672,-0.06527256965637207,0.03381010890007019
1772725836675539000,6.0985390625,0.14513111114501953,-0.02734065055847168,0.02994554489850998
1772725836685056300,6.10805615234375,0.10794353485107422,-0.011580944061279297,0.03436107933521271
1772725836694573600,6.117573486328125,0.03839111328125,-0.007740020751953125,0.03911435604095459
1772725836704090600,6.127090576171875,-0.05373668670654297,0.015332698822021484,0.008218623697757721
1772725836713608000,6.13660791015625,-0.10461235046386719,0.04570364952087402,-0.05675265192985535
1772725836723125200,6.146125244140625,-0.0725250244140625,0.059613943099975586,-0.13175460696220398
1772725836732642600,6.155642578125,-0.017587661743164062,0.0665428638458252,-0.11491327732801437
1772725836742160000,6.165159912109375,0.06703662872314453,0.002717256546020508,-0.035673126578330994
1772725836751677200,6.17467724609375,0.11752986907958984,-0.0017406940460205078,-0.00048710405826568604
1772725836761194500,6.184194580078125,0.09437751770019531,0.0029752254486083984,0.010649710893630981
1772725836770711800,6.1937119140625,0.031701087951660156,-0.0043599605560302734,0.007579877972602844
1772725836780229000,6.20322900390625,-0.03933525085449219,-0.011573314666748047,0.02646889165043831
1772725836789746400,6.212746337890625,-0.09756755828857422,-0.041829824447631836,0.06545628607273102
1772725836799263700,6.222263671875,-0.08674049377441406,-0.017099857330322266,0.06498000025749207
1772725836808781000,6.231781005859375,-0.036093711853027344,-0.004548549652099609,0.03871850669384003
1772725836818298400,6.24129833984375,0.08214378356933594,0.00496983528137207,0.019386425614356995
1772725836827815400,6.2508154296875,0.1068868637084961,0.004344940185546875,0.00938568264245987
1772725836837332700,6.260332763671875,0.06540203094482422,0.005927085876464844,0.015858151018619537
1772725836846850000,6.26985009765625,-0.0014514923095703125,-0.02739238739013672,-0.026987463235855103
1772725836856367400,6.279367431640625,-0.08160114288330078,-0.028888463973999023,-0.010146059095859528
1772725836865884700,6.288884765625,-0.1042327880859375,-0.0037987232208251953,-0.028536356985569
1772725836875402000,6.298402099609375,-0.06768226623535156,0.006805419921875,-0.048645131289958954
1772725836884919300,6.307919189453125,-0.008207321166992188,-0.0062978267669677734,-0.0657901018857956
1772725836894436400,6.317436279296875,0.019710540771484375,0.01370382308959961,-0.03800327330827713
1772725836903953700,6.32695361328125,0.009496688842773438,0.019304513931274414,-0.048095524311065674
1772725836913471000,6.336470947265625,-0.045319557189941406,0.010849237442016602,-0.020364932715892792
1772725836922988300,6.34598828125,-0.012096405029296875,0.030612707138061523,-0.026209376752376556
1772725836932505600,6.355505615234375,-0.02182769775390625,0.021912336349487305,-0.0560082271695137
1772725836942023000,6.36502294921875,-0.0055637359619140625,0.07698607444763184,-0.06490995734930038
1772725836951540200,6.374540283203125,0.024539947509765625,0.04173111915588379,-0.057849377393722534
1772725836961057500,6.3840576171875,0.05660438537597656,0.03504157066345215,-0.04403407871723175
1772725836970574800,6.393574951171875,0.10241127014160156,0.042218923568725586,-0.022994697093963623
1772725836980092000,6.403091796875,0.09821510314941406,-0.0029058456420898438,0.006448730826377869
1772725836989609200,6.412609130859375,0.051751136779785156,-0.00027370452880859375,0.008540675044059753
1772725836999126500,6.42212646484375,0.06970405578613281,-0.016768932342529297,0.017857983708381653
1772725837008643800,6.431643798828125,0.06387615203857422,-0.014269828796386719,0.02955196052789688
1772725837018161200,6.4411611328125,0.025224685668945312,-0.04245185852050781,0.052419643849134445
1772725837027678500,6.450678466796875,0.00835418701171875,-0.03711819648742676,0.0590854249894619
1772725837037195800,6.46019580078125,-0.024627685546875,-0.02732396125793457,0.05787171795964241
1772725837046713000,6.469713134765625,-0.035918235778808594,-0.019940853118896484,0.02959325909614563
1772725837056230400,6.47923046875,-0.047087669372558594,-0.03369879722595215,0.05390172451734543
1772725837065747700,6.488747802734375,-0.04874897003173828,-0.03525352478027344,0.037618208676576614
1772725837075265000,6.49826513671875,-0.012739181518554688,-0.048546552658081055,-0.030427612364292145
1772725837084782000,6.507781982421875,-0.00330352783203125,-0.03552556037902832,-0.022470884025096893
1772725837094299400,6.51729931640625,-0.020050048828125,-0.022408723831176758,-0.020547404885292053
1772725837103816700,6.526816650390625,-0.03186511993408203,0.002355813980102539,-0.07394570112228394
1772725837113334000,6.536333984375,-0.03655815124511719,0.003488302230834961,-0.07996216416358948
1772725837122851300,6.545851318359375,-0.0814809799194336,0.0006265640258789062,-0.017209455370903015
1772725837132368600,6.55536865234375,-0.1332387924194336,-0.017403841018676758,0.0203181654214859
1772725837141886000,6.564885986328125,-0.1588764190673828,-0.00302886962890625,0.04353533685207367
1772725837151403300,6.5744033203125,-0.13515090942382812,-0.037153005599975586,0.025841645896434784
1772725837160920300,6.58392041015625,-0.09563922882080078,-0.06296658515930176,0.035990431904792786
1772725837170437600,6.593437744140625,0.02336406707763672,-0.013420581817626953,-0.007183142006397247
1772725837179955000,6.602954833984375,0.12208271026611328,-0.003600597381591797,-0.0160154327750206
1772725837189472300,6.61247216796875,0.15843677520751953,-0.01386404037475586,-0.02606026828289032
1772725837198989600,6.621989501953125,0.1592578887939453,-0.013082265853881836,-0.05375303328037262
1772725837208507000,6.6315068359375,0.1392364501953125,0.0009634494781494141,-0.05612276494503021
1772725837218024200,6.641024169921875,0.09879875183105469,-0.02151656150817871,-0.0181368887424469
1772725837227541500,6.65054150390625,0.04763507843017578,-0.030341148376464844,0.04229191690683365
1772725837237058800,6.660058837890625,-0.0332489013671875,-0.07195496559143066,0.08491431176662445
1772725837246576000,6.669576171875,-0.08716487884521484,-0.06988930702209473,0.08066105842590332
1772725837256093400,6.679093505859375,-0.05580902099609375,-0.0505986213684082,0.06447114795446396
1772725837265610800,6.68861083984375,-0.029883384704589844,-0.012334585189819336,0.012575842440128326
1772725837275127800,6.6981279296875,0.009657859802246094,0.0160372257232666,-0.006089620292186737
1772725837284645000,6.70764501953125,-0.005599021911621094,0.006342411041259766,0.010767359286546707
1772725837294162400,6.717162353515625,-0.02299976348876953,0.015735387802124023,0.008283063769340515
1772725837303679700,6.7266796875,-0.0307159423828125,-0.017332792282104492,-0.04096682369709015
1772725837313197000,6.736197021484375,-0.014700889587402344,-0.0217740535736084,-0.03914191573858261
1772725837322714400,6.74571435546875,0.0034742355346679688,-0.03806185722351074,0.005879901349544525
1772725837332231700,6.755231689453125,0.023835182189941406,-0.026154518127441406,0.034201666712760925
1772725837341749000,6.7647490234375,0.0014429092407226562,-0.0025222301483154297,0.015635434538125992
1772725837351266000,6.77426611328125,-0.037199974060058594,0.014025688171386719,0.008977845311164856
1772725837360783400,6.783783447265625,-0.0589599609375,0.026114702224731445,-0.03478538990020752
1772725837370300700,6.79330078125,-0.0028162002563476562,0.03349947929382324,-0.10819580405950546
1772725837379818000,6.80281787109375,0.08770084381103516,0.03129148483276367,-0.07811178267002106
1772725837389335300,6.812335205078125,0.1580066680908203,0.03351330757141113,0.00683111697435379
1772725837398852600,6.8218525390625,0.17794418334960938,0.0422360897064209,0.035592515021562576
1772725837408370000,6.831369873046875,0.17901039123535156,0.021900415420532227,0.06159001216292381
1772725837417887200,6.84088720703125,0.14277362823486328,-0.005991697311401367,0.06490989029407501
1772725837427404500,6.850404541015625,0.1217336654663086,0.0007753372192382812,0.11319227516651154
1772725837436921900,6.859921875,0.07781410217285156,-0.009719371795654297,0.13040770590305328
1772725837446439200,6.869439208984375,0.0017404556274414062,-0.029554367065429688,0.12300392240285873
1772725837455956500,6.87895654296875,-0.06155872344970703,-0.008428096771240234,0.07847487181425095
1772725837465473500,6.8884736328125,-0.0840597152709961,-0.0034949779510498047,0.006754383444786072
1772725837474990800,6.897990966796875,-0.06871604919433594,0.008834600448608398,0.018065057694911957
1772725837484508200,6.907508056640625,-0.05851936340332031,0.019026517868041992,0.02062651515007019
1772725837494025500,6.917025390625,-0.03452301025390625,0.017598390579223633,0.00711476057767868
1772725837503542800,6.926542724609375,-0.043944358825683594,-0.009532928466796875,-0.016983985900878906
1772725837513060000,6.93606005859375,-0.00865936279296875,-0.02408123016357422,-0.04835242033004761
1772725837522577400,6.945577392578125,0.002620697021484375,-0.024532079696655273,-0.03179337829351425
1772725837532094700,6.9550947265625,0.056243896484375,-0.027749061584472656,0.0014855191111564636
1772725837541611800,6.96461181640625,0.10930442810058594,-0.01993536949157715,-0.01713469624519348
1772725837551129000,6.974129150390625,0.15005016326904297,-0.01774311065673828,0.017186567187309265
1772725837560646400,6.983646484375,0.1739950180053711,-0.01642465591430664,0.034797437489032745
1772725837570163700,6.993163818359375,0.17205238342285156,0.0004000663757324219,0.031165629625320435
1772725837579681000,7.002680908203125,0.09984779357910156,0.016260385513305664,0.0026808083057403564
1772725837589198300,7.0121982421875,-0.02996826171875,0.02244424819946289,0.0037568286061286926
1772725837598715600,7.021715576171875,-0.12494182586669922,0.022095203399658203,-0.0026687830686569214
1772725837608233000,7.03123291015625,-0.12685871124267578,0.010670185089111328,-0.04064038395881653
1772725837617750300,7.040750244140625,-0.11727142333984375,0.002468585968017578,-0.03152478486299515
1772725837627267600,7.050267578125,-0.12466907501220703,0.014065265655517578,0.00015390664339065552
1772725837636785000,7.059784912109375,-0.12058162689208984,0.031119108200073242,-0.009557671844959259
1772725837646302200,7.06930224609375,-0.1452016830444336,0.027657747268676758,0.04571608081459999
1772725837655819300,7.0788193359375,-0.1131906509399414,0.01542043685913086,0.047359079122543335
1772725837665336600,7.088336669921875,-0.018189430236816406,-0.0013184547424316406,0.03437599539756775
1772725837674854000,7.09785400390625,0.04013538360595703,-0.001781463623046875,0.01464223861694336
1772725837684371200,7.10737109375,0.06477546691894531,-0.009820699691772461,0.03612960875034332
1772725837693888500,7.116888427734375,0.037403106689453125,0.0007326602935791016,0.07509858906269073
1772725837703405800,7.12640576171875,0.024816513061523438,-0.022301197052001953,0.0915207788348198
1772725837712923100,7.135923095703125,0.03613471984863281,-0.005317211151123047,0.07414314895868301
1772725837722440400,7.1454404296875,0.030847549438476562,0.01598668098449707,0.06974771618843079
1772725837731957800,7.154957763671875,-0.009804725646972656,-0.014461517333984375,0.01760965585708618
1772725837741475000,7.16447509765625,-0.009989738464355469,0.0031299591064453125,-0.018712319433689117
1772725837750992400,7.173992431640625,-0.03388786315917969,0.02320241928100586,-0.008587345480918884
1772725837760509700,7.183509765625,-0.019748687744140625,0.04058670997619629,0.000611521303653717
1772725837770027000,7.193027099609375,0.02722644805908203,0.05971789360046387,-0.023349545896053314
1772725837779544000,7.2025439453125,0.02181720733642578,0.03580808639526367,-0.03419194370508194
1772725837789061400,7.212061279296875,-0.004517555236816406,0.014282941818237305,-0.003969341516494751
1772725837798578700,7.22157861328125,-0.02089214324951172,-0.01891016960144043,-0.0047336146235466
1772725837808096000,7.231095947265625,-0.05106163024902344,0.016577720642089844,-0.021570146083831787
1772725837817613300,7.24061328125,-0.045424461364746094,0.016181468963623047,-0.025477372109889984
1772725837827130600,7.250130615234375,-0.047005653381347656,0.013600349426269531,-0.005817078053951263
1772725837836648000,7.25964794921875,-0.04873085021972656,0.03496217727661133,-0.01139756292104721
1772725837846165000,7.2691650390625,-0.038901329040527344,0.02825641632080078,-0.0610673725605011
1772725837855682300,7.278682373046875,-0.06937408447265625,0.01962113380432129,-0.08965150266885757
1772725837865199600,7.28819970703125,-0.054833412170410156,0.04218626022338867,-0.09720788151025772
1772725837874717000,7.297717041015625,-0.02883625030517578,0.012765884399414062,-0.05053349584341049
1772725837884234200,7.307234130859375,-0.00090789794921875,0.009718179702758789,-0.024837538599967957
1772725837893751600,7.31675146484375,-0.0015993118286132812,0.018327713012695312,0.0064797475934028625
1772725837903268900,7.326268798828125,-0.00220489501953125,0.017226219177246094,0.023958034813404083
1772725837912786200,7.3357861328125,-0.03822135925292969,0.023517131805419922,0.013098105788230896
1772725837922303500,7.345303466796875,-0.06904125213623047,0.029965639114379883,0.009372919797897339
1772725837931820800,7.35482080078125,-0.06174755096435547,0.03170895576477051,0.019620820879936218
1772725837941338000,7.364338134765625,-0.07115650177001953,0.052512168884277344,0.02476360648870468
1772725837950855400,7.37385546875,-0.014551162719726562,0.02125692367553711,-0.005714550614356995
1772725837960372700,7.383372802734375,-0.00350189208984375,0.0020749568939208984,-0.016475319862365723
1772725837969889800,7.392889892578125,-0.0067234039306640625,-0.019195556640625,-0.0004947632551193237
1772725837979407000,7.402406982421875,0.034911155700683594,0.002029895782470703,0.011100776493549347
1772725837988924400,7.41192431640625,0.0526123046875,0.010452747344970703,-0.0028443261981010437
1772725837998441700,7.421441650390625,0.044386863708496094,-0.0006668567657470703,-0.027291834354400635
1772725838007959000,7.430958984375,-0.02708721160888672,-0.009563207626342773,-0.010490477085113525
1772725838017476400,7.440476318359375,-0.05044078826904297,-0.006232023239135742,-0.01997840404510498
1772725838026993700,7.44999365234375,-0.07610130310058594,0.02371072769165039,-0.049922019243240356
1772725838036511000,7.459510986328125,-0.03106403350830078,0.013830423355102539,-0.10310277342796326
1772725838046028300,7.4690283203125,0.03193950653076172,0.018439531326293945,-0.10759587585926056
1772725838055545600,7.478545654296875,0.0656747817993164,0.015859603881835938,-0.04418988525867462
1772725838065063000,7.48806298828125,0.04479503631591797,0.034342050552368164,0.001793786883354187
1772725838074580200,7.497580322265625,0.045556068420410156,0.03343367576599121,0.05217131972312927
1772725838084097500,7.50709765625,0.0041446685791015625,0.03682851791381836,0.05866752564907074
1772725838093614600,7.516614501953125,-0.019968032836914062,0.021081209182739258,0.03878810256719589
1772725838103132000,7.5261318359375,0.03184032440185547,-0.018459320068359375,0.06238207221031189
1772725838112649200,7.535649169921875,0.12303638458251953,-0.01562190055847168,0.03534860163927078
1772725838122166500,7.54516650390625,0.17307376861572266,0.028621435165405273,-0.04103796184062958
1772725838131683800,7.554683837890625,0.12360858917236328,0.041170358657836914,-0.02428095042705536
1772725838141201200,7.564201171875,0.02302265167236328,0.02099466323852539,0.031852707266807556
1772725838150718500,7.573718505859375,-0.04557323455810547,-0.0005578994750976562,0.03690716624259949
1772725838160235800,7.58323583984375,-0.04030609130859375,0.002305269241333008,-0.012692555785179138
1772725838169753000,7.592753173828125,0.0401458740234375,0.016932964324951172,-0.06860122084617615
1772725838179270400,7.6022705078125,0.07004165649414062,0.021429061889648438,-0.06000800430774689
1772725838188787500,7.611787353515625,0.054839134216308594,0.025583267211914062,-0.025814563035964966
1772725838198305000,7.621304931640625,0.039951324462890625,-0.01285099983215332,-0.04684038460254669
1772725838207822000,7.630822021484375,0.06305789947509766,-0.03915071487426758,-0.03288978338241577
1772725838217339400,7.64033935546875,0.060067176818847656,-0.027787208557128906,-0.014750748872756958
1772725838226856700,7.649856689453125,0.04787254333496094,-0.009920120239257812,0.05544190853834152
1772725838236374000,7.6593740234375,0.005412101745605469,-0.0020232200622558594,0.03569670021533966
1772725838245891300,7.668891357421875,-0.06470203399658203,-0.022174358367919922,0.030800268054008484
1772725838255408600,7.67840869140625,-0.10802364349365234,-0.036650896072387695,0.02835974097251892
1772725838264926000,7.687926025390625,-0.10374164581298828,-0.033989667892456055,0.03992214798927307
1772725838274443300,7.697443359375,-0.026594161987304688,-0.024312257766723633,0.006365880370140076
1772725838283960600,7.706960693359375,-0.04030323028564453,0.00674748420715332,-0.006002485752105713
1772725838293478000,7.716477783203125,-0.07285785675048828,-0.028013944625854492,-0.016622677445411682
1772725838302995200,7.7259951171875,-0.06977558135986328,-0.042899370193481445,0.03374253213405609
1772725838312512500,7.735512451171875,-0.052684783935546875,-0.0314936637878418,0.05321867763996124
1772725838322029800,7.74502978515625,-0.021793365478515625,0.0127716064453125,0.07068250328302383
1772725838331547000,7.754546875,0.02045917510986328,0.03957009315490723,0.07658834010362625
1772725838341064200,7.764064208984375,0.048000335693359375,0.04448509216308594,0.042565688490867615
1772725838350581500,7.77358154296875,0.04695415496826172,0.030230045318603516,0.018373504281044006
1772725838360098800,7.783098876953125,0.060085296630859375,0.018462657928466797,0.02518484741449356
1772725838369616100,7.7926162109375,0.033087730407714844,0.001973390579223633,-0.005491673946380615
1772725838379133400,7.802133544921875,0.0702962875366211,0.00641179084777832,0.002813398838043213
1772725838388650800,7.811650634765625,0.12603473663330078,-0.004126787185668945,0.018410056829452515
1772725838398168000,7.82116796875,0.0987558364868164,-0.024530887603759766,-0.0035504698753356934
1772725838407685400,7.830685302734375,0.022571563720703125,-0.03057861328125,-0.026863202452659607
1772725838417202700,7.84020263671875,-0.04788684844970703,-0.031183719635009766,-0.01623329520225525
1772725838426720000,7.849719970703125,-0.13160037994384766,-0.06628012657165527,0.009191319346427917
1772725838436237300,7.8592373046875,-0.13185977935791016,-0.02946949005126953,-0.003226354718208313
1772725838445754400,7.86875439453125,-0.07357501983642578,0.009706497192382812,-0.02661070227622986
1772725838455271700,7.878271728515625,-0.011640548706054688,0.03656268119812012,-0.05922652781009674
1772725838464789000,7.8877890625,0.04688549041748047,0.03943657875061035,-0.08118954300880432
1772725838474306300,7.897306396484375,0.012621879577636719,-0.014106512069702148,-0.051424041390419006
1772725838483823600,7.90682373046875,-0.03519439697265625,-0.026703357696533203,-0.002362161874771118
1772725838493341000,7.9163408203125,-0.054088592529296875,-0.05523967742919922,0.05187525600194931
1772725838502858200,7.925858154296875,0.01210784912109375,-0.04109835624694824,0.03500324487686157
1772725838512375600,7.93537548828125,0.044363975524902344,-0.022746801376342773,0.011123806238174438
1772725838521892900,7.944892822265625,0.07156085968017578,0.016001224517822266,-0.0198591947555542
1772725838531410200,7.95441015625,0.06302833557128906,0.014046430587768555,-0.04363788664340973
1772725838540927500,7.963927490234375,0.028797149658203125,0.012014627456665039,-0.01070992648601532
1772725838550444800,7.97344482421875,0.030582427978515625,0.028466463088989258,0.016886934638023376
1772725838559962000,7.982962158203125,0.004094123840332031,0.054106950759887695,0.014129891991615295
1772725838569479200,7.992479248046875,-0.05275249481201172,0.0727853775024414,0.013970568776130676
1772725838578996500,8.00199658203125,-0.04046154022216797,0.030083656311035156,0.042008355259895325
1772725838588513800,8.011513671875,-0.000049591064453125,0.027894258499145508,0.05129821598529816
1772725838598031000,8.021031005859374,0.03982830047607422,-0.023975372314453125,0.0401684045791626
1772725838607548400,8.03054833984375,0.03925132751464844,-0.04485893249511719,0.03274983912706375
1772725838617065700,8.040065673828124,0.036484718322753906,-0.05870318412780762,0.0067055970430374146
1772725838626583000,8.0495830078125,0.09976768493652344,-0.0491030216217041,-0.04044976830482483
1772725838636100400,8.059100341796874,0.06332969665527344,-0.01650381088256836,-0.06777496635913849
1772725838645617700,8.06861767578125,0.022742271423339844,-0.014933109283447266,-0.048071667551994324
1772725838655135000,8.078135009765624,-0.05269432067871094,-0.019924163818359375,-0.06983642280101776
1772725838664652300,8.08765234375,-0.12009525299072266,-0.0077364444732666016,-0.08545808494091034
1772725838674169600,8.097169677734374,-0.14435291290283203,-0.023203134536743164,-0.0968744307756424
1772725838683687000,8.10668701171875,-0.1544809341430664,-0.016292333602905273,-0.08504699170589447
1772725838693204000,8.116203857421874,-0.1294403076171875,0.014760017395019531,-0.10615119338035583
1772725838702721300,8.12572119140625,-0.022719383239746094,0.02469015121459961,-0.05527055263519287
1772725838712238600,8.135238525390625,0.037631988525390625,0.015362977981567383,-0.035533607006073
1772725838721756000,8.144755859375,0.033664703369140625,0.03396320343017578,0.015909627079963684
1772725838731273200,8.154273193359375,0.011079788208007812,0.02611684799194336,0.06377317011356354
1772725838740790500,8.16379052734375,0.017278671264648438,0.00861811637878418,0.010809853672981262
1772725838750307800,8.173307861328125,0.018741607666015625,0.04065537452697754,0.02257174253463745
1772725838759825200,8.1828251953125,0.0013208389282226562,0.04873180389404297,0.020114153623580933
1772725838769342500,8.192342529296875,0.06890487670898438,0.06132936477661133,0.057182520627975464
1772725838778859800,8.20185986328125,0.16863536834716797,0.04934549331665039,0.015375509858131409
1772725838788377000,8.211377197265625,0.21308517456054688,0.04806113243103027,0.0229923278093338
1772725838797894400,8.220894287109376,0.19134235382080078,0.017508745193481445,0.014085963368415833
1772725838807411500,8.230411376953125,0.10899829864501953,-0.031826019287109375,0.04412740468978882
1772725838816928800,8.2399287109375,0.0633697509765625,-0.05684685707092285,0.07536131143569946
1772725838826446000,8.249446044921875,0.03514671325683594,-0.0629875659942627,0.03917147219181061
1772725838835963400,8.25896337890625,-0.013638496398925781,-0.05287933349609375,-0.028768271207809448
1772725838845480700,8.268480712890625,-0.0805978775024414,-0.030765771865844727,-0.06746183335781097
1772725838854998000,8.277998046875,-0.1421213150024414,-0.015144824981689453,-0.05191554129123688
1772725838864515300,8.287515380859375,-0.20783329010009766,-0.0009303092956542969,-0.02571062743663788
1772725838874032600,8.29703271484375,-0.16698741912841797,-0.0024802684783935547,-0.06048707664012909
1772725838883550000,8.306550048828125,-0.10366153717041016,0.029722929000854492,-0.06621509790420532
1772725838893067300,8.3160673828125,-0.06259632110595703,0.03550457954406738,-0.07080163061618805
1772725838902584600,8.32558447265625,0.017896652221679688,0.017342090606689453,-0.08315064013004303
1772725838912102000,8.335101806640624,0.03367328643798828,0.001468658447265625,-0.03386367857456207
1772725838921619200,8.344619140625,0.013950347900390625,-0.03300333023071289,0.028182819485664368
1772725838931136300,8.35413623046875,-0.06184101104736328,-0.04335308074951172,0.09973667562007904
1772725838940653600,8.363653564453125,-0.16473674774169922,-0.027162551879882812,0.17517206072807312
1772725838950171000,8.3731708984375,-0.16977405548095703,-0.012755393981933594,0.16507382690906525
1772725838959688200,8.382688232421875,-0.10905742645263672,0.015996456146240234,0.10472849011421204
1772725838969205500,8.39220556640625,0.06120586395263672,0.034803152084350586,0.03614954650402069
1772725838978722800,8.401722900390626,0.1889028549194336,0.04780983924865723,0.025528550148010254
1772725838988240100,8.411240234375,0.204254150390625,0.04784059524536133,0.025565698742866516
1772725838997757400,8.42075732421875,0.20081710815429688,0.009472846984863281,0.013360485434532166
1772725839007274800,8.430274658203125,0.14593219757080078,-0.021839618682861328,-0.010471493005752563
1772725839016792000,8.4397919921875,0.12510967254638672,-0.008452892303466797,-0.008414432406425476
1772725839026309400,8.449309326171875,0.11432933807373047,-0.0195009708404541,-0.006063923239707947
1772725839035826700,8.45882666015625,0.06868648529052734,-0.026234149932861328,-0.019504740834236145
1772725839045343700,8.46834375,0.038021087646484375,-0.016645431518554688,-0.009518608450889587
1772725839054861000,8.477861083984376,0.019707679748535156,0.011394500732421875,-0.018913209438323975
1772725839064378400,8.48737841796875,-0.0642251968383789,-0.005576610565185547,-0.010772556066513062
1772725839073895700,8.496895751953126,-0.17302799224853516,-0.00007486343383789062,0.033488839864730835
1772725839083413000,8.5064130859375,-0.19813919067382812,0.0206143856048584,0.04869270324707031
1772725839092930300,8.515930419921874,-0.17619705200195312,0.018424034118652344,0.02525600790977478
1772725839102447600,8.525447509765625,-0.14081382751464844,0.002878904342651367,-0.01250101625919342
1772725839111965000,8.53496484375,-0.11087512969970703,0.039721012115478516,-0.033296599984169006
1772725839121482200,8.544482177734375,-0.0766916275024414,-0.008809089660644531,0.0152483731508255
1772725839130999600,8.55399951171875,-0.05715465545654297,-0.0047681331634521484,0.02917426824569702
1772725839140516900,8.563516845703125,-0.02383136749267578,-0.014859437942504883,0.04339459538459778
1772725839150034200,8.5730341796875,0.03720855712890625,-0.001407623291015625,0.02815394103527069
1772725839159551500,8.582551513671875,0.09976005554199219,0.006582736968994141,-0.03074541687965393
1772725839169068500,8.592068603515624,0.15212249755859375,0.039579153060913086,-0.07589496672153473
1772725839178586000,8.601586181640625,0.14038753509521484,0.02893519401550293,-0.030722439289093018
1772725839188103400,8.611103515625,0.1126413345336914,0.0037240982055664062,0.014098837971687317
1772725839197620700,8.620620849609375,0.11142730712890625,-0.012114524841308594,0.04167443513870239
1772725839207138000,8.630137939453125,0.07027626037597656,-0.04189586639404297,0.05022399127483368
1772725839216655000,8.639655029296875,-0.033878326416015625,-0.035454511642456055,0.05216541886329651
1772725839226172400,8.64917236328125,-0.10602664947509766,0.006955146789550781,0.061194151639938354
1772725839235689700,8.658689697265626,-0.1443920135498047,0.03306150436401367,0.06042301654815674
1772725839245207000,8.66820703125,-0.10938835144042969,0.04276895523071289,-0.008839547634124756
1772725839254724400,8.677724365234376,-0.023192405700683594,0.009896039962768555,-0.009274095296859741
1772725839264241700,8.68724169921875,0.059528350830078125,-0.01381373405456543,-0.024189576506614685
1772725839273759000,8.696759033203126,0.11077880859375,-0.05714845657348633,-0.014985963702201843
1772725839283276300,8.7062763671875,0.1592397689819336,-0.09366965293884277,0.006786376237869263
1772725839292793600,8.715793701171876,0.169525146484375,-0.1137688159942627,0.019234493374824524
1772725839302311000,8.725310791015625,0.09978866577148438,-0.08919167518615723,-0.0179775208234787
1772725839311828200,8.734828125,-0.037034034729003906,-0.04852461814880371,-0.04985910654067993
1772725839321345500,8.744345458984375,-0.20722389221191406,0.004148721694946289,-0.06399916112422943
1772725839330862800,8.75386279296875,-0.28582763671875,0.012902259826660156,-0.03735274076461792
1772725839340380000,8.7633798828125,-0.257965087890625,0.0044176578521728516,-0.04486323893070221
1772725839349897200,8.772897216796874,-0.13457679748535156,0.008945226669311523,-0.04156804084777832
1772725839359414500,8.78241455078125,-0.03699684143066406,0.027997970581054688,-0.025164514780044556
1772725839368931800,8.791931884765624,0.004864692687988281,0.004288196563720703,-0.0071721673011779785
1772725839378449200,8.80144921875,0.034226417541503906,-0.00725865364074707,0.013848185539245605
1772725839387966500,8.810966552734374,0.034873008728027344,-0.014015913009643555,0.004955112934112549
1772725839397483800,8.82048388671875,0.1136159896850586,-0.031128406524658203,0.030139833688735962
1772725839407001000,8.8300009765625,0.184661865234375,-0.02123856544494629,0.07596258819103241
1772725839416518400,8.839518310546875,0.18685436248779297,-0.041049957275390625,0.13195422291755676
1772725839426035700,8.84903564453125,0.17523670196533203,-0.026074886322021484,0.12121610343456268
1772725839435553000,8.858552978515625,0.05814170837402344,-0.02358865737915039,0.05492435395717621
1772725839445070300,8.8680703125,-0.038318634033203125,-0.006656169891357422,0.05365724861621857
1772725839454587400,8.87758740234375,-0.08649539947509766,0.020308732986450195,0.05648636817932129
1772725839464104700,8.887104736328125,-0.058856964111328125,0.016864299774169922,0.02290874719619751
1772725839473622000,8.8966220703125,-0.0010890960693359375,0.02988719940185547,-0.06744599342346191
1772725839483139600,8.9061396484375,0.07940387725830078,0.0399174690246582,-0.07924853265285492
1772725839492657000,8.915656982421876,0.06680107116699219,-0.023205280303955078,-0.09350000321865082
1772725839502174000,8.925174072265625,0.04743194580078125,-0.04548525810241699,-0.034709393978118896
1772725839511691300,8.934691162109376,0.03322792053222656,-0.06065821647644043,-0.042625054717063904
1772725839521208600,8.94420849609375,-0.008965492248535156,-0.0426332950592041,-0.005216941237449646
1772725839530726000,8.953725830078126,-0.05766105651855469,-0.02217721939086914,-0.022241398692131042
1772725839540243200,8.9632431640625,-0.07975578308105469,-0.044150352478027344,-0.04784552752971649
1772725839549760500,8.972760498046876,-0.06377601623535156,-0.03763842582702637,-0.051355332136154175
1772725839559277800,8.98227783203125,-0.07172203063964844,-0.023825407028198242,-0.023760899901390076
1772725839568795100,8.991795166015624,-0.09387588500976562,-0.028493404388427734,0.041491955518722534
1772725839578312400,9.0013125,-0.0687398910522461,-0.028055667877197266,0.05357876420021057
1772725839587829800,9.010829833984374,-0.03238105773925781,0.005587577819824219,0.0014321058988571167
1772725839597347000,9.02034716796875,-0.060463905334472656,-0.03357648849487305,-0.012973576784133911
1772725839606864400,9.029864501953124,-0.08599376678466797,-0.0762796401977539,0.13291580975055695
1772725839616381700,9.039381591796875,0.14319801330566406,0.08362579345703125,-0.12408362329006195
1772725839625898800,9.048898681640624,0.07725715637207031,-0.047272443771362305,0.09893739223480225
1772725839635416000,9.058416015625,0.16337203979492188,0.01854872703552246,0.026629149913787842
1772725839644933400,9.067933349609374,0.050762176513671875,-0.03988385200500488,0.11435829102993011
1772725839654450700,9.07745068359375,0.08594703674316406,-0.04323887825012207,0.1052732765674591
1772725839663968000,9.086968017578124,0.014713287353515625,0.02622199058532715,0.00601467490196228
1772725839673485300,9.0964853515625,0.08349990844726562,-0.046672821044921875,0.11545927822589874
1772725839683002600,9.106002685546875,0.10422515869140625,0.0929572582244873,-0.1104026585817337
1772725839692520000,9.11552001953125,0.14130496978759766,-0.09735751152038574,0.10041756927967072
1772725839702037200,9.125037353515625,0.10976505279541016,0.11959314346313477,-0.1988552063703537
1772725839711554600,9.134554443359375,0.04112720489501953,-0.15174651145935059,0.20945009589195251
1772725839721071900,9.14407177734375,-0.04289054870605469,0.13920927047729492,-0.22205694019794464
1772725839730589200,9.153589111328126,-0.15653324127197266,-0.20889544486999512,0.22439782321453094
1772725839740106500,9.1631064453125,-0.10635948181152344,0.1697254180908203,-0.33857840299606323
1772725839749623800,9.172623779296876,-0.1421051025390625,-0.26880550384521484,0.213661327958107
1772725839759141000,9.18214111328125,-0.05276775360107422,0.17576169967651367,-0.366280198097229
1772725839768658400,9.191658447265626,-0.11560344696044922,-0.29973459243774414,0.37502235174179077
1772725839778175700,9.20117578125,0.015497207641601562,0.22576498985290527,-0.3596147298812866
1772725839787693000,9.210693115234376,-0.08855056762695312,-0.3044312000274658,0.3850499987602234
1772725839797210000,9.220210205078125,0.06809043884277344,0.2726907730102539,-0.44069236516952515
1772725839806727400,9.2297275390625,-0.024881362915039062,-0.338700532913208,0.39314308762550354
1772725839816244700,9.23924462890625,0.053012847900390625,0.24388527870178223,-0.45706868171691895
1772725839825762000,9.248761962890624,-0.15546131134033203,-0.37996912002563477,0.4626571238040924
1772725839835279400,9.258279296875,0.034576416015625,0.2729523181915283,-0.48934921622276306
1772725839844796700,9.267796630859374,0.0003490447998046875,-0.3064453601837158,0.39698001742362976
1772725839854314000,9.27731396484375,0.2494945526123047,0.3885831832885742,-0.5412896275520325
1772725839863831300,9.286831298828124,0.052361488342285156,-0.32376575469970703,0.4595155715942383
1772725839873348600,9.2963486328125,0.1693258285522461,0.3140382766723633,-0.47878333926200867
1772725839882866000,9.305865966796874,-0.0307464599609375,-0.37456178665161133,0.4978516697883606
1772725839892383200,9.31538330078125,0.1139078140258789,0.23018980026245117,-0.3314968943595886
1772725839901900500,9.324900634765624,0.02336597442626953,-0.08839702606201172,0.053987473249435425
1772725839911417600,9.33441748046875,0.035696983337402344,-0.0397334098815918,-0.039164379239082336
1772725839920935200,9.34393505859375,-0.015817642211914062,-0.048084259033203125,-0.010856777429580688
1772725839930452500,9.353452392578125,-0.047878265380859375,-0.020480632781982422,-0.037698760628700256
1772725839939969800,9.3629697265625,-0.08434867858886719,0.007233142852783203,-0.0572383850812912
1772725839949487000,9.372487060546876,-0.11572074890136719,-0.004937171936035156,-0.05916169285774231
1772725839959004200,9.382004150390625,-0.14914989471435547,-0.02808547019958496,0.014695391058921814
1772725839968521500,9.391521484375,-0.1304616928100586,-0.026851892471313477,-0.019037500023841858
1772725839978038800,9.401038818359375,-0.0910482406616211,-0.0065135955810546875,-0.08813901245594025
1772725839987556000,9.41055615234375,-0.050251007080078125,-0.0023140907287597656,-0.09401527047157288
1772725839997073400,9.420073486328125,-0.02936840057373047,0.04506063461303711,-0.08272634446620941
1772725840006590700,9.4295908203125,0.005077362060546875,0.023830413818359375,-0.04007279872894287
1772725840016108000,9.43910791015625,0.024892807006835938,0.02156233787536621,-0.03686255216598511
1772725840025625300,9.448625244140626,0.11763191223144531,0.042122602462768555,-0.038108423352241516
1772725840035142700,9.458142578125,0.11278247833251953,0.00022840499877929688,0.035304516553878784
1772725840044660000,9.467659912109376,0.09906673431396484,-0.0019516944885253906,0.07477280497550964
1772725840054177300,9.47717724609375,0.10476303100585938,-0.0024662017822265625,0.12787890434265137
1772725840063694600,9.486694580078124,0.11302947998046875,0.026927709579467773,0.08728668093681335
1772725840073212000,9.4962119140625,0.07906246185302734,0.07641959190368652,0.024428486824035645
1772725840082729000,9.50572900390625,0.01734638214111328,0.09234762191772461,0.019064724445343018
1772725840092246300,9.515246337890625,-0.041217803955078125,0.09435796737670898,-0.03481975197792053
1772725840101763800,9.524763916015624,-0.009558677673339844,-0.07038211822509766,0.15594029426574707
1772725840111281200,9.53428125,0.028471946716308594,0.2055654525756836,-0.2768371105194092
1772725840120798500,9.543798583984374,0.018731117248535156,-0.21235322952270508,0.2851223349571228
1772725840130315500,9.5533154296875,0.16705608367919922,0.22063159942626953,-0.36454927921295166
1772725840139832800,9.562832763671874,0.13690757751464844,-0.21591687202453613,0.2649121880531311
1772725840149350100,9.57235009765625,0.2041759490966797,0.26901865005493164,-0.455091655254364
1772725840158867500,9.581867431640624,-0.02847766876220703,-0.2988016605377197,0.4029935896396637
1772725840168384800,9.591384765625,0.02511310577392578,0.255765438079834,-0.3365814685821533
1772725840177902000,9.600902099609375,-0.13619422912597656,-0.32375240325927734,0.5054186582565308
1772725840187419400,9.61041943359375,-0.04062461853027344,0.3063077926635742,-0.4039686322212219
1772725840196936700,9.619936767578125,-0.2810220718383789,-0.3016238212585449,0.49179667234420776
1772725840206454000,9.6294541015625,-0.15087223052978516,0.3371138572692871,-0.42996591329574585
1772725840215971300,9.638971435546875,-0.34587955474853516,-0.32030177116394043,0.5461048483848572
1772725840225488600,9.648488525390626,-0.13344955444335938,0.3520321846008301,-0.4464336633682251
1772725840235006000,9.658005859375,-0.20489120483398438,-0.3037867546081543,0.49611926078796387
1772725840244523300,9.667523193359376,0.05410289764404297,0.4163401126861572,-0.5221246480941772
1772725840254040300,9.677040283203125,-0.09125804901123047,-0.2989931106567383,0.4810131788253784
1772725840263557600,9.6865576171875,0.10698413848876953,0.329303503036499,-0.4839574992656708
1772725840273075200,9.6960751953125,-0.06981468200683594,-0.37057042121887207,0.5180059671401978
1772725840282592500,9.705592529296876,0.15422344207763672,0.3359792232513428,-0.43005460500717163
1772725840292109800,9.71510986328125,0.014966964721679688,-0.34906744956970215,0.5399357080459595
1772725840301627000,9.724626953125,0.23857498168945312,0.338395357131958,-0.3688773512840271
1772725840311144200,9.734144287109375,0.0023298263549804688,-0.32985424995422363,0.5720970630645752
1772725840320661500,9.74366162109375,0.13016128540039062,0.3115575313568115,-0.32318297028541565
1772725840330178800,9.7531787109375,-0.09718132019042969,-0.27398014068603516,0.4757985472679138
1772725840339696000,9.762696044921874,0.0673513412475586,0.33409905433654785,-0.4049086272716522
1772725840349213400,9.77221337890625,-0.147491455078125,-0.2416994571685791,0.37573719024658203
1772725840358730800,9.781730712890624,-0.013257026672363281,0.2777135372161865,-0.38638079166412354
1772725840368247800,9.791247802734375,-0.2558879852294922,-0.23387598991394043,0.3363347351551056
1772725840377765400,9.800765380859374,-0.09251117706298828,0.28517794609069824,-0.38364994525909424
1772725840387282700,9.81028271484375,-0.1460399627685547,-0.1925215721130371,0.2562849819660187
1772725840396800000,9.819800048828125,0.03475475311279297,0.10135054588317871,-0.11543059349060059
1772725840406317300,9.8293173828125,-0.058037757873535156,-0.030791282653808594,0.03796049952507019
1772725840415834400,9.83883447265625,-0.11435699462890625,-0.05393099784851074,0.04566437005996704
1772725840425352000,9.84835205078125,-0.07810688018798828,-0.03166699409484863,0.05058017373085022
1772725840434869200,9.857869140625,-0.035366058349609375,-0.00987863540649414,0.03156891465187073
1772725840444386600,9.867386474609376,0.004199028015136719,0.06122875213623047,0.015230059623718262
1772725840453904000,9.87690380859375,-0.02775287628173828,0.07768368721008301,0.05081968009471893
1772725840463421200,9.886421142578126,-0.028837203979492188,0.047345876693725586,0.00710219144821167
1772725840472938200,9.895938232421875,0.028963088989257812,0.0031850337982177734,-0.04208594560623169
1772725840482455600,9.90545556640625,0.0717763900756836,-0.0005571842193603516,-0.07999494671821594
1772725840491972900,9.914972900390625,0.12345600128173828,-0.00006747245788574219,-0.05306622385978699
1772725840501490200,9.924490234375,0.21712303161621094,0.029709577560424805,-0.06074818968772888
