time,seconds_elapsed,z,y,x
1772729611661363500,0.092363525390625,0.3707949221134186,0.046425722539424896,-0.13622283935546875
1772729611680399600,0.111399658203125,0.37812530994415283,0.0360410213470459,-0.1893680840730667
1772729611689917700,0.120917724609375,0.3707949221134186,0.0513126403093338,-0.1948658674955368
1772729611699435800,0.130435791015625,0.3536907136440277,0.06230820715427399,-0.19364413619041443
1772729611708954000,0.1399541015625,0.3292561173439026,0.05497783049941063,-0.19303326308727264
1772729611718472200,0.14947216796875,0.31520622968673706,0.030543239787220955,-0.19120067358016968
1772729611727990300,0.158990234375,0.3133736252784729,-0.002443459117785096,-0.19181154668331146
1772729611737508400,0.16850830078125,0.3127627670764923,-0.049480047076940536,-0.1899789422750473
1772729611747026400,0.1780263671875,0.3042106628417969,-0.09834922850131989,-0.18814635276794434
1772729611756544800,0.187544677734375,0.2987128794193268,-0.11239911615848541,-0.18203771114349365
1772729611766062800,0.197062744140625,0.2919933497905731,-0.0977383628487587,-0.17226386070251465
1772729611775581000,0.206580810546875,0.2834412455558777,-0.07941242307424545,-0.15515965223312378
1772729611785099000,0.21609912109375,0.27366742491722107,-0.05436696484684944,-0.13255766034126282
1772729611794617300,0.225617431640625,0.2724456787109375,-0.028099779039621353,-0.10934479534626007
1772729611804135400,0.235135498046875,0.2718348205089569,-0.014660755172371864,-0.0922405794262886
1772729611813653500,0.244653564453125,0.268169641494751,-0.03298669680953026,-0.08429934084415436
1772729611823171600,0.254171630859375,0.2571740746498108,-0.09162971377372742,-0.0873536616563797
1772729611832689700,0.263689697265625,0.24006985127925873,-0.185092031955719,-0.09896009415388107
1772729611842207700,0.273207763671875,0.22296564280986786,-0.2779434621334076,-0.12095122784376144
1772729611851726000,0.28272607421875,0.20463970303535461,-0.3341430425643921,-0.14172062277793884
1772729611861244200,0.292244140625,0.17776164412498474,-0.3433060050010681,-0.16004657745361328
1772729611870762200,0.30176220703125,0.13988803327083588,-0.32009315490722656,-0.1747073233127594
1772729611880280600,0.311280517578125,0.10629047453403473,-0.26878049969673157,-0.18753549456596375
1772729611889798700,0.320798583984375,0.09407317638397217,-0.20219624042510986,-0.1844811588525772
1772729611899316700,0.330316650390625,0.10201441496610641,-0.1282816082239151,-0.16004657745361328
1772729611908834800,0.339834716796875,0.10995566099882126,-0.06963858753442764,-0.11728604137897491
1772729611918353000,0.349352783203125,0.1130099818110466,-0.047036588191986084,-0.06291907280683517
1772729611927871000,0.35887109375,0.1178968995809555,-0.059864748269319534,0
1772729611937389300,0.368389404296875,0.1233946830034256,-0.08674279600381851,0.06291907280683517
1772729611946907400,0.377907470703125,0.12705987691879272,-0.1026252806186676,0.1185077652335167
1772729611956425500,0.387425537109375,0.1282816082239151,-0.1081230640411377,0.1588248461484909
1772729611965943600,0.396943603515625,0.11362084746360779,-0.11911863088607788,0.19120067358016968
1772729611975461600,0.406461669921875,0.09529490768909454,-0.11117739230394363,0.21685700118541718
1772729611984979700,0.415979736328125,0.09040798991918564,-0.0769689604640007,0.23457208275794983
1772729611994498000,0.425498046875,0.09285144507884979,-0.03481929376721382,0.2406807243824005
1772729612004016000,0.43501611328125,0.0873536616563797,0.000610864779446274,0.24312418699264526
1772729612013534200,0.4445341796875,0.07819069176912308,0.013439024798572063,0.23945899307727814
1772729612023052300,0.45405224609375,0.06597339361906052,0.04459312930703163,0.23457208275794983
1772729612032570600,0.463570556640625,0.046425722539424896,0.09346231073141098,0.22479823231697083
1772729612042088700,0.473088623046875,0.021380268037319183,0.14599667489528656,0.20647229254245758
1772729612051606800,0.482606689453125,-0.006719512399286032,0.1905898153781891,0.18692462146282196
1772729612061124900,0.492124755859375,-0.03848448023200035,0.21380266547203064,0.17104214429855347
1772729612070643000,0.501642822265625,-0.07147117704153061,0.24312418699264526,0.16126830875873566
1772729612080161300,0.511161376953125,-0.10384701192378998,0.3017672002315521,0.1533270627260208
1772729612089679400,0.520679443359375,-0.13683371245861053,0.35735589265823364,0.14538581669330597
1772729612099197400,0.530197509765625,-0.1490510106086731,0.4068359434604645,0.1331685185432434
1772729612108715500,0.539715576171875,-0.1288924664258957,0.42394015192985535,0.13072505593299866
1772729612118233600,0.549233642578125,-0.08796452730894089,0.3854556679725647,0.13744457066059113
1772729612127752000,0.558751953125,-0.04886918142437935,0.30970844626426697,0.13927717506885529
1772729612137270000,0.56827001953125,-0.011606430634856224,0.20891575515270233,0.13072505593299866
1772729612146788000,0.5777880859375,0.033597562462091446,0.1026252806186676,0.11117739230394363
1772729612156306200,0.58730615234375,0.09590577334165573,0.018325943499803543,0.08307760953903198
1772729612165824300,0.59682421875,0.16615521907806396,0.006719512399286032,0.0513126403093338
1772729612175342300,0.60634228515625,0.22785256803035736,0.06841685622930527,0.015271619893610477
1772729612184860700,0.615860595703125,0.2718348205089569,0.14538581669330597,-0.03298669680953026
1772729612194378800,0.625378662109375,0.287106454372406,0.1649334877729416,-0.09407317638397217
1772729612203896800,0.634896728515625,0.2779434621334076,0.18142683804035187,-0.16249002516269684
1772729612213415200,0.644415283203125,0.24434591829776764,0.1698204129934311,-0.22418737411499023
1772729612222933200,0.653933349609375,0.18325942754745483,-0.08429934084415436,-0.26450446248054504
1772729612232451300,0.663451416015625,0.11056652665138245,-0.35124725103378296,-0.277332603931427
1772729612241969400,0.672969482421875,0.04153880476951599,-0.5436696410179138,-0.26389357447624207
1772729612251487500,0.682487548828125,-0.01282816007733345,-0.6414080262184143,-0.24434591829776764
1772729612261005600,0.692005615234375,-0.03481929376721382,-0.6719512343406677,-0.2260199636220932
1772729612270524000,0.70152392578125,-0.033597562462091446,-0.6291907429695129,-0.21746785938739777
1772729612280042000,0.7110419921875,-0.029932374134659767,-0.5369501113891602,-0.21991132199764252
1772729612289560000,0.72056005859375,-0.040317077189683914,-0.4862483739852905,-0.23823726177215576
1772729612299078100,0.730078125,-0.056810423731803894,-0.4874700903892517,-0.2632827162742615
1772729612308596200,0.73959619140625,-0.06719512492418289,-0.46608981490135193,-0.27427828311920166
1772729612318114300,0.7491142578125,-0.07086031138896942,-0.4630354940891266,-0.2657261788845062
1772729612327632600,0.758632568359375,-0.07513637095689774,-0.430659681558609,-0.23884813487529755
1772729612337150700,0.768150634765625,-0.08124501258134842,-0.32620179653167725,-0.1997527778148651
1772729612346668800,0.777668701171875,-0.09162971377372742,-0.21135921776294708,-0.1484401375055313
1772729612356187000,0.787186767578125,-0.09529490768909454,-0.10690133273601532,-0.09712749719619751
1772729612365705000,0.796705078125,-0.08307760953903198,-0.021991131827235222,-0.04825831577181816
1772729612375223300,0.806223388671875,-0.053756099194288254,0.02260199747979641,-0.007330377586185932
1772729612384741400,0.815741455078125,-0.009162971749901772,0.01649334840476513,0.023823726922273636
1772729612394259500,0.825259521484375,0.046425722539424896,0.0030543238390237093,0.046425722539424896
1772729612403777500,0.834777587890625,0.10018182545900345,0.01649334840476513,0.06597339361906052
1772729612413295900,0.8442958984375,0.14049890637397766,0.050090912729501724,0.0818558782339096
1772729612422814000,0.85381396484375,0.16187916696071625,0.09346231073141098,0.09651663154363632
1772729612432332000,0.86333203125,0.17531819641590118,0.1386663019657135,0.11362084746360779
1772729612441850000,0.87285009765625,0.1844811588525772,0.16004657745361328,0.1337793916463852
1772729612451368200,0.8823681640625,0.18753549456596375,0.1649334877729416,0.15577052533626556
1772729612460886300,0.89188623046875,0.1795942485332489,0.1747073233127594,0.17653992772102356
1772729612470404600,0.901404541015625,0.164322629570961,0.1740964651107788,0.18753549456596375
1772729612479922700,0.910922607421875,0.1496618688106537,0.13988803327083588,0.18325942754745483
1772729612489440800,0.920440673828125,0.143553227186203,0.08063415437936783,0.15699224174022675
1772729612498958800,0.929958740234375,0.15027274191379547,0.014049889519810677,0.1130099818110466
1772729612508477000,0.939476806640625,0.17043127119541168,-0.05070177838206291,0.0616973415017128
1772729612517995300,0.948995361328125,0.19730933010578156,-0.09590577334165573,0.011606430634856224
1772729612527513300,0.958513427734375,0.22174391150474548,-0.10995566099882126,-0.0256563201546669
1772729612537031400,0.968031494140625,0.24495677649974823,-0.11056652665138245,-0.050090912729501724
1772729612546549500,0.977549560546875,0.2706131041049957,-0.08857539296150208,-0.05497783049941063
1772729612556067600,0.987067626953125,0.2968802750110626,-0.03298669680953026,-0.034208428114652634
1772729612565585700,0.996585693359375,0.3182605504989624,0.04153880476951599,0.009773836471140385
1772729612575104000,1.00610400390625,0.3292561173439026,0.12156209349632263,0.07147117704153061
1772729612584622000,1.0156220703125,0.33658650517463684,0.2260199636220932,0.143553227186203
1772729612594140200,1.02514013671875,0.347582072019577,0.35185810923576355,0.21991132199764252
1772729612603658200,1.034658203125,0.360410213470459,0.45509424805641174,0.28527384996414185
1772729612613176300,1.04417626953125,0.37201663851737976,0.48502662777900696,0.3329212963581085
1772729612622694400,1.0536943359375,0.38301220536231995,0.4477638900279999,0.3585776388645172
1772729612632212700,1.063212646484375,0.3909534513950348,0.360410213470459,0.3597993552684784
1772729612641730800,1.072730712890625,0.38301220536231995,0.2254091054201126,0.33108872175216675
1772729612651249000,1.082248779296875,0.3500255048274994,0.04825831577181816,0.26878049969673157
1772729612660767000,1.09176708984375,0.2974911332130432,-0.1649334877729416,0.17776164412498474
1772729612670285000,1.10128515625,0.235793799161911,-0.3597993552684784,0.06963858753442764
1772729612679803400,1.110803466796875,0.1795942485332489,-0.4453204274177551,-0.039706211537122726
1772729612689321500,1.120321533203125,0.13255766034126282,-0.3958403766155243,-0.12767073512077332
1772729612698839600,1.129839599609375,0.12522727251052856,-0.20830489695072174,-0.15760311484336853
1772729612708357600,1.139357666015625,0.17531819641590118,0.11239911615848541,-0.1233946830034256
1772729612717876000,1.1488759765625,0.25900667905807495,0.5057960152626038,-0.03543015569448471
1772729612727394000,1.15839404296875,0.3543015718460083,0.8717040419578552,0.08063415437936783
1772729612736912100,1.167912109375,0.4465421438217163,1.1398736238479614,0.20158538222312927
1772729612746430200,1.17743017578125,0.5375609993934631,1.275485634803772,0.3139844834804535
1772729612755948300,1.1869482421875,0.6255255341529846,1.286481261253357,0.40866854786872864
1772729612765466600,1.196466552734375,0.6945532560348511,1.191797137260437,0.472198486328125
1772729612774984700,1.205984619140625,0.7409789562225342,1.01708984375,0.4972439408302307
1772729612784502800,1.215502685546875,0.7531962990760803,0.8008437156677246,0.4838049113750458
1772729612794020900,1.225020751953125,0.7373138070106506,0.5925388336181641,0.4324922561645508
1772729612803539000,1.2345390625,0.7122683525085449,0.3860665261745453,0.35124725103378296
1772729612813057000,1.24405712890625,0.6847794055938721,0.19669845700263977,0.24312418699264526
1772729612822575400,1.253575439453125,0.656679630279541,0.0616973415017128,0.11239911615848541
1772729612832093400,1.263093505859375,0.6310232877731323,-0.018325943499803543,-0.03298669680953026
1772729612841611500,1.272611572265625,0.6053670048713684,-0.05925388261675835,-0.17592905461788177
1772729612851129600,1.282129638671875,0.5797106623649597,-0.07330377399921417,-0.3023780584335327
1772729612860647700,1.291647705078125,0.5607738494873047,-0.06963858753442764,-0.4050033390522003
1772729612870165800,1.301165771484375,0.5479456782341003,-0.02260199747979641,-0.4728093445301056
1772729612879684000,1.31068408203125,0.5442805290222168,0.05558869615197182,-0.4978547990322113
1772729612889202200,1.3202021484375,0.5534434914588928,0.15027274191379547,-0.4789179861545563
1772729612898720300,1.32972021484375,0.5723803043365479,0.268169641494751,-0.4196641147136688
1772729612908238300,1.33923828125,0.5980366468429565,0.40317076444625854,-0.33231043815612793
1772729612917756400,1.34875634765625,0.6230821013450623,0.5271763205528259,-0.23029601573944092
1772729612927274800,1.358274658203125,0.647516667842865,0.6304124593734741,-0.1288924664258957
1772729612936792800,1.367792724609375,0.6676751971244812,0.6921098232269287,-0.03848448023200035
1772729612946311000,1.377310791015625,0.676227331161499,0.6945532560348511,0.02932151034474373
1772729612955829000,1.3868291015625,0.675616443157196,0.6615665555000305,0.07024945318698883
1772729612965347000,1.39634716796875,0.6609556674957275,0.6053670048713684,0.07941242307424545
1772729612974865200,1.405865234375,0.6322450637817383,0.5216785073280334,0.0513126403093338
1772729612984383500,1.415383544921875,0.6010909676551819,0.43493571877479553,-0.002443459117785096
1772729612993901600,1.424901611328125,0.5827649831771851,0.37751442193984985,-0.07147117704153061
1772729613003419600,1.434419677734375,0.5699368119239807,0.347582072019577,-0.15149445831775665
1772729613012937700,1.443937744140625,0.5540543794631958,0.30970844626426697,-0.24434591829776764
1772729613022455800,1.453455810546875,0.5369501113891602,0.2406807243824005,-0.33658650517463684
1772729613031974000,1.462973876953125,0.5345066785812378,0.18631376326084137,-0.4105011224746704
1772729613041492200,1.4724921875,0.5436696410179138,0.19242240488529205,-0.45387253165245056
1772729613051010300,1.48201025390625,0.545502245426178,0.2260199636220932,-0.47036588191986084
1772729613060528400,1.4915283203125,0.5296197533607483,0.23945899307727814,-0.4673115611076355
1772729613070046500,1.50104638671875,0.5106829404830933,0.2260199636220932,-0.45326167345046997
1772729613079564500,1.510564453125,0.4972439408302307,0.18631376326084137,-0.4263836145401001
1772729613089083000,1.520082763671875,0.49052441120147705,0.14049890637397766,-0.3897317349910736
1772729613098601000,1.52960107421875,0.47952884435653687,0.1081230640411377,-0.3451386094093323
1772729613108119000,1.539119140625,0.462424635887146,0.07880155742168427,-0.30054548382759094
1772729613117637000,1.54863720703125,0.44470956921577454,0.021380268037319183,-0.25961753726005554
1772729613127155200,1.5581552734375,0.4355465769767761,-0.07757982611656189,-0.2254091054201126
1772729613136673300,1.56767333984375,0.43310311436653137,-0.1802051067352295,-0.19608759880065918
1772729613146191600,1.577191650390625,0.43432486057281494,-0.2565632164478302,-0.1747073233127594
1772729613155709700,1.586709716796875,0.43310311436653137,-0.3225366175174713,-0.16004657745361328
1772729613165227800,1.596227783203125,0.4251618981361389,-0.38179048895835876,-0.14782927930355072
1772729613174745900,1.605745849609375,0.4111120104789734,-0.41844236850738525,-0.12767073512077332
1772729613184265500,1.615265380859375,0.3958403766155243,-0.411722868680954,-0.09346231073141098
1772729613193782000,1.624781982421875,0.37140578031539917,-0.3805687427520752,-0.04581485688686371
1772729613203300400,1.63430029296875,0.3341430425643921,-0.33658650517463684,0.007330377586185932
1772729613212818400,1.643818359375,0.29443681240081787,-0.2577849328517914,0.06475166976451874
1772729613222336500,1.65333642578125,0.2608392536640167,-0.13561198115348816,0.12278381735086441
1772729613231854600,1.6628544921875,0.22724169492721558,-0.000610864779446274,0.17348559200763702
1772729613241372700,1.67237255859375,0.18203771114349365,0.08796452730894089,0.20830489695072174
1772729613250890800,1.681890869140625,0.12278381735086441,0.0977383628487587,0.21807873249053955
1772729613260409000,1.6914091796875,0.0616973415017128,0.05436696484684944,0.20158538222312927
1772729613269927200,1.70092724609375,0.009162971749901772,0.004886918235570192,0.16249002516269684
1772729613279445200,1.7104453125,-0.03543015569448471,-0.021380268037319183,0.10323614627122879
1772729613288963300,1.71996337890625,-0.07819069176912308,-0.05070177838206291,0.03237583488225937
1772729613298481400,1.7294814453125,-0.1233946830034256,-0.1026252806186676,-0.04581485688686371
1772729613307999700,1.738999755859375,-0.16126830875873566,-0.14721840620040894,-0.11484257876873016
1772729613317517800,1.748517822265625,-0.18753549456596375,-0.1747073233127594,-0.17165300250053406
1772729613327036000,1.758035888671875,-0.20158538222312927,-0.17592905461788177,-0.20402882993221283
1772729613336554000,1.767553955078125,-0.2052505612373352,-0.15760311484336853,-0.2101374864578247
1772729613346072000,1.777072021484375,-0.20280711352825165,-0.12644900381565094,-0.1905898153781891
1772729613355590100,1.786590087890625,-0.1948658674955368,-0.08429934084415436,-0.14110976457595825
1772729613365108500,1.7961083984375,-0.17592905461788177,-0.025045456364750862,-0.05742128938436508
1772729613374626600,1.80562646484375,-0.1441640853881836,0.06414080411195755,0.06352993845939636
1772729613384144600,1.81514453125,-0.10384701192378998,0.18081597983837128,0.2101374864578247
1772729613393662700,1.824662841796875,-0.06475166976451874,0.28527384996414185,0.36163195967674255
1772729613403180800,1.834180908203125,-0.036651886999607086,0.34208428859710693,0.5015199780464172
1772729613412699000,1.843698974609375,-0.017104214057326317,0.34086254239082336,0.6249146461486816
1772729613422217200,1.85321728515625,-0.0054977829568088055,0.2987128794193268,0.7250964641571045
1772729613431735300,1.8627353515625,-0.008552107028663158,0.23396120965480804,0.7959567904472351
1772729613441253400,1.87225341796875,-0.026878049597144127,0.16187916696071625,0.8289434909820557
1772729613450771500,1.881771484375,-0.06963858753442764,0.08918625861406326,0.8203914165496826
1772729613460289500,1.89128955078125,-0.13011419773101807,0.013439024798572063,0.7660244107246399
1772729613469807900,1.900807861328125,-0.20158538222312927,-0.06780599057674408,0.6676751971244812
1772729613479326000,1.910325927734375,-0.27855435013771057,-0.14721840620040894,0.5308414697647095
1772729613488844000,1.919843994140625,-0.35674503445625305,-0.23518294095993042,0.36224281787872314
1772729613498362000,1.929362060546875,-0.4312705397605896,-0.3243691921234131,0.1802051067352295
1772729613507880200,1.938880126953125,-0.4935787320137024,-0.3909534513950348,0.002443459117785096
1772729613517398300,1.948398193359375,-0.5381718873977661,-0.42088583111763,-0.1539379209280014
1772729613526916600,1.95791650390625,-0.5619956254959106,-0.41355544328689575,-0.2712239623069763
1772729613536434700,1.9674345703125,-0.5613847374916077,-0.35613417625427246,-0.3329212963581085
1772729613545952800,1.976952880859375,-0.5247328281402588,-0.24006985127925873,-0.328645259141922
1772729613555470800,1.986470947265625,-0.47097674012184143,-0.11911863088607788,-0.26022839546203613
1772729613564989000,1.995989013671875,-0.41233372688293457,-0.021991131827235222,-0.14233149588108063
1772729613574507000,2.005507080078125,-0.35735589265823364,0.03543015569448471,0.008552107028663158
1772729613584025300,2.015025390625,-0.3084867000579834,0.047036588191986084,0.1649334877729416
1772729613593543400,2.02454345703125,-0.27427828311920166,0.014049889519810677,0.3035998046398163
1772729613603061500,2.0340615234375,-0.2571740746498108,-0.04214967042207718,0.411722868680954
1772729613612579600,2.04357958984375,-0.2522871494293213,-0.09712749719619751,0.48013970255851746
1772729613622097700,2.05309765625,-0.2614501118659973,-0.15210533142089844,0.5039634704589844
1772729613631616000,2.062615966796875,-0.28038692474365234,-0.205861434340477,0.47952884435653687
1772729613641134000,2.072134033203125,-0.30970844626426697,-0.2559523284435272,0.4153880476951599
1772729613650652200,2.081652099609375,-0.3396408259868622,-0.29993459582328796,0.3176496922969818
1772729613660170200,2.091170166015625,-0.36224281787872314,-0.3335321843624115,0.2009745091199875
1772729613669688300,2.100688232421875,-0.37201663851737976,-0.33536475896835327,0.08063415437936783
1772729613679206400,2.110206298828125,-0.3744601011276245,-0.32131487131118774,-0.03176496922969818
1772729613688724700,2.119724853515625,-0.3738492429256439,-0.30543237924575806,-0.12705987691879272
1772729613698242800,2.129242919921875,-0.36651885509490967,-0.2987128794193268,-0.19242240488529205
1772729613707761000,2.138760986328125,-0.3530798554420471,-0.31581708788871765,-0.22357651591300964
1772729613717279000,2.148279052734375,-0.33536475896835327,-0.3396408259868622,-0.22174391150474548
1772729613726797000,2.157797119140625,-0.3182605504989624,-0.3384190797805786,-0.19120067358016968
1772729613736315100,2.167315185546875,-0.30054548382759094,-0.3078758418560028,-0.14049890637397766
1772729613745833500,2.17683349609375,-0.2809978127479553,-0.2571740746498108,-0.07635809481143951
1772729613755351600,2.1863515625,-0.2614501118659973,-0.17531819641590118,-0.003665188793092966
1772729613764869600,2.19586962890625,-0.24373504519462585,-0.0818558782339096,0.06780599057674408
1772729613774387700,2.2053876953125,-0.22663083672523499,0.000610864779446274,0.13133592903614044
1772729613783905800,2.21490576171875,-0.205861434340477,0.04520399495959282,0.1802051067352295
1772729613793424100,2.224424072265625,-0.1747073233127594,0.037262752652168274,0.21441353857517242
1772729613802942200,2.233942138671875,-0.13011419773101807,0.011606430634856224,0.2364046722650528
1772729613812460300,2.243460205078125,-0.07819069176912308,-0.0030543238390237093,0.24740023910999298
1772729613821978400,2.252978271484375,-0.03176496922969818,-0.013439024798572063,0.24862197041511536
1772729613831496400,2.262496337890625,0.006108647678047419,-0.02932151034474373,0.24434591829776764
1772729613841014500,2.2720146484375,0.034208428114652634,-0.04825831577181816,0.24006985127925873
1772729613850532900,2.281532958984375,0.05497783049941063,-0.06963858753442764,0.2370155304670334
1772729613860051000,2.291051025390625,0.0720820426940918,-0.0818558782339096,0.24312418699264526
1772729613869569000,2.300569091796875,0.09651663154363632,-0.05558869615197182,0.2626718580722809
1772729613879087000,2.310087158203125,0.12400554865598679,0.008552107028663158,0.29626941680908203
1772729613888605200,2.319605224609375,0.1533270627260208,0.0977383628487587,0.34636032581329346
1772729613898123300,2.329123291015625,0.18264856934547424,0.2052505612373352,0.41294458508491516
1772729613907641300,2.338641357421875,0.2107483446598053,0.3066541254520416,0.49418962001800537
1772729613917159400,2.348159423828125,0.23396120965480804,0.3915643095970154,0.5766563415527344
1772729613926678500,2.357678466796875,0.258395791053772,0.4667007029056549,0.6487383842468262
1772729613936195800,2.36719580078125,0.2889390289783478,0.544891357421875,0.7006618976593018
1772729613945714000,2.3767138671875,0.32192572951316833,0.5778780579566956,0.7202095985412598
1772729613955232000,2.38623193359375,0.34697118401527405,0.5387827157974243,0.6994401812553406
1772729613964750000,2.39575,0.3549124300479889,0.4416552484035492,0.6291907429695129
1772729613974268200,2.40526806640625,0.3426951467990875,0.2632827162742615,0.5155698657035828
1772729613983786500,2.414786376953125,0.3078758418560028,0.026878049597144127,0.37201663851737976
1772729613993304600,2.4243046875,0.25350889563560486,-0.18753549456596375,0.21197007596492767
1772729614002822700,2.43382275390625,0.185092031955719,-0.3170388340950012,0.05497783049941063
1772729614012340700,2.4433408203125,0.12278381735086441,-0.32559093832969666,-0.07513637095689774
1772729614021858800,2.45285888671875,0.08674279600381851,-0.20708316564559937,-0.14660754799842834
1772729614031377000,2.462376953125,0.08491020649671555,0.04459312930703163,-0.14233149588108063
1772729614040895200,2.471895263671875,0.1130099818110466,0.35185810923576355,-0.07147117704153061
1772729614050413300,2.481413330078125,0.16126830875873566,0.6621774435043335,0.04459312930703163
1772729614059931400,2.490931396484375,0.22907429933547974,0.9657772183418274,0.18692462146282196
1772729614069449500,2.500449462890625,0.3127627670764923,1.1838558912277222,0.33597561717033386
1772729614078967600,2.509967529296875,0.40255987644195557,1.2510510683059692,0.472198486328125
1772729614088486000,2.51948583984375,0.48930269479751587,1.2021819353103638,0.5778780579566956
1772729614098004000,2.52900390625,0.5601630210876465,1.1001675128936768,0.6395754218101501
1772729614107522000,2.53852197265625,0.6053670048713684,0.9779945015907288,0.6401863098144531
1772729614117040000,2.5480400390625,0.6328558921813965,0.813060998916626,0.5876519083976746
1772729614126558200,2.55755810546875,0.648127555847168,0.6114756464958191,0.4874700903892517
1772729614136076300,2.567076171875,0.637742817401886,0.3854556679725647,0.3494146466255188
1772729614145594600,2.5765947265625,0.6053670048713684,0.15271618962287903,0.1905898153781891
1772729614155112700,2.58611279296875,0.5473348498344421,-0.043371398001909256,0.017715077847242355
1772729614164630800,2.595630859375,0.46547895669937134,-0.19242240488529205,-0.1588248461484909
1772729614174148900,2.60514892578125,0.37812530994415283,-0.3127627670764923,-0.3298669755458832
1772729614183667000,2.6146669921875,0.3029889166355133,-0.39889469742774963,-0.4776962697505951
1772729614193185000,2.62418505859375,0.2528980076313019,-0.4355465769767761,-0.5907062292098999
1772729614202703000,2.633703125,0.22235478460788727,-0.41844236850738525,-0.656679630279541
1772729614212221200,2.64322119140625,0.2156352698802948,-0.36163195967674255,-0.66645348072052
1772729614221739500,2.652739501953125,0.2412915825843811,-0.22846342623233795,-0.6151408553123474
1772729614231257600,2.662257568359375,0.29504770040512085,-0.02871064469218254,-0.5143481492996216
1772729614240775700,2.671775634765625,0.3543015718460083,0.20219624042510986,-0.3848448097705841
1772729614250293800,2.681293701171875,0.4068359434604645,0.41294458508491516,-0.24495677649974823
1772729614259811800,2.690811767578125,0.4508182108402252,0.5699368119239807,-0.10751219838857651
1772729614269330000,2.700329833984375,0.4831940531730652,0.6737838387489319,0.013439024798572063
1772729614278848300,2.70984814453125,0.49418962001800537,0.7232639193534851,0.10018182545900345
1772729614288366300,2.719366455078125,0.4886918365955353,0.7165443897247314,0.14782927930355072
1772729614297884400,2.728884521484375,0.46914416551589966,0.6652317643165588,0.1594357043504715
1772729614307402500,2.738402587890625,0.43982264399528503,0.5974257588386536,0.13500112295150757
1772729614316920600,2.747920654296875,0.4007273018360138,0.5137372612953186,0.08063415437936783
1772729614326439000,2.75743896484375,0.3530798554420471,0.41294458508491516,0.001221729558892548
1772729614335957000,2.76695703125,0.3042106628417969,0.3231474757194519,-0.09468404203653336
1772729614345475000,2.77647509765625,0.2565632164478302,0.25961753726005554,-0.2003636509180069
1772729614354993200,2.7859931640625,0.21746785938739777,0.21319180727005005,-0.3066541254520416
1772729614364511200,2.79551123046875,0.1948658674955368,0.16737695038318634,-0.39889469742774963
1772729614374029300,2.805029296875,0.18753549456596375,0.11667517572641373,-0.4685332775115967
1772729614383547600,2.814547607421875,0.185092031955719,0.06719512492418289,-0.5112938284873962
1772729614393065700,2.824065673828125,0.18081597983837128,0.043371398001909256,-0.5314523577690125
1772729614402583800,2.833583740234375,0.1740964651107788,0.043982263654470444,-0.5314523577690125
1772729614412102000,2.843101806640625,0.1649334877729416,0.039706211537122726,-0.5149590373039246
1772729614421620000,2.852619873046875,0.15760311484336853,0.009773836471140385,-0.48013970255851746
1772729614431138000,2.862137939453125,0.1533270627260208,-0.02626718580722809,-0.430659681558609
1772729614440656100,2.87165625,0.14049890637397766,-0.04764745384454727,-0.3744601011276245
1772729614450174200,2.88117431640625,0.11545344442129135,-0.05253437161445618,-0.3231474757194519
1772729614459692500,2.890692626953125,0.08674279600381851,-0.07391463965177536,-0.2828303873538971
1772729614469210600,2.900210693359375,0.0665842592716217,-0.12278381735086441,-0.2522871494293213
1772729614478728700,2.909728759765625,0.05558869615197182,-0.15821397304534912,-0.23212862014770508
1772729614488246800,2.919246826171875,0.04764745384454727,-0.18203771114349365,-0.22418737411499023
1772729614497764900,2.928764892578125,0.034208428114652634,-0.22296564280986786,-0.22418737411499023
1772729614507283000,2.938282958984375,0.024434590712189674,-0.24251331388950348,-0.22785256803035736
1772729614516801300,2.94780126953125,0.01588248461484909,-0.22846342623233795,-0.23029601573944092
1772729614526319400,2.9573193359375,0.000610864779446274,-0.21380266547203064,-0.23396120965480804
1772729614535837400,2.96683740234375,-0.01588248461484909,-0.21868959069252014,-0.23457208275794983
1772729614545355500,2.97635546875,-0.02932151034474373,-0.22663083672523499,-0.2315177470445633
1772729614554873600,2.98587353515625,-0.033597562462091446,-0.22846342623233795,-0.22235478460788727
1772729614564392000,2.995391845703125,-0.03237583488225937,-0.23457208275794983,-0.2107483446598053
1772729614573909800,3.00490966796875,-0.024434590712189674,-0.25473061203956604,-0.19425499439239502
1772729614583427800,3.014427734375,-0.011606430634856224,-0.2968802750110626,-0.17226386070251465
1772729614592946200,3.0239462890625,0.001221729558892548,-0.33536475896835327,-0.14660754799842834
1772729614602464300,3.03346435546875,0.013439024798572063,-0.3543015718460083,-0.11484257876873016
1772729614611982300,3.042982421875,0.023823726922273636,-0.3787361681461334,-0.08124501258134842
1772729614621500400,3.05250048828125,0.02932151034474373,-0.41233372688293457,-0.0513126403093338
1772729614631018500,3.0620185546875,0.021991131827235222,-0.4673115611076355,-0.030543239787220955
1772729614640536800,3.071536865234375,0.000610864779446274,-0.5497782826423645,-0.0256563201546669
1772729614650055000,3.081054931640625,-0.03298669680953026,-0.6499601006507874,-0.04459312930703163
1772729614659573000,3.090572998046875,-0.07330377399921417,-0.7605266571044922,-0.0873536616563797
1772729614669091000,3.100091064453125,-0.1081230640411377,-0.8674280047416687,-0.1484401375055313
1772729614678609200,3.109609130859375,-0.14110976457595825,-0.9786053895950317,-0.21991132199764252
1772729614688127200,3.119127197265625,-0.18325942754745483,-1.081230640411377,-0.2919933497905731
1772729614697645600,3.1286455078125,-0.23518294095993042,-1.1160500049591064,-0.3439168632030487
1772729614707163600,3.13816357421875,-0.2864955961704254,-1.0500766038894653,-0.3646862804889679
1772729614716681700,3.147681640625,-0.3298669755458832,-0.8955277800559998,-0.3500255048274994
1772729614726199800,3.15719970703125,-0.3634645342826843,-0.6487383842468262,-0.2932150959968567
1772729614735718000,3.1667177734375,-0.3805687427520752,-0.35063639283180237,-0.18631376326084137
1772729614745236000,3.176236083984375,-0.3848448097705841,-0.06291907280683517,-0.02932151034474373
1772729614754754000,3.185754150390625,-0.3799578845500946,0.17348559200763702,0.1637117564678192
1772729614764272000,3.195272216796875,-0.37140578031539917,0.3176496922969818,0.36712974309921265
1772729614773790500,3.20479052734375,-0.3659079968929291,0.35674503445625305,0.5540543794631958
1772729614783308500,3.21430859375,-0.37140578031539917,0.3029889166355133,0.7000510096549988
1772729614792826600,3.22382666015625,-0.3805687427520752,0.18570289015769958,0.7965676784515381
1772729614802344700,3.2333447265625,-0.38850998878479004,0.06963858753442764,0.8356630206108093
1772729614811862800,3.24286279296875,-0.38850998878479004,-0.01954767294228077,0.8161153197288513
1772729614821380900,3.252380859375,-0.3848448097705841,-0.09712749719619751,0.7373138070106506
1772729614830899200,3.261899169921875,-0.38240134716033936,-0.1649334877729416,0.6078104376792908
1772729614840417300,3.271417236328125,-0.38850998878479004,-0.21135921776294708,0.44348782300949097
1772729614849935400,3.280935302734375,-0.4056142270565033,-0.2467893660068512,0.2571740746498108
1772729614859453400,3.290453369140625,-0.43432486057281494,-0.2663370370864868,0.06841685622930527
1772729614868971500,3.299971435546875,-0.4618137776851654,-0.2663370370864868,-0.10873392969369888
1772729614878489900,3.30948974609375,-0.47586366534233093,-0.2565632164478302,-0.2571740746498108
1772729614888007700,3.319007568359375,-0.4667007029056549,-0.25900667905807495,-0.36285367608070374
1772729614897525800,3.32852587890625,-0.43493571877479553,-0.24434591829776764,-0.41905322670936584
1772729614907044000,3.338044189453125,-0.38240134716033936,-0.1997527778148651,-0.4221075773239136
1772729614916562200,3.347562255859375,-0.32192572951316833,-0.1386663019657135,-0.3787361681461334
1772729614926080300,3.357080322265625,-0.26022839546203613,-0.07024945318698883,-0.2993237376213074
1772729614935598300,3.366598388671875,-0.19181154668331146,-0.007941242307424545,-0.1948658674955368
1772729614945116400,3.376116455078125,-0.11423171311616898,0.04276053607463837,-0.07147117704153061
1772729614954634800,3.385634765625,-0.03543015569448471,0.0720820426940918,0.05436696484684944
1772729614964152800,3.39515283203125,0.02932151034474373,0.07513637095689774,0.1649334877729416
1772729614973671000,3.4046708984375,0.08063415437936783,0.07941242307424545,0.2467893660068512
1772729614983189000,3.41418896484375,0.1178968995809555,0.07391463965177536,0.29077163338661194
1772729614992707000,3.42370703125,0.14049890637397766,0.06047561392188072,0.29504770040512085
1772729615002225200,3.43322509765625,0.15271618962287903,0.008552107028663158,0.2663370370864868
1772729615011743500,3.442743408203125,0.16249002516269684,-0.05497783049941063,0.21319180727005005
1772729615021261300,3.45226123046875,0.16676609218120575,-0.09529490768909454,0.14721840620040894
1772729615030779600,3.461779541015625,0.15821397304534912,-0.1288924664258957,0.07086031138896942
1772729615040297700,3.471297607421875,0.1386663019657135,-0.17715078592300415,-0.001832594396546483
1772729615049815800,3.48081591796875,0.11423171311616898,-0.2101374864578247,-0.06719512492418289
1772729615059334000,3.490333984375,0.08674279600381851,-0.21197007596492767,-0.1185077652335167
1772729615068852000,3.49985205078125,0.056810423731803894,-0.20402882993221283,-0.1539379209280014
1772729615078370000,3.5093701171875,0.023212861269712448,-0.1954767256975174,-0.1698204129934311
1772729615087888400,3.518888427734375,-0.011606430634856224,-0.19242240488529205,-0.16615521907806396
1772729615097406500,3.528406494140625,-0.037262752652168274,-0.1844811588525772,-0.143553227186203
1772729615106924500,3.537924560546875,-0.05070177838206291,-0.15577052533626556,-0.10567960888147354
1772729615116442600,3.547442626953125,-0.0513126403093338,-0.10995566099882126,-0.059864748269319534
1772729615125960700,3.556960693359375,-0.047036588191986084,-0.047036588191986084,-0.01282816007733345
1772729615135478800,3.566478759765625,-0.03848448023200035,0.007330377586185932,0.031154103577136993
1772729615144997000,3.5759970703125,-0.029932374134659767,0.04214967042207718,0.06780599057674408
1772729615154515000,3.585514892578125,-0.02260199747979641,0.07819069176912308,0.09407317638397217
1772729615164033300,3.595033203125,-0.017715077847242355,0.10690133273601532,0.10445787757635117
1772729615173551400,3.60455126953125,-0.01649334840476513,0.09101885557174683,0.09834922850131989
1772729615183069400,3.6140693359375,-0.01282816007733345,0.036651886999607086,0.08124501258134842
1772729615192587500,3.62358740234375,-0.004886918235570192,-0.02626718580722809,0.05253437161445618
1772729615202105600,3.633105712890625,0.014049889519810677,-0.09957095980644226,0.01893680728971958
1772729615211623700,3.642623779296875,0.039706211537122726,-0.16004657745361328,-0.013439024798572063
1772729615221142000,3.65214208984375,0.06780599057674408,-0.17653992772102356,-0.037262752652168274
1772729615230660000,3.66166015625,0.09162971377372742,-0.16004657745361328,-0.04825831577181816
1772729615240178200,3.67117822265625,0.10995566099882126,-0.12644900381565094,-0.0409279391169548
1772729615249696300,3.6806962890625,0.1331685185432434,-0.06230820715427399,-0.009162971749901772
1772729615259214300,3.69021435546875,0.1594357043504715,0.0256563201546669,0.04153880476951599
1772729615268732400,3.699732421875,0.185092031955719,0.10445787757635117,0.10751219838857651
1772729615278250500,3.70925048828125,0.21380266547203064,0.16798780858516693,0.18142683804035187
1772729615287768600,3.7187685546875,0.24556763470172882,0.21258094906806946,0.2608392536640167
1772729615297287000,3.728286865234375,0.2809978127479553,0.24251331388950348,0.34147340059280396
1772729615306805000,3.737804931640625,0.31520622968673706,0.2706131041049957,0.41844236850738525
1772729615316323000,3.747322998046875,0.3445277214050293,0.29077163338661194,0.48075059056282043
1772729615325841200,3.756841064453125,0.3695732057094574,0.2926042377948761,0.5216785073280334
1772729615335359200,3.766359130859375,0.3970620930194855,0.2718348205089569,0.5424479246139526
1772729615344877300,3.775877197265625,0.42394015192985535,0.23823726177215576,0.5442805290222168
1772729615354395600,3.785395751953125,0.4422661066055298,0.19608759880065918,0.5247328281402588
1772729615363913700,3.794913818359375,0.44409868121147156,0.1331685185432434,0.4880809485912323
1772729615373431800,3.804431884765625,0.4312705397605896,0.05864302068948746,0.4410443603992462
1772729615382950000,3.813949951171875,0.40378162264823914,-0.0256563201546669,0.38789913058280945
1772729615392468000,3.823468017578125,0.3640754222869873,-0.1081230640411377,0.33231043815612793
1772729615401986000,3.832986083984375,0.3176496922969818,-0.14477495849132538,0.2834412455558777
1772729615411504000,3.842504150390625,0.27855435013771057,-0.10934479534626007,0.2516762912273407
1772729615421022200,3.852022216796875,0.2510654330253601,-0.006719512399286032,0.24434591829776764
1772729615430540500,3.86154052734375,0.23762640357017517,0.16310089826583862,0.26878049969673157
1772729615440058600,3.87105859375,0.24556763470172882,0.39767298102378845,0.3182605504989624
1772729615449576700,3.88057666015625,0.27427828311920166,0.6554579138755798,0.379347026348114
1772729615459094800,3.8900947265625,0.31520622968673706,0.8906408548355103,0.4355465769767761
1772729615468612900,3.89961279296875,0.3646862804889679,1.0512982606887817,0.4734202027320862
1772729615478131000,3.909130859375,0.42088583111763,1.1142174005508423,0.48563748598098755
1772729615487649000,3.91864892578125,0.48441576957702637,1.0818414688110352,0.4734202027320862
1772729615497167000,3.9281669921875,0.5473348498344421,0.9822705388069153,0.4373791813850403
1772729615506685400,3.937685546875,0.5882627964019775,0.8283326625823975,0.37323838472366333
1772729615516203500,3.94720361328125,0.5992583632469177,0.6426297426223755,0.27855435013771057
1772729615525721600,3.9567216796875,0.5937605500221252,0.44959646463394165,0.1588248461484909
1772729615535239700,3.96623974609375,0.5858193039894104,0.2565632164478302,0.020158538594841957
1772729615544757800,3.9757578125,0.5754346251487732,0.08124501258134842,-0.13011419773101807
1772729615554276000,3.985276123046875,0.5503891706466675,-0.05742128938436508,-0.27916520833969116
1772729615563794200,3.994794189453125,0.5088503360748291,-0.1533270627260208,-0.4166097939014435
1772729615573312300,4.004312255859375,0.46364638209342957,-0.18875721096992493,-0.5235111117362976
1772729615582830300,4.013830322265625,0.4257727563381195,-0.1588248461484909,-0.5974257588386536
1772729615592348400,4.023348388671875,0.39889469742774963,-0.09040798991918564,-0.6310232877731323
1772729615601866500,4.032866455078125,0.3903425931930542,0.008552107028663158,-0.6181951761245728
1772729615611384600,4.042384521484375,0.39889469742774963,0.1496618688106537,-0.554665207862854
1772729615620902700,4.051902587890625,0.42394015192985535,0.34147340059280396,-0.45387253165245056
1772729615630421000,4.0614208984375,0.45326167345046997,0.5436696410179138,-0.3280344009399414
1772729615639939000,4.07093896484375,0.481361448764801,0.7086031436920166,-0.19792018830776215
1772729615649457200,4.08045703125,0.5106829404830933,0.8026763200759888,-0.08002328872680664
1772729615658975200,4.089975341796875,0.5467239618301392,0.8191696405410767,0.014660755172371864
1772729615668493300,4.099493408203125,0.5858193039894104,0.7825177907943726,0.08124501258134842
1772729615678011400,4.109011474609375,0.6163625717163086,0.7159335017204285,0.11484257876873016
1772729615687529500,4.118529541015625,0.6273581385612488,0.6322450637817383,0.10995566099882126
1772729615697047600,4.128047607421875,0.6175842881202698,0.5326740741729736,0.07330377399921417
1772729615706566000,4.13756591796875,0.5943714380264282,0.4159989058971405,0.013439024798572063
1772729615716084000,4.147083984375,0.5674933791160583,0.2926042377948761,-0.05864302068948746
1772729615725602000,4.15660205078125,0.546113133430481,0.17653992772102356,-0.13133592903614044
1772729615735120100,4.1661201171875,0.5308414697647095,0.05803215503692627,-0.18753549456596375
1772729615744638200,4.17563818359375,0.5198459029197693,-0.06597339361906052,-0.21746785938739777
1772729615754156300,4.18515625,0.5033525824546814,-0.1802051067352295,-0.22418737411499023
1772729615763674600,4.194674560546875,0.4740310609340668,-0.26450446248054504,-0.21258094906806946
1772729615773192700,4.204192626953125,0.4361574649810791,-0.3029889166355133,-0.19364413619041443
1772729615782710800,4.213710693359375,0.40255987644195557,-0.2822195291519165,-0.16859868168830872
1772729615792228900,4.223228759765625,0.37690356373786926,-0.2156352698802948,-0.13927717506885529
1772729615801747000,4.232746826171875,0.3494146466255188,-0.13255766034126282,-0.10567960888147354
1772729615811265000,4.24226513671875,0.31581708788871765,-0.04886918142437935,-0.07452550530433655
1772729615820783000,4.251783203125,0.27855435013771057,0.023823726922273636,-0.05070177838206291
1772729615830301200,4.26130126953125,0.2364046722650528,0.07147117704153061,-0.037262752652168274
1772729615839819500,4.270819580078125,0.19792018830776215,0.09529490768909454,-0.0360410213470459
1772729615849337600,4.280337646484375,0.16310089826583862,0.08491020649671555,-0.04459312930703163
1772729615858855700,4.289855712890625,0.1337793916463852,0.050090912729501724,-0.059864748269319534
1772729615868373800,4.299373779296875,0.10995566099882126,0.01893680728971958,-0.08491020649671555
1772729615877891800,4.308891845703125,0.09101885557174683,-0.03176496922969818,-0.11606431007385254
1772729615887410000,4.318409912109375,0.07391463965177536,-0.11484257876873016,-0.15149445831775665
1772729615896928000,4.327927978515625,0.05558869615197182,-0.22418737411499023,-0.18631376326084137
1772729615906446000,4.337446044921875,0.036651886999607086,-0.34208428859710693,-0.21441353857517242
1772729615915964400,4.34696435546875,0.010995565913617611,-0.43982264399528503,-0.2315177470445633
1772729615925482500,4.356482421875,-0.01893680728971958,-0.5021308660507202,-0.23273947834968567
1772729615935000600,4.36600048828125,-0.05436696484684944,-0.5222893953323364,-0.2101374864578247
1772729615944518700,4.3755185546875,-0.09101885557174683,-0.4685332775115967,-0.17348559200763702
1772729615954036700,4.38503662109375,-0.13255766034126282,-0.33536475896835327,-0.1337793916463852
1772729615963554800,4.394554931640625,-0.16859868168830872,-0.1692095398902893,-0.09712749719619751
1772729615973073000,4.404072998046875,-0.18570289015769958,-0.027488915249705315,-0.059864748269319534
1772729615982591000,4.413591064453125,-0.18325942754745483,0.06230820715427399,-0.026878049597144127
1772729615992109300,4.423109375,-0.17043127119541168,0.08368847519159317,0.001832594396546483
1772729616001627400,4.43262744140625,-0.1594357043504715,0.053145237267017365,0.020158538594841957
1772729616011145500,4.4421455078125,-0.15699224174022675,-0.013439024798572063,0.027488915249705315
1772729616020663600,4.45166357421875,-0.16737695038318634,-0.08918625861406326,0.023823726922273636
1772729616030181600,4.461181640625,-0.19853104650974274,-0.14599667489528656,0.003665188793092966
1772729616039699700,4.47069970703125,-0.24801109731197357,-0.1802051067352295,-0.03909534588456154
1772729616049218000,4.480218017578125,-0.3029889166355133,-0.1948658674955368,-0.09590577334165573
1772729616058735900,4.48973583984375,-0.3585776388645172,-0.21685700118541718,-0.16065743565559387
1772729616068254200,4.499254150390625,-0.40744680166244507,-0.2828303873538971,-0.22235478460788727
1772729616077772300,4.508772216796875,-0.4459312856197357,-0.3689623177051544,-0.2663370370864868
1772729616087290400,4.518290283203125,-0.4740310609340668,-0.4214966893196106,-0.2809978127479553
1772729616096808400,4.527808349609375,-0.49480047821998596,-0.4404335021972656,-0.26939135789871216
1772729616106326500,4.537326416015625,-0.5112938284873962,-0.44409868121147156,-0.23762640357017517
1772729616115844600,4.5468447265625,-0.5119046568870544,-0.41844236850738525,-0.18203771114349365
1772729616125363000,4.556363037109375,-0.49113526940345764,-0.3549124300479889,-0.10201441496610641
1772729616134880800,4.565880859375,-0.4575377106666565,-0.2657261788845062,-0.001832594396546483
1772729616144399000,4.575399169921875,-0.430659681558609,-0.18692462146282196,0.10201441496610641
1772729616153917200,4.584917236328125,-0.4153880476951599,-0.1545487940311432,0.20463970303535461
1772729616163435300,4.594435302734375,-0.4068359434604645,-0.1490510106086731,0.3017672002315521
1772729616172953300,4.603953369140625,-0.40255987644195557,-0.13744457066059113,0.38667741417884827
1772729616182471400,4.613471435546875,-0.4111120104789734,-0.143553227186203,0.44837474822998047
1772729616191989500,4.622989501953125,-0.4373791813850403,-0.18325942754745483,0.47525280714035034
1772729616201507800,4.6325078125,-0.472198486328125,-0.24251331388950348,0.462424635887146
1772729616211026000,4.64202587890625,-0.5137372612953186,-0.2987128794193268,0.4147771894931793
1772729616220544000,4.6515439453125,-0.5613847374916077,-0.3347539007663727,0.3329212963581085
1772729616230062000,4.66106201171875,-0.6145299673080444,-0.3530798554420471,0.22479823231697083
1772729616239580200,4.670580078125,-0.6713404059410095,-0.3500255048274994,0.09957095980644226
1772729616249098200,4.68009814453125,-0.7134900689125061,-0.3298669755458832,-0.026878049597144127
1772729616258616300,4.6896162109375,-0.7385355234146118,-0.3035998046398163,-0.14172062277793884
1772729616268134400,4.699134521484375,-0.748920202255249,-0.26511532068252563,-0.22968515753746033
1772729616277652700,4.70865283203125,-0.7538071274757385,-0.21135921776294708,-0.29077163338661194
1772729616287170800,4.7181708984375,-0.7568614482879639,-0.17287473380565643,-0.32192572951316833
1772729616296689000,4.72768896484375,-0.7513636946678162,-0.15088360011577606,-0.3243691921234131
1772729616306207000,4.73720703125,-0.729983389377594,-0.10140355676412582,-0.29565855860710144
1772729616315725000,4.74672509765625,-0.6908880472183228,-0.03543015569448471,-0.24251331388950348
1772729616325243100,4.7562431640625,-0.6438514590263367,0.001221729558892548,-0.1740964651107788
1772729616334761200,4.76576123046875,-0.5888736248016357,-0.007941242307424545,-0.10384701192378998
1772729616344279300,4.775279296875,-0.5247328281402588,-0.043371398001909256,-0.03909534588456154
1772729616353797600,4.784797607421875,-0.45509424805641174,-0.09468404203653336,0.012217295356094837
1772729616363315700,4.794315673828125,-0.3903425931930542,-0.16554436087608337,0.047036588191986084
1772729616372833800,4.803833740234375,-0.3500255048274994,-0.235793799161911,0.06108647957444191
1772729616382352000,4.813351806640625,-0.337808221578598,-0.29016077518463135,0.053756099194288254
1772729616391870000,4.822869873046875,-0.3543015718460083,-0.3133736252784729,0.02626718580722809
1772729616401388000,4.832387939453125,-0.39278605580329895,-0.3133736252784729,-0.024434590712189674
1772729616410906000,4.841906005859375,-0.4422661066055298,-0.3225366175174713,-0.09529490768909454
1772729616420424200,4.851424072265625,-0.4838049113750458,-0.3530798554420471,-0.17776164412498474
1772729616429942500,4.860942626953125,-0.5088503360748291,-0.3915643095970154,-0.25961753726005554
1772729616439460600,4.870460693359375,-0.5210676789283752,-0.4202749729156494,-0.3347539007663727
1772729616448978700,4.879978759765625,-0.5277871489524841,-0.4257727563381195,-0.3952295184135437
1772729616458496800,4.889496826171875,-0.5277871489524841,-0.4172206521034241,-0.43493571877479553
1772729616468014800,4.899014892578125,-0.5149590373039246,-0.39339691400527954,-0.4465421438217163
1772729616477533000,4.908532958984375,-0.4880809485912323,-0.35674503445625305,-0.4318813979625702
1772729616487051000,4.918051025390625,-0.4465421438217163,-0.31520622968673706,-0.3903425931930542
1772729616496569000,4.927569091796875,-0.3970620930194855,-0.26389357447624207,-0.3274235129356384
1772729616506087400,4.93708740234375,-0.3481929302215576,-0.20769402384757996,-0.2467893660068512
1772729616515605500,4.94660546875,-0.30543237924575806,-0.15271618962287903,-0.15638138353824615
1772729616525123600,4.95612353515625,-0.2657261788845062,-0.09101885557174683,-0.06414080411195755
1772729616534641700,4.9656416015625,-0.22724169492721558,-0.0360410213470459,0.024434590712189674
1772729616544159700,4.97515966796875,-0.19303326308727264,-0.011606430634856224,0.10018182545900345
1772729616553677800,4.984677734375,-0.16310089826583862,-0.0256563201546669,0.1533270627260208
1772729616563196000,4.99419580078125,-0.13072505593299866,-0.056199558079242706,0.18387030065059662
1772729616572714000,5.0037138671875,-0.09590577334165573,-0.09101885557174683,0.19120067358016968
1772729616582232300,5.013232421875,-0.06597339361906052,-0.12950333952903748,0.17776164412498474
1772729616591750400,5.02275048828125,-0.050090912729501724,-0.17898337543010712,0.14660754799842834
1772729616601268500,5.0322685546875,-0.04276053607463837,-0.23335035145282745,0.10995566099882126
1772729616610786600,5.04178662109375,-0.036651886999607086,-0.287106454372406,0.08063415437936783
1772729616620304600,5.0513046875,-0.03481929376721382,-0.32009315490722656,0.06230820715427399
1772729616629822700,5.06082275390625,-0.03481929376721382,-0.3133736252784729,0.05925388261675835
1772729616639340800,5.0703408203125,-0.03481929376721382,-0.2809978127479553,0.06841685622930527
1772729616648859000,5.07985888671875,-0.027488915249705315,-0.22418737411499023,0.09101885557174683
1772729616658377200,5.089377197265625,-0.015271619893610477,-0.13439024984836578,0.12644900381565094
1772729616667895300,5.098895263671875,0,-0.023823726922273636,0.16859868168830872
1772729616677413400,5.108413330078125,0.011606430634856224,0.07574722915887833,0.21197007596492767
1772729616686931500,5.117931396484375,0.01954767294228077,0.15821397304534912,0.25350889563560486
1772729616696449500,5.127449462890625,0.025045456364750862,0.2205221801996231,0.2877173125743866
1772729616705967600,5.136967529296875,0.03237583488225937,0.2608392536640167,0.3090975880622864
1772729616715485700,5.146485595703125,0.04581485688686371,0.2864955961704254,0.31093016266822815
1772729616725003800,5.156003662109375,0.06841685622930527,0.2926042377948761,0.2938259541988373
1772729616734522000,5.165522216796875,0.09468404203653336,0.2675587832927704,0.2571740746498108
1772729616744040000,5.1750400390625,0.11362084746360779,0.19181154668331146,0.20341797173023224
1772729616753558300,5.184558349609375,0.12644900381565094,0.08491020649671555,0.14172062277793884
1772729616763076400,5.194076416015625,0.1331685185432434,-0.014049889519810677,0.07880155742168427
1772729616772594400,5.203594482421875,0.13500112295150757,-0.08063415437936783,0.020769402384757996
1772729616782112500,5.213112548828125,0.1331685185432434,-0.1178968995809555,-0.02626718580722809
1772729616791630600,5.222630615234375,0.13133592903614044,-0.10323614627122879,-0.056199558079242706
1772729616801148700,5.232148681640625,0.13683371245861053,-0.03298669680953026,-0.04520399495959282
1772729616810667000,5.2416669921875,0.1533270627260208,0.08552107214927673,0.01282816007733345
1772729616820184800,5.251184814453125,0.1802051067352295,0.268169641494751,0.10690133273601532
1772729616829703200,5.260703125,0.205861434340477,0.4923570156097412,0.21197007596492767
1772729616839221200,5.27022119140625,0.22907429933547974,0.6982184648513794,0.31031930446624756
1772729616848739300,5.2797392578125,0.2669478952884674,0.8442151546478271,0.3952295184135437
1772729616858257400,5.28925732421875,0.31642794609069824,0.915075421333313,0.45387253165245056
1772729616867775500,5.298775390625,0.3707949221134186,0.8845322132110596,0.48075059056282043
1772729616877293600,5.30829345703125,0.4318813979625702,0.7660244107246399,0.48013970255851746
1772729616886811600,5.317811767578125,0.4831940531730652,0.6346884965896606,0.4514290690422058
1772729616896329700,5.327329833984375,0.5131264328956604,0.5259546041488647,0.3946186602115631
1772729616905848000,5.33684814453125,0.5094612240791321,0.4062250852584839,0.3182605504989624
1772729616915366100,5.3463662109375,0.4776962697505951,0.287106454372406,0.2211330533027649
1772729616924884200,5.35588427734375,0.4355465769767761,0.17531819641590118,0.10384701192378998
1772729616934402300,5.36540234375,0.3964512348175049,0.07391463965177536,-0.021991131827235222
1772729616943920400,5.37492041015625,0.3640754222869873,-0.008552107028663158,-0.14599667489528656
1772729616953438500,5.3844384765625,0.33536475896835327,-0.056199558079242706,-0.2577849328517914
1772729616962956500,5.39395654296875,0.30543237924575806,-0.07147117704153061,-0.3555232882499695
1772729616972474600,5.403474609375,0.2724456787109375,-0.05864302068948746,-0.43371400237083435
1772729616981993000,5.412992919921875,0.23396120965480804,-0.02260199747979641,-0.49541133642196655
1772729616991511000,5.422510986328125,0.2052505612373352,0.012217295356094837,-0.5320632457733154
1772729617001029000,5.432029052734375,0.19608759880065918,0.07330377399921417,-0.5387827157974243
1772729617010547200,5.441547119140625,0.20158538222312927,0.1740964651107788,-0.5125155448913574
1772729617020065300,5.451065185546875,0.2101374864578247,0.28405213356018066,-0.4581485986709595
1772729617029583400,5.460583251953125,0.2162461280822754,0.39339691400527954,-0.38240134716033936
1772729617039101400,5.470101318359375,0.2309068888425827,0.5094612240791321,-0.29626941680908203
1772729617048619500,5.47961962890625,0.26022839546203613,0.5925388336181641,-0.21380266547203064
1772729617058137900,5.489137939453125,0.29443681240081787,0.6200277805328369,-0.1484401375055313
1772729617067656000,5.498656005859375,0.33047783374786377,0.5900954008102417,-0.10079269111156464
1772729617077174000,5.508174072265625,0.36285367608070374,0.5229002237319946,-0.06414080411195755
1772729617086692000,5.517692138671875,0.38850998878479004,0.43371400237083435,-0.033597562462091446
1772729617096210200,5.527210205078125,0.4013381600379944,0.33536475896835327,-0.007941242307424545
1772729617105728300,5.536728271484375,0.401949018239975,0.25534147024154663,0.010384701192378998
1772729617115246300,5.546246337890625,0.39217519760131836,0.21319180727005005,0.014049889519810677
1772729617124764400,5.555764404296875,0.37140578031539917,0.205861434340477,-0.004276053514331579
1772729617134282500,5.565282470703125,0.3439168632030487,0.22174391150474548,-0.0409279391169548
1772729617143800600,5.574800537109375,0.31031930446624756,0.23884813487529755,-0.09468404203653336
1772729617153319000,5.58431884765625,0.2706131041049957,0.23029601573944092,-0.15577052533626556
1772729617162837000,5.5938369140625,0.22235478460788727,0.19425499439239502,-0.21502439677715302
1772729617172355000,5.60335498046875,0.17287473380565643,0.15699224174022675,-0.26450446248054504
1772729617181873200,5.612873046875,0.13194678723812103,0.1386663019657135,-0.2993237376213074
1772729617191391200,5.62239111328125,0.09957095980644226,0.10567960888147354,-0.3194822669029236
1772729617200909300,5.631909423828125,0.08063415437936783,0.06352993845939636,-0.32620179653167725
1772729617210427400,5.641427490234375,0.08002328872680664,0.034208428114652634,-0.32192572951316833
1772729617219945500,5.650945556640625,0.09162971377372742,0.020158538594841957,-0.3066541254520416
1772729617229463800,5.6604638671875,0.10690133273601532,0.013439024798572063,-0.2822195291519165
1772729617238982000,5.66998193359375,0.11667517572641373,-0.001221729558892548,-0.2528980076313019
1772729617248500000,5.6795,0.11972949653863907,-0.02260199747979641,-0.22357651591300964
1772729617258018000,5.68901806640625,0.11606431007385254,-0.06230820715427399,-0.19669845700263977
1772729617267536100,5.6985361328125,0.10995566099882126,-0.10567960888147354,-0.17592905461788177
1772729617277054200,5.70805419921875,0.10018182545900345,-0.14233149588108063,-0.16249002516269684
1772729617286572300,5.717572265625,0.08368847519159317,-0.185092031955719,-0.16065743565559387
1772729617296090400,5.72709033203125,0.06780599057674408,-0.23212862014770508,-0.17104214429855347
1772729617305608700,5.736608642578125,0.06047561392188072,-0.25961753726005554,-0.1893680840730667
1772729617315126500,5.74612646484375,0.06047561392188072,-0.2516762912273407,-0.2101374864578247
1772729617324644600,5.75564453125,0.06597339361906052,-0.21380266547203064,-0.22663083672523499
1772729617334163000,5.765162841796875,0.07452550530433655,-0.1533270627260208,-0.22663083672523499
1772729617343681000,5.774680908203125,0.0818558782339096,-0.09285144507884979,-0.20769402384757996
1772729617353199000,5.78419921875,0.08613193035125732,-0.04520399495959282,-0.1692095398902893
1772729617362717200,5.79371728515625,0.0873536616563797,-0.021380268037319183,-0.11545344442129135
1772729617372235300,5.8032353515625,0.08979712426662445,-0.02871064469218254,-0.04886918142437935
1772729617381753300,5.81275341796875,0.09468404203653336,-0.03481929376721382,0.025045456364750862
1772729617391271400,5.822271484375,0.1026252806186676,-0.03481929376721382,0.10323614627122879
1772729617400789500,5.83178955078125,0.10567960888147354,-0.04214967042207718,0.17287473380565643
1772729617410307800,5.841307861328125,0.09529490768909454,-0.08429934084415436,0.22174391150474548
1772729617419826000,5.850825927734375,0.06902772188186646,-0.1484401375055313,0.2370155304670334
1772729617429344000,5.860343994140625,0.02932151034474373,-0.21319180727005005,0.20769402384757996
1772729617438862000,5.869862060546875,-0.020158538594841957,-0.2767217457294464,0.13439024984836578
1772729617448380200,5.879380126953125,-0.0824667438864708,-0.34574946761131287,0.02260199747979641
1772729617457898200,5.888898193359375,-0.15821397304534912,-0.4410443603992462,-0.11972949653863907
1772729617467416300,5.898416259765625,-0.23945899307727814,-0.5564978122711182,-0.2724456787109375
1772729617476934400,5.907934326171875,-0.3139844834804535,-0.6407971382141113,-0.41355544328689575
1772729617486452700,5.91745263671875,-0.3652971386909485,-0.6615665555000305,-0.5192350745201111
1772729617495970800,5.926970703125,-0.4013381600379944,-0.6059778332710266,-0.574212908744812
1772729617505489000,5.936489013671875,-0.42271843552589417,-0.481361448764801,-0.5668824911117554
1772729617515007000,5.946007080078125,-0.4068359434604645,-0.2883281707763672,-0.4783071279525757
1772729617524525000,5.955525146484375,-0.3597993552684784,-0.07269290834665298,-0.32009315490722656
1772729617534043100,5.965043212890625,-0.3035998046398163,0.11972949653863907,-0.11545344442129135
1772729617543561200,5.974561279296875,-0.25961753726005554,0.24556763470172882,0.10567960888147354
1772729617553079300,5.984079345703125,-0.23335035145282745,0.25961753726005554,0.31642794609069824
1772729617562597400,5.993597412109375,-0.21991132199764252,0.2009745091199875,0.49541133642196655
1772729617572115500,6.003115478515625,-0.21685700118541718,0.1130099818110466,0.6261364221572876
1772729617581633800,6.0126337890625,-0.2370155304670334,0.013439024798572063,0.6896663308143616
1772729617591151900,6.02215185546875,-0.2767217457294464,-0.08796452730894089,0.6786707639694214
1772729617600670000,6.031669921875,-0.33047783374786377,-0.17531819641590118,0.5943714380264282
1772729617610188000,6.04118798828125,-0.3958403766155243,-0.2565632164478302,0.4471530318260193
1772729617619706000,6.0507060546875,-0.46486809849739075,-0.32009315490722656,0.25473061203956604
1772729617629224200,6.06022412109375,-0.5302306413650513,-0.36774060130119324,0.039706211537122726
1772729617638742300,6.0697421875,-0.5839866995811462,-0.4007273018360138,-0.17287473380565643
1772729617648260400,6.07926025390625,-0.618806004524231,-0.4050033390522003,-0.3585776388645172
1772729617657778700,6.08877880859375,-0.6407971382141113,-0.3848448097705841,-0.4990765154361725
1772729617667296500,6.098296630859375,-0.6517927050590515,-0.36224281787872314,-0.5839866995811462
1772729617676814800,6.10781494140625,-0.6487383842468262,-0.3384190797805786,-0.6108647584915161
1772729617686333000,6.1173330078125,-0.6310232877731323,-0.3225366175174713,-0.5784889459609985
1772729617695851000,6.12685107421875,-0.5943714380264282,-0.29993459582328796,-0.4923570156097412
1772729617705369000,6.136369140625,-0.5412262082099915,-0.24434591829776764,-0.3610210716724396
1772729617714887200,6.14588720703125,-0.48441576957702637,-0.1441640853881836,-0.20219624042510986
1772729617724405200,6.1554052734375,-0.4416552484035492,-0.030543239787220955,-0.04214967042207718
1772729617733923300,6.16492333984375,-0.41783151030540466,0.0360410213470459,0.09407317638397217
1772729617743441400,6.17444140625,-0.4062250852584839,0.02871064469218254,0.18875721096992493
1772729617752959700,6.183959716796875,-0.3970620930194855,-0.021991131827235222,0.2364046722650528
1772729617762477800,6.193477783203125,-0.389120876789093,-0.08063415437936783,0.23823726177215576
1772729617771995600,6.20299560546875,-0.3964512348175049,-0.12400554865598679,0.2009745091199875
1772729617781514000,6.212513916015625,-0.4153880476951599,-0.1484401375055313,0.13255766034126282
1772729617791032000,6.222031982421875,-0.4373791813850403,-0.17653992772102356,0.04214967042207718
1772729617800550100,6.231550048828125,-0.4465421438217163,-0.2107483446598053,-0.053756099194288254
1772729617810068200,6.241068115234375,-0.4367683231830597,-0.24373504519462585,-0.13988803327083588
1772729617819586300,6.25058642578125,-0.4172206521034241,-0.2614501118659973,-0.20830489695072174
1772729617829104400,6.2601044921875,-0.3964512348175049,-0.25900667905807495,-0.24923282861709595
1772729617838622500,6.26962255859375,-0.38240134716033936,-0.23823726177215576,-0.2657261788845062
1772729617848140500,6.279140625,-0.37262752652168274,-0.2156352698802948,-0.2571740746498108
1772729617857658600,6.28865869140625,-0.3585776388645172,-0.19792018830776215,-0.22968515753746033
1772729617867177000,6.298177001953125,-0.3396408259868622,-0.18203771114349365,-0.19242240488529205
1772729617876695000,6.307695068359375,-0.3194822669029236,-0.18203771114349365,-0.15088360011577606
1772729617886213000,6.317213134765625,-0.2968802750110626,-0.18387030065059662,-0.11178825795650482
1772729617895731200,6.326731201171875,-0.27366742491722107,-0.17043127119541168,-0.07757982611656189
1772729617905249300,6.336249267578125,-0.24923282861709595,-0.1594357043504715,-0.05436696484684944
1772729617914767400,6.345767333984375,-0.22479823231697083,-0.15515965223312378,-0.036651886999607086
1772729617924285400,6.355285400390625,-0.19608759880065918,-0.13683371245861053,-0.021991131827235222
1772729617933803500,6.364803466796875,-0.1692095398902893,-0.0977383628487587,-0.004886918235570192
1772729617943321600,6.374321533203125,-0.14599667489528656,-0.0616973415017128,0.017104214057326317
1772729617952840000,6.38383984375,-0.12583814561367035,-0.05558869615197182,0.04459312930703163
1772729617962358000,6.39335791015625,-0.10506874322891235,-0.07147117704153061,0.08063415437936783
1772729617971876000,6.4028759765625,-0.08552107214927673,-0.0818558782339096,0.1178968995809555
1772729617981394200,6.412394287109375,-0.07330377399921417,-0.09834922850131989,0.14538581669330597
1772729617990912300,6.421912353515625,-0.05803215503692627,-0.13011419773101807,0.1637117564678192
1772729618000430300,6.431430419921875,-0.03543015569448471,-0.14660754799842834,0.17592905461788177
1772729618009948400,6.440948486328125,-0.01282816007733345,-0.13622283935546875,0.185092031955719
1772729618019466500,6.450466552734375,0.006108647678047419,-0.1081230640411377,0.1893680840730667
1772729618028984600,6.459984619140625,0.028099779039621353,-0.07635809481143951,0.19242240488529205
1772729618038502700,6.469502685546875,0.06963858753442764,-0.034208428114652634,0.20341797173023224
1772729618048021000,6.47902099609375,0.12278381735086441,0.023823726922273636,0.22907429933547974
1772729618057539000,6.4885390625,0.17165300250053406,0.10629047453403473,0.2712239623069763
1772729618067057200,6.49805712890625,0.20219624042510986,0.18753549456596375,0.3170388340950012
1772729618076575200,6.5075751953125,0.21135921776294708,0.21319180727005005,0.3591884970664978
1772729618086093300,6.51709326171875,0.2211330533027649,0.19608759880065918,0.39400777220726013
1772729618095611400,6.526611328125,0.2315177470445633,0.15149445831775665,0.4068359434604645
1772729618105129500,6.53612939453125,0.23396120965480804,0.08674279600381851,0.3854556679725647
1772729618114647600,6.5456474609375,0.21685700118541718,-0.010384701192378998,0.3249800503253937
1772729618124165600,6.55516552734375,0.18570289015769958,-0.13561198115348816,0.23335035145282745
1772729618133683700,6.56468359375,0.15271618962287903,-0.2614501118659973,0.12400554865598679
1772729618143201800,6.574201904296875,0.11667517572641373,-0.3494146466255188,0.013439024798572063
1772729618152720100,6.58372021484375,0.07941242307424545,-0.36163195967674255,-0.08307760953903198
1772729618162238200,6.59323828125,0.049480047076940536,-0.2968802750110626,-0.143553227186203
1772729618171756300,6.60275634765625,0.0409279391169548,-0.1545487940311432,-0.1484401375055313
1772729618181274400,6.6122744140625,0.05803215503692627,0.07941242307424545,-0.09040798991918564
1772729618190792400,6.62179248046875,0.0977383628487587,0.3488037884235382,0.01893680728971958
1772729618200310500,6.631310546875,0.14599667489528656,0.5998691916465759,0.15699224174022675
1772729618209828600,6.64082861328125,0.19792018830776215,0.8161153197288513,0.29443681240081787
1772729618219346700,6.6503466796875,0.2675587832927704,0.9621120095252991,0.4221075773239136
1772729618228864800,6.65986474609375,0.3445277214050293,1.0134246349334717,0.5198459029197693
1772729618238382800,6.6693828125,0.41355544328689575,0.9779945015907288,0.5784889459609985
1772729618247901200,6.678901123046875,0.4764745235443115,0.8692606091499329,0.6035344004631042
1772729618257419300,6.688419189453125,0.5283980369567871,0.7476984858512878,0.5937605500221252
1772729618266937300,6.697937255859375,0.5589412450790405,0.6346884965896606,0.5412262082099915
1772729618276455400,6.707455322265625,0.5723803043365479,0.5094612240791321,0.44959646463394165
1772729618285973500,6.716973388671875,0.5681042671203613,0.3689623177051544,0.32192572951316833
1772729618295491600,6.72649169921875,0.5436696410179138,0.23335035145282745,0.16676609218120575
1772729618305009700,6.736009765625,0.5070177912712097,0.10140355676412582,-0.0030543238390237093
1772729618314527700,6.74552783203125,0.4673115611076355,-0.014049889519810677,-0.17226386070251465
1772729618324045800,6.7550458984375,0.42821621894836426,-0.08674279600381851,-0.32681265473365784
1772729618333564000,6.76456396484375,0.39339691400527954,-0.11545344442129135,-0.45509424805641174
1772729618343082200,6.774082275390625,0.35796675086021423,-0.11728604137897491,-0.5540543794631958
1772729618352600300,6.783600341796875,0.32070401310920715,-0.10995566099882126,-0.6224712133407593
1772729618362118400,6.793118408203125,0.29138249158859253,-0.08307760953903198,-0.6597339510917664
1772729618371636500,6.802636474609375,0.2779434621334076,-0.02932151034474373,-0.667064368724823
1772729618381154600,6.812154541015625,0.28527384996414185,0.034208428114652634,-0.6432406306266785
1772729618390672600,6.821672607421875,0.31093016266822815,0.11911863088607788,-0.5888736248016357
1772729618400190700,6.831190673828125,0.35246896743774414,0.23212862014770508,-0.5088503360748291
1772729618409708800,6.840708740234375,0.39889469742774963,0.3555232882499695,-0.41355544328689575
1772729618419227000,6.850226806640625,0.43921178579330444,0.46364638209342957,-0.3176496922969818
1772729618428745000,6.859744873046875,0.4734202027320862,0.5253437161445618,-0.22968515753746033
1772729618438263300,6.86926318359375,0.5009090900421143,0.5473348498344421,-0.1594357043504715
1772729618447781400,6.878781494140625,0.5235111117362976,0.5424479246139526,-0.10751219838857651
1772729618457299200,6.88829931640625,0.544891357421875,0.5180133581161499,-0.07574722915887833
1772729618466817500,6.897817626953125,0.5613847374916077,0.4764745235443115,-0.07086031138896942
1772729618476335600,6.907335693359375,0.5723803043365479,0.42332929372787476,-0.09101885557174683
1772729618485853700,6.916853759765625,0.5760455131530762,0.3640754222869873,-0.13072505593299866
1772729618495371800,6.926371826171875,0.5711585879325867,0.2974911332130432,-0.18631376326084137
1772729618504889900,6.935889892578125,0.5577195286750793,0.22357651591300964,-0.2510654330253601
1772729618514408000,6.945407958984375,0.5338957905769348,0.15088360011577606,-0.3127627670764923
1772729618523926000,6.954926025390625,0.5009090900421143,0.0769689604640007,-0.36835145950317383
1772729618533444000,6.964444091796875,0.4630354940891266,0.01588248461484909,-0.4056142270565033
1772729618542962200,6.973962158203125,0.4214966893196106,-0.01649334840476513,-0.4263836145401001
1772729618552480300,6.983480224609375,0.3707949221134186,-0.023212861269712448,-0.43432486057281494
1772729618561998600,6.99299853515625,0.3176496922969818,-0.021380268037319183,-0.430659681558609
1772729618571516700,7.0025166015625,0.2663370370864868,-0.017715077847242355,-0.4147771894931793
1772729618581034800,7.01203466796875,0.21746785938739777,-0.01588248461484909,-0.38789913058280945
1772729618590552800,7.021552734375,0.17776164412498474,-0.017104214057326317,-0.34697118401527405
1772729618600071000,7.03107080078125,0.14233149588108063,-0.017104214057326317,-0.2926042377948761
1772729618609589000,7.040589111328125,0.10629047453403473,-0.029932374134659767,-0.2309068888425827
1772729618619107000,7.050107177734375,0.06719512492418289,-0.06108647957444191,-0.1698204129934311
1772729618628625200,7.059625244140625,0.031154103577136993,-0.10995566099882126,-0.11239911615848541
1772729618638143200,7.069143310546875,0,-0.1795942485332489,-0.0616973415017128
1772729618647661300,7.078661376953125,-0.023212861269712448,-0.25045454502105713,-0.02260199747979641
1772729618657179600,7.0881796875,-0.043982263654470444,-0.3090975880622864,0.000610864779446274
1772729618666697700,7.09769775390625,-0.06719512492418289,-0.36163195967674255,0.008552107028663158
1772729618676215600,7.107215576171875,-0.09651663154363632,-0.42394015192985535,0
1772729618685734000,7.11673388671875,-0.12705987691879272,-0.47036588191986084,-0.018325943499803543
1772729618695252000,7.126251953125,-0.15638138353824615,-0.4819723069667816,-0.04153880476951599
1772729618704770000,7.13577001953125,-0.18264856934547424,-0.45998117327690125,-0.05742128938436508
1772729618714288000,7.1452880859375,-0.20402882993221283,-0.4007273018360138,-0.05436696484684944
1772729618723806200,7.15480615234375,-0.22479823231697083,-0.3127627670764923,-0.02932151034474373
1772729618733324300,7.16432421875,-0.24740023910999298,-0.20463970303535461,0.01954767294228077
1772729618742842400,7.17384228515625,-0.26511532068252563,-0.11667517572641373,0.0873536616563797
1772729618752360400,7.1833603515625,-0.2718348205089569,-0.0769689604640007,0.1637117564678192
1772729618761878500,7.19287841796875,-0.277332603931427,-0.10079269111156464,0.22907429933547974
1772729618771396600,7.202396728515625,-0.28405213356018066,-0.18264856934547424,0.26939135789871216
1772729618780915000,7.2119150390625,-0.2938259541988373,-0.29016077518463135,0.27488914132118225
1772729618790433000,7.22143310546875,-0.31093016266822815,-0.3958403766155243,0.24312418699264526
1772729618799951000,7.230951171875,-0.3384190797805786,-0.46425724029541016,0.17715078592300415
1772729618809469200,7.24046923828125,-0.3750709891319275,-0.5064069032669067,0.08063415437936783
1772729618818987300,7.2499873046875,-0.42088583111763,-0.5418370366096497,-0.03787361457943916
1772729618828505300,7.25950537109375,-0.4557051360607147,-0.5491674542427063,-0.15760311484336853
1772729618838023400,7.2690234375,-0.471587598323822,-0.5094612240791321,-0.2528980076313019
1772729618847541500,7.27854150390625,-0.4764745235443115,-0.43432486057281494,-0.3127627670764923
1772729618857059600,7.2880595703125,-0.4728093445301056,-0.3402516841888428,-0.32620179653167725
1772729618866577700,7.29757763671875,-0.4581485986709595,-0.24312418699264526,-0.287106454372406
1772729618876096000,7.307095947265625,-0.43004879355430603,-0.1484401375055313,-0.19608759880065918
1772729618885613800,7.31661376953125,-0.3897317349910736,-0.08124501258134842,-0.06230820715427399
1772729618895132000,7.3261318359375,-0.33719736337661743,-0.034208428114652634,0.10140355676412582
1772729618904650200,7.335650146484375,-0.2883281707763672,0.021991131827235222,0.2712239623069763
1772729618914168300,7.345168212890625,-0.24862197041511536,0.08063415437936783,0.4257727563381195
1772729618923686400,7.354686279296875,-0.21868959069252014,0.1178968995809555,0.5528326034545898
1772729618933204500,7.36420458984375,-0.19853104650974274,0.11911863088607788,0.6389645338058472
1772729618942722600,7.37372265625,-0.18814635276794434,0.07757982611656189,0.6811142563819885
1772729618952240600,7.38324072265625,-0.18753549456596375,0.010384701192378998,0.6743947267532349
1772729618961758700,7.3927587890625,-0.19669845700263977,-0.06047561392188072,0.6200277805328369
1772729618971276800,7.40227685546875,-0.21991132199764252,-0.1337793916463852,0.5155698657035828
1772729618980795000,7.411794921875,-0.2608392536640167,-0.19914191961288452,0.3695732057094574
1772729618990313000,7.42131298828125,-0.31520622968673706,-0.25350889563560486,0.19303326308727264
1772729618999831300,7.430831298828125,-0.3805687427520752,-0.30604326725006104,-0.000610864779446274
1772729619009349000,7.44034912109375,-0.4477638900279999,-0.3536907136440277,-0.1948658674955368
1772729619018867500,7.449867431640625,-0.5039634704589844,-0.3799578845500946,-0.37140578031539917
1772729619028385500,7.459385498046875,-0.545502245426178,-0.3750709891319275,-0.5155698657035828
1772729619037903600,7.468903564453125,-0.5748237371444702,-0.34208428859710693,-0.6151408553123474
1772729619047421700,7.478421630859375,-0.5876519083976746,-0.3035998046398163,-0.6682860851287842
1772729619056939800,7.487939697265625,-0.5803215503692627,-0.27916520833969116,-0.6713404059410095
1772729619066457900,7.497457763671875,-0.5436696410179138,-0.2528980076313019,-0.618806004524231
1772729619075976000,7.506975830078125,-0.4776962697505951,-0.1954767256975174,-0.5070177912712097
1772729619085494000,7.516493896484375,-0.3915643095970154,-0.11239911615848541,-0.35063639283180237
1772729619095012000,7.52601220703125,-0.3023780584335327,-0.03543015569448471,-0.16737695038318634
1772729619104530200,7.5355302734375,-0.22174391150474548,0.0256563201546669,0.021991131827235222
1772729619114048300,7.54504833984375,-0.15577052533626556,0.07024945318698883,0.19364413619041443
1772729619123566300,7.55456640625,-0.1130099818110466,0.07819069176912308,0.3292561173439026
1772729619133084400,7.56408447265625,-0.09834922850131989,0.0409279391169548,0.41416633129119873
1772729619142602800,7.573602783203125,-0.10445787757635117,-0.01649334840476513,0.4410443603992462
1772729619152120800,7.583120849609375,-0.12583814561367035,-0.07269290834665298,0.411722868680954
1772729619161639000,7.592638916015625,-0.1539379209280014,-0.11911863088607788,0.3347539007663727
1772729619171157000,7.602156982421875,-0.185092031955719,-0.14172062277793884,0.21930044889450073
1772729619180675000,7.611675048828125,-0.21746785938739777,-0.1637117564678192,0.07880155742168427
1772729619190193200,7.621193115234375,-0.2467893660068512,-0.19730933010578156,-0.0720820426940918
1772729619199711200,7.630711181640625,-0.2632827162742615,-0.23823726177215576,-0.20952661335468292
1772729619209229300,7.640229248046875,-0.2632827162742615,-0.28527384996414185,-0.31520622968673706
1772729619218747400,7.649747314453125,-0.24373504519462585,-0.3280344009399414,-0.3750709891319275
1772729619228265500,7.659265380859375,-0.21319180727005005,-0.3402516841888428,-0.3854556679725647
1772729619237783800,7.66878369140625,-0.1795942485332489,-0.3078758418560028,-0.35063639283180237
1772729619247301600,7.678301513671875,-0.15027274191379547,-0.24740023910999298,-0.28527384996414185
1772729619256819700,7.68781982421875,-0.13194678723812103,-0.1740964651107788,-0.2052505612373352
1772729619266338000,7.697338134765625,-0.11667517572641373,-0.10201441496610641,-0.12522727251052856
1772729619275856100,7.706856201171875,-0.10018182545900345,-0.04764745384454727,-0.049480047076940536
1772729619285374200,7.716374267578125,-0.0824667438864708,-0.024434590712189674,0.014660755172371864
1772729619294892300,7.725892333984375,-0.06536252796649933,-0.021991131827235222,0.05925388261675835
1772729619304410400,7.735410400390625,-0.04825831577181816,-0.025045456364750862,0.08429934084415436
1772729619313928400,7.744928466796875,-0.02626718580722809,-0.023823726922273636,0.08857539296150208
1772729619323446500,7.754446533203125,-0.001832594396546483,-0.020769402384757996,0.07819069176912308
1772729619332964600,7.763964599609375,0.01954767294228077,-0.023823726922273636,0.05742128938436508
1772729619342482700,7.773482666015625,0.034208428114652634,-0.03298669680953026,0.02932151034474373
1772729619352000800,7.783000732421875,0.0513126403093338,-0.04153880476951599,-0.001832594396546483
1772729619361518800,7.792518798828125,0.07330377399921417,-0.04459312930703163,-0.02260199747979641
1772729619371037000,7.802036865234375,0.09957095980644226,-0.0256563201546669,-0.028099779039621353
1772729619380555300,7.81155517578125,0.13072505593299866,0.01954767294228077,-0.01588248461484909
1772729619390073000,7.821072998046875,0.17043127119541168,0.07513637095689774,0.017715077847242355
1772729619399591200,7.830591064453125,0.21746785938739777,0.1282816082239151,0.07330377399921417
1772729619409109500,7.840109619140625,0.2761108875274658,0.18142683804035187,0.1484401375055313
1772729619418627600,7.849627685546875,0.3341430425643921,0.24373504519462585,0.23823726177215576
1772729619428145700,7.859145751953125,0.3848448097705841,0.3170388340950012,0.3298669755458832
1772729619437663700,7.868663818359375,0.42394015192985535,0.3836230933666229,0.40927940607070923
1772729619447181800,7.878181884765625,0.44837474822998047,0.41233372688293457,0.46486809849739075
1772729619456700000,7.887699951171875,0.46547895669937134,0.370184063911438,0.4874700903892517
1772729619466218000,7.897218017578125,0.47525280714035034,0.2706131041049957,0.47464191913604736
1772729619475736000,7.906736083984375,0.47525280714035034,0.15699224174022675,0.430659681558609
1772729619485254100,7.916254150390625,0.4673115611076355,0.05192350596189499,0.3543015718460083
1772729619494772200,7.925772216796875,0.45448338985443115,-0.04276053607463837,0.2571740746498108
1772729619504290300,7.935290283203125,0.4312705397605896,-0.12583814561367035,0.14538581669330597
1772729619513808400,7.944808349609375,0.3964512348175049,-0.20280711352825165,0.030543239787220955
1772729619523326700,7.95432666015625,0.36163195967674255,-0.2565632164478302,-0.07024945318698883
1772729619532844800,7.9638447265625,0.3347539007663727,-0.22724169492721558,-0.14110976457595825
1772729619542362600,7.973362548828125,0.3176496922969818,-0.11178825795650482,-0.16310089826583862
1772729619551881000,7.982880859375,0.3280344009399414,0.11606431007385254,-0.11606431007385254
1772729619561399000,7.99239892578125,0.36163195967674255,0.4361574649810791,-0.004276053514331579
1772729619570917000,8.001917236328126,0.40255987644195557,0.7764091491699219,0.14538581669330597
1772729619580435200,8.011435302734375,0.4514290690422058,1.0580178499221802,0.3023780584335327
1772729619589953300,8.020953369140624,0.526565432548523,1.2345577478408813,0.4557051360607147
1772729619599471400,8.030471435546875,0.6120865345001221,1.3274091482162476,0.5827649831771851
1772729619608989400,8.039989501953125,0.6884446144104004,1.3322961330413818,0.6682860851287842
1772729619618507500,8.049507568359376,0.7434224486351013,1.2260055541992188,0.7055488228797913
1772729619628025600,8.059025634765625,0.7660244107246399,1.0470222234725952,0.6860011219978333
1772729619637543700,8.068543701171874,0.7629700899124146,0.8313869833946228,0.6084213256835938
1772729619647061800,8.078061767578125,0.7476984858512878,0.6065887212753296,0.4831940531730652
1772729619656579800,8.087579833984375,0.7318159937858582,0.3970620930194855,0.3231474757194519
1772729619666098200,8.09709814453125,0.7122683525085449,0.21197007596492767,0.1386663019657135
1772729619675616300,8.1066162109375,0.6896663308143616,0.06108647957444191,-0.05192350596189499
1772729619685134300,8.11613427734375,0.6627882719039917,-0.02932151034474373,-0.23029601573944092
1772729619694652400,8.12565234375,0.6334667801856995,-0.05436696484684944,-0.3860665261745453
1772729619704170500,8.13517041015625,0.5992583632469177,-0.053756099194288254,-0.5125155448913574
1772729619713688600,8.1446884765625,0.56382817029953,-0.049480047076940536,-0.6047561168670654
1772729619723206700,8.15420654296875,0.535728394985199,-0.024434590712189674,-0.6591231226921082
1772729619732724700,8.163724853515625,0.5082395076751709,0.006719512399286032,-0.6817250847816467
1772729619742242800,8.173242919921876,0.4838049113750458,0.01588248461484909,-0.6774490475654602
1772729619751761000,8.182760986328125,0.4764745235443115,0.021991131827235222,-0.6450732350349426
1772729619761279000,8.192279052734374,0.49541133642196655,0.08429934084415436,-0.5839866995811462
1772729619770797000,8.201797119140625,0.536339282989502,0.2101374864578247,-0.49968740344047546
1772729619780315100,8.211315185546875,0.5882627964019775,0.36835145950317383,-0.39889469742774963
1772729619789833200,8.220833251953126,0.6493492722511292,0.5296197533607483,-0.29077163338661194
1772729619799351300,8.230351318359375,0.7092140316963196,0.6811142563819885,-0.18203771114349365
1772729619808869600,8.23986962890625,0.7525854110717773,0.7892373204231262,-0.08918625861406326
1772729619818387500,8.249387451171875,0.7727439403533936,0.8258891701698303,-0.0256563201546669
1772729619827905800,8.25890576171875,0.7800742983818054,0.8063415288925171,0.004276053514331579
1772729619837423900,8.268423828125,0.7861829996109009,0.7513636946678162,0.007941242307424545
1772729619846942000,8.27794189453125,0.7886264324188232,0.6884446144104004,-0.009773836471140385
1772729619856460000,8.2874599609375,0.7861829996109009,0.618806004524231,-0.04214967042207718
1772729619865978000,8.29697802734375,0.7709113359451294,0.5308414697647095,-0.08429934084415436
1772729619875496200,8.30649609375,0.7476984858512878,0.42088583111763,-0.12767073512077332
1772729619885014300,8.31601416015625,0.7220421433448792,0.3133736252784729,-0.1649334877729416
1772729619894532400,8.325532470703125,0.6976075768470764,0.2315177470445633,-0.19242240488529205
1772729619904050400,8.335050537109375,0.6719512343406677,0.18570289015769958,-0.21197007596492767
1772729619913568500,8.344568603515626,0.6401863098144531,0.17898337543010712,-0.22663083672523499
1772729619923086600,8.354086669921875,0.6029235124588013,0.19792018830776215,-0.24006985127925873
1772729619932604700,8.363604736328124,0.5626064538955688,0.20891575515270233,-0.24923282861709595
1772729619942122800,8.373122802734375,0.5283980369567871,0.2260199636220932,-0.24556763470172882
1772729619951641000,8.38264111328125,0.5021308660507202,0.25900667905807495,-0.22907429933547974
1772729619961159000,8.392158935546876,0.47464191913604736,0.28405213356018066,-0.19730933010578156
1772729619970677200,8.40167724609375,0.44470956921577454,0.3023780584335327,-0.1533270627260208
1772729619980195300,8.4111953125,0.40927940607070923,0.30604326725006104,-0.1026252806186676
1772729619989713200,8.420713134765625,0.3787361681461334,0.28527384996414185,-0.053756099194288254
1772729619999231500,8.4302314453125,0.3481929302215576,0.22785256803035736,-0.018325943499803543
1772729620008749600,8.43974951171875,0.3231474757194519,0.14233149588108063,-0.004276053514331579
1772729620018267600,8.449267578125,0.3017672002315521,0.053756099194288254,-0.013439024798572063
1772729620027785700,8.45878564453125,0.2877173125743866,-0.04214967042207718,-0.040317077189683914
1772729620037303800,8.4683037109375,0.27550002932548523,-0.1337793916463852,-0.07819069176912308
1772729620046822000,8.47782177734375,0.26389357447624207,-0.19669845700263977,-0.11239911615848541
1772729620056340000,8.487340087890624,0.2528980076313019,-0.205861434340477,-0.1331685185432434
1772729620065858000,8.496858154296875,0.23762640357017517,-0.1795942485332489,-0.13683371245861053
1772729620075376000,8.506376220703125,0.2162461280822754,-0.13622283935546875,-0.12278381735086441
1772729620084894200,8.515894287109376,0.19181154668331146,-0.08552107214927673,-0.09712749719619751
1772729620094412300,8.525412353515625,0.1698204129934311,-0.030543239787220955,-0.0616973415017128
1772729620103930400,8.534930419921874,0.15638138353824615,0.021991131827235222,-0.014660755172371864
1772729620113448700,8.54444873046875,0.1490510106086731,0.05436696484684944,0.03787361457943916
1772729620122966500,8.553966552734375,0.14721840620040894,0.06963858753442764,0.09468404203653336
1772729620132484600,8.563484619140626,0.1539379209280014,0.08368847519159317,0.15027274191379547
1772729620142003000,8.5730029296875,0.16187916696071625,0.0824667438864708,0.1954767256975174
1772729620151520800,8.582520751953124,0.1637117564678192,0.03237583488225937,0.21746785938739777
1772729620161039000,8.5920390625,0.1539379209280014,-0.08124501258134842,0.21135921776294708
1772729620170557200,8.60155712890625,0.13439024984836578,-0.24006985127925873,0.17104214429855347
1772729620180075300,8.6110751953125,0.09529490768909454,-0.41783151030540466,0.09407317638397217
1772729620189593300,8.62059326171875,0.039706211537122726,-0.573602020740509,-0.018325943499803543
1772729620199111400,8.630111328125,-0.02260199747979641,-0.6548470258712769,-0.14721840620040894
1772729620208629500,8.63962939453125,-0.07941242307424545,-0.6310232877731323,-0.2663370370864868
1772729620218147600,8.649147705078125,-0.12767073512077332,-0.5039634704589844,-0.347582072019577
1772729620227665700,8.658665771484374,-0.15821397304534912,-0.28527384996414185,-0.37201663851737976
1772729620237183700,8.668183837890625,-0.1539379209280014,-0.05742128938436508,-0.3225366175174713
1772729620246701800,8.677701904296875,-0.1331685185432434,0.1594357043504715,-0.20280711352825165
1772729620256220000,8.687219970703126,-0.09957095980644226,0.3426951467990875,-0.02932151034474373
1772729620265738000,8.696738037109375,-0.04520399495959282,0.4575377106666565,0.17837251722812653
1772729620275256000,8.706256103515624,0.020158538594841957,0.49480047821998596,0.38789913058280945
1772729620284774100,8.715774169921875,0.08429934084415436,0.4514290690422058,0.5681042671203613
1772729620294292200,8.725292236328125,0.13927717506885529,0.3329212963581085,0.7067705392837524
1772729620303810600,8.734810546875,0.1802051067352295,0.16676609218120575,0.7904590368270874
1772729620313328400,8.744328369140625,0.19853104650974274,-0.003665188793092966,0.8093958497047424
1772729620322846700,8.7538466796875,0.185092031955719,-0.13255766034126282,0.7507528066635132
1772729620332364800,8.76336474609375,0.1386663019657135,-0.2101374864578247,0.6157516837120056
1772729620341883000,8.7728828125,0.06719512492418289,-0.25411975383758545,0.4153880476951599
1772729620351401000,8.78240087890625,-0.010384701192378998,-0.3035998046398163,0.17592905461788177
1772729620360919000,8.7919189453125,-0.08796452730894089,-0.37140578031539917,-0.07330377399921417
1772729620370437000,8.80143701171875,-0.16615521907806396,-0.40805765986442566,-0.31031930446624756
1772729620379955200,8.810955078125,-0.23945899307727814,-0.37140578031539917,-0.5125155448913574
1772729620389473300,8.820473388671875,-0.2938259541988373,-0.28405213356018066,-0.6615665555000305
1772729620398991400,8.829991455078124,-0.32620179653167725,-0.18203771114349365,-0.7513636946678162
1772729620408509400,8.839509521484375,-0.3237583339214325,-0.09957095980644226,-0.7721330523490906
1772729620418027500,8.849027587890625,-0.27916520833969116,-0.03543015569448471,-0.721431314945221
1772729620427545600,8.858545654296876,-0.19364413619041443,0.037262752652168274,-0.6047561168670654
1772729620437063700,8.868063720703125,-0.0873536616563797,0.13011419773101807,-0.43860089778900146
1772729620446581800,8.877581787109374,0.020158538594841957,0.22724169492721558,-0.24434591829776764
1772729620456099800,8.887099853515625,0.11484257876873016,0.3072649836540222,-0.0513126403093338
1772729620465618000,8.896617919921875,0.19181154668331146,0.3549124300479889,0.11728604137897491
1772729620475136000,8.906135986328126,0.2522871494293213,0.3750709891319275,0.24801109731197357
1772729620484654300,8.915654296875,0.2926042377948761,0.3640754222869873,0.3329212963581085
1772729620494172200,8.925172119140624,0.3072649836540222,0.33108872175216675,0.36774060130119324
1772729620503690200,8.934690185546875,0.29443681240081787,0.28588470816612244,0.35246896743774414
1772729620513208600,8.94420849609375,0.2657261788845062,0.23273947834968567,0.29016077518463135
1772729620522726700,8.9537265625,0.2370155304670334,0.18325942754745483,0.1954767256975174
1772729620532244700,8.96324462890625,0.2162461280822754,0.13561198115348816,0.07819069176912308
1772729620541762800,8.9727626953125,0.19853104650974274,0.0977383628487587,-0.049480047076940536
1772729620551281000,8.982281005859376,0.1802051067352295,0.053145237267017365,-0.17653992772102356
1772729620560799000,8.991799072265625,0.16249002516269684,0.011606430634856224,-0.29443681240081787
1772729620570317000,9.001317138671874,0.1533270627260208,-0.008552107028663158,-0.38850998878479004
1772729620579835100,9.010835205078125,0.1490510106086731,-0.004276053514331579,-0.4477638900279999
1772729620589353200,9.020353271484375,0.14233149588108063,0.001832594396546483,-0.47097674012184143
1772729620598871300,9.029871337890626,0.13133592903614044,0.010995565913617611,-0.45998117327690125
1772729620608389400,9.039389404296875,0.12278381735086441,0.03176496922969818,-0.42088583111763
1772729620617907500,9.048907470703124,0.12705987691879272,0.0616973415017128,-0.35796675086021423
1772729620627425500,9.058425537109375,0.14538581669330597,0.11178825795650482,-0.2706131041049957
1772729620636943600,9.067943603515625,0.17776164412498474,0.18692462146282196,-0.17104214429855347
1772729620646461700,9.077461669921876,0.21930044889450073,0.26939135789871216,-0.07391463965177536
1772729620655979800,9.086979736328125,0.2663370370864868,0.34697118401527405,0.014049889519810677
1772729620665497900,9.096497802734374,0.3347539007663727,0.4056142270565033,0.07757982611656189
1772729620675016000,9.106015869140625,0.401949018239975,0.4202749729156494,0.11362084746360779
1772729620684534000,9.115533935546875,0.44837474822998047,0.3970620930194855,0.12095122784376144
1772729620694052400,9.12505224609375,0.471587598323822,0.3292561173439026,0.10506874322891235
1772729620703570200,9.134570068359375,0.4838049113750458,0.25900667905807495,0.07880155742168427
1772729620713088300,9.144088134765624,0.5009090900421143,0.22968515753746033,0.05925388261675835
1772729620722606600,9.153606689453126,0.5259546041488647,0.21380266547203064,0.05803215503692627
1772729620732124400,9.16312451171875,0.5613847374916077,0.18264856934547424,0.0824667438864708
1772729620741642800,9.172642822265624,0.6071996092796326,0.15088360011577606,0.13072505593299866
1772729620751160800,9.182160888671875,0.6615665555000305,0.18631376326084137,0.20280711352825165
1772729620760679000,9.191678955078125,0.7189878225326538,0.32192572951316833,0.28954991698265076
1772729620770197000,9.201197021484376,0.7709113359451294,0.49113526940345764,0.379347026348114
1772729620779715000,9.210715087890625,0.813060998916626,0.6261364221572876,0.4581485986709595
1772729620789233200,9.220233154296874,0.8484911918640137,0.6719512343406677,0.5174024701118469
1772729620798751200,9.229751220703125,0.8753692507743835,0.6157516837120056,0.5497782826423645
1772729620808269300,9.239269287109375,0.8796452879905701,0.5051851868629456,0.5412262082099915
1772729620817787400,9.248787353515626,0.8558215498924255,0.347582072019577,0.48441576957702637
1772729620827305500,9.258305419921875,0.8051197528839111,0.15027274191379547,0.38789913058280945
1772729620836823600,9.267823486328124,0.730594277381897,-0.007330377586185932,0.25961753726005554
1772729620846341600,9.277341552734375,0.6322450637817383,-0.09162971377372742,0.10567960888147354
1772729620855859700,9.286859619140625,0.5387827157974243,-0.10690133273601532,-0.056810423731803894
1772729620865377800,9.296377685546876,0.46975502371788025,-0.028099779039621353,-0.19425499439239502
1772729620874896000,9.305895751953125,0.44959646463394165,0.16615521907806396,-0.2816086709499359
1772729620884414000,9.3154140625,0.4630354940891266,0.43432486057281494,-0.3127627670764923
1772729620893932000,9.32493212890625,0.49541133642196655,0.675616443157196,-0.2987128794193268
1772729620903450000,9.3344501953125,0.5351175665855408,0.8210022449493408,-0.258395791053772
1772729620912968200,9.34396826171875,0.5876519083976746,0.8637627959251404,-0.20647229254245758
1772729620922486300,9.353486328125,0.6560688018798828,0.8368847370147705,-0.15577052533626556
1772729620932004400,9.36300439453125,0.7342594861984253,0.7611374855041504,-0.10873392969369888
1772729620941522400,9.3725224609375,0.7990111112594604,0.6554579138755798,-0.07941242307424545
1772729620951040800,9.382040771484375,0.8362739086151123,0.5406153202056885,-0.08002328872680664
1772729620960558600,9.39155859375,0.8637627959251404,0.45020735263824463,-0.1026252806186676
1772729620970077000,9.401076904296875,0.8839213252067566,0.43921178579330444,-0.15088360011577606
1772729620979595000,9.410594970703125,0.8741474747657776,0.44470956921577454,-0.2101374864578247
1772729620989112800,9.42011279296875,0.8069523572921753,0.4013381600379944,-0.23884813487529755
1772729620998631200,9.429631103515625,0.7195987105369568,0.30115634202957153,-0.2834412455558777
1772729621008149200,9.439149169921874,0.6780598759651184,0.28588470816612244,-0.32681265473365784
1772729621017667300,9.448667236328125,0.6456840634346008,0.3402516841888428,-0.35796675086021423
1772729621027185400,9.458185302734375,0.6035344004631042,0.45020735263824463,-0.3695732057094574
1772729621036703500,9.467703369140626,0.5827649831771851,0.5998691916465759,-0.3433060050010681
1772729621046221600,9.4772216796875,0.5955931544303894,0.7440332770347595,-0.2767217457294464
1772729621055739600,9.48673974609375,0.6249146461486816,0.8173370957374573,-0.1740964651107788
