time,seconds_elapsed,z,y,x
1772729013908838000,0.084837890625,-0.11392628401517868,-0.12583814561367035,-0.164322629570961
1772729013918355700,0.094355712890625,-0.11636973917484283,-0.14233149588108063,-0.2052505612373352
1772729013927873300,0.103873291015625,-0.11698060482740402,-0.1545487940311432,-0.23396120965480804
1772729013937391400,0.113391357421875,-0.11636973917484283,-0.15760311484336853,-0.2461785078048706
1772729013946909200,0.1229091796875,-0.11209368705749512,-0.13988803327083588,-0.24373504519462585
1772729013956427000,0.132427001953125,-0.10048725455999374,-0.11423171311616898,-0.22357651591300964
1772729013965944800,0.14194482421875,-0.09315688163042068,-0.09896009415388107,-0.1954767256975174
1772729013975462700,0.151462646484375,-0.09498947113752365,-0.09285144507884979,-0.1692095398902893
1772729013984980500,0.16098046875,-0.09682206809520721,-0.08796452730894089,-0.14538581669330597
1772729013994498600,0.17049853515625,-0.08826996386051178,-0.0769689604640007,-0.12095122784376144
1772729014004016400,0.180016357421875,-0.07299833744764328,-0.05192350596189499,-0.09590577334165573
1772729014013534200,0.1895341796875,-0.05406153202056885,-0.017715077847242355,-0.06780599057674408
1772729014023052000,0.199052001953125,-0.04001164436340332,0.010384701192378998,-0.04153880476951599
1772729014032569900,0.20856982421875,-0.029626941308379173,0.018325943499803543,-0.01954767294228077
1772729014042087700,0.218087646484375,-0.02107483521103859,0.007330377586185932,-0.002443459117785096
1772729014051605800,0.227605712890625,-0.007635809946805239,-0.014049889519810677,0.009773836471140385
1772729014061123600,0.23712353515625,0.007024944759905338,-0.04764745384454727,0.01954767294228077
1772729014070641400,0.246641357421875,0.016798781231045723,-0.0873536616563797,0.026878049597144127
1772729014080159200,0.2561591796875,0.021685699000954628,-0.1130099818110466,0.033597562462091446
1772729014089677000,0.265677001953125,0.019853105768561363,-0.11117739230394363,0.030543239787220955
1772729014099195000,0.27519482421875,0.013133592903614044,-0.11117739230394363,0.014660755172371864
1772729014108713000,0.284712890625,0.007024944759905338,-0.1130099818110466,-0.010995565913617611
1772729014118230800,0.294230712890625,0.004581485874950886,-0.10445787757635117,-0.04825831577181816
1772729014127748600,0.30374853515625,0.0027488914784044027,-0.0818558782339096,-0.09285144507884979
1772729014137266400,0.313266357421875,0.003970621153712273,-0.07024945318698883,-0.13622283935546875
1772729014146784300,0.3227841796875,0.016187917441129684,-0.05925388261675835,-0.17348559200763702
1772729014156302000,0.332302001953125,0.03145953640341759,-0.02871064469218254,-0.19914191961288452
1772729014165820000,0.34181982421875,0.03695731982588768,0.017715077847242355,-0.22296564280986786
1772729014175338000,0.351337890625,0.032070402055978775,0.08552107214927673,-0.2412915825843811
1772729014184855800,0.360855712890625,0.02107483521103859,0.17287473380565643,-0.2614501118659973
1772729014194373600,0.37037353515625,0.010690134018659592,0.2706131041049957,-0.27977606654167175
1772729014203891500,0.379891357421875,0.018631376326084137,0.36224281787872314,-0.29077163338661194
1772729014213409300,0.3894091796875,0.04367683082818985,0.4166097939014435,-0.29016077518463135
1772729014222927000,0.398927001953125,0.07910698652267456,0.4221075773239136,-0.27550002932548523
1772729014232445200,0.408445068359375,0.11575887352228165,0.3903425931930542,-0.24923282861709595
1772729014241962800,0.417962646484375,0.15302163362503052,0.3500255048274994,-0.21502439677715302
1772729014251480800,0.427480712890625,0.18784092366695404,0.29077163338661194,-0.17898337543010712
1772729014260998700,0.43699853515625,0.21777328848838806,0.2260199636220932,-0.14294235408306122
1772729014270516500,0.4465166015625,0.24709481000900269,0.1948658674955368,-0.10079269111156464
1772729014280034300,0.456034423828125,0.27458372712135315,0.20280711352825165,-0.05253437161445618
1772729014289552100,0.46555224609375,0.28985533118247986,0.23945899307727814,-0.007941242307424545
1772729014299070000,0.475070068359375,0.2868010103702545,0.30482152104377747,0.023212861269712448
1772729014308587800,0.484587890625,0.2770271897315979,0.3610210716724396,0.03543015569448471
1772729014318105900,0.49410595703125,0.27397283911705017,0.36712974309921265,0.0360410213470459
1772729014327623700,0.503623779296875,0.2874118685722351,0.36712974309921265,0.033597562462091446
1772729014337141500,0.5131416015625,0.3081812858581543,0.37262752652168274,0.029932374134659767
1772729014346659300,0.522659423828125,0.3228420317173004,0.35613417625427246,0.020158538594841957
1772729014356177200,0.53217724609375,0.3344484567642212,0.3396408259868622,0.010995565913617611
1772729014365695000,0.541695068359375,0.34055712819099426,0.3659079968929291,0.003665188793092966
1772729014375213000,0.551213134765625,0.33750277757644653,0.4361574649810791,0.006108647678047419
1772729014384731000,0.56073095703125,0.3326158821582794,0.5277871489524841,0.024434590712189674
1772729014394248700,0.570248779296875,0.33078327775001526,0.5907062292098999,0.06108647957444191
1772729014403766500,0.5797666015625,0.32589635252952576,0.5888736248016357,0.10506874322891235
1772729014413284400,0.589284423828125,0.3130682110786438,0.5540543794631958,0.1484401375055313
1772729014422802200,0.59880224609375,0.2965748608112335,0.5222893953323364,0.18753549456596375
1772729014432320000,0.608320068359375,0.2733619809150696,0.46975502371788025,0.22479823231697083
1772729014441838000,0.617838134765625,0.2562577724456787,0.3903425931930542,0.2559523284435272
1772729014451356000,0.62735595703125,0.25809037685394287,0.34208428859710693,0.28466299176216125
1772729014460873700,0.636873779296875,0.2782489061355591,0.3591884970664978,0.3127627670764923
1772729014470391600,0.6463916015625,0.30634868144989014,0.43310311436653137,0.328645259141922
1772729014479909400,0.655909423828125,0.3326158821582794,0.4929678738117218,0.32009315490722656
1772729014489427200,0.66542724609375,0.3497200906276703,0.4923570156097412,0.2809978127479553
1772729014498945300,0.6749453125,0.36254823207855225,0.4276053309440613,0.21380266547203064
1772729014508463000,0.684463134765625,0.37232208251953125,0.27977606654167175,0.12950333952903748
1772729014517981000,0.69398095703125,0.3790415823459625,0.09285144507884979,0.03787361457943916
1772729014527498800,0.703498779296875,0.3851502537727356,-0.05864302068948746,-0.04764745384454727
1772729014537016600,0.7130166015625,0.3808741867542267,-0.1185077652335167,-0.12034036219120026
1772729014546534400,0.722534423828125,0.3594939112663269,-0.20647229254245758,-0.18325942754745483
1772729014556052200,0.73205224609375,0.3289506733417511,-0.31031930446624756,-0.23884813487529755
1772729014565570000,0.741570068359375,0.29962918162345886,-0.36712974309921265,-0.27550002932548523
1772729014575087900,0.751087890625,0.2837466895580292,-0.37629270553588867,-0.2809978127479553
1772729014584606000,0.76060595703125,0.27519458532333374,-0.3035998046398163,-0.23884813487529755
1772729014594123800,0.770123779296875,0.2678641974925995,-0.10629047453403473,-0.15638138353824615
1772729014603641600,0.7796416015625,0.25381430983543396,0.13744457066059113,-0.05253437161445618
1772729014613159400,0.789159423828125,0.24220788478851318,0.337808221578598,0.04825831577181816
1772729014622677200,0.79867724609375,0.24037529528141022,0.4740310609340668,0.13744457066059113
1772729014632195000,0.808195068359375,0.2415970265865326,0.564439058303833,0.20463970303535461
1772729014641713000,0.817712890625,0.24404047429561615,0.5852084755897522,0.2522871494293213
1772729014651231000,0.82723095703125,0.2507599890232086,0.5106829404830933,0.28038692474365234
1772729014660748800,0.836748779296875,0.25870123505592346,0.37140578031539917,0.2816086709499359
1772729014670266600,0.8462666015625,0.2672533392906189,0.21685700118541718,0.2614501118659973
1772729014679784400,0.855784423828125,0.2770271897315979,0.09712749719619751,0.22174391150474548
1772729014689302300,0.86530224609375,0.2782489061355591,0.024434590712189674,0.16249002516269684
1772729014698820000,0.874820068359375,0.26358816027641296,-0.040317077189683914,0.07574722915887833
1772729014708338200,0.884338134765625,0.23732095956802368,-0.12583814561367035,-0.03237583488225937
1772729014717856000,0.89385595703125,0.20799945294857025,-0.2107483446598053,-0.14599667489528656
1772729014727373800,0.903373779296875,0.16707152128219604,-0.2919933497905731,-0.25350889563560486
1772729014736891600,0.9128916015625,0.12003492563962936,-0.37812530994415283,-0.3451386094093323
1772729014746409500,0.922409423828125,0.06383536756038666,-0.4508182108402252,-0.4153880476951599
1772729014755927300,0.93192724609375,0.011300998739898205,-0.48441576957702637,-0.46364638209342957
1772729014765445000,0.941445068359375,-0.029016077518463135,-0.4459312856197357,-0.4838049113750458
1772729014774963200,0.950963134765625,-0.04917461425065994,-0.35613417625427246,-0.4764745235443115
1772729014784481000,0.96048095703125,-0.04306596517562866,-0.19914191961288452,-0.4410443603992462
1772729014793998800,0.969998779296875,-0.014966187067329884,0.0256563201546669,-0.37690356373786926
1772729014803516700,0.9795166015625,0.022296564653515816,0.25411975383758545,-0.2926042377948761
1772729014813034500,0.989034423828125,0.06322450190782547,0.4367683231830597,-0.19669845700263977
1772729014822552300,0.99855224609375,0.10415244847536087,0.5442805290222168,-0.09407317638397217
1772729014832070100,1.008070068359375,0.14263692498207092,0.5656607747077942,0.007330377586185932
1772729014841588000,1.017587890625,0.18173226714134216,0.5314523577690125,0.09712749719619751
1772729014851105800,1.027105712890625,0.21716243028640747,0.4789179861545563,0.17104214429855347
1772729014860624000,1.036623779296875,0.2464839369058609,0.4153880476951599,0.22174391150474548
1772729014870141700,1.0461416015625,0.2611446976661682,0.3536907136440277,0.24434591829776764
1772729014879659500,1.055659423828125,0.2672533392906189,0.3042106628417969,0.23884813487529755
1772729014889177300,1.06517724609375,0.2678641974925995,0.24801109731197357,0.20891575515270233
1772729014898695200,1.074695068359375,0.2666424810886383,0.1893680840730667,0.15760311484336853
1772729014908213000,1.084212890625,0.2611446976661682,0.15027274191379547,0.0922405794262886
1772729014917730800,1.093730712890625,0.250149130821228,0.11606431007385254,0.018325943499803543
1772729014927249000,1.103248779296875,0.23487751185894012,0.06719512492418289,-0.05925388261675835
1772729014936766700,1.1127666015625,0.2214384824037552,0.020158538594841957,-0.1288924664258957
1772729014946284500,1.122284423828125,0.20861032605171204,-0.009162971749901772,-0.18631376326084137
1772729014955802400,1.13180224609375,0.1902843713760376,-0.02626718580722809,-0.23212862014770508
1772729014965320200,1.1413203125,0.17256930470466614,-0.03481929376721382,-0.2657261788845062
1772729014974838000,1.150838134765625,0.16035200655460358,-0.04520399495959282,-0.28588470816612244
1772729014984356000,1.160356201171875,0.15179990231990814,-0.07880155742168427,-0.2919933497905731
1772729014993874000,1.1698740234375,0.1438586562871933,-0.13927717506885529,-0.2834412455558777
1772729015003391700,1.179391845703125,0.13775001466274261,-0.20158538222312927,-0.26511532068252563
1772729015012909600,1.18890966796875,0.1340848207473755,-0.26511532068252563,-0.24006985127925873
1772729015022427400,1.198427490234375,0.13164135813713074,-0.32681265473365784,-0.21258094906806946
1772729015031945200,1.2079453125,0.13103049993515015,-0.3695732057094574,-0.185092031955719
1772729015041463000,1.217463134765625,0.1285870373249054,-0.3695732057094574,-0.15821397304534912
1772729015050981000,1.226981201171875,0.11881320178508759,-0.360410213470459,-0.14172062277793884
1772729015060499000,1.2364990234375,0.09560033679008484,-0.33108872175216675,-0.13622283935546875
1772729015070016500,1.2460166015625,0.06994401663541794,-0.27427828311920166,-0.13500112295150757
1772729015079534600,1.25553466796875,0.0461202897131443,-0.1899789422750473,-0.13011419773101807
1772729015089052400,1.265052490234375,0.022296564653515816,-0.09896009415388107,-0.11423171311616898
1772729015098570200,1.2745703125,0.0009162971982732415,-0.020769402384757996,-0.09285144507884979
1772729015108088000,1.284088134765625,-0.014966187067329884,0.03787361457943916,-0.06780599057674408
1772729015117606000,1.29360595703125,-0.019853105768561363,0.06047561392188072,-0.04581485688686371
1772729015127123700,1.303123779296875,-0.008857538923621178,0.04825831577181816,-0.02871064469218254
1772729015136641800,1.312641845703125,0.008857538923621178,0.004276053514331579,-0.017715077847242355
1772729015146159600,1.32215966796875,0.025961752980947495,-0.0513126403093338,-0.010995565913617611
1772729015155677400,1.331677490234375,0.03756818547844887,-0.10995566099882126,-0.009162971749901772
1772729015165195300,1.3411953125,0.04062250629067421,-0.1649334877729416,-0.014660755172371864
1772729015174713000,1.350713134765625,0.03756818547844887,-0.2156352698802948,-0.02932151034474373
1772729015184231000,1.36023095703125,0.03695731982588768,-0.268169641494751,-0.05070177838206291
1772729015193748700,1.369748779296875,0.04001164436340332,-0.29565855860710144,-0.07391463965177536
1772729015203266800,1.379266845703125,0.04673115536570549,-0.28405213356018066,-0.08918625861406326
1772729015212784600,1.38878466796875,0.054672397673130035,-0.22785256803035736,-0.09162971377372742
1772729015222302500,1.398302490234375,0.05406153202056885,-0.15577052533626556,-0.08429934084415436
1772729015231820300,1.4078203125,0.05039634555578232,-0.10690133273601532,-0.07452550530433655
1772729015241338000,1.417338134765625,0.04550942778587341,-0.10018182545900345,-0.06841685622930527
1772729015250856000,1.42685595703125,0.044898562133312225,-0.11667517572641373,-0.06536252796649933
1772729015260373800,1.436373779296875,0.04550942778587341,-0.1441640853881836,-0.06414080411195755
1772729015269891800,1.445891845703125,0.041844237595796585,-0.17104214429855347,-0.06475166976451874
1772729015279409700,1.45540966796875,0.028405211865901947,-0.17531819641590118,-0.06414080411195755
1772729015288927200,1.46492724609375,0.007635809946805239,-0.1545487940311432,-0.06597339361906052
1772729015298445300,1.4744453125,-0.019853105768561363,-0.12522727251052856,-0.06841685622930527
1772729015307963100,1.483963134765625,-0.0412333719432354,-0.09101885557174683,-0.06963858753442764
1772729015317481000,1.49348095703125,-0.05528326332569122,-0.04886918142437935,-0.06230820715427399
1772729015326998800,1.502998779296875,-0.05894844979047775,0.000610864779446274,-0.043982263654470444
1772729015336516600,1.5125166015625,-0.06261363625526428,0.02932151034474373,-0.01588248461484909
1772729015346034400,1.522034423828125,-0.06750056147575378,0.040317077189683914,0.01954767294228077
1772729015355552300,1.53155224609375,-0.07238747924566269,0.04276053607463837,0.06536252796649933
1772729015365070300,1.5410703125,-0.07422006875276566,0.020769402384757996,0.11484257876873016
1772729015374588200,1.550588134765625,-0.07605266571044922,-0.027488915249705315,0.16187916696071625
1772729015384106000,1.56010595703125,-0.07849612087011337,-0.07635809481143951,0.20463970303535461
1772729015393623800,1.569623779296875,-0.08155044913291931,-0.11178825795650482,0.23823726177215576
1772729015403141600,1.5791416015625,-0.09132428467273712,-0.13255766034126282,0.2626718580722809
1772729015412659500,1.588659423828125,-0.10537417232990265,-0.15210533142089844,0.2822195291519165
1772729015422177300,1.59817724609375,-0.12492185086011887,-0.16798780858516693,0.29565855860710144
1772729015431695400,1.6076953125,-0.15241076052188873,-0.17592905461788177,0.3090975880622864
1772729015441213200,1.617213134765625,-0.18356487154960632,-0.1637117564678192,0.32009315490722656
1772729015450731000,1.62673095703125,-0.21716243028640747,-0.1337793916463852,0.3274235129356384
1772729015460248800,1.636248779296875,-0.25320345163345337,-0.0977383628487587,0.3274235129356384
1772729015469766700,1.6457666015625,-0.28008151054382324,-0.07269290834665298,0.318871408700943
1772729015479284500,1.655284423828125,-0.2984074354171753,-0.06780599057674408,0.3029889166355133
1772729015488802300,1.66480224609375,-0.31001389026641846,-0.09162971377372742,0.2724456787109375
1772729015498320400,1.6743203125,-0.31673339009284973,-0.14599667489528656,0.22968515753746033
1772729015507838200,1.683838134765625,-0.3136790692806244,-0.2107483446598053,0.18142683804035187
1772729015517356000,1.69335595703125,-0.3039052188396454,-0.24740023910999298,0.13988803327083588
1772729015526873900,1.702873779296875,-0.2922987937927246,-0.235793799161911,0.10873392969369888
1772729015536391700,1.7123916015625,-0.2837466895580292,-0.1899789422750473,0.08063415437936783
1772729015545909500,1.721909423828125,-0.27458372712135315,-0.13133592903614044,0.053756099194288254
1772729015555427300,1.73142724609375,-0.2623664140701294,-0.05925388261675835,0.03298669680953026
1772729015564945200,1.740945068359375,-0.2409861534833908,0.014049889519810677,0.01649334840476513
1772729015574463000,1.750462890625,-0.21716243028640747,0.04459312930703163,0.0054977829568088055
1772729015583981000,1.75998095703125,-0.189673513174057,0.037262752652168274,-0.0030543238390237093
1772729015593499000,1.769498779296875,-0.15790854394435883,0.014049889519810677,0
1772729015603016700,1.7790166015625,-0.12492185086011887,-0.001832594396546483,0.015271619893610477
1772729015612534500,1.788534423828125,-0.09437860548496246,0.008552107028663158,0.039706211537122726
1772729015622052400,1.79805224609375,-0.06994401663541794,0.0256563201546669,0.06963858753442764
1772729015631570200,1.807570068359375,-0.051618073135614395,0.02932151034474373,0.09834922850131989
1772729015641088000,1.817087890625,-0.04062250629067421,0.02260199747979641,0.12400554865598679
1772729015650605800,1.826605712890625,-0.035124726593494415,0.012217295356094837,0.14110976457595825
1772729015660124000,1.8361240234375,-0.03817904740571976,0,0.14538581669330597
1772729015669641700,1.845641845703125,-0.04734202101826668,-0.018325943499803543,0.1386663019657135
1772729015679159600,1.85515966796875,-0.06322450190782547,-0.05253437161445618,0.11423171311616898
1772729015688677400,1.864677490234375,-0.08093958348035812,-0.10873392969369888,0.07024945318698883
1772729015698195200,1.8741953125,-0.09560033679008484,-0.17898337543010712,0.010995565913617611
1772729015707713000,1.883713134765625,-0.10048725455999374,-0.24556763470172882,-0.05558869615197182
1772729015717230800,1.89323095703125,-0.09376774728298187,-0.28466299176216125,-0.11545344442129135
1772729015726749000,1.9027490234375,-0.08643736690282822,-0.287106454372406,-0.16187916696071625
1772729015736266800,1.912266845703125,-0.08399390429258347,-0.2828303873538971,-0.1948658674955368
1772729015745784600,1.92178466796875,-0.08399390429258347,-0.2834412455558777,-0.21319180727005005
1772729015755302400,1.931302490234375,-0.08093958348035812,-0.29626941680908203,-0.21380266547203064
1772729015764820200,1.9408203125,-0.07116574794054031,-0.3249800503253937,-0.2003636509180069
1772729015774338000,1.950338134765625,-0.05345066636800766,-0.379347026348114,-0.17715078592300415
1772729015783855900,1.95985595703125,-0.03451386094093323,-0.42271843552589417,-0.1484401375055313
1772729015793373700,1.969373779296875,-0.013744457624852657,-0.4251618981361389,-0.1178968995809555
1772729015802891500,1.9788916015625,0.011300998739898205,-0.39828383922576904,-0.0818558782339096
1772729015812409300,1.988409423828125,0.035735588520765305,-0.3243691921234131,-0.0360410213470459
1772729015821927400,1.997927490234375,0.05711585655808449,-0.20952661335468292,0.017715077847242355
1772729015831445200,2.0074453125,0.06872228533029556,-0.0922405794262886,0.07513637095689774
1772729015840963000,2.016963134765625,0.07116574794054031,0.011606430634856224,0.13011419773101807
1772729015850481000,2.02648095703125,0.0668896958231926,0.08368847519159317,0.1802051067352295
1772729015859998700,2.035998779296875,0.05345066636800766,0.10201441496610641,0.21319180727005005
1772729015869516500,2.0455166015625,0.03634645417332649,0.0818558782339096,0.2260199636220932
1772729015879034400,2.055034423828125,0.022296564653515816,0.037262752652168274,0.21319180727005005
1772729015888552400,2.064552490234375,0.014966187067329884,-0.021991131827235222,0.17837251722812653
1772729015898070300,2.0740703125,0.01802051067352295,-0.08124501258134842,0.13072505593299866
1772729015907588000,2.083588134765625,0.028405211865901947,-0.1288924664258957,0.08307760953903198
1772729015917106000,2.09310595703125,0.044898562133312225,-0.15210533142089844,0.047036588191986084
1772729015926623700,2.102623779296875,0.06444623321294785,-0.13622283935546875,0.03237583488225937
1772729015936141600,2.1121416015625,0.08460476994514465,-0.07513637095689774,0.040317077189683914
1772729015945659400,2.121659423828125,0.10598503798246384,0.008552107028663158,0.06536252796649933
1772729015974212900,2.150212890625,0.15546508133411407,0.33658650517463684,0.2156352698802948
1772729015983731000,2.15973095703125,0.15668681263923645,0.40378162264823914,0.2706131041049957
1772729015993248800,2.169248779296875,0.15668681263923645,0.43493571877479553,0.31642794609069824
1772729016002766600,2.1787666015625,0.16035200655460358,0.4422661066055298,0.34636032581329346
1772729016012284400,2.188284423828125,0.16157373785972595,0.41233372688293457,0.35124725103378296
1772729016021802200,2.19780224609375,0.1591302752494812,0.35735589265823364,0.3274235129356384
1772729016031320000,2.207320068359375,0.14996729791164398,0.2822195291519165,0.27427828311920166
1772729016040838000,2.216837890625,0.13775001466274261,0.17653992772102356,0.19425499439239502
1772729016050356000,2.22635595703125,0.12675444781780243,0.046425722539424896,0.09529490768909454
1772729016059873800,2.235873779296875,0.12675444781780243,-0.06841685622930527,-0.003665188793092966
1772729016069391600,2.2453916015625,0.14508038759231567,-0.11667517572641373,-0.07941242307424545
1772729016078909400,2.254909423828125,0.1805105358362198,-0.07391463965177536,-0.10934479534626007
1772729016088427300,2.26442724609375,0.22937972843647003,0.07513637095689774,-0.0824667438864708
1772729016097945000,2.273945068359375,0.2874118685722351,0.31520622968673706,0.001221729558892548
1772729016107463000,2.283462890625,0.35277441143989563,0.6023126840591431,0.12522727251052856
1772729016116980700,2.292980712890625,0.4169152081012726,0.8600975871086121,0.26450446248054504
1772729016126498800,2.302498779296875,0.4773908257484436,1.0207550525665283,0.4013381600379944
1772729016136016600,2.3120166015625,0.5293143391609192,1.0574069023132324,0.5192350745201111
1772729016145534500,2.321534423828125,0.5665770769119263,1.0195332765579224,0.6071996092796326
1772729016155052300,2.33105224609375,0.5745183229446411,0.924238383769989,0.6542361974716187
1772729016164570000,2.340570068359375,0.5506945848464966,0.7666352987289429,0.6499601006507874
1772729016174088000,2.350087890625,0.5042688846588135,0.56382817029953,0.5949822664260864
1772729016183605800,2.359605712890625,0.45478883385658264,0.33719736337661743,0.49663305282592773
1772729016193123800,2.369123779296875,0.4211912751197815,0.12461641430854797,0.3640754222869873
1772729016202641400,2.378641357421875,0.40958482027053833,-0.021991131827235222,0.20952661335468292
1772729016212159200,2.3881591796875,0.40958482027053833,-0.11178825795650482,0.039706211537122726
1772729016221677300,2.39767724609375,0.4101957082748413,-0.18814635276794434,-0.13133592903614044
1772729016231195100,2.407195068359375,0.40714138746261597,-0.25534147024154663,-0.2889390289783478
1772729016240713000,2.416712890625,0.4016436040401459,-0.2974911332130432,-0.4153880476951599
1772729016250230800,2.426230712890625,0.39248061180114746,-0.28405213356018066,-0.5039634704589844
1772729016259748600,2.43574853515625,0.38270679116249084,-0.22846342623233795,-0.5485565662384033
1772729016269266400,2.445266357421875,0.3741546869277954,-0.13500112295150757,-0.545502245426178
1772729016278784300,2.4547841796875,0.36743515729904175,-0.014660755172371864,-0.49418962001800537
1772729016288302000,2.464302001953125,0.3686569035053253,0.13744457066059113,-0.3964512348175049
1772729016297820200,2.473820068359375,0.3759872615337372,0.30604326725006104,-0.2608392536640167
1772729016307338000,2.483337890625,0.37843072414398193,0.44837474822998047,-0.10629047453403473
1772729016316855800,2.492855712890625,0.3704894781112671,0.5412262082099915,0.043371398001909256
1772729016326373600,2.50237353515625,0.3539961278438568,0.5772672295570374,0.17104214429855347
1772729016335891500,2.511891357421875,0.34055712819099426,0.5607738494873047,0.2663370370864868
1772729016345409300,2.5214091796875,0.33750277757644653,0.5070177912712097,0.3298669755458832
1772729016354927000,2.530927001953125,0.33567020297050476,0.42394015192985535,0.3555232882499695
1772729016364445200,2.540445068359375,0.33078327775001526,0.3243691921234131,0.34208428859710693
1772729016373962800,2.549962646484375,0.31612253189086914,0.21868959069252014,0.28954991698265076
1772729016383480600,2.55948046875,0.30024003982543945,0.10323614627122879,0.20952661335468292
1772729016392998700,2.56899853515625,0.2861901521682739,0.001221729558892548,0.11239911615848541
1772729016402516500,2.5785166015625,0.2715294063091278,-0.07513637095689774,0.011606430634856224
1772729016412034300,2.588034423828125,0.2519817352294922,-0.13194678723812103,-0.08368847519159317
1772729016421552000,2.59755224609375,0.23304490745067596,-0.1740964651107788,-0.16187916696071625
1772729016431070000,2.607070068359375,0.2159406989812851,-0.1948658674955368,-0.21685700118541718
1772729016440587800,2.616587890625,0.19761475920677185,-0.19120067358016968,-0.2522871494293213
1772729016450105600,2.626105712890625,0.1695149689912796,-0.185092031955719,-0.27427828311920166
1772729016459623400,2.63562353515625,0.1328630894422531,-0.17837251722812653,-0.28405213356018066
1772729016469141500,2.6451416015625,0.09498947113752365,-0.1740964651107788,-0.2809978127479553
1772729016478659300,2.654659423828125,0.06017018109560013,-0.16187916696071625,-0.25961753726005554
1772729016488177200,2.66417724609375,0.02779434807598591,-0.09468404203653336,-0.21868959069252014
1772729016497695000,2.673695068359375,-0.005192350596189499,-0.009773836471140385,-0.16554436087608337
1772729016507212800,2.683212890625,-0.03634645417332649,0.04459312930703163,-0.11056652665138245
1772729016516730600,2.692730712890625,-0.05528326332569122,0.07024945318698883,-0.06230820715427399
1772729016526248400,2.70224853515625,-0.057726722210645676,0.0665842592716217,-0.026878049597144127
1772729016535766500,2.7117666015625,-0.044898562133312225,0.0256563201546669,-0.010384701192378998
1772729016545284400,2.721284423828125,-0.025961752980947495,-0.050090912729501724,-0.014049889519810677
1772729016554802000,2.730802001953125,-0.0027488914784044027,-0.13744457066059113,-0.029932374134659767
1772729016564320000,2.740320068359375,0.01802051067352295,-0.21746785938739777,-0.05253437161445618
1772729016573837800,2.749837890625,0.03023780696094036,-0.27977606654167175,-0.07574722915887833
1772729016583355600,2.759355712890625,0.029016077518463135,-0.3237583339214325,-0.10018182545900345
1772729016592873500,2.76887353515625,0.022296564653515816,-0.3426951467990875,-0.1185077652335167
1772729016602391300,2.778391357421875,0.01435532234609127,-0.3390299379825592,-0.12705987691879272
1772729016611909000,2.7879091796875,0.005803215317428112,-0.3176496922969818,-0.12156209349632263
1772729016621427000,2.797427001953125,0.0015271619195118546,-0.28038692474365234,-0.10506874322891235
1772729016630944800,2.80694482421875,-0.0015271619195118546,-0.2406807243824005,-0.07574722915887833
1772729016640462800,2.816462890625,-0.000305432389723137,-0.1954767256975174,-0.036651886999607086
1772729016649980700,2.825980712890625,0.0015271619195118546,-0.14599667489528656,0.010995565913617611
1772729016659498500,2.83549853515625,0.0027488914784044027,-0.10751219838857651,0.056810423731803894
1772729016669016300,2.845016357421875,-0.0021380267571657896,-0.10445787757635117,0.0922405794262886
1772729016678534100,2.8545341796875,-0.013133592903614044,-0.13194678723812103,0.10934479534626007
1772729016688052000,2.864052001953125,-0.02718348242342472,-0.17715078592300415,0.10567960888147354
1772729016697569800,2.87356982421875,-0.044898562133312225,-0.21930044889450073,0.08002328872680664
1772729016707087600,2.883087646484375,-0.06505709886550903,-0.23457208275794983,0.043371398001909256
1772729016716605700,2.892605712890625,-0.08888082206249237,-0.2211330533027649,0.0030543238390237093
1772729016726123500,2.90212353515625,-0.12186752259731293,-0.18142683804035187,-0.026878049597144127
1772729016735641300,2.911641357421875,-0.16707152128219604,-0.16249002516269684,-0.04581485688686371
1772729016745159200,2.9211591796875,-0.22876885533332825,-0.18203771114349365,-0.050090912729501724
1772729016754677000,2.930677001953125,-0.29962918162345886,-0.2009745091199875,-0.04886918142437935
1772729016764194800,2.94019482421875,-0.3704894781112671,-0.20280711352825165,-0.04276053607463837
1772729016773712600,2.949712646484375,-0.42974337935447693,-0.18387030065059662,-0.031154103577136993
1772729016783230500,2.95923046875,-0.47006043791770935,-0.1282816082239151,-0.002443459117785096
1772729016792748300,2.968748291015625,-0.48960810899734497,-0.03909534588456154,0.0513126403093338
1772729016802266000,2.97826611328125,-0.4932733178138733,0.07269290834665298,0.1331685185432434
1772729016811784200,2.9877841796875,-0.48472121357917786,0.18692462146282196,0.2364046722650528
1772729016821302000,2.997302001953125,-0.4712821841239929,0.29626941680908203,0.35185810923576355
1772729016830819800,3.00681982421875,-0.4474584460258484,0.3707949221134186,0.46059203147888184
1772729016840337700,3.016337646484375,-0.41874781250953674,0.3799578845500946,0.5473348498344421
1772729016849855500,3.02585546875,-0.383928507566452,0.3127627670764923,0.6004800796508789
1772729016859373300,3.035373291015625,-0.34605491161346436,0.17653992772102356,0.6206386089324951
1772729016868891100,3.04489111328125,-0.31551164388656616,0.017104214057326317,0.6053670048713684
1772729016878409000,3.054408935546875,-0.29474225640296936,-0.12522727251052856,0.5583304166793823
1772729016887927000,3.063927001953125,-0.2977965772151947,-0.22357651591300964,0.4819723069667816
1772729016897444900,3.07344482421875,-0.3228420317173004,-0.268169641494751,0.379347026348114
1772729016906962700,3.082962646484375,-0.36804601550102234,-0.2816086709499359,0.25473061203956604
1772729016916480500,3.09248046875,-0.4218021333217621,-0.2919933497905731,0.11972949653863907
1772729016925998300,3.101998291015625,-0.4718930423259735,-0.3243691921234131,-0.01588248461484909
1772729016935516200,3.11151611328125,-0.5109884142875671,-0.3750709891319275,-0.13744457066059113
1772729016945034000,3.121033935546875,-0.5335903763771057,-0.38789913058280945,-0.2309068888425827
1772729016954551800,3.1305517578125,-0.5458076596260071,-0.36163195967674255,-0.29016077518463135
1772729016964069600,3.140069580078125,-0.5482511520385742,-0.32620179653167725,-0.3127627670764923
1772729016973587500,3.14958740234375,-0.5342012643814087,-0.28466299176216125,-0.2932150959968567
1772729016983105300,3.159105224609375,-0.4987711012363434,-0.2205221801996231,-0.2309068888425827
1772729016992623400,3.168623291015625,-0.44929105043411255,-0.13133592903614044,-0.1331685185432434
1772729017002141200,3.17814111328125,-0.3992001414299011,-0.036651886999607086,-0.017104214057326317
1772729017011659000,3.187658935546875,-0.35705047845840454,0.036651886999607086,0.10384701192378998
1772729017021176800,3.1971767578125,-0.3283398151397705,0.06536252796649933,0.21197007596492767
1772729017030694700,3.206694580078125,-0.31001389026641846,0.04764745384454727,0.29565855860710144
1772729017040212500,3.21621240234375,-0.2971857190132141,0.001832594396546483,0.35063639283180237
1772729017049730300,3.225730224609375,-0.29046618938446045,-0.0665842592716217,0.37262752652168274
1772729017059248000,3.235248046875,-0.2935205399990082,-0.15027274191379547,0.35735589265823364
1772729017068766200,3.24476611328125,-0.3087921440601349,-0.22663083672523499,0.30543237924575806
1772729017078284000,3.254283935546875,-0.3283398151397705,-0.29138249158859253,0.22174391150474548
1772729017087801900,3.2638017578125,-0.3497200906276703,-0.3426951467990875,0.11362084746360779
1772729017097319700,3.273319580078125,-0.3656025826931,-0.3750709891319275,-0.004276053514331579
1772729017106837500,3.28283740234375,-0.3790415823459625,-0.3860665261745453,-0.1178968995809555
1772729017116355300,3.292355224609375,-0.39309149980545044,-0.37140578031539917,-0.21380266547203064
1772729017125873200,3.301873046875,-0.4053087830543518,-0.34147340059280396,-0.28588470816612244
1772729017135391000,3.311390869140625,-0.4150826036930084,-0.31031930446624756,-0.32681265473365784
1772729017144908800,3.32090869140625,-0.41447174549102783,-0.287106454372406,-0.33658650517463684
1772729017154426600,3.330426513671875,-0.4016436040401459,-0.27550002932548523,-0.31520622968673706
1772729017163944400,3.3399443359375,-0.3857611119747162,-0.2620609998703003,-0.26878049969673157
1772729017173462500,3.349462646484375,-0.36804601550102234,-0.25411975383758545,-0.20341797173023224
1772729017182980400,3.35898046875,-0.3448331654071808,-0.2309068888425827,-0.12400554865598679
1772729017192498200,3.368498291015625,-0.31612253189086914,-0.1795942485332489,-0.03848448023200035
1772729017202016000,3.37801611328125,-0.2922987937927246,-0.11362084746360779,0.037262752652168274
1772729017211533800,3.387533935546875,-0.2776380479335785,-0.07757982611656189,0.09407317638397217
1772729017221051600,3.3970517578125,-0.26908594369888306,-0.0769689604640007,0.12583814561367035
1772729017230569500,3.406569580078125,-0.2611446976661682,-0.10201441496610641,0.13133592903614044
1772729017240087300,3.41608740234375,-0.2525925934314728,-0.14294235408306122,0.10751219838857651
1772729017249605400,3.42560546875,-0.24709481000900269,-0.18203771114349365,0.05803215503692627
1772729017259123200,3.435123291015625,-0.23182319104671478,-0.21197007596492767,-0.001221729558892548
1772729017268641000,3.44464111328125,-0.20799945294857025,-0.23457208275794983,-0.05253437161445618
1772729017278158800,3.454158935546875,-0.18417572975158691,-0.2516762912273407,-0.09040798991918564
1772729017287676700,3.4636767578125,-0.16584978997707367,-0.2669478952884674,-0.11056652665138245
1772729017297194500,3.473194580078125,-0.1493564397096634,-0.28466299176216125,-0.11178825795650482
1772729017306712300,3.48271240234375,-0.1334739476442337,-0.30054548382759094,-0.09590577334165573
1772729017316230100,3.492230224609375,-0.11575887352228165,-0.29443681240081787,-0.06230820715427399
1772729017325748000,3.501748046875,-0.09315688163042068,-0.2663370370864868,-0.01649334840476513
1772729017335265800,3.511265869140625,-0.06811141967773438,-0.20341797173023224,0.04276053607463837
1772729017344783600,3.52078369140625,-0.03817904740571976,-0.11362084746360779,0.11667517572641373
1772729017354301700,3.5303017578125,0.0015271619195118546,0.004276053514331579,0.20219624042510986
1772729017363819500,3.539819580078125,0.03756818547844887,0.1441640853881836,0.2919933497905731
1772729017373337300,3.54933740234375,0.06505709886550903,0.25900667905807495,0.37323838472366333
1772729017382855200,3.558855224609375,0.08765909820795059,0.32070401310920715,0.43860089778900146
1772729017392373000,3.568373046875,0.11331541836261749,0.3237583339214325,0.48441576957702637
1772729017401890800,3.577890869140625,0.14141519367694855,0.2779434621334076,0.5094612240791321
1772729017411408600,3.58740869140625,0.168904110789299,0.20158538222312927,0.5131264328956604
1772729017420926500,3.596926513671875,0.18600831925868988,0.11911863088607788,0.49418962001800537
1772729017430444500,3.606444580078125,0.1853974610567093,0.04764745384454727,0.45020735263824463
1772729017439962400,3.61596240234375,0.16523891687393188,-0.010384701192378998,0.3811796307563782
1772729017449480200,3.625480224609375,0.13530655205249786,-0.056810423731803894,0.29016077518463135
1772729017458998000,3.634998046875,0.10231985151767731,-0.08368847519159317,0.18875721096992493
1772729017468515800,3.644515869140625,0.0766635313630104,-0.08979712426662445,0.09590577334165573
1772729017478033700,3.65403369140625,0.0668896958231926,-0.07024945318698883,0.026878049597144127
1772729017487551500,3.663551513671875,0.06933315098285675,-0.014660755172371864,-0.0054977829568088055
1772729017497069300,3.6730693359375,0.07605266571044922,0.05436696484684944,-0.000610864779446274
1772729017506587100,3.682587158203125,0.08765909820795059,0.14233149588108063,0.0360410213470459
1772729017516105000,3.69210498046875,0.10231985151767731,0.2632827162742615,0.09529490768909454
1772729017525622800,3.701622802734375,0.12431098520755768,0.4269944727420807,0.16859868168830872
1772729017535140600,3.711140625,0.1585194170475006,0.5992583632469177,0.2467893660068512
1772729017544658700,3.72065869140625,0.19761475920677185,0.7293725609779358,0.31520622968673706
1772729017554176500,3.730176513671875,0.23915356397628784,0.7800742983818054,0.36712974309921265
1772729017563694300,3.7396943359375,0.28008151054382324,0.7672461867332458,0.39889469742774963
1772729017573212200,3.749212158203125,0.32162031531333923,0.7092140316963196,0.41233372688293457
1772729017582730000,3.75872998046875,0.3539961278438568,0.6071996092796326,0.4001164436340332
1772729017592247800,3.768247802734375,0.36621344089508057,0.47036588191986084,0.35674503445625305
1772729017601765600,3.777765625,0.3601047992706299,0.32681265473365784,0.2834412455558777
1772729017611283500,3.787283447265625,0.3381136655807495,0.20219624042510986,0.1844811588525772
1772729017620801500,3.796801513671875,0.31490078568458557,0.09407317638397217,0.06475166976451874
1772729017630319400,3.8063193359375,0.29962918162345886,-0.008552107028663158,-0.06597339361906052
1772729017639837000,3.8158369140625,0.2984074354171753,-0.09162971377372742,-0.19303326308727264
1772729017649355000,3.82535498046875,0.3032943606376648,-0.15821397304534912,-0.3035998046398163
1772729017658872800,3.834872802734375,0.30451610684394836,-0.20769402384757996,-0.389120876789093
1772729017668390700,3.844390625,0.29413139820098877,-0.21380266547203064,-0.4428769648075104
1772729017677908500,3.853908447265625,0.27397283911705017,-0.17653992772102356,-0.4679224193096161
1772729017687426300,3.86342626953125,0.25381430983543396,-0.1130099818110466,-0.4685332775115967
1772729017696944000,3.872944091796875,0.24281874299049377,-0.028099779039621353,-0.4428769648075104
1772729017706462000,3.8824619140625,0.2507599890232086,0.08552107214927673,-0.3848448097705841
1772729017715979800,3.891979736328125,0.2721402645111084,0.21685700118541718,-0.3042106628417969
1772729017725497900,3.901497802734375,0.3020726442337036,0.3335321843624115,-0.20708316564559937
1772729017735015700,3.911015625,0.33689191937446594,0.411722868680954,-0.10018182545900345
1772729017744533500,3.920533447265625,0.37232208251953125,0.4410443603992462,0.004276053514331579
1772729017754051300,3.93005126953125,0.40408703684806824,0.42455101013183594,0.09834922850131989
1772729017763569200,3.939569091796875,0.4199695289134979,0.3842339515686035,0.17226386070251465
1772729017773087000,3.9490869140625,0.416304349899292,0.33658650517463684,0.21502439677715302
1772729017782604800,3.958604736328125,0.39248061180114746,0.28527384996414185,0.2211330533027649
1772729017792122600,3.96812255859375,0.36193737387657166,0.23212862014770508,0.19730933010578156
1772729017801640400,3.977640380859375,0.3277289569377899,0.17531819641590118,0.1490510106086731
1772729017811158500,3.987158447265625,0.3026835024356842,0.11667517572641373,0.08613193035125732
1772729017820676000,3.996676025390625,0.2868010103702545,0.05925388261675835,0.020158538594841957
1772729017830194000,4.00619384765625,0.272751122713089,0.014049889519810677,-0.04214967042207718
1772729017839712000,4.0157119140625,0.25442516803741455,-0.014049889519810677,-0.09834922850131989
1772729017849229800,4.025229736328125,0.22754712402820587,-0.037262752652168274,-0.14477495849132538
1772729017858747600,4.03474755859375,0.18906265497207642,-0.06047561392188072,-0.18264856934547424
1772729017868265500,4.044265380859375,0.1493564397096634,-0.06719512492418289,-0.20769402384757996
1772729017877783300,4.053783203125,0.11392628401517868,-0.04764745384454727,-0.21868959069252014
1772729017887301000,4.063301025390625,0.08155044913291931,-0.024434590712189674,-0.21441353857517242
1772729017896819000,4.07281884765625,0.05100720748305321,-0.009162971749901772,-0.19181154668331146
1772729017906336800,4.082336669921875,0.025961752980947495,0.006108647678047419,-0.15271618962287903
1772729017915854800,4.091854736328125,0.0015271619195118546,0.02260199747979641,-0.10567960888147354
1772729017925372700,4.10137255859375,-0.019242240116000175,0.031154103577136993,-0.056810423731803894
1772729017934890500,4.110890380859375,-0.03390299528837204,0.028099779039621353,-0.01649334840476513
1772729017944408300,4.120408203125,-0.03634645417332649,0.007330377586185932,0.012217295356094837
1772729017953926100,4.129926025390625,-0.026572618633508682,-0.020769402384757996,0.030543239787220955
1772729017963444000,4.13944384765625,-0.011911863461136818,-0.05253437161445618,0.037262752652168274
1772729017972961800,4.1489619140625,0.003359756199643016,-0.09162971377372742,0.03481929376721382
1772729017982479600,4.158479736328125,0.01435532234609127,-0.13988803327083588,0.025045456364750862
1772729017991997400,4.16799755859375,0.019242240116000175,-0.1948658674955368,0.007330377586185932
1772729018001515300,4.177515380859375,0.021685699000954628,-0.25350889563560486,-0.014049889519810677
1772729018011033000,4.187033203125,0.02412915788590908,-0.3139844834804535,-0.03787361457943916
1772729018020551000,4.196551025390625,0.025961752980947495,-0.3585776388645172,-0.05864302068948746
1772729018030069000,4.206069091796875,0.02412915788590908,-0.37629270553588867,-0.0720820426940918
1772729018039586800,4.2155869140625,0.014966187067329884,-0.3860665261745453,-0.07513637095689774
1772729018049104600,4.225104736328125,0.0009162971982732415,-0.3634645342826843,-0.06414080411195755
1772729018058622500,4.23462255859375,-0.011300998739898205,-0.3072649836540222,-0.03787361457943916
1772729018068140300,4.244140380859375,-0.02107483521103859,-0.24984370172023773,0.003665188793092966
1772729018077658000,4.253658203125,-0.028405211865901947,-0.19242240488529205,0.05497783049941063
1772729018087176000,4.263176025390625,-0.03329212963581085,-0.14049890637397766,0.11178825795650482
1772729018096693800,4.27269384765625,-0.03756818547844887,-0.10567960888147354,0.1637117564678192
1772729018106211600,4.282211669921875,-0.04367683082818985,-0.10567960888147354,0.20402882993221283
1772729018115729700,4.291729736328125,-0.05955931544303894,-0.13561198115348816,0.22418737411499023
1772729018125247200,4.301247314453125,-0.08277218043804169,-0.19364413619041443,0.21930044889450073
1772729018134765300,4.310765380859375,-0.10965022444725037,-0.25900667905807495,0.1893680840730667
1772729018144283000,4.320282958984375,-0.1438586562871933,-0.30970844626426697,0.13500112295150757
1772729018153801000,4.329801025390625,-0.18784092366695404,-0.3494146466255188,0.06047561392188072
1772729018163318800,4.33931884765625,-0.23243404924869537,-0.37262752652168274,-0.023823726922273636
1772729018172836600,4.348836669921875,-0.2770271897315979,-0.40317076444625854,-0.11484257876873016
1772729018182354400,4.3583544921875,-0.324063777923584,-0.4526508152484894,-0.20830489695072174
1772729018191872300,4.367872314453125,-0.36621344089508057,-0.4978547990322113,-0.2932150959968567
1772729018201390000,4.37739013671875,-0.40225446224212646,-0.5143481492996216,-0.36224281787872314
1772729018210908000,4.386907958984375,-0.4272999167442322,-0.5033525824546814,-0.4105011224746704
1772729018220426000,4.396426025390625,-0.43463030457496643,-0.47586366534233093,-0.42271843552589417
1772729018229943800,4.40594384765625,-0.4101957082748413,-0.3970620930194855,-0.38301220536231995
1772729018239461600,4.415461669921875,-0.36132651567459106,-0.26022839546203613,-0.2809978127479553
1772729018248979500,4.4249794921875,-0.3026835024356842,-0.08552107214927673,-0.13133592903614044
1772729018258497300,4.434497314453125,-0.2458730787038803,0.09896009415388107,0.046425722539424896
1772729018268015000,4.44401513671875,-0.19944734871387482,0.2370155304670334,0.22724169492721558
1772729018277533000,4.453532958984375,-0.1646280586719513,0.2987128794193268,0.3842339515686035
1772729018287050800,4.46305078125,-0.1383608728647232,0.2809978127479553,0.5094612240791321
1772729018296568600,4.472568603515625,-0.12247838824987411,0.1948658674955368,0.5888736248016357
1772729018306086400,4.48208642578125,-0.12003492563962936,0.07391463965177536,0.618806004524231
1772729018315604200,4.491604248046875,-0.13164135813713074,-0.04214967042207718,0.5894845128059387
1772729018325122300,4.501122314453125,-0.15057817101478577,-0.12767073512077332,0.5009090900421143
1772729018334640000,4.51064013671875,-0.17073670029640198,-0.18325942754745483,0.36224281787872314
1772729018344158000,4.520157958984375,-0.18906265497207642,-0.21868959069252014,0.1905898153781891
1772729018353675800,4.52967578125,-0.20127993822097778,-0.23029601573944092,0.006719512399286032
1772729018363193600,4.539193603515625,-0.20738859474658966,-0.21441353857517242,-0.1698204129934311
1772729018372711400,4.54871142578125,-0.21288637816905975,-0.20952661335468292,-0.3237583339214325
1772729018382229200,4.558229248046875,-0.2110537886619568,-0.21807873249053955,-0.4416552484035492
1772729018391747000,4.5677470703125,-0.2006690800189972,-0.2107483446598053,-0.5082395076751709
1772729018401265000,4.577264892578125,-0.18112140893936157,-0.1802051067352295,-0.5241219997406006
1772729018410783000,4.586782958984375,-0.16340632736682892,-0.14599667489528656,-0.500298261642456
1772729018420300800,4.59630078125,-0.1493564397096634,-0.12705987691879272,-0.44898560643196106
1772729018429818600,4.605818603515625,-0.13713914155960083,-0.11423171311616898,-0.3756818473339081
1772729018439336400,4.61533642578125,-0.12247838824987411,-0.10934479534626007,-0.29138249158859253
1772729018448854300,4.624854248046875,-0.10965022444725037,-0.09040798991918564,-0.20341797173023224
1772729018458372000,4.6343720703125,-0.09804379940032959,-0.06902772188186646,-0.12522727251052856
1772729018467890000,4.643889892578125,-0.08949168771505356,-0.05253437161445618,-0.06536252796649933
1772729018477407700,4.65340771484375,-0.08338304609060287,-0.04581485688686371,-0.027488915249705315
1772729018486925600,4.662925537109375,-0.07360920310020447,-0.04581485688686371,-0.009162971749901772
1772729018496443400,4.672443359375,-0.06322450190782547,-0.06108647957444191,-0.008552107028663158
1772729018505961200,4.681961181640625,-0.05406153202056885,-0.10201441496610641,-0.02626718580722809
1772729018515479000,4.69147900390625,-0.05589412897825241,-0.15699224174022675,-0.06230820715427399
1772729018524997000,4.7009970703125,-0.0668896958231926,-0.20280711352825165,-0.10690133273601532
1772729018534515000,4.710514892578125,-0.08521563559770584,-0.21807873249053955,-0.1496618688106537
1772729018544032800,4.72003271484375,-0.11209368705749512,-0.21746785938739777,-0.18875721096992493
1772729018553550600,4.729550537109375,-0.1432477980852127,-0.20463970303535461,-0.21991132199764252
1772729018563068400,4.739068359375,-0.17195843160152435,-0.1740964651107788,-0.24434591829776764
1772729018572586200,4.748586181640625,-0.1945604383945465,-0.15027274191379547,-0.25900667905807495
1772729018582104000,4.75810400390625,-0.2049451321363449,-0.1331685185432434,-0.26511532068252563
1772729018591622000,4.767621826171875,-0.20127993822097778,-0.1233946830034256,-0.2577849328517914
1772729018601139700,4.7771396484375,-0.18295399844646454,-0.11972949653863907,-0.2364046722650528
1772729018610657800,4.78665771484375,-0.15790854394435883,-0.10323614627122879,-0.19853104650974274
1772729018620175400,4.79617529296875,-0.13041962683200836,-0.08368847519159317,-0.14660754799842834
1772729018629693200,4.805693115234375,-0.10231985151767731,-0.04459312930703163,-0.08124501258134842
1772729018639211300,4.815211181640625,-0.07788526266813278,0.026878049597144127,-0.009162971749901772
1772729018648729000,4.82472900390625,-0.06322450190782547,0.08552107214927673,0.05803215503692627
1772729018658247000,4.834246826171875,-0.05894844979047775,0.08857539296150208,0.11117739230394363
1772729018667764700,4.8437646484375,-0.05589412897825241,0.04459312930703163,0.1496618688106537
1772729018677282600,4.853282470703125,-0.04306596517562866,-0.0054977829568088055,0.17043127119541168
1772729018686800400,4.86280029296875,-0.0308486707508564,-0.03909534588456154,0.16859868168830872
1772729018696318200,4.872318115234375,-0.025961752980947495,-0.07757982611656189,0.14233149588108063
1772729018705836000,4.8818359375,-0.028405211865901947,-0.12034036219120026,0.09834922850131989
1772729018715353900,4.891353759765625,-0.03390299528837204,-0.13561198115348816,0.04520399495959282
1772729018724872000,4.900871826171875,-0.03940077871084213,-0.11728604137897491,-0.010995565913617611
1772729018734389800,4.9103896484375,-0.04673115536570549,-0.08979712426662445,-0.06475166976451874
1772729018743907600,4.919907470703125,-0.05406153202056885,-0.07635809481143951,-0.1130099818110466
1772729018753425400,4.92942529296875,-0.05406153202056885,-0.06475166976451874,-0.1441640853881836
1772729018762943200,4.938943115234375,-0.041844237595796585,-0.0409279391169548,-0.1539379209280014
1772729018772461000,4.9484609375,-0.0204639695584774,-0.008552107028663158,-0.1386663019657135
1772729018781979000,4.957978759765625,0.005192350596189499,0.043982263654470444,-0.09346231073141098
1772729018791496700,4.96749658203125,0.032070402055978775,0.1233946830034256,-0.01954767294228077
1772729018801014500,4.9770146484375,0.057726722210645676,0.21930044889450073,0.07513637095689774
1772729018810532400,4.986532470703125,0.07299833744764328,0.2968802750110626,0.16676609218120575
1772729018820050200,4.99605029296875,0.08521563559770584,0.33108872175216675,0.24312418699264526
1772729018829568000,5.005568115234375,0.09987638890743256,0.328645259141922,0.29565855860710144
1772729018839086000,5.015086181640625,0.12064579129219055,0.31459537148475647,0.32070401310920715
1772729018848604000,5.02460400390625,0.1383608728647232,0.2889390289783478,0.3139844834804535
1772729018858121700,5.034121826171875,0.14813470840454102,0.23457208275794983,0.2767217457294464
1772729018867639600,5.0436396484375,0.1536324918270111,0.1533270627260208,0.21502439677715302
1772729018877157400,5.053157470703125,0.1585194170475006,0.07513637095689774,0.14110976457595825
1772729018886675200,5.06267529296875,0.1591302752494812,0.04153880476951599,0.06536252796649933
1772729018896193000,5.072193115234375,0.15302163362503052,0.03909534588456154,-0.0054977829568088055
1772729018905710800,5.0817109375,0.1389717310667038,0.046425722539424896,-0.06414080411195755
1772729018915228700,5.091228759765625,0.12370011955499649,0.0409279391169548,-0.10751219838857651
1772729018924746800,5.100746826171875,0.10659590363502502,0.010995565913617611,-0.14110976457595825
1772729018934264300,5.110264404296875,0.08643736690282822,-0.028099779039621353,-0.16187916696071625
1772729018943782100,5.1197822265625,0.06872228533029556,-0.031154103577136993,-0.16065743565559387
1772729018953300200,5.12930029296875,0.05955931544303894,0.049480047076940536,-0.12461641430854797
1772729018962818000,5.138818115234375,0.05528326332569122,0.21135921776294708,-0.05558869615197182
1772729018972335900,5.1483359375,0.05406153202056885,0.4276053309440613,0.03481929376721382
1772729018981853700,5.157853759765625,0.061391908675432205,0.6493492722511292,0.13255766034126282
1772729018991371500,5.16737158203125,0.10048725455999374,0.8277217745780945,0.23212862014770508
1772729019000889300,5.176889404296875,0.1646280586719513,0.9498947262763977,0.318871408700943
1772729019010407200,5.1864072265625,0.2360992431640625,0.9883792400360107,0.3787361681461334
1772729019019925000,5.195925048828125,0.29962918162345886,0.925460159778595,0.40378162264823914
1772729019029442800,5.20544287109375,0.3533852696418762,0.7929024696350098,0.3915643095970154
1772729019038961000,5.2149609375,0.39186975359916687,0.6181951761245728,0.3433060050010681
1772729019048478700,5.224478759765625,0.4150826036930084,0.43004879355430603,0.2614501118659973
1772729019057996500,5.23399658203125,0.4272999167442322,0.2364046722650528,0.15638138353824615
1772729019067514400,5.243514404296875,0.43279770016670227,0.06719512492418289,0.0409279391169548
1772729019077032200,5.2530322265625,0.4321868419647217,-0.05558869615197182,-0.07452550530433655
1772729019086550000,5.262550048828125,0.425467312335968,-0.13988803327083588,-0.18570289015769958
1772729019096067800,5.27206787109375,0.40714138746261597,-0.19792018830776215,-0.2834412455558777
1772729019105585700,5.281585693359375,0.37843072414398193,-0.21807873249053955,-0.36774060130119324
1772729019115103500,5.291103515625,0.34177884459495544,-0.20219624042510986,-0.43860089778900146
1772729019124621300,5.300621337890625,0.29474225640296936,-0.1893680840730667,-0.49663305282592773
1772729019134139100,5.31013916015625,0.24831652641296387,-0.17592905461788177,-0.5338957905769348
1772729019143657000,5.319656982421875,0.21166464686393738,-0.13683371245861053,-0.5442805290222168
1772729019153175000,5.329175048828125,0.1853974610567093,-0.04520399495959282,-0.5253437161445618
1772729019162692900,5.33869287109375,0.16707152128219604,0.08979712426662445,-0.4825831651687622
1772729019172210700,5.348210693359375,0.1542433500289917,0.24923282861709595,-0.4166097939014435
1772729019181728500,5.357728515625,0.14508038759231567,0.40378162264823914,-0.33719736337661743
1772729019191246300,5.367246337890625,0.13652828335762024,0.5051851868629456,-0.2559523284435272
1772729019200764200,5.37676416015625,0.129197895526886,0.5320632457733154,-0.18631376326084137
1772729019210282000,5.386281982421875,0.12370011955499649,0.5082395076751709,-0.13439024984836578
1772729019219799800,5.3957998046875,0.1230892539024353,0.4618137776851654,-0.10445787757635117
1772729019229317600,5.405317626953125,0.12614357471466064,0.4056142270565033,-0.0922405794262886
1772729019238835700,5.414835693359375,0.1340848207473755,0.3585776388645172,-0.09468404203653336
1772729019248353300,5.424353271484375,0.14263692498207092,0.31642794609069824,-0.10690133273601532
1772729019257871000,5.43387109375,0.15057817101478577,0.268169641494751,-0.1282816082239151
1772729019267389000,5.443388916015625,0.1591302752494812,0.2211330533027649,-0.15515965223312378
1772729019276907000,5.452906982421875,0.16646064817905426,0.18142683804035187,-0.18142683804035187
1772729019286424800,5.4624248046875,0.1695149689912796,0.13561198115348816,-0.20830489695072174
1772729019295942700,5.471942626953125,0.16707152128219604,0.08491020649671555,-0.22785256803035736
1772729019305460500,5.48146044921875,0.16157373785972595,0.043982263654470444,-0.2412915825843811
1772729019314978300,5.490978271484375,0.15485422313213348,0.01649334840476513,-0.24434591829776764
1772729019324496100,5.50049609375,0.14813470840454102,0.000610864779446274,-0.23884813487529755
1772729019334014000,5.510013916015625,0.13775001466274261,-0.0054977829568088055,-0.2309068888425827
1772729019343531800,5.51953173828125,0.12431098520755768,-0.01588248461484909,-0.22174391150474548
1772729019353049600,5.529049560546875,0.10720676928758621,-0.03481929376721382,-0.21319180727005005
1772729019362567700,5.538567626953125,0.09193515032529831,-0.0616973415017128,-0.2003636509180069
1772729019372085500,5.54808544921875,0.08093958348035812,-0.10323614627122879,-0.18570289015769958
1772729019381603000,5.55760302734375,0.07483093440532684,-0.13744457066059113,-0.1649334877729416
1772729019391121200,5.56712109375,0.07544180005788803,-0.14538581669330597,-0.14110976457595825
1772729019400639000,5.576638916015625,0.0772743970155716,-0.1288924664258957,-0.11423171311616898
1772729019410156800,5.58615673828125,0.07544180005788803,-0.10934479534626007,-0.09040798991918564
1772729019419674600,5.595674560546875,0.07055488228797913,-0.10751219838857651,-0.0720820426940918
1772729019429192400,5.6051923828125,0.06322450190782547,-0.13133592903614044,-0.05925388261675835
1772729019438710300,5.614710205078125,0.0565049909055233,-0.16554436087608337,-0.05497783049941063
1772729019448228000,5.62422802734375,0.05100720748305321,-0.20891575515270233,-0.056199558079242706
1772729019457746000,5.633745849609375,0.041844237595796585,-0.2528980076313019,-0.06352993845939636
1772729019467263700,5.643263671875,0.02718348242342472,-0.27366742491722107,-0.07391463965177536
1772729019476781800,5.65278173828125,0.006414080038666725,-0.2669478952884674,-0.08552107214927673
1772729019486299600,5.662299560546875,-0.016798781231045723,-0.258395791053772,-0.09468404203653336
1772729019495817500,5.6718173828125,-0.03756818547844887,-0.24862197041511536,-0.09896009415388107
1772729019505335300,5.681335205078125,-0.051618073135614395,-0.2211330533027649,-0.09285144507884979
1772729019514853000,5.69085302734375,-0.05894844979047775,-0.1954767256975174,-0.07880155742168427
1772729019524371000,5.700370849609375,-0.06383536756038666,-0.19181154668331146,-0.06108647957444191
1772729019533888800,5.709888671875,-0.06322450190782547,-0.20891575515270233,-0.039706211537122726
1772729019543406600,5.719406494140625,-0.06017018109560013,-0.2315177470445633,-0.023823726922273636
1772729019552924400,5.72892431640625,-0.0565049909055233,-0.27550002932548523,-0.017104214057326317
1772729019562442200,5.738442138671875,-0.054672397673130035,-0.3481929302215576,-0.018325943499803543
1772729019571960000,5.7479599609375,-0.05100720748305321,-0.40317076444625854,-0.01954767294228077
1772729019581478000,5.757477783203125,-0.04550942778587341,-0.401949018239975,-0.011606430634856224
1772729019590995700,5.76699560546875,-0.04428769648075104,-0.35063639283180237,-0.000610864779446274
1772729019600513800,5.776513671875,-0.04673115536570549,-0.2626718580722809,0.018325943499803543
1772729019610031600,5.786031494140625,-0.04978547990322113,-0.16310089826583862,0.04214967042207718
1772729019619549400,5.795549560546875,-0.05283980444073677,-0.08857539296150208,0.0665842592716217
1772729019629067300,5.8050673828125,-0.0565049909055233,-0.053756099194288254,0.08979712426662445
1772729019638585000,5.814585205078125,-0.06444623321294785,-0.0818558782339096,0.10690133273601532
1772729019648103000,5.82410302734375,-0.07605266571044922,-0.16065743565559387,0.12278381735086441
1772729019657620700,5.833620849609375,-0.08643736690282822,-0.23273947834968567,0.1441640853881836
1772729019667138600,5.843138671875,-0.09804379940032959,-0.2516762912273407,0.18081597983837128
1772729019676656400,5.852656494140625,-0.11209368705749512,-0.2101374864578247,0.2315177470445633
1772729019686174500,5.862174560546875,-0.13164135813713074,-0.1178968995809555,0.2987128794193268
1772729019695692000,5.871692138671875,-0.15057817101478577,0.002443459117785096,0.37323838472366333
1772729019705209900,5.8812099609375,-0.16584978997707367,0.1233946830034256,0.4471530318260193
1772729019714728000,5.89072802734375,-0.1750127524137497,0.21807873249053955,0.5112938284873962
1772729019724245800,5.900245849609375,-0.1798996776342392,0.27550002932548523,0.5577195286750793
1772729019733763600,5.909763671875,-0.1847866028547287,0.28588470816612244,0.5821541547775269
1772729019743281400,5.919281494140625,-0.19639302790164948,0.2461785078048706,0.5790998339653015
1772729019752799200,5.92879931640625,-0.2110537886619568,0.1533270627260208,0.5485565662384033
1772729019762317000,5.938317138671875,-0.22327107191085815,0.03481929376721382,0.4978547990322113
1772729019771835000,5.9478349609375,-0.22876885533332825,-0.06841685622930527,0.4276053309440613
1772729019781352700,5.957352783203125,-0.23487751185894012,-0.15027274191379547,0.3402516841888428
1772729019790870500,5.96687060546875,-0.2464839369058609,-0.20830489695072174,0.23518294095993042
1772729019800388400,5.976388427734375,-0.26419901847839355,-0.24006985127925873,0.12095122784376144
1772729019809906400,5.985906494140625,-0.2868010103702545,-0.25961753726005554,0.004276053514331579
1772729019819424300,5.99542431640625,-0.3124573230743408,-0.2712239623069763,-0.10751219838857651
1772729019828941800,6.00494189453125,-0.3387245237827301,-0.2718348205089569,-0.205861434340477
1772729019838460000,6.0144599609375,-0.36254823207855225,-0.27000224590301514,-0.2828303873538971
1772729019847977700,6.023977783203125,-0.37843072414398193,-0.2461785078048706,-0.3335321843624115
1772729019857495600,6.03349560546875,-0.3845393657684326,-0.185092031955719,-0.35185810923576355
1772729019867013400,6.043013427734375,-0.374765545129776,-0.09712749719619751,-0.3347539007663727
1772729019876531200,6.05253125,-0.3454440236091614,-0.002443459117785096,-0.2816086709499359
1772729019886049000,6.062049072265625,-0.2965748608112335,0.0818558782339096,-0.19853104650974274
1772729019895566800,6.07156689453125,-0.2360992431640625,0.15149445831775665,-0.09407317638397217
1772729019905084700,6.081084716796875,-0.1750127524137497,0.1844811588525772,0.01588248461484909
1772729019914602500,6.0906025390625,-0.12553271651268005,0.15821397304534912,0.11728604137897491
1772729019924120300,6.100120361328125,-0.09010255336761475,0.09285144507884979,0.19792018830776215
1772729019933638400,6.109638427734375,-0.06933315098285675,0.024434590712189674,0.2528980076313019
1772729019943156200,6.11915625,-0.06322450190782547,-0.0360410213470459,0.2761108875274658
1772729019952674000,6.128674072265625,-0.07299833744764328,-0.08552107214927673,0.26450446248054504
1772729019962192000,6.13819189453125,-0.09682206809520721,-0.12217295914888382,0.22235478460788727
1772729019971709700,6.147709716796875,-0.12125665694475174,-0.14721840620040894,0.1539379209280014
1772729019981227500,6.1572275390625,-0.13713914155960083,-0.1588248461484909,0.06780599057674408
1772729019990745300,6.166745361328125,-0.14691297709941864,-0.15699224174022675,-0.02932151034474373
1772729020000263200,6.17626318359375,-0.15302163362503052,-0.1533270627260208,-0.12705987691879272
1772729020009781000,6.185781005859375,-0.16340632736682892,-0.16798780858516693,-0.21807873249053955
1772729020019298800,6.195298828125,-0.17318016290664673,-0.1844811588525772,-0.29443681240081787
1772729020028816600,6.204816650390625,-0.18295399844646454,-0.20463970303535461,-0.3494146466255188
1772729020038334500,6.21433447265625,-0.1902843713760376,-0.235793799161911,-0.37751442193984985
1772729020047852500,6.2238525390625,-0.19150610268115997,-0.26511532068252563,-0.379347026348114
1772729020057370400,6.233370361328125,-0.18234314024448395,-0.28588470816612244,-0.3591884970664978
1772729020066888200,6.24288818359375,-0.16584978997707367,-0.2932150959968567,-0.3249800503253937
1772729020076406000,6.252406005859375,-0.14141519367694855,-0.2889390289783478,-0.28038692474365234
1772729020085923800,6.261923828125,-0.10720676928758621,-0.25045454502105713,-0.22235478460788727
1772729020095441700,6.271441650390625,-0.07055488228797913,-0.17287473380565643,-0.1490510106086731
1772729020104959500,6.28095947265625,-0.03817904740571976,-0.06475166976451874,-0.0665842592716217
1772729020114477300,6.290477294921875,-0.015577051788568497,0.04825831577181816,0.017104214057326317
1772729020123995100,6.2999951171875,0.000305432389723137,0.12400554865598679,0.09529490768909454
1772729020133513000,6.309512939453125,0.013133592903614044,0.13927717506885529,0.1588248461484909
1772729020143030800,6.31903076171875,0.023518294095993042,0.10751219838857651,0.20158538222312927
1772729020152548600,6.328548583984375,0.025961752980947495,0.056199558079242706,0.2162461280822754
1772729020162066400,6.33806640625,0.025961752980947495,-0.007330377586185932,0.20158538222312927
1772729020171584300,6.347584228515625,0.02412915788590908,-0.05803215503692627,0.1637117564678192
1772729020181102300,6.357102294921875,0.02718348242342472,-0.07635809481143951,0.11545344442129135
1772729020190620200,6.3666201171875,0.03634645417332649,-0.06841685622930527,0.06475166976451874
1772729020200138000,6.376137939453125,0.051618073135614395,-0.05436696484684944,0.021380268037319183
1772729020209655800,6.38565576171875,0.06811141967773438,-0.036651886999607086,-0.002443459117785096
1772729020219173600,6.395173583984375,0.0870482325553894,-0.009162971749901772,-0.003665188793092966
1772729020228691500,6.40469140625,0.10903936624526978,0.025045456364750862,0.021380268037319183
1772729020238209300,6.414209228515625,0.13225223124027252,0.06352993845939636,0.07147117704153061
1772729020247727000,6.42372705078125,0.15241076052188873,0.11484257876873016,0.1386663019657135
1772729020257245000,6.433244873046875,0.16768237948417664,0.17104214429855347,0.21319180727005005
1772729020266762800,6.4427626953125,0.17745621502399445,0.2211330533027649,0.2864955961704254
1772729020276280600,6.452280517578125,0.18173226714134216,0.26511532068252563,0.35063639283180237
1772729020285798400,6.46179833984375,0.1792888194322586,0.29504770040512085,0.3952295184135437
1772729020295316200,6.471316162109375,0.17623448371887207,0.30482152104377747,0.4147771894931793
1772729020304834300,6.480834228515625,0.1737910360097885,0.29626941680908203,0.4105011224746704
1772729020314352000,6.49035205078125,0.1701258420944214,0.26878049969673157,0.379347026348114
1772729020323870000,6.499869873046875,0.1640172004699707,0.24556763470172882,0.3231474757194519
1772729020333387800,6.5093876953125,0.15485422313213348,0.22907429933547974,0.2467893660068512
1772729020342905600,6.518905517578125,0.14141519367694855,0.20463970303535461,0.1496618688106537
1772729020352423400,6.52842333984375,0.12492185086011887,0.14782927930355072,0.04153880476951599
1772729020361941200,6.537941162109375,0.11514800786972046,0.05558869615197182,-0.06597339361906052
1772729020371459000,6.547458984375,0.10659590363502502,-0.05803215503692627,-0.16126830875873566
1772729020380977000,6.556976806640625,0.10109812021255493,-0.13622283935546875,-0.2370155304670334
1772729020390494700,6.56649462890625,0.09376774728298187,-0.1386663019657135,-0.2864955961704254
1772729020400012500,6.576012451171875,0.08888082206249237,-0.06902772188186646,-0.30482152104377747
1772729020409530400,6.5855302734375,0.10170898586511612,0.05497783049941063,-0.27855435013771057
1772729020419048200,6.595048095703125,0.13958260416984558,0.23457208275794983,-0.20158538222312927
1772729020428566300,6.604566162109375,0.19150610268115997,0.46975502371788025,-0.08307760953903198
1772729020438084000,6.614083984375,0.24892739951610565,0.7257073521614075,0.05803215503692627
1772729020447602000,6.623601806640625,0.31123560667037964,0.9285144805908203,0.20708316564559937
1772729020457119700,6.63311962890625,0.37232208251953125,1.0390809774398804,0.3439168632030487
1772729020466637600,6.642637451171875,0.43340855836868286,1.0574069023132324,0.4630354940891266
1772729020476155400,6.6521552734375,0.48960810899734497,0.9938769936561584,0.554665207862854
1772729020485673200,6.661673095703125,0.5250383019447327,0.8680388331413269,0.6053670048713684
1772729020495191000,6.67119091796875,0.5421425104141235,0.6927206516265869,0.6102539300918579
1772729020504708900,6.680708984375,0.5482511520385742,0.49480047821998596,0.5705476999282837
1772729020514226700,6.690226806640625,0.5464185476303101,0.30115634202957153,0.4886918365955353
1772729020523744800,6.699744873046875,0.536644697189331,0.12461641430854797,0.3750709891319275
1772729020533262300,6.709262451171875,0.5164861679077148,-0.001221729558892548,0.23823726177215576
1772729020542780200,6.7187802734375,0.4883863925933838,-0.08307760953903198,0.08613193035125732
1772729020552298200,6.72829833984375,0.4517345130443573,-0.1288924664258957,-0.0665842592716217
1772729020561816000,6.737816162109375,0.40408703684806824,-0.15088360011577606,-0.2107483446598053
1772729020571334000,6.747333984375,0.35155269503593445,-0.15577052533626556,-0.33719736337661743
1772729020580851700,6.756851806640625,0.30146175622940063,-0.13988803327083588,-0.4416552484035492
1772729020590369500,6.76636962890625,0.26358816027641296,-0.08857539296150208,-0.5198459029197693
1772729020599887400,6.775887451171875,0.2458730787038803,-0.007941242307424545,-0.5656607747077942
1772729020609405200,6.7854052734375,0.2519817352294922,0.0818558782339096,-0.5668824911117554
1772729020618923000,6.794923095703125,0.27458372712135315,0.19425499439239502,-0.5235111117362976
1772729020628440800,6.80444091796875,0.30085089802742004,0.33169957995414734,-0.44348782300949097
1772729020637958700,6.813958740234375,0.3228420317173004,0.44959646463394165,-0.3451386094093323
1772729020647476700,6.823476806640625,0.3387245237827301,0.5015199780464172,-0.24495677649974823
1772729020656994600,6.83299462890625,0.3539961278438568,0.47952884435653687,-0.15821397304534912
1772729020666512100,6.84251220703125,0.3692677617073059,0.40927940607070923,-0.08918625861406326
1772729020676030000,6.852030029296875,0.3863719701766968,0.33169957995414734,-0.04581485688686371
1772729020685548000,6.861548095703125,0.40286532044410706,0.2657261788845062,-0.02871064469218254
1772729020695065900,6.87106591796875,0.4199695289134979,0.2107483446598053,-0.033597562462091446
1772729020704583400,6.88058349609375,0.4376846253871918,0.1905898153781891,-0.053756099194288254
1772729020714101500,6.8901015625,0.4560105502605438,0.2052505612373352,-0.08429934084415436
1772729020723619300,6.899619384765625,0.47067132592201233,0.21502439677715302,-0.1185077652335167
1772729020733137200,6.90913720703125,0.4761691093444824,0.2009745091199875,-0.15577052533626556
1772729020742655000,6.918655029296875,0.4718930423259735,0.1747073233127594,-0.1893680840730667
1772729020752172800,6.9281728515625,0.45478883385658264,0.14110976457595825,-0.2211330533027649
1772729020761690600,6.937690673828125,0.425467312335968,0.09896009415388107,-0.25045454502105713
1772729020771208400,6.94720849609375,0.3912588953971863,0.05864302068948746,-0.2761108875274658
1772729020780726500,6.9567265625,0.3539961278438568,0.043982263654470444,-0.2938259541988373
1772729020790244400,6.966244384765625,0.3191768527030945,0.047036588191986084,-0.30543237924575806
1772729020799762000,6.975761962890625,0.29046618938446045,0.06108647957444191,-0.3029889166355133
1772729020809280000,6.985280029296875,0.2715294063091278,0.08613193035125732,-0.2889390289783478
1772729020818797600,6.994797607421875,0.2568686306476593,0.1026252806186676,-0.2620609998703003
1772729020828315600,7.004315673828125,0.24281874299049377,0.10384701192378998,-0.22479823231697083
1772729020837833500,7.01383349609375,0.23182319104671478,0.10140355676412582,-0.1740964651107788
1772729020847351300,7.023351318359375,0.22449280321598053,0.10140355676412582,-0.11423171311616898
1772729020856869000,7.032869140625,0.21838416159152985,0.08796452730894089,-0.05436696484684944
1772729020866387000,7.042386962890625,0.21227550506591797,0.04825831577181816,-0.0030543238390237093
1772729020875904800,7.05190478515625,0.20861032605171204,-0.007330377586185932,0.033597562462091446
1772729020885422600,7.061422607421875,0.20311254262924194,-0.06780599057674408,0.05192350596189499
1772729020894940400,7.0709404296875,0.19089524447917938,-0.13133592903614044,0.05070177838206291
1772729020904458500,7.08045849609375,0.1744018942117691,-0.18631376326084137,0.029932374134659767
1772729020913976300,7.089976318359375,0.15790854394435883,-0.23212862014770508,0
1772729020923494100,7.099494140625,0.14019346237182617,-0.2883281707763672,-0.034208428114652634
1772729020933011700,7.10901171875,0.12064579129219055,-0.34574946761131287,-0.06536252796649933
1772729020942529800,7.11852978515625,0.0925460159778595,-0.3854556679725647,-0.08674279600381851
1772729020952047600,7.128047607421875,0.06017018109560013,-0.40255987644195557,-0.09529490768909454
1772729020961565400,7.1375654296875,0.02779434807598591,-0.3860665261745453,-0.08674279600381851
1772729020971083300,7.147083251953125,-0.0015271619195118546,-0.3280344009399414,-0.06352993845939636
1772729020980601000,7.15660107421875,-0.025961752980947495,-0.25045454502105713,-0.02871064469218254
1772729020990119000,7.166118896484375,-0.04245510324835777,-0.1802051067352295,0.017104214057326317
1772729020999636700,7.17563671875,-0.054672397673130035,-0.12461641430854797,0.06902772188186646
1772729021009154600,7.185154541015625,-0.060781046748161316,-0.08429934084415436,0.12400554865598679
1772729021018672400,7.19467236328125,-0.06933315098285675,-0.07024945318698883,0.17287473380565643
1772729021028190200,7.204190185546875,-0.07605266571044922,-0.08613193035125732,0.21502439677715302
1772729021037708300,7.213708251953125,-0.08582650125026703,-0.1130099818110466,0.2419024556875229
1772729021047226000,7.22322607421875,-0.0974329337477684,-0.13744457066059113,0.25411975383758545
1772729021056744000,7.232743896484375,-0.11514800786972046,-0.1539379209280014,0.24740023910999298
1772729021066261500,7.242261474609375,-0.1444695144891739,-0.15149445831775665,0.21868959069252014
1772729021075779600,7.251779541015625,-0.17562362551689148,-0.13194678723812103,0.17226386070251465
1772729021085297400,7.26129736328125,-0.21349723637104034,-0.10567960888147354,0.11056652665138245
1772729021094815200,7.270815185546875,-0.2562577724456787,-0.11545344442129135,0.03176496922969818
1772729021104333000,7.2803330078125,-0.29962918162345886,-0.1802051067352295,-0.056810423731803894
1772729021113851000,7.289850830078125,-0.33628106117248535,-0.28527384996414185,-0.1441640853881836
1772729021123368700,7.29936865234375,-0.3552178740501404,-0.370184063911438,-0.21930044889450073
1772729021132886500,7.308886474609375,-0.3601047992706299,-0.4013381600379944,-0.27427828311920166
1772729021142404400,7.318404296875,-0.35643959045410156,-0.39889469742774963,-0.31031930446624756
1772729021151922200,7.327922119140625,-0.3497200906276703,-0.37812530994415283,-0.3194822669029236
1772729021161440000,7.33743994140625,-0.3295615613460541,-0.3384190797805786,-0.2981020212173462
1772729021170958000,7.3469580078125,-0.2935205399990082,-0.26878049969673157,-0.23823726177215576
1772729021180476000,7.356475830078125,-0.24770566821098328,-0.17715078592300415,-0.13927717506885529
1772729021189993700,7.36599365234375,-0.20189081132411957,-0.06352993845939636,-0.003665188793092966
1772729021199511300,7.37551123046875,-0.17073670029640198,0.06597339361906052,0.15577052533626556
1772729021209029400,7.385029296875,-0.1646280586719513,0.1545487940311432,0.31154105067253113
1772729021218547200,7.394547119140625,-0.18295399844646454,0.16310089826583862,0.4428769648075104
1772729021228065000,7.40406494140625,-0.2110537886619568,0.1026252806186676,0.5351175665855408
1772729021237582800,7.413582763671875,-0.2415970265865326,0.010995565913617611,0.5790998339653015
1772729021247100700,7.4231005859375,-0.2770271897315979,-0.08491020649671555,0.5687150955200195
1772729021256618500,7.432618408203125,-0.3228420317173004,-0.16187916696071625,0.5009090900421143
1772729021266136300,7.44213623046875,-0.37354379892349243,-0.21197007596492767,0.3854556679725647
1772729021275654100,7.451654052734375,-0.416304349899292,-0.2254091054201126,0.2412915825843811
1772729021285172000,7.461171875,-0.4407389461994171,-0.20708316564559937,0.08979712426662445
1772729021294689800,7.470689697265625,-0.44868019223213196,-0.17653992772102356,-0.049480047076940536
1772729021304208000,7.480207763671875,-0.44868019223213196,-0.15027274191379547,-0.16676609218120575
1772729021313725700,7.4897255859375,-0.4462367296218872,-0.1331685185432434,-0.2516762912273407
1772729021323243500,7.499243408203125,-0.43890634179115295,-0.12034036219120026,-0.3029889166355133
1772729021332761000,7.508760986328125,-0.42791077494621277,-0.10384701192378998,-0.3237583339214325
1772729021342279200,7.518279052734375,-0.4114174246788025,-0.08063415437936783,-0.3139844834804535
1772729021351797000,7.527796875,-0.3851502537727356,-0.0616973415017128,-0.2761108875274658
1772729021361314800,7.537314697265625,-0.3484983444213867,-0.06047561392188072,-0.21135921776294708
1772729021370832600,7.54683251953125,-0.30451610684394836,-0.06475166976451874,-0.12034036219120026
1772729021380350500,7.5563505859375,-0.2605338394641876,-0.06047561392188072,-0.017715077847242355
1772729021389868300,7.565868408203125,-0.22876885533332825,-0.06047561392188072,0.07819069176912308
1772729021399386000,7.57538623046875,-0.21349723637104034,-0.07941242307424545,0.15088360011577606
1772729021408904000,7.584904052734375,-0.20433427393436432,-0.10506874322891235,0.1954767256975174
1772729021418421800,7.594421875,-0.1957821547985077,-0.11972949653863907,0.21197007596492767
1772729021427939600,7.603939697265625,-0.19150610268115997,-0.11728604137897491,0.20280711352825165
1772729021437457400,7.61345751953125,-0.2006690800189972,-0.10018182545900345,0.17043127119541168
1772729021446975500,7.6229755859375,-0.22937972843647003,-0.09040798991918564,0.11545344442129135
1772729021456493300,7.632493408203125,-0.2666424810886383,-0.09957095980644226,0.0409279391169548
1772729021466011000,7.642010986328125,-0.29474225640296936,-0.1288924664258957,-0.043371398001909256
1772729021475529000,7.651529052734375,-0.3069595396518707,-0.1545487940311432,-0.12767073512077332
1772729021485046800,7.661046875,-0.30146175622940063,-0.1545487940311432,-0.19914191961288452
1772729021494564600,7.670564697265625,-0.2880227565765381,-0.1380554437637329,-0.24740023910999298
1772729021504082400,7.68008251953125,-0.26969680190086365,-0.1178968995809555,-0.2730565667152405
1772729021513600300,7.689600341796875,-0.24526220560073853,-0.08857539296150208,-0.2730565667152405
1772729021523118000,7.6991181640625,-0.21471896767616272,-0.06047561392188072,-0.24923282861709595
1772729021532636000,7.708635986328125,-0.18417572975158691,-0.0409279391169548,-0.21197007596492767
1772729021542153700,7.71815380859375,-0.16340632736682892,-0.05070177838206291,-0.16554436087608337
1772729021551671600,7.727671630859375,-0.14569124579429626,-0.06780599057674408,-0.11728604137897491
1772729021561189400,7.737189453125,-0.1285870373249054,-0.06414080411195755,-0.06841685622930527
1772729021570707200,7.746707275390625,-0.11759147047996521,-0.0409279391169548,-0.02871064469218254
1772729021580225300,7.756225341796875,-0.11514800786972046,-0.021991131827235222,-0.006108647678047419
1772729021589743000,7.7657431640625,-0.11575887352228165,-0.008552107028663158,0
1772729021599260700,7.7752607421875,-0.1078176349401474,0.013439024798572063,-0.0030543238390237093
1772729021608778500,7.784778564453125,-0.09621120244264603,0.047036588191986084,-0.011606430634856224
1772729021618296600,7.794296630859375,-0.08155044913291931,0.08918625861406326,-0.021991131827235222
1772729021627814400,7.803814453125,-0.06872228533029556,0.11911863088607788,-0.031154103577136993
1772729021637332200,7.813332275390625,-0.05711585655808449,0.1233946830034256,-0.037262752652168274
1772729021646850000,7.82285009765625,-0.04428769648075104,0.10995566099882126,-0.037262752652168274
1772729021656367900,7.832367919921875,-0.032681263983249664,0.08063415437936783,-0.0409279391169548
1772729021665885700,7.8418857421875,-0.019853105768561363,0.0256563201546669,-0.0513126403093338
1772729021675403500,7.851403564453125,-0.005803215317428112,-0.04153880476951599,-0.06719512492418289
1772729021684921300,7.86092138671875,0.008857538923621178,-0.09529490768909454,-0.08307760953903198
1772729021694439200,7.870439208984375,0.022296564653515816,-0.12095122784376144,-0.09346231073141098
1772729021703957000,7.87995703125,0.03817904740571976,-0.1026252806186676,-0.09651663154363632
1772729021713474800,7.889474853515625,0.05955931544303894,-0.046425722539424896,-0.08429934084415436
1772729021722993000,7.898992919921875,0.08277218043804169,0.043371398001909256,-0.053145237267017365
1772729021732510500,7.908510498046875,0.10659590363502502,0.15821397304534912,-0.004276053514331579
1772729021742028300,7.9180283203125,0.12614357471466064,0.2657261788845062,0.05436696484684944
1772729021751546000,7.927546142578125,0.13958260416984558,0.337808221578598,0.1130099818110466
1772729021761064200,7.937064208984375,0.15118902921676636,0.3646862804889679,0.16310089826583862
1772729021770582000,7.94658203125,0.1640172004699707,0.347582072019577,0.19608759880065918
1772729021780099800,7.956099853515625,0.17684535682201385,0.29016077518463135,0.205861434340477
1772729021789617700,7.96561767578125,0.1847866028547287,0.20219624042510986,0.18753549456596375
1772729021799135500,7.975135498046875,0.1847866028547287,0.11362084746360779,0.14477495849132538
1772729021808653300,7.9846533203125,0.17562362551689148,0.033597562462091446,0.07819069176912308
1772729021818171100,7.994171142578125,0.16218459606170654,-0.03787361457943916,-0.0030543238390237093
1772729021827689000,8.00368896484375,0.1487455666065216,-0.09834922850131989,-0.08796452730894089
1772729021837206800,8.013206787109375,0.14019346237182617,-0.1337793916463852,-0.16615521907806396
1772729021846724600,8.022724609375,0.14263692498207092,-0.11972949653863907,-0.22968515753746033
1772729021856242400,8.032242431640626,0.15302163362503052,-0.05742128938436508,-0.2730565667152405
1772729021865760300,8.04176025390625,0.16829325258731842,0.034208428114652634,-0.28466299176216125
1772729021875278000,8.051278076171876,0.2000582218170166,0.15027274191379547,-0.24862197041511536
1772729021884796000,8.0607958984375,0.24892739951610565,0.2981020212173462,-0.164322629570961
1772729021894314000,8.07031396484375,0.30512696504592896,0.45387253165245056,-0.04825831577181816
1772729021903831800,8.079831787109375,0.3503309488296509,0.564439058303833,0.08124501258134842
1772729021913349600,8.089349609375,0.38881543278694153,0.6200277805328369,0.2052505612373352
1772729021922867500,8.098867431640626,0.4303542375564575,0.656679630279541,0.3170388340950012
1772729021932385300,8.10838525390625,0.47433650493621826,0.6682860851287842,0.40805765986442566
1772729021941903000,8.117903076171874,0.5207622051239014,0.6438514590263367,0.47525280714035034
1772729021951421000,8.1274208984375,0.562911868095398,0.5992583632469177,0.5137372612953186
1772729021960938800,8.136938720703125,0.600785493850708,0.5369501113891602,0.5210676789283752
1772729021970456600,8.14645654296875,0.6209440231323242,0.45998117327690125,0.4935787320137024
1772729021979974400,8.155974365234375,0.6264418363571167,0.36712974309921265,0.42821621894836426
1772729021989492200,8.1654921875,0.6221657991409302,0.24251331388950348,0.3329212963581085
1772729021999010000,8.175010009765625,0.61117023229599,0.1178968995809555,0.21685700118541718
1772729022008528000,8.18452783203125,0.5897899270057678,0.021380268037319183,0.08796452730894089
1772729022018045700,8.194045654296875,0.5580250024795532,-0.037262752652168274,-0.04153880476951599
1772729022027563500,8.2035634765625,0.518318772315979,-0.07574722915887833,-0.1649334877729416
1772729022037081600,8.21308154296875,0.4725039005279541,-0.09651663154363632,-0.2724456787109375
1772729022046599200,8.22259912109375,0.4218021333217621,-0.10934479534626007,-0.360410213470459
1772729022056117200,8.2321171875,0.3686569035053253,-0.12767073512077332,-0.43004879355430603
1772729022065635000,8.241635009765625,0.31184646487236023,-0.15515965223312378,-0.4868592321872711
1772729022075153000,8.25115283203125,0.2611446976661682,-0.1844811588525772,-0.5283980369567871
1772729022084670700,8.260670654296876,0.22449280321598053,-0.1802051067352295,-0.5479456782341003
1772729022094188500,8.2701884765625,0.20922118425369263,-0.11972949653863907,-0.5369501113891602
1772729022103706400,8.279706298828126,0.2055560052394867,-0.001832594396546483,-0.49480047821998596
1772729022113224200,8.28922412109375,0.2214384824037552,0.16249002516269684,-0.4221075773239136
1772729022122742000,8.298741943359374,0.25992295145988464,0.3530798554420471,-0.3298669755458832
1772729022132259800,8.308259765625,0.31062474846839905,0.5253437161445618,-0.23029601573944092
1772729022141777700,8.317777587890625,0.36193737387657166,0.6352993845939636,-0.13500112295150757
1772729022151295500,8.32729541015625,0.40775224566459656,0.6841685771942139,-0.053756099194288254
1772729022160813300,8.336813232421875,0.4413498044013977,0.6786707639694214,0.007941242307424545
1772729022170331100,8.3463310546875,0.4566214084625244,0.6175842881202698,0.04214967042207718
1772729022179849000,8.355848876953125,0.4621191918849945,0.5186241865158081,0.050090912729501724
1772729022189367000,8.365366943359374,0.467006117105484,0.4214966893196106,0.04214967042207718
1772729022198884900,8.374884765625,0.47433650493621826,0.35124725103378296,0.02260199747979641
1772729022208402700,8.384402587890625,0.476779967546463,0.29443681240081787,-0.004886918235570192
1772729022217920300,8.393920166015626,0.47922343015670776,0.23518294095993042,-0.03481929376721382
1772729022227438300,8.403438232421875,0.4822777509689331,0.19425499439239502,-0.06719512492418289
1772729022236956200,8.4129560546875,0.4822777509689331,0.17592905461788177,-0.10629047453403473
1772729022246474000,8.422473876953125,0.476779967546463,0.1637117564678192,-0.15271618962287903
1772729022255991800,8.43199169921875,0.4663952589035034,0.15088360011577606,-0.20402882993221283
1772729022265509600,8.441509521484376,0.44929105043411255,0.14110976457595825,-0.26022839546203613
1772729022275027500,8.45102734375,0.42791077494621277,0.13988803327083588,-0.31581708788871765
1772729022284545300,8.460545166015624,0.4059196412563324,0.1380554437637329,-0.36163195967674255
1772729022294063000,8.47006298828125,0.38698282837867737,0.11545344442129135,-0.3909534513950348
1772729022303581000,8.479580810546874,0.37110036611557007,0.06841685622930527,-0.39400777220726013
1772729022313098800,8.4890986328125,0.36193737387657166,0.0256563201546669,-0.37140578031539917
1772729022322616600,8.498616455078125,0.3497200906276703,0,-0.3280344009399414
1772729022332134700,8.508134765625,0.33567020297050476,-0.020158538594841957,-0.2712239623069763
1772729022341652500,8.517652587890625,0.3222311735153198,-0.03237583488225937,-0.20952661335468292
1772729022351170000,8.527170166015624,0.3124573230743408,-0.029932374134659767,-0.14782927930355072
1772729022360687900,8.53668798828125,0.3075704276561737,-0.02932151034474373,-0.08857539296150208
1772729022370206000,8.5462060546875,0.30634868144989014,-0.04825831577181816,-0.03848448023200035
1772729022379723800,8.555723876953126,0.30634868144989014,-0.08063415437936783,0.003665188793092966
1772729022389241600,8.56524169921875,0.3026835024356842,-0.10567960888147354,0.04276053607463837
1772729022398759400,8.574759521484374,0.28985533118247986,-0.10629047453403473,0.0720820426940918
1772729022408277200,8.58427734375,0.26358816027641296,-0.11178825795650482,0.08491020649671555
1772729022417795000,8.593795166015624,0.22937972843647003,-0.13439024984836578,0.0818558782339096
1772729022427313000,8.60331298828125,0.1951712965965271,-0.16004657745361328,0.06719512492418289
1772729022436830700,8.612830810546875,0.16340632736682892,-0.16554436087608337,0.0513126403093338
1772729022446348500,8.6223486328125,0.1334739476442337,-0.1545487940311432,0.040317077189683914
1772729022455866400,8.631866455078125,0.1029307171702385,-0.14172062277793884,0.03298669680953026
1772729022465384200,8.64138427734375,0.07360920310020447,-0.1233946830034256,0.02871064469218254
1772729022474902000,8.650902099609375,0.054672397673130035,-0.09651663154363632,0.031154103577136993
1772729022484419800,8.660419921875,0.048563748598098755,-0.07269290834665298,0.04581485688686371
1772729022493937700,8.669937744140626,0.047952886670827866,-0.06291907280683517,0.07147117704153061
1772729022503455500,8.67945556640625,0.04367683082818985,-0.053145237267017365,0.09896009415388107
1772729022512973300,8.688973388671876,0.032681263983249664,-0.03909534588456154,0.12217295914888382
1772729022522491400,8.698491455078125,0.01740964688360691,-0.043371398001909256,0.1337793916463852
1772729022532009200,8.70800927734375,0.0015271619195118546,-0.08796452730894089,0.13011419773101807
1772729022541527000,8.717527099609375,-0.022907428443431854,-0.17043127119541168,0.10079269111156464
1772729022551044900,8.727044921875,-0.05894844979047775,-0.3017672002315521,0.036651886999607086
1772729022560562700,8.736562744140626,-0.10659590363502502,-0.48563748598098755,-0.05497783049941063
1772729022570080500,8.74608056640625,-0.16768237948417664,-0.6872228980064392,-0.16737695038318634
1772729022579598300,8.755598388671874,-0.2306014597415924,-0.8283326625823975,-0.27855435013771057
1772729022589116200,8.7651162109375,-0.2910770773887634,-0.8405499458312988,-0.36224281787872314
1772729022598634000,8.774634033203125,-0.33139413595199585,-0.6988292932510376,-0.389120876789093
1772729022608151800,8.78415185546875,-0.33689191937446594,-0.4147771894931793,-0.33047783374786377
1772729022617669600,8.793669677734375,-0.31673339009284973,-0.027488915249705315,-0.19364413619041443
1772729022627187500,8.8031875,-0.2880227565765381,0.35063639283180237,-0.01893680728971958
1772729022636705300,8.812705322265625,-0.26358816027641296,0.6035344004631042,0.1496618688106537
1772729022646223000,8.82222314453125,-0.2360992431640625,0.6786707639694214,0.25473061203956604
1772729022655741000,8.831740966796875,-0.15729768574237823,0.6261364221572876,0.3396408259868622
1772729022665258800,8.8412587890625,-0.04245510324835777,0.5229002237319946,0.43432486057281494
1772729022674776800,8.85077685546875,0.05711585655808449,0.379347026348114,0.5204567909240723
1772729022684294700,8.860294677734375,0.09926552325487137,0.15149445831775665,0.5528326034545898
1772729022693812500,8.8698125,0.08277218043804169,-0.11728604137897491,0.5528326034545898
1772729022703330000,8.879330078125,0.03329212963581085,-0.32131487131118774,0.5180133581161499
1772729022712848100,8.88884814453125,-0.03390299528837204,-0.4214966893196106,0.4526508152484894
1772729022722366000,8.898365966796876,-0.11026109009981155,-0.4367683231830597,0.34697118401527405
1772729022731883800,8.9078837890625,-0.1853974610567093,-0.4098902642726898,0.21197007596492767
1772729022741401600,8.917401611328126,-0.24220788478851318,-0.3481929302215576,0.0665842592716217
1772729022750919400,8.92691943359375,-0.2788597643375397,-0.2577849328517914,-0.0665842592716217
1772729022760437200,8.936437255859374,-0.2977965772151947,-0.15760311484336853,-0.16798780858516693
1772729022769955000,8.945955078125,-0.3094030022621155,-0.04825831577181816,-0.22968515753746033
1772729022779473000,8.955472900390625,-0.31490078568458557,0.03848448023200035,-0.25045454502105713
1772729022788990700,8.96499072265625,-0.30512696504592896,0.09346231073141098,-0.23273947834968567
1772729022798508500,8.974508544921875,-0.27397283911705017,0.13439024984836578,-0.18081597983837128
1772729022808026400,8.9840263671875,-0.22510367631912231,0.17165300250053406,-0.10384701192378998
1772729022817544200,8.993544189453125,-0.1744018942117691,0.20952661335468292,-0.015271619893610477
1772729022827062300,9.003062255859374,-0.12064579129219055,0.22479823231697083,0.07574722915887833
1772729022836579800,9.012579833984375,-0.06933315098285675,0.20280711352825165,0.16187916696071625
1772729022846097700,9.02209765625,-0.028405211865901947,0.18814635276794434,0.23335035145282745
1772729022855615500,9.031615478515626,-0.0015271619195118546,0.19120067358016968,0.2828303873538971
1772729022865133600,9.041133544921875,0.016187917441129684,0.17592905461788177,0.3066541254520416
1772729022874651400,9.0506513671875,0.024740023538470268,0.15210533142089844,0.3035998046398163
1772729022884169200,9.060169189453125,0.02779434807598591,0.1386663019657135,0.2730565667152405
1772729022893687000,9.06968701171875,0.02779434807598591,0.13194678723812103,0.21746785938739777
1772729022903204900,9.079204833984376,0.02779434807598591,0.13255766034126282,0.13622283935546875
1772729022912722700,9.08872265625,0.029016077518463135,0.13255766034126282,0.04276053607463837
1772729022922240500,9.098240478515624,0.03145953640341759,0.1288924664258957,-0.053756099194288254
1772729022931758300,9.10775830078125,0.03451386094093323,0.12278381735086441,-0.1484401375055313
1772729022941276200,9.117276123046874,0.04367683082818985,0.12950333952903748,-0.22479823231697083
1772729022950794000,9.1267939453125,0.05406153202056885,0.1594357043504715,-0.27855435013771057
1772729022960311800,9.136311767578125,0.057726722210645676,0.19853104650974274,-0.31642794609069824
1772729022969829600,9.14582958984375,0.06994401663541794,0.22907429933547974,-0.337808221578598
1772729022979347500,9.155347412109375,0.09682206809520721,0.27550002932548523,-0.33597561717033386
1772729022988865300,9.164865234375,0.13530655205249786,0.35124725103378296,-0.32559093832969666
1772729022998383000,9.174383056640625,0.1750127524137497,0.4318813979625702,-0.31031930446624756
1772729023007901000,9.18390087890625,0.20616686344146729,0.47952884435653687,-0.2565632164478302
1772729023017418800,9.193418701171876,0.21166464686393738,0.3860665261745453,-0.18203771114349365
1772729023026936800,9.202936767578125,0.20799945294857025,0.17104214429855347,-0.13439024984836578
1772729023036454700,9.21245458984375,0.23182319104671478,-0.03909534588456154,-0.11484257876873016
1772729023045972500,9.221972412109375,0.2861901521682739,-0.205861434340477,-0.11667517572641373
1772729023055490000,9.231489990234374,0.3228420317173004,-0.29626941680908203,-0.13133592903614044
1772729023065008000,9.241008056640625,0.3136790692806244,-0.3176496922969818,-0.15699224174022675
1772729023074526000,9.25052587890625,0.3026835024356842,-0.22846342623233795,-0.1692095398902893
1772729023084043800,9.260043701171876,0.3344484567642212,-0.08613193035125732,-0.13133592903614044
