time,seconds_elapsed,z,y,x
1772726480599977500,0.0779775390625,0,0,0
1772726480619012400,0.097012451171875,-0.12213897705078125,-0.016059398651123047,0.011134922504425049
1772726480628530000,0.106530029296875,-0.14630603790283203,-0.006760120391845703,0.044537246227264404
1772726480638047500,0.116047607421875,-0.1432332992553711,0.026474952697753906,0.06508785486221313
1772726480647565000,0.12556494140625,-0.09331417083740234,0.0068988800048828125,0.06629690527915955
1772726480657082600,0.13508251953125,-0.07628631591796875,0.012134552001953125,0.029931247234344482
1772726480666600200,0.14460009765625,-0.019623756408691406,0.014043807983398438,-0.022299110889434814
1772726480676117800,0.15411767578125,0.004093170166015625,0.011034011840820312,-0.07732486724853516
1772726480685635300,0.16363525390625,0.0007677078247070312,-0.009036064147949219,-0.086764395236969
1772726480695153000,0.17315283203125,0.0009393692016601562,-0.025179386138916016,-0.0718185305595398
1772726480704670500,0.18267041015625,0.11434268951416016,-0.04515981674194336,-0.03331959247589111
1772726480714187800,0.192187744140625,0.29923152923583984,-0.04607677459716797,-0.03632467985153198
1772726480723705600,0.20170556640625,0.41083431243896484,-0.08362770080566406,-0.03637528419494629
1772726480733223000,0.211222900390625,0.4619722366333008,-0.1297287940979004,-0.05198603868484497
1772726480742740500,0.220740478515625,0.4859342575073242,-0.1577000617980957,-0.05105876922607422
1772726480752258000,0.230258056640625,0.4390382766723633,-0.1390242576599121,-0.017920732498168945
1772726480761775600,0.239775634765625,0.3449058532714844,-0.12982749938964844,0.004937589168548584
1772726480771293200,0.249293212890625,0.25060081481933594,-0.11340808868408203,0.021959543228149414
1772726480780810800,0.258810791015625,0.23269271850585938,-0.1148834228515625,0.06495648622512817
1772726480790328300,0.268328369140625,0.2874155044555664,-0.06745386123657227,0.11408853530883789
1772726480799846000,0.277845947265625,0.32938289642333984,-0.09868860244750977,0.13687247037887573
1772726480809363500,0.287363525390625,0.3247232437133789,-0.07674360275268555,0.15451496839523315
1772726480818881000,0.296881103515625,0.24289894104003906,-0.10176467895507812,0.1920045018196106
1772726480828398600,0.306398681640625,0.16704845428466797,-0.08218145370483398,0.18991327285766602
1772726480837916000,0.315916015625,0.12657546997070312,-0.07019996643066406,0.1547335684299469
1772726480847433700,0.325433837890625,0.1062469482421875,-0.07025718688964844,0.14238613843917847
1772726480856951000,0.334950927734375,0.0730276107788086,-0.07975625991821289,0.10572776198387146
1772726480866468600,0.344468505859375,0.043526649475097656,-0.08929920196533203,0.09425818920135498
1772726480875986200,0.353986083984375,-0.029016494750976562,-0.12142229080200195,0.12062323093414307
1772726480885503700,0.363503662109375,-0.08808612823486328,-0.11242079734802246,0.14354193210601807
1772726480895021300,0.373021240234375,-0.11811447143554688,-0.06564044952392578,0.07723146677017212
1772726480904539000,0.382538818359375,-0.09650993347167969,-0.026854991912841797,-0.017280280590057373
1772726480914056400,0.392056396484375,-0.04056262969970703,-0.024615764617919922,-0.06982839107513428
1772726480923574000,0.401573974609375,0.06547355651855469,-0.054090023040771484,-0.0287477970123291
1772726480933091600,0.411091552734375,0.1646575927734375,-0.058990478515625,0.030479371547698975
1772726480942609200,0.420609130859375,0.15923023223876953,-0.0626366138458252,0.05115628242492676
1772726480952126700,0.430126708984375,0.044419288635253906,-0.03362751007080078,0.03666234016418457
1772726480961644300,0.439644287109375,-0.07513999938964844,-0.010963916778564453,0.044576406478881836
1772726480971161900,0.449161865234375,-0.17434310913085938,0.004448413848876953,0.09349089860916138
1772726480980679400,0.458679443359375,-0.20757484436035156,0.025501728057861328,0.11255687475204468
1772726480990196700,0.46819677734375,-0.14600753784179688,0.024078369140625,0.09415304660797119
1772726480999714600,0.477714599609375,-0.026235580444335938,0.020587921142578125,0.09625554084777832
1772726481009232000,0.48723193359375,0.1562213897705078,-0.015099048614501953,0.09797704219818115
1772726481018749400,0.49674951171875,0.2700843811035156,-0.049379825592041016,0.07553732395172119
1772726481028267000,0.50626708984375,0.32442188262939453,-0.05777454376220703,0.016521215438842773
1772726481037784600,0.51578466796875,0.30873966217041016,-0.06655716896057129,-0.02077770233154297
1772726481047302100,0.52530224609375,0.2635612487792969,0.0007944107055664062,-0.061180710792541504
1772726481056819700,0.53481982421875,0.20813941955566406,0.0023736953735351562,-0.09216117858886719
1772726481066337300,0.544337158203125,0.15160655975341797,-0.03838920593261719,-0.07576549053192139
1772726481075854800,0.553854736328125,0.037291526794433594,-0.07054686546325684,-0.05676168203353882
1772726481085372400,0.563372314453125,-0.011799812316894531,-0.07535243034362793,-0.01375812292098999
1772726481094890000,0.572889892578125,-0.006186485290527344,-0.0536348819732666,-0.010510027408599854
1772726481104407600,0.582407470703125,0.027387619018554688,-0.0789346694946289,-0.0630001425743103
1772726481113924900,0.5919248046875,0.055726051330566406,-0.07806253433227539,-0.12839430570602417
1772726481123442700,0.601442626953125,0.05786895751953125,-0.0751802921295166,-0.1196904182434082
1772726481132960000,0.6109599609375,0.07889938354492188,-0.060866355895996094,-0.08550989627838135
1772726481142477600,0.6204775390625,0.04768657684326172,-0.07950949668884277,-0.08827793598175049
1772726481151995100,0.6299951171875,0.005054473876953125,-0.08817267417907715,-0.10167384147644043
1772726481161512700,0.6395126953125,-0.048775672912597656,-0.04465913772583008,-0.09401756525039673
1772726481171030300,0.6490302734375,-0.050065040588378906,-0.02983856201171875,-0.04660123586654663
1772726481180547800,0.6585478515625,0.01915740966796875,-0.031519412994384766,-0.06597018241882324
1772726481190065400,0.6680654296875,0.049602508544921875,-0.033174991607666016,-0.10590493679046631
1772726481199583000,0.6775830078125,0.07252883911132812,-0.01593923568725586,-0.10192376375198364
1772726481209100500,0.6871005859375,0.1163644790649414,-0.010927200317382812,-0.08568060398101807
1772726481218618000,0.6966181640625,0.14787578582763672,-0.02997112274169922,-0.1029859185218811
1772726481228135700,0.7061357421875,0.1392230987548828,-0.028395891189575195,-0.10615420341491699
1772726481237653000,0.715653076171875,0.07018852233886719,-0.01411581039428711,-0.09671574831008911
1772726481247170800,0.7251708984375,0.050220489501953125,-0.03947734832763672,-0.07176697254180908
1772726481256688000,0.734688232421875,0.0926218032836914,-0.04744696617126465,-0.043964385986328125
1772726481266205700,0.744205810546875,0.09952640533447266,-0.03537392616271973,-0.05718386173248291
1772726481275723300,0.75372314453125,0.04022216796875,-0.053815603256225586,-0.022142529487609863
1772726481285240800,0.76324072265625,0.00716400146484375,-0.0730290412902832,-0.007626593112945557
1772726481294758400,0.77275830078125,-0.040190696716308594,-0.045543670654296875,-0.026480019092559814
1772726481304276000,0.78227587890625,-0.0637521743774414,-0.036005496978759766,-0.03966492414474487
1772726481313793500,0.79179345703125,-0.014025688171386719,-0.03809666633605957,-0.06796044111251831
1772726481323311000,0.80131103515625,0.025762557983398438,-0.0572049617767334,-0.029163837432861328
1772726481332828700,0.81082861328125,0.08415794372558594,-0.09114861488342285,-0.02390998601913452
1772726481342346200,0.82034619140625,0.04069042205810547,-0.07829904556274414,0.0038173794746398926
1772726481351863800,0.82986376953125,0.007099151611328125,-0.06309056282043457,0.0005143880844116211
1772726481361381400,0.83938134765625,-0.026465415954589844,-0.06370806694030762,-0.03779935836791992
1772726481370899000,0.84889892578125,-0.02935314178466797,-0.03037881851196289,-0.057306885719299316
1772726481380416500,0.85841650390625,-0.037067413330078125,-0.01826643943786621,-0.038156330585479736
1772726481389933800,0.867933837890625,-0.02827167510986328,-0.04363441467285156,0.05457794666290283
1772726481399451600,0.87745166015625,0.006163597106933594,-0.05885028839111328,0.04748725891113281
1772726481408969000,0.886968994140625,0.04015922546386719,-0.050365447998046875,0.05601847171783447
1772726481418486500,0.896486572265625,0.04339027404785156,-0.02850818634033203,0.03808039426803589
1772726481428004000,0.906004150390625,0.044495582580566406,-0.0005300045013427734,0.04919898509979248
1772726481437521700,0.915521728515625,0.057300567626953125,-0.02254199981689453,0.030547499656677246
1772726481447039200,0.925039306640625,0.06032085418701172,-0.022871971130371094,-0.029261887073516846
1772726481456556800,0.934556884765625,0.05154991149902344,-0.009145021438598633,-0.059875428676605225
1772726481466074400,0.944074462890625,0.045452117919921875,-0.040628671646118164,-0.049178898334503174
1772726481475592000,0.953592041015625,0.053691864013671875,-0.048259735107421875,-0.02172750234603882
1772726481485109500,0.963109619140625,0.05252552032470703,-0.05366849899291992,-0.034240901470184326
1772726481494627000,0.972626953125,0.06348133087158203,0.006298542022705078,-0.11125367879867554
1772726481504144600,0.98214453125,0.03225898742675781,0.010382652282714844,-0.14179611206054688
1772726481513662000,0.991661865234375,-0.062010765075683594,-0.030308008193969727,-0.10416924953460693
1772726481523179800,1.0011796875,-0.11981487274169922,-0.03658795356750488,-0.07747828960418701
1772726481532697000,1.010697021484375,-0.12772655487060547,-0.020508289337158203,-0.03043186664581299
1772726481542214700,1.020214599609375,-0.14069366455078125,0.02931976318359375,0.006020605564117432
1772726481551732200,1.029732177734375,-0.15627670288085938,0.029987812042236328,0.041563570499420166
1772726481561249800,1.039249755859375,-0.12725257873535156,0.007936477661132812,0.05278724431991577
1772726481570767400,1.048767333984375,-0.058831214904785156,-0.018121719360351562,0.06644332408905029
1772726481580285000,1.058284912109375,0.008442878723144531,-0.029671669006347656,0.07479137182235718
1772726481589802500,1.067802490234375,0.0936279296875,-0.04156613349914551,0.02858525514602661
1772726481599320000,1.077320068359375,0.20145893096923828,-0.02855825424194336,0.04017549753189087
1772726481608837600,1.086837646484375,0.33667659759521484,-0.015595436096191406,0.0402684211730957
1772726481618355200,1.096355224609375,0.41190242767333984,-0.03838706016540527,-0.00673907995223999
1772726481627872800,1.105872802734375,0.38105010986328125,-0.030386686325073242,0.0058255791664123535
1772726481637390300,1.115390380859375,0.3257150650024414,-0.024561405181884766,0.058569490909576416
1772726481646908000,1.124907958984375,0.2507448196411133,-0.02254199981689453,0.05693674087524414
1772726481656425200,1.13442529296875,0.1558847427368164,-0.015903711318969727,0.053082823753356934
1772726481665942800,1.14394287109375,0.06440162658691406,-0.010523319244384766,0.050911903381347656
1772726481675460400,1.15346044921875,-0.05472087860107422,-0.010135173797607422,0.06021881103515625
1772726481684978000,1.16297802734375,-0.10932445526123047,-0.01909637451171875,0.05322784185409546
1772726481694495500,1.17249560546875,-0.19443035125732422,0.0047152042388916016,0.07041412591934204
1772726481704013000,1.182012939453125,-0.24551010131835938,0.014954090118408203,0.05996793508529663
1772726481713530600,1.191530517578125,-0.25335693359375,0.02978038787841797,0.010374963283538818
1772726481723048200,1.201048095703125,-0.2280111312866211,0.015761613845825195,-0.005900442600250244
1772726481732565800,1.210565673828125,-0.13730621337890625,-0.0051801204681396484,-0.02855384349822998
1772726481742083300,1.220083251953125,-0.09784603118896484,0.0029327869415283203,-0.05014932155609131
1772726481751601000,1.229600830078125,-0.014641761779785156,0.03970932960510254,-0.10052251815795898
1772726481761118500,1.239118408203125,-0.005883216857910156,0.07605504989624023,-0.10827624797821045
1772726481770636000,1.248635986328125,-0.018387794494628906,0.04584908485412598,-0.06603264808654785
1772726481780153600,1.258153564453125,-0.046848297119140625,-0.012543439865112305,-0.006470620632171631
1772726481789671000,1.2676708984375,-0.0016231536865234375,0.004834651947021484,0.015285909175872803
1772726481799188700,1.277188720703125,0.033646583557128906,-0.004450798034667969,0.015523433685302734
1772726481808706000,1.2867060546875,0.09198188781738281,0.030733346939086914,-0.03423190116882324
1772726481818223600,1.2962236328125,0.1729736328125,0.06028914451599121,-0.05783045291900635
1772726481827741200,1.3057412109375,0.16095447540283203,0.07969832420349121,-0.026912152767181396
1772726481837258800,1.3152587890625,0.09754085540771484,0.053861141204833984,0.002191901206970215
1772726481846776300,1.3247763671875,0.06135749816894531,0.035019636154174805,0.022522151470184326
1772726481856294000,1.3342939453125,0.028405189514160156,0.048834800720214844,0.031034529209136963
1772726481865811500,1.3438115234375,0.04574775695800781,0.03803849220275879,0.006061136722564697
1772726481875329000,1.3533291015625,0.04169940948486328,0.02932572364807129,-0.029497623443603516
1772726481884846600,1.3628466796875,0.002254486083984375,-0.012048721313476562,-0.03071516752243042
1772726481894364200,1.3723642578125,-0.027334213256835938,-0.019317626953125,-0.01798182725906372
1772726481903881700,1.3818818359375,-0.07553386688232422,-0.011566877365112305,-0.00475078821182251
1772726481913399000,1.39139892578125,-0.12104034423828125,-0.016859769821166992,0.004233658313751221
1772726481922916900,1.400916748046875,-0.10496902465820312,-0.04469418525695801,0.03457289934158325
1772726481932434200,1.41043408203125,-0.10116386413574219,-0.045588016510009766,0.01761573553085327
1772726481941951700,1.41995166015625,-0.07627010345458984,-0.02753138542175293,0.01771754026412964
1772726481951469300,1.42946923828125,-0.03075695037841797,-0.030683517456054688,-0.0060852766036987305
1772726481960987000,1.43898681640625,0.018587112426757812,-0.038317203521728516,-0.025375843048095703
1772726481970504400,1.44850439453125,-0.0058803558349609375,-0.0009121894836425781,-0.03908652067184448
1772726481980022000,1.45802197265625,-0.013369560241699219,0.007518291473388672,-0.04013901948928833
1772726481989539600,1.46753955078125,-0.0040645599365234375,0.024666547775268555,-0.05342996120452881
1772726481999057200,1.47705712890625,-0.013476371765136719,-0.00857686996459961,-0.05518901348114014
1772726482008574700,1.48657470703125,-0.03667163848876953,-0.008743524551391602,-0.0192718505859375
1772726482018092300,1.49609228515625,-0.07141971588134766,-0.01086735725402832,0.02299976348876953
1772726482027609900,1.50560986328125,-0.040073394775390625,0.013729095458984375,0.03126645088195801
1772726482037127400,1.51512744140625,-0.03540802001953125,0.005709648132324219,-0.009524106979370117
1772726482046645000,1.52464501953125,-0.040411949157714844,0.012494564056396484,0.021705567836761475
1772726482056162300,1.534162353515625,-0.0029468536376953125,0.014499425888061523,0.07893651723861694
1772726482065680000,1.543679931640625,0.045825958251953125,0.02303004264831543,0.08285033702850342
1772726482075197400,1.553197509765625,0.05173206329345703,0.025954246520996094,0.013445913791656494
1772726482084715000,1.562715087890625,0.01808929443359375,0.04417252540588379,0.00969994068145752
1772726482094232600,1.572232666015625,0.011460304260253906,0.04209470748901367,0.04705554246902466
1772726482103750100,1.581750244140625,0.09228706359863281,0.004070281982421875,0.060162365436553955
1772726482113267700,1.591267822265625,0.1014566421508789,-0.0316619873046875,0.042217135429382324
1772726482122785300,1.600785400390625,0.06608295440673828,-0.03929924964904785,0.04107171297073364
1772726482132302800,1.610302734375,0.038390159606933594,0.0071713924407958984,0.034880101680755615
1772726482141821200,1.6198212890625,-0.08339500427246094,0.04441571235656738,0.0001450181007385254
1772726482151338500,1.62933837890625,-0.2013721466064453,0.07301163673400879,-0.09733080863952637
1772726482160856300,1.638856201171875,-0.26384925842285156,0.04610753059387207,-0.09863179922103882
1772726482170373600,1.64837353515625,-0.2082843780517578,0.03048419952392578,-0.0369420051574707
1772726482179891200,1.65789111328125,-0.10955619812011719,-0.002426624298095703,-0.02194899320602417
1772726482189408800,1.66740869140625,-0.057682037353515625,-0.02213001251220703,-0.008831143379211426
1772726482198926300,1.67692626953125,-0.021185874938964844,0.003839731216430664,-0.021169304847717285
1772726482208444000,1.68644384765625,0.01928234100341797,0.022490262985229492,-0.010519742965698242
1772726482217961500,1.69596142578125,0.05919837951660156,0.01943373680114746,-0.004403829574584961
1772726482227479000,1.70547900390625,0.061072349548339844,-0.007580757141113281,0.016547739505767822
1772726482236996600,1.71499658203125,0.06322765350341797,-0.02295827865600586,0.03336125612258911
1772726482246514200,1.72451416015625,0.10108661651611328,-0.029498815536499023,0.06999367475509644
1772726482256031700,1.73403173828125,0.14584732055664062,-0.029759883880615234,0.09555727243423462
1772726482265549300,1.74354931640625,0.15260887145996094,-0.0073871612548828125,0.08559608459472656
1772726482275066600,1.753066650390625,0.12662506103515625,0.0020639896392822266,0.04725193977355957
1772726482284584400,1.76258447265625,0.06829261779785156,0.04389166831970215,0.023521721363067627
1772726482294101800,1.772101806640625,-0.04068470001220703,0.04482412338256836,-0.0013148784637451172
1772726482303619300,1.781619384765625,-0.09381389617919922,0.02965235710144043,-0.0011783242225646973
1772726482313137000,1.791136962890625,-0.12072086334228516,0.01128697395324707,0.005827426910400391
1772726482322654500,1.800654541015625,-0.098358154296875,0.006228208541870117,-0.030584096908569336
1772726482332172000,1.810172119140625,-0.022556304931640625,0.004214763641357422,-0.07178038358688354
1772726482341689600,1.819689697265625,0.05201148986816406,-0.012047290802001953,-0.058739542961120605
1772726482351207200,1.829207275390625,0.08549022674560547,-0.02390313148498535,-0.05650883913040161
1772726482360724700,1.838724853515625,0.07380867004394531,-0.021970272064208984,-0.04884845018386841
1772726482370242300,1.8482421875,0.019933700561523438,-0.010698318481445312,-0.03732943534851074
1772726482379759900,1.857759765625,-0.05443382263183594,0.02679133415222168,-0.025950729846954346
1772726482389277400,1.86727734375,-0.057099342346191406,0.035835981369018555,-0.023515164852142334
1772726482398795000,1.876794921875,-0.04326057434082031,0.026156902313232422,-0.008113086223602295
1772726482408312600,1.8863125,-0.0034246444702148438,-0.0027234554290771484,0.0016651749610900879
1772726482417830100,1.895830078125,0.026868820190429688,-0.011000394821166992,0.028963446617126465
1772726482427347500,1.905347412109375,0.08533477783203125,-0.03905081748962402,0.0438462495803833
1772726482436865000,1.914864990234375,0.11478233337402344,-0.02723860740661621,0.052912235260009766
1772726482446382600,1.924382568359375,0.049653053283691406,-0.0015957355499267578,-0.006477415561676025
1772726482455900200,1.933900146484375,0.004443168640136719,0.026088953018188477,0.008862912654876709
1772726482465417700,1.943417724609375,-0.028326034545898438,0.037168025970458984,0.01062917709350586
1772726482474935300,1.952935302734375,-0.06545639038085938,0.018050193786621094,0.03647112846374512
1772726482484452900,1.962452880859375,-0.057374000549316406,0.025439739227294922,-0.010893464088439941
1772726482493970400,1.971970458984375,0.011705398559570312,0.06092977523803711,-0.01575767993927002
1772726482503488000,1.981488037109375,0.0821218490600586,0.048223257064819336,-0.05947142839431763
1772726482513005600,1.991005615234375,0.10932731628417969,0.011285543441772461,-0.08925604820251465
1772726482522523100,2.000523193359375,0.0752859115600586,0.009303092956542969,-0.048179030418395996
1772726482532040700,2.010040771484375,0.03022289276123047,-0.0070781707763671875,-0.00015175342559814453
1772726482541558300,2.019558349609375,-0.03779792785644531,-0.022587299346923828,0.05980968475341797
1772726482551075600,2.02907568359375,-0.04856681823730469,0.02663874626159668,0.04407542943954468
1772726482560593400,2.038593505859375,-0.054787635803222656,0.040587663650512695,0.009989142417907715
1772726482570110700,2.04811083984375,-0.05175018310546875,0.03363537788391113,0.0017415285110473633
1772726482579628300,2.057628173828125,-0.058353424072265625,0.01304769515991211,0.007434964179992676
1772726482589145900,2.067145751953125,-0.11682605743408203,-0.016025066375732422,0.03932619094848633
1772726482598663400,2.076663330078125,-0.11557674407958984,-0.0020837783813476562,0.06593269109725952
1772726482608181000,2.086180908203125,0.02226543426513672,-0.024075984954833984,0.03997814655303955
1772726482617698600,2.095698486328125,0.12295150756835938,-0.03033757209777832,-0.014189481735229492
1772726482627216100,2.105216064453125,0.17087173461914062,-0.04057955741882324,-0.004574954509735107
1772726482636733700,2.114733642578125,0.15731430053710938,-0.05905890464782715,0.0110093355178833
1772726482646251300,2.124251220703125,0.08290863037109375,-0.054093122482299805,0.011375129222869873
1772726482655768800,2.133768798828125,-0.039870262145996094,-0.01335597038269043,-0.016064763069152832
1772726482665286400,2.143286376953125,-0.14449119567871094,0.032444000244140625,-0.013778090476989746
1772726482674803700,2.1528037109375,-0.1797637939453125,0.024930238723754883,-0.001773059368133545
1772726482684321500,2.162321533203125,-0.18920421600341797,0.018998384475708008,-0.01145017147064209
1772726482693838800,2.1718388671875,-0.16364002227783203,-0.002142667770385742,-0.013370394706726074
1772726482703356400,2.1813564453125,-0.08205413818359375,0.0007665157318115234,0.015970945358276367
1772726482712874000,2.1908740234375,0.007666587829589844,-0.008394956588745117,-0.016697704792022705
1772726482722391600,2.2003916015625,0.008869171142578125,-0.029470443725585938,0.0017006397247314453
1772726482731909000,2.2099091796875,-0.008701324462890625,-0.024553537368774414,0.005260884761810303
1772726482741426700,2.2194267578125,-0.018927574157714844,-0.010291576385498047,0.0016855597496032715
1772726482750944300,2.2289443359375,-0.007818222045898438,-0.003214120864868164,0.03157305717468262
1772726482760461800,2.2384619140625,-0.008557319641113281,0.02711033821105957,0.04256552457809448
1772726482769979400,2.2479794921875,0.05442237854003906,0.056595802307128906,0.01624596118927002
1772726482779497000,2.2574970703125,0.08841705322265625,0.03323030471801758,-0.00660628080368042
1772726482789014500,2.2670146484375,0.07027435302734375,0.01690196990966797,0.006522119045257568
1772726482798532000,2.276531982421875,0.062005043029785156,0.007534503936767578,0.017109274864196777
1772726482808049700,2.286049560546875,0.07999610900878906,0.026043176651000977,0.027878105640411377
1772726482817567000,2.29556689453125,0.05324077606201172,0.02487659454345703,0.0012348294258117676
1772726482827084500,2.30508447265625,-0.012823104858398438,0.03500699996948242,-0.012658536434173584
1772726482836602000,2.31460205078125,-0.05179882049560547,0.030738353729248047,-0.04440242052078247
1772726482846119700,2.32411962890625,-0.08325958251953125,0.022242307662963867,-0.031239330768585205
1772726482855637200,2.33363720703125,-0.10529613494873047,-0.006345510482788086,-0.04569673538208008
1772726482865154800,2.34315478515625,-0.10402488708496094,-0.0191800594329834,-0.06834155321121216
1772726482874672400,2.35267236328125,-0.09162616729736328,-0.011648893356323242,-0.009036123752593994
1772726482884190000,2.36218994140625,-0.07060718536376953,-0.007620334625244141,-0.005250990390777588
1772726482893707500,2.37170751953125,0.01807880401611328,-0.01251530647277832,0.000998377799987793
1772726482903225000,2.38122509765625,0.11015987396240234,-0.008266448974609375,0.037975192070007324
1772726482912742700,2.39074267578125,0.11643695831298828,-0.042725324630737305,0.039324283599853516
1772726482922260200,2.40026025390625,0.12335395812988281,-0.033652305603027344,0.022031784057617188
1772726482931777800,2.40977783203125,0.15927600860595703,-0.019843339920043945,0.007144510746002197
1772726482941295400,2.41929541015625,0.1883106231689453,-0.024642229080200195,-0.01722508668899536
1772726482950812700,2.428812744140625,0.09243392944335938,-0.058298587799072266,0.0033559799194335938
1772726482960330500,2.43833056640625,0.009870529174804688,-0.044084787368774414,0.024262428283691406
1772726482969847800,2.447847900390625,-0.08341503143310547,-0.031500816345214844,0.04804718494415283
1772726482979365400,2.457365478515625,-0.11699295043945312,0.008372783660888672,0.03149658441543579
1772726482988883000,2.466883056640625,-0.14129161834716797,0.011546611785888672,-0.027406394481658936
1772726482998400500,2.476400390625,-0.1351490020751953,0.004091978073120117,-0.06486725807189941
1772726483007918000,2.48591796875,-0.08719539642333984,-0.002336263656616211,-0.03199273347854614
1772726483017435600,2.495435546875,-0.04733562469482422,-0.03406095504760742,-0.018969953060150146
1772726483026953200,2.504953125,0.022643089294433594,-0.0043375492095947266,-0.007395625114440918
1772726483036470800,2.514470703125,0.11797809600830078,-0.025782346725463867,-0.03917044401168823
1772726483045988400,2.52398828125,0.17020893096923828,-0.039407968521118164,-0.0488850474357605
1772726483055506000,2.533505859375,0.15407180786132812,-0.04053926467895508,-0.042368292808532715
1772726483065023500,2.5430234375,0.11759185791015625,-0.03142833709716797,-0.07696014642715454
1772726483074540800,2.552540771484375,0.027764320373535156,-0.004233837127685547,-0.05091297626495361
1772726483084058600,2.56205859375,-0.11744976043701172,0.01870107650756836,-0.0634801983833313
1772726483093576000,2.571575927734375,-0.1786365509033203,0.0007517337799072266,-0.011958718299865723
1772726483103093500,2.581093505859375,-0.16658496856689453,-0.0009429454803466797,0.02983832359313965
1772726483112611000,2.590611083984375,-0.11040401458740234,0.014912843704223633,0.017628788948059082
1772726483122128600,2.600128662109375,-0.05280303955078125,0.02354598045349121,0.00622934103012085
1772726483131646200,2.609646240234375,-0.002964019775390625,0.00793766975402832,0.016449451446533203
1772726483141163800,2.619163818359375,0.03000164031982422,0.0010063648223876953,0.014891624450683594
1772726483150681300,2.628681396484375,0.03225421905517578,-0.0044553279876708984,-0.014740169048309326
1772726483160199000,2.638198974609375,0.018096923828125,0.006345987319946289,0.0004961490631103516
1772726483169716500,2.647716552734375,-0.007767677307128906,-0.008600711822509766,0.03132057189941406
1772726483179234000,2.657234130859375,-0.021704673767089844,0.0008637905120849609,-0.0019811391830444336
1772726483188751600,2.666751708984375,-0.05214691162109375,0.013147592544555664,-0.0065667033195495605
1772726483198269000,2.67626904296875,-0.05398273468017578,-0.002641916275024414,0.02913367748260498
1772726483207786800,2.685786865234375,-0.020470619201660156,0.0053446292877197266,0.0009365677833557129
1772726483217304000,2.695303955078125,-0.017907142639160156,-0.003662586212158203,-0.028698444366455078
1772726483226821600,2.704821533203125,-0.033980369567871094,-0.008249282836914062,-0.01484072208404541
1772726483236339200,2.714339111328125,-0.056654930114746094,-0.013073921203613281,0.018342316150665283
1772726483245856800,2.723856689453125,-0.12376976013183594,-0.010489463806152344,0.006257355213165283
1772726483255374300,2.733374267578125,-0.1855316162109375,-0.025805234909057617,-0.013549089431762695
1772726483264892000,2.742891845703125,-0.22105026245117188,-0.0040819644927978516,-0.007797718048095703
1772726483274409500,2.752409423828125,-0.1931295394897461,0.002550363540649414,0.014885962009429932
1772726483283927000,2.761927001953125,-0.08855533599853516,-0.00848078727722168,0.013591945171356201
1772726483293444600,2.771444580078125,0.004370689392089844,0.009728431701660156,-0.015533089637756348
1772726483302962200,2.780962158203125,0.08145332336425781,-0.007573843002319336,-0.07194280624389648
1772726483312479700,2.790479736328125,0.19279098510742188,-0.032332420349121094,-0.02680385112762451
1772726483321997300,2.799997314453125,0.24170970916748047,-0.013270378112792969,0.00439685583114624
1772726483331515000,2.809514892578125,0.2954397201538086,0.0245974063873291,0.03130137920379639
1772726483341032400,2.819032470703125,0.2598533630371094,0.0007932186126708984,0.03288930654525757
1772726483350549800,2.8285498046875,0.22820091247558594,-0.0036535263061523438,0.02837657928466797
1772726483360067600,2.838067626953125,0.1084146499633789,0.009129524230957031,0.04596757888793945
1772726483369585000,2.8475849609375,0.063873291015625,0.028084278106689453,0.054211556911468506
1772726483379102500,2.8571025390625,0.022414207458496094,0.03966856002807617,0.06212961673736572
1772726483388620000,2.8666201171875,-0.02112865447998047,0.0637211799621582,0.026849567890167236
1772726483398137600,2.8761376953125,-0.06446075439453125,0.07671070098876953,0.017252862453460693
1772726483407655200,2.8856552734375,-0.11708354949951172,0.09555768966674805,-0.00675201416015625
1772726483417172700,2.8951728515625,-0.10328960418701172,0.07489347457885742,-0.028126657009124756
1772726483426690300,2.904690185546875,-0.061593055725097656,0.08543992042541504,0.007465064525604248
1772726483436207900,2.914207763671875,-0.01574993133544922,0.0720360279083252,0.007623434066772461
1772726483445725400,2.923725341796875,-0.0033102035522460938,0.08180761337280273,-0.007905125617980957
1772726483455242800,2.93324267578125,0.02090930938720703,0.05799603462219238,0.03597217798233032
1772726483464760600,2.942760498046875,0.016541481018066406,0.020245790481567383,0.017426609992980957
1772726483474278000,2.95227783203125,-0.027884483337402344,-0.007257938385009766,0.010356664657592773
1772726483483795700,2.961795654296875,-0.052910804748535156,0.003658771514892578,-0.020544111728668213
1772726483493313000,2.97131298828125,-0.07760047912597656,-0.025453567504882812,-0.013514161109924316
1772726483502830600,2.98083056640625,-0.07593059539794922,-0.011800050735473633,0.007983684539794922
1772726483512348200,2.99034814453125,-0.11660289764404297,0.006440162658691406,-0.030983924865722656
1772726483521865700,2.99986572265625,-0.1426982879638672,-0.0033385753631591797,-0.0199124813079834
1772726483531383300,3.00938330078125,-0.16886138916015625,-0.021291494369506836,-0.07561492919921875
1772726483540900900,3.01890087890625,-0.15768146514892578,-0.016158580780029297,-0.0865858793258667
1772726483550418400,3.02841845703125,-0.13806629180908203,-0.011737823486328125,-0.05360984802246094
1772726483559936000,3.03793603515625,-0.10523319244384766,-0.006239414215087891,-0.027092576026916504
1772726483569453600,3.04745361328125,0.0021238327026367188,0.006669521331787109,-0.003920257091522217
1772726483578971000,3.056970947265625,0.06793689727783203,0.03291916847229004,-0.011658132076263428
1772726483588488700,3.06648876953125,0.10728168487548828,0.03876996040344238,0.030627548694610596
1772726483598006000,3.076006103515625,0.15361595153808594,0.003166675567626953,0.0348438024520874
1772726483607523600,3.085523681640625,0.19277286529541016,0.006693840026855469,0.06316882371902466
1772726483617041200,3.095041259765625,0.21551895141601562,0.029819011688232422,0.06153368949890137
1772726483626558700,3.104558837890625,0.16545772552490234,0.04437851905822754,0.048839449882507324
1772726483636076300,3.114076171875,0.05769062042236328,0.05103921890258789,0.04623723030090332
1772726483645593900,3.12359375,-0.03419780731201172,0.05774211883544922,0.03461223840713501
1772726483655111400,3.133111328125,-0.040062904357910156,0.08368992805480957,0.04915887117385864
1772726483664629000,3.14262890625,0.0245513916015625,0.11437082290649414,0.03735804557800293
1772726483674146600,3.152146484375,0.06453418731689453,0.07624077796936035,-0.036116957664489746
1772726483683664100,3.1616640625,0.059116363525390625,0.0433351993560791,-0.031729817390441895
1772726483693181700,3.171181640625,0.07035064697265625,0.02948307991027832,-0.03502100706100464
1772726483702699000,3.180698974609375,0.06496429443359375,0.006292581558227539,-0.012742400169372559
1772726483712216800,3.190216796875,0.033748626708984375,-0.002325773239135742,-0.00742870569229126
1772726483721734400,3.199734375,-0.006366729736328125,0.02694416046142578,-0.018245697021484375
1772726483731251700,3.209251708984375,-0.06687450408935547,0.013260126113891602,-0.020922958850860596
1772726483740769500,3.21876953125,-0.1121988296508789,-0.01440572738647461,-0.009215295314788818
1772726483750286800,3.228286865234375,-0.13817214965820312,-0.015187740325927734,0.011691272258758545
1772726483759804400,3.237804443359375,-0.17576122283935547,-0.029336214065551758,-0.023937225341796875
1772726483769322000,3.247322021484375,-0.18493366241455078,0.0024569034576416016,0.01357191801071167
1772726483778839600,3.256839599609375,-0.10019111633300781,0.015588760375976562,-0.004539132118225098
1772726483788357000,3.266357177734375,-0.06641769409179688,0.012337684631347656,-0.013189494609832764
1772726483797874700,3.275874755859375,-0.04495429992675781,-0.011983394622802734,-0.018818974494934082
1772726483807392300,3.285392333984375,-0.0802297592163086,-0.024239301681518555,0.02568572759628296
1772726483816909800,3.294909912109375,-0.06540775299072266,-0.01052093505859375,0.01832139492034912
1772726483826427400,3.304427490234375,-0.013070106506347656,-0.016052961349487305,0.020975828170776367
1772726483835945000,3.313945068359375,0.012607574462890625,-0.012338638305664062,0.016339480876922607
1772726483845462500,3.323462646484375,0.033111572265625,-0.02284836769104004,-0.007837653160095215
1772726483854979800,3.332979736328125,0.03896617889404297,0.004770755767822266,0.0005000829696655273
1772726483864497700,3.34249755859375,0.04683971405029297,-0.002840280532836914,-0.005680978298187256
1772726483874015000,3.352014892578125,0.04514122009277344,0.018120527267456055,0.01015084981918335
1772726483883532500,3.361532470703125,0.07889652252197266,0.0008952617645263672,0.014691352844238281
1772726483893050000,3.371050048828125,0.10774898529052734,-0.009774208068847656,0.02201169729232788
1772726483902567700,3.380567626953125,0.1178121566772461,-0.016716718673706055,-0.0008755922317504883
1772726483912085200,3.390085205078125,0.08809661865234375,0.003683328628540039,-0.03081965446472168
1772726483921602800,3.399602783203125,0.05193614959716797,0.011558771133422852,-0.020998895168304443
1772726483931120400,3.409120361328125,0.009141921997070312,0.01019430160522461,-0.0520363450050354
1772726483940638000,3.418637939453125,-0.035846710205078125,0.017069578170776367,-0.038877904415130615
1772726483950155500,3.428155517578125,-0.0877523422241211,0.013473749160766602,-0.047473371028900146
1772726483959673000,3.437673095703125,-0.0897684097290039,0.0015788078308105469,-0.017627298831939697
1772726483969190700,3.447190673828125,-0.007080078125,-0.016861915588378906,0.015333175659179688
1772726483978708000,3.4567080078125,0.10987091064453125,-0.04033470153808594,0.013582468032836914
1772726483988225800,3.466225830078125,0.15256786346435547,-0.05312752723693848,-0.015997588634490967
1772726483997743000,3.4757431640625,0.13167381286621094,-0.055617570877075195,0.015536606311798096
1772726484007260700,3.4852607421875,0.10460472106933594,-0.05953192710876465,-0.0014366507530212402
1772726484016778200,3.4947783203125,0.031043052673339844,-0.056726694107055664,0.007054507732391357
1772726484026295800,3.5042958984375,-0.07927799224853516,-0.017879009246826172,0.010531604290008545
1772726484035813400,3.5138134765625,-0.18127059936523438,-0.027613162994384766,0.026283860206604004
1772726484045331000,3.5233310546875,-0.180999755859375,-0.019107341766357422,0.004805266857147217
1772726484054848500,3.5328486328125,-0.1341228485107422,-0.007240772247314453,0.007559537887573242
1772726484064366000,3.542365966796875,-0.08343696594238281,-0.04227161407470703,-0.019891679286956787
1772726484073883600,3.551883544921875,-0.014600753784179688,-0.0488584041595459,-0.01607823371887207
1772726484083401200,3.561401123046875,0.06500434875488281,-0.02297520637512207,0.0006142258644104004
1772726484092918800,3.570918701171875,0.09861183166503906,-0.012011289596557617,-0.024566292762756348
1772726484102436400,3.580436279296875,0.08453655242919922,-0.029457569122314453,-0.03605860471725464
1772726484111954000,3.589953857421875,0.05647087097167969,-0.032258033752441406,0.013705313205718994
1772726484121471200,3.59947119140625,-0.0042819976806640625,-0.03435826301574707,0.011581361293792725
1772726484130988800,3.60898876953125,0.008897781372070312,-0.01728081703186035,0.041571974754333496
1772726484140506400,3.61850634765625,0.08104515075683594,0.0012600421905517578,0.03499704599380493
1772726484150024000,3.62802392578125,0.10782432556152344,-0.024042606353759766,-0.0036672353744506836
1772726484159541500,3.63754150390625,0.10879707336425781,-0.045549631118774414,-0.011416256427764893
1772726484169059000,3.64705908203125,0.11258411407470703,-0.06094861030578613,-0.005737006664276123
1772726484178576600,3.65657666015625,0.11424732208251953,-0.07220244407653809,0.011006057262420654
1772726484188094200,3.66609423828125,0.043079376220703125,-0.02948784828186035,-0.007809281349182129
1772726484197611800,3.67561181640625,-0.0763235092163086,0.005621194839477539,-0.02082657814025879
1772726484207129300,3.68512939453125,-0.17046165466308594,0.01744556427001953,-0.01601344347000122
1772726484216647000,3.69464697265625,-0.22818660736083984,0.035034894943237305,-0.03629302978515625
1772726484226164500,3.70416455078125,-0.2386627197265625,0.014111995697021484,-0.05207633972167969
1772726484235682000,3.71368212890625,-0.16275978088378906,0.014140129089355469,-0.038656651973724365
1772726484245199600,3.72319970703125,-0.09356403350830078,-0.010306835174560547,-0.04637259244918823
1772726484254717000,3.732717041015625,-0.023618698120117188,0.0040874481201171875,-0.04157286882400513
1772726484264234800,3.74223486328125,0.04747772216796875,0.004072427749633789,-0.009405255317687988
1772726484273752000,3.751751953125,0.11775875091552734,0.0008709430694580078,0.00839143991470337
1772726484283269600,3.76126953125,0.1404581069946289,-0.008318662643432617,0.0484241247177124
1772726484292787200,3.770787109375,0.17760562896728516,-0.0164492130279541,0.10115247964859009
1772726484302304800,3.7803046875,0.18414592742919922,-0.028109312057495117,0.10443037748336792
1772726484311822300,3.789822265625,0.16055583953857422,-0.024332761764526367,0.052074134349823
1772726484321340000,3.79933984375,0.11895465850830078,-0.02858281135559082,0.05537968873977661
1772726484330857500,3.808857421875,0.06874465942382812,-0.03779172897338867,0.07479524612426758
1772726484340375000,3.818375,0.019321441650390625,-0.016156911849975586,0.06317239999771118
1772726484349892600,3.827892578125,-0.06706905364990234,-0.003878355026245117,0.04267776012420654
1772726484359410200,3.83741015625,-0.1050424575805664,0.013229131698608398,0.03027808666229248
1772726484368927700,3.846927734375,-0.11678504943847656,0.01432037353515625,0.020669102668762207
1772726484378445000,3.856445068359375,-0.11212921142578125,-0.019325971603393555,-0.012751579284667969
1772726484387963000,3.865962890625,-0.10312652587890625,-0.007185220718383789,-0.05594146251678467
1772726484397480200,3.875480224609375,-0.08297061920166016,-0.036759376525878906,-0.0482218861579895
1772726484406997800,3.884997802734375,-0.061278343200683594,-0.01548457145690918,-0.03953760862350464
1772726484416515300,3.894515380859375,-0.01678180694580078,0.0015697479248046875,-0.05949586629867554
1772726484426033000,3.904032958984375,0.014904975891113281,-0.0021049976348876953,-0.03213691711425781
1772726484435550500,3.913550537109375,0.057689666748046875,-0.04541444778442383,-0.04310309886932373
1772726484445068000,3.923068115234375,0.12829971313476562,-0.03451395034790039,-0.03448593616485596
1772726484454585600,3.932585693359375,0.1582174301147461,-0.03900289535522461,-0.009005129337310791
1772726484464103200,3.942103271484375,0.176422119140625,-0.023595571517944336,0.025421500205993652
1772726484473620700,3.951620849609375,0.12182235717773438,-0.0354306697845459,0.04034525156021118
1772726484483138300,3.96113818359375,0.10148048400878906,-0.02688765525817871,0.02445322275161743
1772726484492655900,3.97065576171875,0.051054954528808594,0.006970643997192383,0.003993511199951172
1772726484502173200,3.980173095703125,0.01796722412109375,0.0025610923767089844,0.0003765225410461426
1772726484511691000,3.98969091796875,-0.040589332580566406,0.015112638473510742,0.034918904304504395
1772726484521208300,3.999208251953125,-0.1031646728515625,0.004722118377685547,0.057637035846710205
1772726484530726000,4.008725830078125,-0.0944061279296875,0.02114248275756836,0.04949551820755005
1772726484540243500,4.018243408203125,-0.050685882568359375,0.002468109130859375,0.02277141809463501
1772726484549761000,4.027760986328125,0.015786170959472656,0.010144948959350586,0.0037618279457092285
1772726484559278600,4.037278564453125,0.027161598205566406,0.03149247169494629,-0.007893621921539307
1772726484568796200,4.046796142578125,0.026706695556640625,0.012089252471923828,-0.041049301624298096
1772726484578313700,4.056313720703125,-0.006554603576660156,0.009044170379638672,-0.03431648015975952
1772726484587831300,4.065831298828125,-0.02982044219970703,0.0035958290100097656,-0.037296295166015625
1772726484597348900,4.075348876953125,-0.045665740966796875,-0.001615285873413086,-0.020941615104675293
1772726484606866400,4.084866455078125,-0.035643577575683594,-0.006068229675292969,-0.01668846607208252
1772726484616384000,4.094384033203125,-0.023693084716796875,0.004309415817260742,-0.04305154085159302
1772726484625901600,4.103901611328125,-0.011889457702636719,0.0027980804443359375,-0.06329214572906494
1772726484635419100,4.113419189453125,0.02603912353515625,-0.0042955875396728516,-0.0327754020690918
1772726484644936700,4.122936767578125,0.07097625732421875,-0.040888071060180664,-0.028419911861419678
1772726484654454000,4.1324541015625,0.08983993530273438,-0.040593624114990234,-0.031217455863952637
1772726484663971600,4.1419716796875,0.040642738342285156,-0.04380607604980469,-0.03842133283615112
1772726484673489200,4.1514892578125,-0.047565460205078125,-0.014496803283691406,-0.01999109983444214
1772726484683006700,4.1610068359375,-0.11815547943115234,-0.0273895263671875,-0.01918947696685791
1772726484692524300,4.170524169921875,-0.1413116455078125,-0.01002955436706543,0.01132732629776001
1772726484702041900,4.180041748046875,-0.17438888549804688,0.0020945072174072266,0.00798642635345459
1772726484711559400,4.189559326171875,-0.1372966766357422,0.01863837242126465,0.018253624439239502
1772726484721077000,4.199076904296875,-0.04049968719482422,0.017964601516723633,0.008381068706512451
1772726484730594600,4.208594482421875,0.04014396667480469,-0.0028836727142333984,0.0031256675720214844
1772726484740112100,4.218112060546875,0.08661174774169922,-0.030577421188354492,0.010390698909759521
1772726484749629700,4.227629638671875,0.20122432708740234,0.006581306457519531,-0.00031453371047973633
1772726484759147300,4.237147216796875,0.27962589263916016,-0.018028974533081055,0.003926455974578857
1772726484768664800,4.246664794921875,0.2706155776977539,-0.01161646842956543,0.008169054985046387
1772726484778182100,4.25618212890625,0.20142555236816406,-0.007366180419921875,-0.003993391990661621
1772726484787700000,4.265699951171875,0.11279869079589844,-0.004476308822631836,0.01076275110244751
1772726484797217300,4.27521728515625,0.040007591247558594,0.014426469802856445,0.038048505783081055
1772726484806734800,4.28473486328125,-0.01984882354736328,0.014360427856445312,0.0369182825088501
1772726484816252400,4.29425244140625,-0.0790262222290039,0.01735210418701172,0.04009336233139038
1772726484825770000,4.30377001953125,-0.08590316772460938,0.03534555435180664,0.02339726686477661
1772726484835287600,4.31328759765625,-0.12862396240234375,0.04026651382446289,0.02424037456512451
1772726484844805000,4.32280517578125,-0.1643075942993164,0.04439735412597656,0.0148506760597229
1772726484854322700,4.33232275390625,-0.1905231475830078,0.031061887741088867,0.013297975063323975
1772726484863840300,4.34184033203125,-0.11780357360839844,0.037717580795288086,0.04790604114532471
1772726484873357800,4.35135791015625,-0.07219219207763672,0.023291587829589844,0.059384167194366455
1772726484882875400,4.36087548828125,-0.015355110168457031,-0.005462169647216797,0.03588742017745972
1772726484892393000,4.37039306640625,0.017396926879882812,-0.015873432159423828,0.03392523527145386
1772726484901910300,4.37991015625,0.021871566772460938,-0.025023221969604492,0.06711077690124512
1772726484911428000,4.389427978515625,0.05497550964355469,-0.0328526496887207,0.10891646146774292
1772726484920945400,4.3989453125,0.06908035278320312,-0.03448295593261719,0.06488960981369019
1772726484930463000,4.408462890625,0.02914142608642578,0.005587339401245117,0.045567870140075684
1772726484939980500,4.41798046875,-0.08051681518554688,0.05182361602783203,-0.021301448345184326
1772726484949498000,4.427498046875,-0.17924022674560547,0.05586385726928711,-0.0319441556930542
1772726484959015700,4.437015625,-0.15239906311035156,0.031131267547607422,-0.03319960832595825
1772726484968533200,4.446533203125,-0.06577873229980469,0.022929906845092773,-0.03852880001068115
1772726484978050800,4.45605078125,0.006955146789550781,0.05844831466674805,-0.048511505126953125
1772726484987568400,4.465568359375,0.023995399475097656,0.05161476135253906,-0.05997389554977417
1772726484997086000,4.4750859375,0.005481719970703125,0.049556732177734375,-0.0147324800491333
1772726485006603500,4.484603515625,0.0063228607177734375,0.025952577590942383,0.04228764772415161
1772726485016121000,4.49412109375,0.04988384246826172,0.030193567276000977,0.06857770681381226
1772726485025638700,4.503638671875,0.10727882385253906,0.0004210472106933594,0.03370392322540283
1772726485035156200,4.51315625,0.15012073516845703,-0.006552696228027344,0.006730079650878906
1772726485044673500,4.522673583984375,0.1528491973876953,0.020487308502197266,0.02061176300048828
1772726485054191000,4.532191162109375,0.13259029388427734,0.019868850708007812,0.03958672285079956
1772726485063708700,4.541708740234375,0.07529163360595703,-0.026076316833496094,0.053697288036346436
1772726485073226200,4.551226318359375,-0.028167724609375,-0.033371925354003906,0.05632662773132324
1772726485082743800,4.560743896484375,-0.08555221557617188,-0.00904083251953125,0.06390500068664551
1772726485092261400,4.570261474609375,-0.12849903106689453,0.009368658065795898,0.043071627616882324
1772726485101779000,4.579779052734375,-0.14313983917236328,0.012520313262939453,0.0058304667472839355
1772726485111296500,4.589296630859375,-0.12267494201660156,0.0071942806243896484,-0.04764056205749512
1772726485120814000,4.59881396484375,-0.060233116149902344,-0.0027229785919189453,-0.08646386861801147
1772726485130331600,4.60833154296875,0.020272254943847656,-0.0037729740142822266,-0.08714377880096436
1772726485139849200,4.61784912109375,0.05988502502441406,-0.027046918869018555,-0.04057711362838745
1772726485149366800,4.62736669921875,0.06162261962890625,-0.03211474418640137,-0.03686732053756714
1772726485158884400,4.63688427734375,0.056586265563964844,-0.009695768356323242,-0.031243562698364258
1772726485168402000,4.64640185546875,0.04464530944824219,-0.0020270347595214844,-0.040334880352020264
1772726485177919200,4.655919189453125,-0.04730796813964844,0.005934238433837891,-0.04744690656661987
1772726485187437000,4.66543701171875,-0.1170797348022461,0.054929494857788086,-0.015110909938812256
1772726485196954400,4.674954345703125,-0.13463973999023438,0.05063772201538086,0.0019940733909606934
1772726485206472000,4.684471923828125,-0.12179851531982422,0.0687861442565918,-0.023414969444274902
1772726485215989500,4.693989501953125,-0.09992218017578125,0.05420398712158203,-0.0242006778717041
1772726485225507000,4.703507080078125,0.00403594970703125,0.06311273574829102,0.005297482013702393
1772726485235024600,4.713024658203125,0.13249778747558594,0.08265137672424316,0.000653386116027832
1772726485244542200,4.722542236328125,0.18184757232666016,0.03678631782531738,-0.03156459331512451
1772726485254059800,4.732059814453125,0.16991138458251953,0.013654470443725586,0.029550135135650635
1772726485263577300,4.741577392578125,0.1421833038330078,-0.012457609176635742,0.0646095871925354
1772726485273095000,4.751094970703125,0.16222381591796875,-0.008064746856689453,0.07607120275497437
1772726485282612500,4.760612548828125,0.15624523162841797,-0.0018131732940673828,0.005304276943206787
1772726485292130000,4.770130126953125,0.16448307037353516,0.0230710506439209,0.015193939208984375
1772726485301647400,4.7796474609375,0.11134147644042969,0.057015419006347656,0.010235249996185303
1772726485311165200,4.789165283203125,0.04717826843261719,0.02011394500732422,-0.027835726737976074
1772726485320682500,4.7986826171875,-0.03247642517089844,0.026382923126220703,-0.011250436305999756
1772726485330200000,4.808199951171875,-0.09911251068115234,0.030454158782958984,0.01962757110595703
1772726485339717600,4.817717529296875,-0.09864616394042969,0.013176918029785156,0.02264857292175293
1772726485349235200,4.827235107421875,-0.10047149658203125,0.014843225479125977,-0.014393806457519531
1772726485358752800,4.836752685546875,-0.1212301254272461,0.004976511001586914,-0.03013712167739868
1772726485368270300,4.846270263671875,-0.17713451385498047,0.0004603862762451172,0.015601575374603271
1772726485377788000,4.855787841796875,-0.2042369842529297,0.018093109130859375,0.027710556983947754
1772726485387305500,4.865305419921875,-0.2149496078491211,-0.0009517669677734375,0.02301126718521118
1772726485396823000,4.874822998046875,-0.21204185485839844,-0.03216361999511719,0.032551109790802
1772726485406340600,4.884340576171875,-0.18616962432861328,-0.019237756729125977,0.03732192516326904
1772726485415858200,4.893858154296875,-0.09279346466064453,-0.022372961044311523,0.015532612800598145
1772726485425375500,4.90337548828125,-0.02927875518798828,-0.018352508544921875,-0.03720647096633911
1772726485434893300,4.912893310546875,0.021666526794433594,-0.03149819374084473,-0.01623016595840454
1772726485444410600,4.92241064453125,0.06271171569824219,-0.0053081512451171875,-0.005076706409454346
1772726485453928200,4.93192822265625,0.07756710052490234,-0.00632023811340332,0.003685891628265381
1772726485463445800,4.94144580078125,0.09014225006103516,0.017889022827148438,0.005789458751678467
1772726485472963300,4.95096337890625,0.09563922882080078,0.024812698364257812,0.0011047124862670898
1772726485482481000,4.96048095703125,0.08928394317626953,0.03161334991455078,0.008271992206573486
1772726485491998500,4.96999853515625,0.1112823486328125,0.026580810546875,-0.024251222610473633
1772726485501516000,4.97951611328125,0.13528060913085938,0.02873969078063965,-0.025193333625793457
1772726485511033600,4.98903369140625,0.1450653076171875,0.023173809051513672,0.00509876012802124
1772726485520551200,4.99855126953125,0.1480569839477539,0.026114702224731445,0.0045081377029418945
1772726485530068700,5.00806884765625,0.0689249038696289,-0.004658699035644531,0.0036773681640625
1772726485539586300,5.01758642578125,0.012407302856445312,0.0023233890533447266,-0.014311075210571289
1772726485549103900,5.027103759765625,-0.043244361877441406,-0.00016236305236816406,-0.023279786109924316
1772726485558621400,5.036621337890625,-0.12160110473632812,0.004751682281494141,-0.08122992515563965
1772726485568139000,5.046138916015625,-0.1517019271850586,0.017032861709594727,-0.059848785400390625
1772726485577656300,5.05565625,-0.11556434631347656,0.008289337158203125,-0.010601997375488281
1772726485587174000,5.065173828125,-0.11317920684814453,-0.046947479248046875,-0.007354438304901123
1772726485596691500,5.07469140625,-0.12284469604492188,-0.046669960021972656,-0.011879980564117432
1772726485606209000,5.084208984375,-0.13517379760742188,-0.04779458045959473,0.0155753493309021
1772726485615726600,5.0937265625,-0.1408529281616211,-0.03810691833496094,0.020824015140533447
1772726485625244200,5.103244140625,-0.1258106231689453,-0.017790794372558594,0.052111804485321045
1772726485634761700,5.11276171875,-0.07135009765625,-0.013377904891967773,0.059959471225738525
1772726485644279300,5.122279296875,-0.008449554443359375,-0.0017216205596923828,0.03058379888534546
1772726485653796900,5.131796875,0.053687095642089844,0.0233156681060791,0.00012761354446411133
1772726485663314400,5.141314453125,0.11535072326660156,0.009064674377441406,0.0015506744384765625
1772726485672832000,5.15083203125,0.15063762664794922,-0.0297849178314209,0.021690726280212402
1772726485682349300,5.160349365234375,0.21170520782470703,-0.019826889038085938,0.0011189579963684082
1772726485691867100,5.1698671875,0.2323932647705078,0.014273643493652344,-0.012208163738250732
1772726485701384400,5.179384521484375,0.17800331115722656,0.023008108139038086,-0.04595518112182617
1772726485710902300,5.18890234375,0.037715911865234375,0.028755903244018555,-0.08314436674118042
1772726485720419600,5.198419677734375,-0.10036087036132812,0.032410621643066406,-0.09828740358352661
1772726485729937200,5.207937255859375,-0.1353902816772461,0.036949872970581055,-0.08787405490875244
1772726485739454700,5.217454833984375,-0.13283348083496094,0.0026891231536865234,-0.06275665760040283
1772726485748972300,5.22697216796875,-0.13337421417236328,0.017414093017578125,-0.07287847995758057
1772726485758489900,5.23648974609375,-0.11333179473876953,0.03782534599304199,-0.041786134243011475
1772726485768007400,5.24600732421875,-0.09402275085449219,0.007035255432128906,-0.006860256195068359
1772726485777524700,5.255524658203125,-0.056304931640625,0.021906614303588867,0.021603286266326904
1772726485787042600,5.26504248046875,-0.023848533630371094,-0.022232770919799805,0.043835461139678955
1772726485796560100,5.27456005859375,0.029297828674316406,-0.03034210205078125,0.07584279775619507
1772726485806077400,5.284077392578125,0.10534477233886719,-0.043569326400756836,0.030064523220062256
1772726485815595300,5.29359521484375,0.15705204010009766,-0.055246829986572266,0.02317488193511963
1772726485825112600,5.303112548828125,0.16600894927978516,-0.03020763397216797,0.00936979055404663
1772726485834630400,5.31263037109375,0.1894388198852539,-0.044500112533569336,0.030888617038726807
1772726485844147700,5.322147705078125,0.15648841857910156,-0.04093194007873535,0.03070545196533203
1772726485853665300,5.331665283203125,0.12910938262939453,-0.028788328170776367,0.03283780813217163
1772726485863182800,5.341182861328125,0.0387115478515625,-0.0240476131439209,0.004275143146514893
1772726485872700400,5.350700439453125,-0.017457008361816406,-0.004735231399536133,0.01147317886352539
1772726485882218000,5.360218017578125,-0.0684356689453125,-0.0011684894561767578,-0.04055660963058472
1772726485891735600,5.369735595703125,-0.0789785385131836,0.01510930061340332,-0.03761088848114014
1772726485901253000,5.379253173828125,-0.0732269287109375,0.0037653446197509766,-0.05337083339691162
1772726485910770700,5.388770751953125,-0.05831336975097656,0.0071370601654052734,-0.04514104127883911
1772726485920288300,5.398288330078125,-0.05304527282714844,0.01992034912109375,-0.03890705108642578
1772726485929805600,5.4078056640625,-0.0477447509765625,0.004049062728881836,-0.006400585174560547
1772726485939323400,5.417323486328125,-0.061150550842285156,-0.03561210632324219,-0.0334169864654541
1772726485948840700,5.4268408203125,-0.04362773895263672,-0.03032660484313965,-0.034835755825042725
1772726485958358300,5.436358154296875,-0.045250892639160156,-0.0040493011474609375,-0.053655803203582764
1772726485967875800,5.445875732421875,-0.04922962188720703,-0.006437778472900391,-0.04665648937225342
1772726485977393400,5.455393310546875,-0.06022071838378906,0.012446165084838867,-0.044405579566955566
1772726485986911000,5.464910888671875,-0.07106685638427734,0.012394189834594727,-0.008664369583129883
1772726485996428500,5.474428466796875,-0.0794219970703125,-0.0038690567016601562,0.013234078884124756
1772726486005946000,5.483946044921875,-0.06199169158935547,-0.019167661666870117,0.03305631875991821
1772726486015463700,5.493463623046875,0.006731986999511719,-0.024372100830078125,0.047780394554138184
1772726486024981200,5.502981201171875,0.0742940902709961,-0.015323400497436523,0.01758420467376709
1772726486034498800,5.512498779296875,0.11258792877197266,-0.0019817352294921875,0.00420457124710083
1772726486044016400,5.522016357421875,0.1292257308959961,-0.0034637451171875,0.006929337978363037
1772726486053534000,5.531533935546875,0.1317586898803711,0.008506059646606445,0.021487891674041748
1772726486063051500,5.541051513671875,0.12750530242919922,0.010158538818359375,0.000853121280670166
1772726486072569000,5.550569091796875,0.1448955535888672,0.0013659000396728516,-0.00792604684829712
1772726486082086400,5.56008642578125,0.14824581146240234,-0.0011713504791259766,-0.014490127563476562
1772726486091604000,5.56960400390625,0.11887073516845703,-0.0067026615142822266,0.0001264810562133789
1772726486101121500,5.57912158203125,0.05251502990722656,-0.03137803077697754,0.007483720779418945
1772726486110639000,5.58863916015625,-0.04819297790527344,-0.0010845661163330078,0.021990060806274414
1772726486120156700,5.59815673828125,-0.1264352798461914,-0.0009140968322753906,0.03873723745346069
1772726486129674200,5.60767431640625,-0.14270305633544922,-0.004227876663208008,0.00106889009475708
1772726486139191800,5.61719189453125,-0.12151336669921875,-0.0064966678619384766,-0.0037563443183898926
1772726486148709400,5.62670947265625,-0.08449840545654297,-0.012835264205932617,-0.027917563915252686
1772726486158227000,5.63622705078125,-0.05989837646484375,-0.004821062088012695,-0.058466434478759766
1772726486167744500,5.64574462890625,-0.05917835235595703,-0.01822948455810547,-0.024810075759887695
1772726486177262000,5.655261962890625,-0.030173301696777344,-0.03386878967285156,0.0015106201171875
1772726486186779600,5.664779541015625,-0.025155067443847656,-0.028107404708862305,0.02047276496887207
1772726486196297200,5.674297119140625,-0.003726959228515625,-0.02246689796447754,0.015740811824798584
1772726486205814500,5.683814453125,0.005489349365234375,-0.02615499496459961,0.013233840465545654
1772726486215332400,5.693332275390625,0.0027675628662109375,-0.013246774673461914,0.010833442211151123
1772726486224849700,5.702849609375,0.08954429626464844,-0.0006666183471679688,-0.003334939479827881
1772726486234367200,5.7123671875,0.11872577667236328,-0.007926464080810547,-0.03625112771987915
1772726486243884800,5.721884765625,0.12897968292236328,-0.008914470672607422,-0.06143629550933838
1772726486253402400,5.73140234375,0.09950923919677734,-0.0133056640625,-0.01784282922744751
1772726486262920000,5.740919921875,0.04951286315917969,-0.032120466232299805,0.01559990644454956
1772726486272437500,5.7504375,-0.030381202697753906,-0.026768922805786133,0.015429675579071045
1772726486281955000,5.759955078125,-0.06454181671142578,-0.018410921096801758,0.00354081392288208
1772726486291472600,5.76947265625,-0.04673480987548828,0.0024771690368652344,0.01073843240737915
1772726486300990200,5.778990234375,-0.029479026794433594,0.009573698043823242,-0.0053893327713012695
1772726486310507800,5.7885078125,-0.0008068084716796875,0.007293701171875,-0.011805593967437744
1772726486320025300,5.798025390625,-0.012645721435546875,-0.011479377746582031,-0.0024224519729614258
1772726486329542700,5.807542724609375,-0.03834247589111328,-0.018384933471679688,-0.028804540634155273
1772726486339060500,5.817060546875,-0.04704761505126953,-0.025348424911499023,-0.028583884239196777
1772726486348577800,5.826577880859375,-0.02497577667236328,-0.02282857894897461,0.007285356521606445
1772726486358095400,5.836095458984375,-0.022098541259765625,-0.017945528030395508,0.016884267330169678
1772726486367613000,5.845613037109375,-0.024140357971191406,-0.02453327178955078,0.007385551929473877
1772726486377130500,5.855130615234375,-0.009747505187988281,0.004415750503540039,0.01900583505630493
1772726486386648000,5.86464794921875,0.0021343231201171875,0.006801605224609375,0.053974270820617676
1772726486396165600,5.87416552734375,0.04461860656738281,-0.0030889511108398438,0.0532757043838501
1772726486405683200,5.88368310546875,0.05852031707763672,0.012313604354858398,0.03444403409957886
1772726486415200800,5.89320068359375,0.058281898498535156,-0.017674684524536133,0.004590392112731934
1772726486424718300,5.90271826171875,0.08873939514160156,-0.035592079162597656,0.02729552984237671
1772726486434236000,5.91223583984375,0.09521865844726562,-0.04159975051879883,0.0024802088737487793
1772726486443753500,5.92175341796875,0.05687236785888672,-0.03814435005187988,0.01062166690826416
1772726486453270800,5.931270751953125,-0.01853179931640625,-0.025274276733398438,-0.005226016044616699
1772726486462788600,5.94078857421875,-0.09983158111572266,0.02534341812133789,-0.020337462425231934
1772726486472306000,5.950305908203125,-0.168212890625,0.0803687572479248,-0.05372220277786255
1772726486481823500,5.959823486328125,-0.15587329864501953,0.07420873641967773,-0.09181958436965942
1772726486491341000,5.969341064453125,-0.13489723205566406,0.010460376739501953,-0.09294956922531128
1772726486500858600,5.978858642578125,-0.11713218688964844,-0.03469419479370117,-0.07146203517913818
1772726486510376200,5.988376220703125,-0.034201622009277344,-0.04293966293334961,-0.011145472526550293
1772726486519893800,5.997893798828125,0.025893211364746094,-0.01995110511779785,0.00961291790008545
1772726486529411300,6.007411376953125,0.08971691131591797,-0.0044403076171875,0.02540534734725952
1772726486538929000,6.016928955078125,0.10103511810302734,-0.006282329559326172,0.0182650089263916
1772726486548446500,6.026446533203125,0.14336585998535156,-0.023571014404296875,0.06836467981338501
1772726486557964000,6.035964111328125,0.19289779663085938,-0.025997638702392578,0.06441265344619751
1772726486567481600,6.045481689453125,0.15525245666503906,-0.03943896293640137,0.07267719507217407
1772726486576999200,6.054999267578125,0.10684680938720703,-0.0089111328125,0.10173624753952026
1772726486586516700,6.064516845703125,0.016935348510742188,0.011579036712646484,0.06666415929794312
1772726486596034000,6.074033935546875,-0.06708335876464844,0.01840949058532715,0.07239896059036255
1772726486605551600,6.083551513671875,-0.1242532730102539,0.04041099548339844,0.07632756233215332
1772726486615069200,6.093069091796875,-0.13859844207763672,0.056258440017700195,0.054897844791412354
1772726486624586800,6.102586669921875,-0.07291507720947266,0.060654401779174805,0.01301586627960205
1772726486634104300,6.112104248046875,-0.032012939453125,0.04644417762756348,-0.0357242226600647
1772726486643622000,6.121621826171875,0.019948959350585938,0.0252838134765625,-0.07526212930679321
1772726486653139500,6.131139404296875,0.06872940063476562,-0.0004923343658447266,-0.05626159906387329
1772726486662657000,6.140656982421875,0.08142948150634766,-0.021282196044921875,-0.05688285827636719
1772726486672174600,6.150174560546875,0.09628963470458984,-0.04889321327209473,-0.05783039331436157
1772726486681692200,6.159692138671875,0.1111001968383789,-0.03887295722961426,-0.03990817070007324
1772726486691209700,6.169209716796875,0.14022445678710938,-0.022853612899780273,-0.04011094570159912
1772726486700727300,6.178727294921875,0.08932685852050781,-0.015153884887695312,-0.04431217908859253
1772726486710244900,6.188244873046875,0.008897781372070312,-0.015150785446166992,-0.001455545425415039
1772726486719762400,6.197762451171875,-0.053813934326171875,-0.012681722640991211,0.011864721775054932
1772726486729279700,6.20727978515625,-0.13215255737304688,-0.002710103988647461,0.017864525318145752
1772726486738797300,6.21679736328125,-0.1695995330810547,0.012862920761108398,0.019385993480682373
1772726486748315000,6.22631494140625,-0.17395401000976562,0.036434173583984375,0.016500353813171387
1772726486757832400,6.23583251953125,-0.14100933074951172,0.023014307022094727,0.042055368423461914
1772726486767350000,6.24535009765625,-0.07838153839111328,0.012957572937011719,0.05034691095352173
1772726486776867600,6.25486767578125,-0.0026559829711914062,0.026552677154541016,0.037367165088653564
1772726486786385200,6.26438525390625,0.07689762115478516,0.04136776924133301,0.038844406604766846
1772726486795902700,6.27390283203125,0.12983322143554688,0.012159109115600586,-0.01851743459701538
1772726486805420300,6.283420166015625,0.15421485900878906,0.017364025115966797,-0.011415660381317139
1772726486814937900,6.292937744140625,0.1220388412475586,0.019341468811035156,0.03075695037841797
1772726486824455400,6.302455322265625,0.07157707214355469,0.0354151725769043,0.0464092493057251
1772726486833973000,6.311972900390625,0.02656841278076172,0.03267097473144531,0.01266402006149292
1772726486843490600,6.321490478515625,0.017499923706054688,0.07259202003479004,0.007790803909301758
1772726486853008000,6.3310078125,0.027370452880859375,0.0743093490600586,-0.001580357551574707
1772726486862525700,6.340525634765625,-0.00044918060302734375,0.052195072174072266,0.010473191738128662
1772726486872043000,6.35004296875,-0.027685165405273438,0.04188799858093262,0.007985174655914307
1772726486881560600,6.359560546875,-0.026213645935058594,0.04812264442443848,0.014605104923248291
1772726486891078100,6.369078125,-0.05314064025878906,0.007468700408935547,0.023113548755645752
1772726486900595700,6.378595703125,-0.0868978500366211,0.015091180801391602,0.015097200870513916
1772726486910113300,6.38811328125,-0.13456439971923828,0.011721372604370117,-0.013708412647247314
1772726486919630800,6.397630859375,-0.13701629638671875,-0.005020856857299805,0.005068838596343994
1772726486929148400,6.4071484375,-0.15621566772460938,-0.030165910720825195,-0.007234096527099609
1772726486938666000,6.416666015625,-0.10937976837158203,-0.00506138801574707,0.00900810956954956
1772726486948183600,6.42618359375,-0.009210586547851562,-0.02272820472717285,-0.017425596714019775
1772726486957701000,6.435701171875,0.03779125213623047,-0.01956796646118164,-0.029336214065551758
1772726486967218700,6.44521875,0.06791210174560547,-0.06201601028442383,-0.024329066276550293
1772726486976736000,6.454736083984375,0.04845619201660156,-0.06214094161987305,0.016286134719848633
1772726486986253800,6.46425390625,0.0036792755126953125,-0.07919430732727051,0.02627784013748169
1772726486995771100,6.473771240234375,-0.04279899597167969,-0.044022321701049805,0.014616787433624268
1772726487005288700,6.483288818359375,-0.055884361267089844,-0.025229692459106445,-0.0021014809608459473
1772726487014806300,6.49280615234375,-0.06436729431152344,0.0010378360748291016,-0.032890141010284424
1772726487024323800,6.50232373046875,-0.07769298553466797,0.013423442840576172,0.0027777552604675293
1772726487033841400,6.51184130859375,-0.0885467529296875,-0.0022783279418945312,-0.0039389729499816895
1772726487043359200,6.521359130859375,-0.08741474151611328,0.01757192611694336,0.0017749667167663574
1772726487052876500,6.53087646484375,-0.09337425231933594,0.023021936416625977,0.0004176497459411621
1772726487062394000,6.54039404296875,-0.07099533081054688,0.04243874549865723,-0.012987315654754639
1772726487071911700,6.54991162109375,-0.0655508041381836,0.01222848892211914,-0.024422168731689453
1772726487081429200,6.55942919921875,-0.048691749572753906,0.004128694534301758,0.0008947849273681641
1772726487090946800,6.56894677734375,0.03120899200439453,0.010606765747070312,0.0012790560722351074
1772726487100464000,6.578464111328125,0.10746479034423828,0.04274344444274902,-0.00787276029586792
1772726487109982000,6.58798193359375,0.11922073364257812,0.0548853874206543,-0.021098673343658447
1772726487119499300,6.597499267578125,0.12649917602539062,0.007103681564331055,0.027761518955230713
1772726487129016800,6.607016845703125,0.13873004913330078,0.003993988037109375,0.06434798240661621
1772726487138534400,6.616534423828125,0.12998390197753906,0.0071680545806884766,0.03053528070449829
1772726487148052000,6.626052001953125,0.0698995590209961,0.04034161567687988,0.03570610284805298
1772726487157569500,6.635569580078125,0.0038557052612304688,0.028043031692504883,0.02210259437561035
1772726487167087000,6.645087158203125,-0.04473686218261719,-0.009667158126831055,0.03447258472442627
1772726487176604700,6.654604736328125,-0.06676292419433594,0.012401103973388672,0.03734248876571655
1772726487186122200,6.664122314453125,-0.10739612579345703,-0.0031518936157226562,0.03331106901168823
1772726487195639800,6.673639892578125,-0.16898822784423828,0.029676198959350586,0.010296404361724854
1772726487205157400,6.683157470703125,-0.2253274917602539,0.0419771671295166,-0.04500579833984375
1772726487214675000,6.692675048828125,-0.21754932403564453,0.06439542770385742,-0.10839790105819702
1772726487224192300,6.702192138671875,-0.14435195922851562,0.028310060501098633,-0.12896597385406494
1772726487233710000,6.7117099609375,-0.05857563018798828,-0.018383264541625977,-0.11745774745941162
1772726487243227400,6.721227294921875,0.009142875671386719,-0.04536604881286621,-0.0864596962928772
1772726487252745000,6.730744873046875,0.11102104187011719,-0.036866188049316406,-0.0551949143409729
1772726487262262500,6.740262451171875,0.1147756576538086,-0.04052901268005371,-0.044143497943878174
1772726487271780000,6.749780029296875,0.09980487823486328,-0.039722442626953125,-0.006941497325897217
1772726487281297700,6.759297607421875,0.09487533569335938,-0.044243812561035156,0.04543721675872803
1772726487290815200,6.768815185546875,0.13772106170654297,-0.019234418869018555,0.08037549257278442
1772726487300332800,6.778332763671875,0.16663646697998047,-0.0177156925201416,0.06687885522842407
1772726487309850400,6.787850341796875,0.16762828826904297,0.010219573974609375,0.04251134395599365
1772726487319368000,6.797367919921875,0.07725238800048828,0.02015066146850586,0.00871509313583374
1772726487328885500,6.806885498046875,-0.05186939239501953,0.044437408447265625,-0.01629430055618286
1772726487338403000,6.816403076171875,-0.14435863494873047,0.05127429962158203,-0.0066106319427490234
1772726487347920600,6.825920654296875,-0.2128744125366211,0.07703185081481934,0.004875838756561279
1772726487357438200,6.835438232421875,-0.20360088348388672,0.09065103530883789,0.016223251819610596
1772726487366955800,6.844955810546875,-0.10346031188964844,0.07988500595092773,-0.024771273136138916
1772726487376473000,6.85447314453125,0.06546878814697266,0.03650236129760742,-0.04015535116195679
1772726487385990700,6.86399072265625,0.19204139709472656,-0.01212167739868164,-0.07737195491790771
1772726487395508200,6.87350830078125,0.2562723159790039,-0.04807329177856445,-0.06447404623031616
1772726487405025800,6.88302587890625,0.2357931137084961,-0.04111933708190918,-0.022600173950195312
1772726487414543400,6.89254345703125,0.17430877685546875,-0.07171487808227539,0.010802268981933594
1772726487424061000,6.90206103515625,0.06728935241699219,-0.05337786674499512,0.023669004440307617
1772726487433578500,6.91157861328125,-0.026212692260742188,-0.03752279281616211,0.0063138604164123535
1772726487443096000,6.921095947265625,-0.09265613555908203,-0.009274959564208984,0.021978676319122314
1772726487452613600,6.930613525390625,-0.16097068786621094,-0.008373260498046875,0.027161836624145508
1772726487462131200,6.940131103515625,-0.2031087875366211,0.0013468265533447266,0.011976003646850586
1772726487471648800,6.949648681640625,-0.21004676818847656,0.014990806579589844,-0.0063356757164001465
1772726487481166300,6.959166259765625,-0.1914043426513672,0.024692535400390625,-0.005592226982116699
1772726487490684000,6.968683837890625,-0.10496044158935547,0.037008047103881836,0.014665484428405762
1772726487500201200,6.978201171875,-0.026819229125976562,0.00885629653930664,0.019319534301757812
1772726487509719000,6.987718994140625,0.045638084411621094,-0.0053369998931884766,0.04355764389038086
1772726487519236400,6.997236328125,0.10786724090576172,-0.0061032772064208984,0.046302616596221924
1772726487528754000,7.00675390625,0.10813713073730469,-0.03110027313232422,0.03195905685424805
1772726487538271500,7.016271484375,0.08022880554199219,0.005197048187255859,0.02405714988708496
1772726487547789000,7.0257890625,0.08099651336669922,0.019664525985717773,0.013326585292816162
1772726487557306600,7.035306640625,0.08427619934082031,0.04763007164001465,-0.0017341971397399902
1772726487566824200,7.04482421875,0.07372379302978516,0.015605449676513672,0.0029573440551757812
1772726487576341800,7.054341796875,0.04489898681640625,0.016249895095825195,0.0034376978874206543
1772726487585859300,7.063859375,0.009703636169433594,-0.01883411407470703,0.004360198974609375
1772726487595377000,7.073376953125,-0.0178680419921875,-0.020339488983154297,0.0029141902923583984
1772726487604894200,7.082894287109375,-0.03348827362060547,-0.002418994903564453,0.010432064533233643
1772726487614412000,7.092412109375,-0.025671958923339844,-0.026352643966674805,-0.01071244478225708
1772726487623929300,7.101929443359375,-0.05597686767578125,-0.00669550895690918,-0.02674621343612671
1772726487633447200,7.111447265625,-0.04839038848876953,-0.01966691017150879,-0.0048004984855651855
1772726487642964500,7.120964599609375,-0.0151214599609375,-0.03696322441101074,-0.0021052956581115723
1772726487652482000,7.13048193359375,0.013057708740234375,-0.04502749443054199,0.009611666202545166
1772726487661999600,7.13999951171875,0.05500984191894531,-0.034545183181762695,0.006430089473724365
1772726487671517200,7.14951708984375,0.056418418884277344,-0.027070045471191406,-0.002024531364440918
1772726487681034800,7.15903466796875,0.010838508605957031,-0.012877941131591797,-0.007924079895019531
1772726487690552300,7.16855224609375,-0.08582878112792969,-0.0010056495666503906,-0.008608877658843994
1772726487700070000,7.17806982421875,-0.14586448669433594,-0.00035071372985839844,0.017084717750549316
1772726487709587500,7.18758740234375,-0.1158599853515625,-0.0010714530944824219,0.040477752685546875
1772726487719105000,7.19710498046875,-0.08189964294433594,0.01075887680053711,0.015052199363708496
1772726487728622300,7.206622314453125,-0.022690773010253906,-0.005645036697387695,-0.00034105777740478516
1772726487738140200,7.21614013671875,0.06375789642333984,-0.012513160705566406,0.004694223403930664
1772726487747657500,7.225657470703125,0.09247875213623047,-0.02689814567565918,-0.012242913246154785
1772726487757175300,7.23517529296875,0.047944068908691406,0.003150463104248047,-0.024861037731170654
1772726487766692600,7.244692626953125,0.013615608215332031,0.011316061019897461,-0.02830749750137329
1772726487776210200,7.254210205078125,-0.050811767578125,0.0007314682006835938,-0.02693837881088257
1772726487785727700,7.263727783203125,-0.08376598358154297,0.009686708450317383,0.0030968785285949707
1772726487795245300,7.273245361328125,-0.0787668228149414,0.002665996551513672,0.01881009340286255
1772726487804763000,7.282762939453125,-0.05978202819824219,0.01010894775390625,0.030187785625457764
1772726487814280400,7.292280517578125,-0.007975578308105469,0.010061979293823242,0.0352514386177063
1772726487823798000,7.301798095703125,0.031424522399902344,0.00960397720336914,0.07154357433319092
1772726487833315600,7.311315673828125,0.06798648834228516,0.0181272029876709,0.029475927352905273
1772726487842833200,7.320833251953125,0.11110973358154297,0.019161224365234375,-0.030812382698059082
1772726487852350700,7.330350830078125,0.11837100982666016,-0.001392364501953125,-0.06201130151748657
1772726487861868300,7.339868408203125,0.14921283721923828,0.0014424324035644531,-0.017775356769561768
1772726487871385600,7.349385498046875,0.11628532409667969,-0.010622501373291016,0.0018267035484313965
1772726487880903200,7.358903076171875,0.055858612060546875,-0.0300137996673584,-0.014275431632995605
1772726487890420700,7.368420654296875,-0.0009698867797851562,-0.009584188461303711,0.0268058180809021
1772726487899938300,7.377938232421875,-0.07791996002197266,0.012708425521850586,-0.03335350751876831
1772726487909456000,7.387455810546875,-0.13031482696533203,0.028234243392944336,-0.08053845167160034
1772726487918973400,7.396973388671875,-0.1328868865966797,0.037468671798706055,-0.10395747423171997
1772726487928491000,7.406490966796875,-0.11482715606689453,0.0007340908050537109,-0.07389944791793823
1772726487938008600,7.416008544921875,-0.07883358001708984,0.010516166687011719,-0.0668211579322815
1772726487947526100,7.425526123046875,-0.06035423278808594,-0.009500741958618164,-0.018251478672027588
1772726487957043700,7.435043701171875,-0.07066726684570312,-0.0004036426544189453,-0.0061501264572143555
1772726487966561300,7.444561279296875,-0.019695281982421875,0.008666038513183594,0.059659719467163086
1772726487976078800,7.454078857421875,0.028258323669433594,-0.003939151763916016,0.04960542917251587
1772726487985596400,7.463596435546875,0.08291149139404297,-0.014861822128295898,0.052544593811035156
1772726487995114000,7.473114013671875,0.156005859375,-0.017356395721435547,0.06321650743484497
1772726488004631300,7.48263134765625,0.17426586151123047,-0.025689363479614258,0.05284702777862549
1772726488014149000,7.492149169921875,0.14327049255371094,-0.016144514083862305,0.016995668411254883
1772726488023666400,7.50166650390625,0.14610004425048828,0.018207073211669922,0.02401888370513916
1772726488033184000,7.51118408203125,0.09964275360107422,0.023322105407714844,0.028529047966003418
1772726488042701600,7.52070166015625,0.03507041931152344,0.00739288330078125,0.01679927110671997
1772726488052219100,7.53021923828125,-0.04045867919921875,-0.0005049705505371094,0.029080629348754883
1772726488061736700,7.53973681640625,-0.020877838134765625,0.004098176956176758,0.0432397723197937
1772726488071254300,7.549254150390625,-0.0043544769287109375,0.02589130401611328,0.011711418628692627
1772726488080771800,7.558771728515625,-0.030828475952148438,0.04335165023803711,-0.02729654312133789
1772726488090289400,7.568289306640625,-0.08777809143066406,0.035257577896118164,-0.050247132778167725
1772726488099807000,7.577806884765625,-0.11802005767822266,0.032256364822387695,-0.0566716194152832
1772726488109324500,7.587324462890625,-0.10772418975830078,-0.0012836456298828125,-0.036633312702178955
1772726488118842000,7.596842041015625,-0.13043498992919922,-0.010900259017944336,-0.023452281951904297
1772726488128359400,7.606359375,-0.11266899108886719,-0.013448715209960938,0.0017899870872497559
1772726488137877200,7.615877197265625,-0.12337684631347656,-0.030162334442138672,-0.015445590019226074
1772726488147394600,7.62539453125,-0.13631248474121094,-0.013491392135620117,-0.008716464042663574
1772726488156912000,7.634912109375,-0.12562274932861328,-0.008600711822509766,0.009507536888122559
1772726488166429700,7.6444296875,-0.06133556365966797,-0.024225711822509766,-0.006100833415985107
1772726488175947300,7.653947265625,-0.01729106903076172,0.0035965442657470703,-0.023949921131134033
1772726488185464800,7.66346484375,0.046889305114746094,0.0364530086517334,-0.05308753252029419
1772726488194982400,7.672982421875,0.10994815826416016,0.007800579071044922,-0.0036512017250061035
1772726488204500000,7.6825,0.16514968872070312,0.016794919967651367,-0.015417039394378662
1772726488214017500,7.692017578125,0.21284008026123047,0.012816905975341797,0.034725844860076904
1772726488223535000,7.70153515625,0.27457618713378906,0.021280288696289062,0.01607125997543335
1772726488233052700,7.711052734375,0.2937288284301758,0.04171276092529297,-0.002419710159301758
1772726488242570200,7.7205703125,0.26856517791748047,0.03651762008666992,0.005279541015625
1772726488252087600,7.730087646484375,0.24437904357910156,0.0442044734954834,0.0037862658500671387
1772726488261605400,7.73960546875,0.14325809478759766,0.05342674255371094,0.021594762802124023
1772726488271122700,7.749122802734375,0.010944366455078125,0.020096778869628906,0.037322938442230225
1772726488280640300,7.75864013671875,-0.08407402038574219,0.03491973876953125,0.01531076431274414
1772726488290157800,7.76815771484375,-0.1566934585571289,0.036245107650756836,0.059358835220336914
1772726488299675400,7.77767529296875,-0.1721649169921875,0.04342508316040039,0.02419346570968628
1772726488309193000,7.78719287109375,-0.1595325469970703,0.03244495391845703,-0.030200183391571045
1772726488318710500,7.79671044921875,-0.1805133819580078,-0.026767492294311523,-0.028027594089508057
1772726488328228000,7.80622802734375,-0.19218063354492188,-0.03693437576293945,-0.009999215602874756
1772726488337745700,7.81574560546875,-0.17583656311035156,-0.03411579132080078,0.017246007919311523
1772726488347263200,7.82526318359375,-0.13404369354248047,-0.026164770126342773,-0.00024777650833129883
1772726488356780800,7.83478076171875,-0.0718069076538086,-0.053498268127441406,0.0040094852447509766
1772726488366298400,7.84429833984375,-0.029410362243652344,-0.061597585678100586,0.008238434791564941
1772726488375815700,7.853815673828125,-0.0087432861328125,-0.06290888786315918,0.007513225078582764
1772726488385333500,7.86333349609375,-0.0072307586669921875,-0.043111324310302734,0.008817195892333984
1772726488394850800,7.872850830078125,-0.0033826828002929688,-0.00957489013671875,-0.018325209617614746
1772726488404368400,7.882368408203125,-0.04432868957519531,-0.004730939865112305,-0.030655980110168457
1772726488413886000,7.891885986328125,-0.037650108337402344,0.007455348968505859,0.002324223518371582
1772726488423403500,7.901403564453125,-0.02882862091064453,0.02205514907836914,0.03250682353973389
1772726488432921000,7.910921142578125,-0.00130462646484375,0.03635859489440918,0.0034154653549194336
1772726488442438700,7.920438720703125,0.009415626525878906,0.02661728858947754,-0.0014832615852355957
1772726488451956200,7.929956298828125,0.04852581024169922,0.014038562774658203,-0.035868048667907715
1772726488461473800,7.939473876953125,0.1392202377319336,0.026503801345825195,0.015731871128082275
1772726488470991400,7.948991455078125,0.18410301208496094,0.009487628936767578,0.045169711112976074
1772726488480509000,7.958509033203125,0.16255474090576172,-0.014917373657226562,0.03108006715774536
1772726488490026500,7.968026611328125,0.13195133209228516,0.012751340866088867,0.002517998218536377
1772726488499543800,7.977543701171875,0.09469127655029297,0.05662870407104492,-0.016535937786102295
1772726488509061600,7.9870615234375,0.05088520050048828,0.06476736068725586,-0.030472218990325928
1772726488518579000,7.996578857421875,-0.001636505126953125,0.023610353469848633,-0.019708991050720215
1772726488528096500,8.006096435546874,0.012688636779785156,0.01367497444152832,-0.0011176466941833496
1772726488537614000,8.015614013671875,0.03868579864501953,-0.031716346740722656,-0.0038127899169921875
1772726488547131600,8.025131591796875,-0.0038309097290039062,-0.04843640327453613,-0.02493870258331299
1772726488556649200,8.034649169921876,-0.04778861999511719,-0.027704715728759766,-0.02437812089920044
1772726488566166800,8.044166748046875,-0.07447052001953125,-0.002887725830078125,-0.04554176330566406
1772726488575684400,8.053684326171876,-0.0797271728515625,0.0006473064422607422,-0.10969674587249756
1772726488585202000,8.063201904296875,-0.1063833236694336,-0.018780946731567383,-0.10302698612213135
1772726488594719500,8.072719482421874,-0.1236419677734375,-0.05335593223571777,-0.07367628812789917
1772726488604237000,8.082237060546875,-0.13408374786376953,-0.04388070106506348,-0.017652809619903564
1772726488613754600,8.091754638671874,-0.15431499481201172,-0.05456233024597168,0.029273509979248047
1772726488623272200,8.101272216796875,-0.1936025619506836,-0.0472567081451416,0.0490836501121521
1772726488632789800,8.110789794921875,-0.20457839965820312,-0.012743234634399414,0.06384813785552979
1772726488642307000,8.12030712890625,-0.16882038116455078,-0.015170574188232422,0.10895514488220215
1772726488651824600,8.12982470703125,-0.1291675567626953,-0.01928234100341797,0.08777463436126709
1772726488661342200,8.13934228515625,-0.045485496520996094,-0.004358768463134766,0.0933765172958374
1772726488670859800,8.14885986328125,0.0041351318359375,-0.018477439880371094,0.05242651700973511
1772726488680377300,8.15837744140625,0.043972015380859375,-0.007509708404541016,0.031531453132629395
1772726488689895000,8.16789501953125,0.0647878646850586,-0.028375864028930664,0.051554203033447266
1772726488699412500,8.17741259765625,0.10224628448486328,-0.024165630340576172,0.07210761308670044
1772726488708930000,8.186929931640625,0.19614315032958984,-0.037798404693603516,0.05105096101760864
1772726488718447600,8.196447509765624,0.2818918228149414,-0.05005216598510742,0.020943939685821533
1772726488727965200,8.205965087890625,0.2983217239379883,-0.044265031814575195,-0.006910204887390137
1772726488737482800,8.215482666015625,0.2699575424194336,0.005509376525878906,-0.04695236682891846
1772726488747000300,8.225000244140626,0.18801403045654297,0.01659870147705078,-0.07480573654174805
1772726488756518000,8.234517822265625,0.1285552978515625,0.037081003189086914,-0.04557710886001587
1772726488766035500,8.244035400390626,0.055907249450683594,0.015137195587158203,-0.020939409732818604
1772726488775552800,8.253552734375,0.05514240264892578,0.05703163146972656,-0.005246341228485107
1772726488785070300,8.2630703125,0.08508872985839844,0.0321195125579834,-0.027175188064575195
1772726488794588000,8.272587890625,0.07465648651123047,0.026098966598510742,-0.05836951732635498
1772726488804105500,8.28210546875,0.03860759735107422,-0.010741949081420898,-0.05195605754852295
1772726488813623000,8.291623046875,0.012541770935058594,-0.014039039611816406,-0.0343703031539917
1772726488823140600,8.301140625,-0.04144287109375,-0.03583645820617676,-0.04785662889480591
1772726488832658200,8.310658203125,-0.08058738708496094,-0.012077569961547852,-0.016191184520721436
1772726488842175700,8.32017578125,-0.09097766876220703,-0.009449958801269531,-0.005650043487548828
1772726488851693300,8.329693359375,-0.08481597900390625,-0.0277559757232666,0.021469414234161377
1772726488861211000,8.3392109375,-0.05760478973388672,-0.0362696647644043,0.031738340854644775
1772726488870728400,8.348728515625,-0.06138134002685547,-0.02360820770263672,0.027695894241333008
1772726488880246000,8.35824609375,-0.036861419677734375,-0.020562171936035156,0.019003689289093018
1772726488889763600,8.367763671875,-0.03164863586425781,-0.017355680465698242,0.02002650499343872
1772726488899281000,8.377281005859375,-0.028980255126953125,0.0049343109130859375,0.0048049092292785645
1772726488908798700,8.386798828125,-0.014737129211425781,0.01309347152709961,0.010950922966003418
1772726488918316000,8.39631591796875,0.02037525177001953,0.021214723587036133,0.047118544578552246
1772726488927833600,8.40583349609375,0.03368186950683594,0.0033071041107177734,-0.0026660561561584473
1772726488937351200,8.41535107421875,0.025615692138671875,0.03494381904602051,-0.014543592929840088
1772726488946868700,8.42486865234375,-0.0010957717895507812,0.03294992446899414,-0.000625908374786377
1772726488956386300,8.43438623046875,-0.036777496337890625,0.0475618839263916,-0.019373714923858643
1772726488965904000,8.44390380859375,-0.04822540283203125,0.02888321876525879,-0.008622705936431885
1772726488975421400,8.45342138671875,-0.005344390869140625,0.02464890480041504,0.02582573890686035
1772726488984939000,8.46293896484375,0.07445907592773438,0.006337165832519531,0.02881389856338501
1772726488994456600,8.47245654296875,0.1200714111328125,-0.004867076873779297,-0.010875999927520752
1772726489003974100,8.48197412109375,0.10620307922363281,-0.00915384292602539,-0.03851914405822754
1772726489013491700,8.49149169921875,0.09030914306640625,-0.01834702491760254,-0.028201758861541748
1772726489023009000,8.501009033203125,0.1149587631225586,-0.004515171051025391,-0.015404880046844482
1772726489032526800,8.51052685546875,0.21251869201660156,-0.015357732772827148,-0.02841651439666748
1772726489042044200,8.520044189453126,0.20761585235595703,-0.05510902404785156,-0.015317440032958984
1772726489051561700,8.529561767578125,0.16550827026367188,-0.03156900405883789,-0.0258600115776062
1772726489061079300,8.539079345703126,0.08661842346191406,-0.05600619316101074,-0.0015470385551452637
1772726489070596900,8.548596923828125,0.0019388198852539062,-0.056494951248168945,0.010023415088653564
1772726489080114400,8.558114501953124,-0.03452777862548828,-0.02343606948852539,0.014002203941345215
1772726489089632000,8.567632080078125,-0.09186267852783203,0.005111217498779297,0.0037121176719665527
1772726489099149600,8.577149658203124,-0.13197898864746094,0.005582094192504883,0.005940258502960205
1772726489108667100,8.586667236328125,-0.1457052230834961,-0.01690959930419922,0.034923672676086426
1772726489118184700,8.596184814453125,-0.12172412872314453,-0.010310649871826172,0.03547358512878418
1772726489127702300,8.605702392578126,-0.09130573272705078,-0.02222299575805664,0.03762716054916382
1772726489137219800,8.6152197265625,-0.07330989837646484,-0.024237394332885742,0.03453034162521362
1772726489146737200,8.624737060546876,-0.05561637878417969,0.004320859909057617,-0.008811116218566895
1772726489156255000,8.6342548828125,-0.06640148162841797,0.020532846450805664,0.005146324634552002
1772726489165772300,8.643772216796876,-0.060637474060058594,0.01320958137512207,0.01892399787902832
1772726489175289900,8.653289794921875,-0.06932353973388672,-0.00041675567626953125,0.02091848850250244
1772726489184807400,8.662807373046874,-0.05214118957519531,-0.03917074203491211,0.014154493808746338
1772726489194325000,8.672324951171875,0.0024175643920898438,-0.05845141410827637,0.021852850914001465
1772726489203842600,8.681842529296874,0.06574249267578125,-0.03571033477783203,-0.01758188009262085
1772726489213360000,8.691360107421875,0.060273170471191406,-0.028699874877929688,-0.07267022132873535
1772726489222877700,8.700877685546875,0.012969970703125,0.01240849494934082,-0.08685994148254395
1772726489232395300,8.710395263671876,-0.03341865539550781,-0.018085718154907227,-0.08440542221069336
1772726489241912800,8.719912841796875,-0.03451061248779297,-0.03359532356262207,-0.08488285541534424
1772726489251430400,8.729430419921876,-0.0125732421875,-0.017235994338989258,-0.05629640817642212
1772726489260948000,8.738947998046875,-0.038804054260253906,-0.027825593948364258,-0.027587950229644775
1772726489270465300,8.74846533203125,-0.0745859146118164,0.0030965805053710938,-0.00942528247833252
1772726489279983000,8.757983154296875,-0.07474708557128906,0.0012640953063964844,0.02498859167098999
1772726489289500400,8.76750048828125,0.010025978088378906,0.02733898162841797,0.059947192668914795
1772726489299018000,8.77701806640625,0.07749652862548828,0.018872976303100586,0.04187417030334473
1772726489308535600,8.78653564453125,0.13516902923583984,-0.005169391632080078,0.03260910511016846
1772726489318053000,8.79605322265625,0.14309310913085938,-0.002073526382446289,0.03809326887130737
1772726489327570700,8.80557080078125,0.12769794464111328,-0.006964206695556641,0.017542660236358643
1772726489337088300,8.815088134765626,0.06326866149902344,-0.023810625076293945,0.021033644676208496
1772726489346605800,8.824605712890625,0.016203880310058594,-0.014107942581176758,0.024074196815490723
1772726489356123400,8.834123291015626,-0.02343463897705078,-0.017775774002075195,0.012163698673248291
1772726489365641000,8.843640869140625,-0.06046485900878906,-0.008609533309936523,-0.025515496730804443
1772726489375158500,8.853158447265624,-0.014620780944824219,-0.0016930103302001953,-0.024855852127075195
1772726489384676000,8.862676025390625,0.049407958984375,-0.01639270782470703,-0.040719568729400635
1772726489394193400,8.872193359375,0.05852508544921875,-0.029241561889648438,-0.04956597089767456
1772726489403711200,8.881711181640625,0.03240394592285156,-0.03776717185974121,-0.0563126802444458
1772726489413228500,8.891228515625,0.044536590576171875,-0.0019199848175048828,-0.06786417961120605
1772726489422746000,8.90074609375,-0.030597686767578125,-0.008981704711914062,-0.03677475452423096
1772726489432263700,8.910263671875,-0.07877540588378906,0.012894630432128906,-0.024266839027404785
1772726489441781200,8.91978125,-0.10042285919189453,0.01140451431274414,-0.025346100330352783
1772726489451298800,8.929298828125,-0.09362411499023438,0.0055997371673583984,-0.028834402561187744
1772726489460816400,8.93881640625,-0.0917673110961914,0.01421666145324707,-0.049284279346466064
1772726489470334000,8.948333984375,-0.08055591583251953,0.01797628402709961,-0.05098128318786621
1772726489479851500,8.9578515625,-0.08853530883789062,0.0031778812408447266,-0.020384609699249268
1772726489489369000,8.967369140625,-0.07781505584716797,-0.0061206817626953125,0.01858586072921753
1772726489498886400,8.976886474609374,-0.0486297607421875,0.013453483581542969,0.019407331943511963
1772726489508404200,8.986404296875,0.012994766235351562,0.021045923233032227,0.02531123161315918
1772726489517921800,8.995921875,0.06894302368164062,0.007237672805786133,0.03842848539352417
1772726489527439000,9.005439208984376,0.07002830505371094,-0.013828754425048828,0.035078227519989014
1772726489536956700,9.014956787109375,0.0737009048461914,-0.023310422897338867,0.032343268394470215
1772726489546474200,9.02447412109375,0.07761478424072266,0.009073495864868164,0.02086508274078369
1772726489555991800,9.03399169921875,0.10289478302001953,0.0026826858520507812,0.02397054433822632
1772726489565509400,9.04350927734375,0.10908889770507812,-0.004031658172607422,0.02452373504638672
1772726489575027000,9.05302685546875,0.08704948425292969,-0.02741408348083496,0.015381276607513428
1772726489584544500,9.06254443359375,0.03002643585205078,-0.022095441818237305,0.022512614727020264
1772726489594062000,9.07206201171875,-0.014308929443359375,0.018477678298950195,-0.010601580142974854
1772726489603579600,9.08157958984375,-0.055609703063964844,0.030293703079223633,-0.02190309762954712
1772726489613097200,9.09109716796875,-0.0940399169921875,0.0282137393951416,-0.028384268283843994
1772726489622614800,9.10061474609375,-0.08263874053955078,-0.0062367916107177734,-0.006638526916503906
1772726489632132400,9.11013232421875,-0.062213897705078125,-0.025464534759521484,-0.029781877994537354
1772726489641650000,9.11964990234375,-0.03982353210449219,-0.013689279556274414,-0.04089081287384033
1772726489651167200,9.129167236328126,-0.027202606201171875,-0.016325712203979492,-0.016847431659698486
1772726489660685000,9.13868505859375,-0.043030738830566406,-0.04720258712768555,0.02532339096069336
1772726489670202400,9.148202392578124,-0.042133331298828125,-0.021033287048339844,0.04581516981124878
1772726489679720000,9.157719970703125,-0.041327476501464844,-0.002043008804321289,0.043121337890625
1772726489689237500,9.167237548828124,-0.05726337432861328,-0.003957986831665039,0.061322033405303955
1772726489698755000,9.176755126953125,-0.028453826904296875,0.01811385154724121,0.021979212760925293
1772726489708272600,9.186272705078125,-0.000202178955078125,0.023464679718017578,0.0111161470413208
1772726489717790200,9.195790283203126,0.03699207305908203,-0.006669759750366211,0.006934225559234619
1772726489727307800,9.205307861328125,0.057259559631347656,0.026843547821044922,0.0124129056930542
1772726489736825300,9.214825439453126,0.05610466003417969,-0.003908634185791016,0.013357996940612793
1772726489746343000,9.224343017578125,0.12815093994140625,0.04049420356750488,-0.009505510330200195
1772726489755860500,9.233860595703124,0.20171642303466797,0.02193737030029297,-0.011539936065673828
1772726489765378000,9.2433779296875,0.19690799713134766,0.01421809196472168,0.010104238986968994
1772726489774895400,9.252895263671874,0.11261749267578125,0.0034227371215820312,0.051519036293029785
1772726489784413200,9.2624130859375,-0.017335891723632812,0.004816293716430664,0.10525387525558472
1772726489793930500,9.271930419921874,-0.11729717254638672,0.026160717010498047,0.10465115308761597
1772726489803448000,9.281447998046875,-0.16433238983154297,0.057706594467163086,0.03988462686538696
1772726489812965600,9.290965576171875,-0.1756734848022461,0.07529878616333008,0.0029450654983520508
1772726489822483200,9.300483154296876,-0.15633487701416016,0.05510902404785156,0.022617340087890625
1772726489832000800,9.310000732421875,-0.13723373413085938,0.018709659576416016,0.040358006954193115
1772726489841518300,9.319518310546876,-0.13976764678955078,0.002199888229370117,0.09137749671936035
1772726489851036000,9.329035888671875,-0.12609386444091797,-0.029707908630371094,0.07351166009902954
1772726489860553500,9.338553466796874,-0.10599899291992188,-0.02248549461364746,0.015543341636657715
1772726489870071000,9.348071044921875,-0.05356788635253906,-0.04302835464477539,-0.03486323356628418
1772726489879588600,9.357588623046874,0.03343677520751953,-0.04240226745605469,-0.016036391258239746
1772726489889106200,9.367106201171875,0.0628509521484375,-0.03785586357116699,0.0027714967727661133
1772726489898623500,9.37662353515625,0.057003021240234375,-0.048781633377075195,-0.030372798442840576
1772726489908141300,9.386141357421875,0.028258323669433594,-0.03247475624084473,-0.06681722402572632
1772726489917658600,9.39565869140625,-0.03515911102294922,-0.042510032653808594,-0.08524608612060547
1772726489927176200,9.40517626953125,-0.12368965148925781,-0.049321651458740234,-0.06345242261886597
1772726489936693800,9.41469384765625,-0.14757061004638672,-0.04579520225524902,-0.04010152816772461
1772726489946211300,9.42421142578125,-0.0890340805053711,-0.03460359573364258,-0.041585445404052734
1772726489955729000,9.43372900390625,0.08571720123291016,-0.05577588081359863,-0.012240469455718994
1772726489965246500,9.44324658203125,0.17952823638916016,-0.052278995513916016,-0.024322986602783203
1772726489974764000,9.452763916015625,0.1351184844970703,-0.015251398086547852,-0.009344100952148438
1772726489984281600,9.462281494140624,0.15277385711669922,0.020923376083374023,0.0014265775680541992
1772726489993799200,9.471799072265625,0.2578868865966797,0.03598928451538086,-0.006499648094177246
1772726490003316700,9.481316650390625,0.3081636428833008,0.010595560073852539,0.002377629280090332
1772726490012834300,9.490834228515626,0.29736995697021484,0.009154796600341797,0.020614206790924072
1772726490022351600,9.5003515625,0.15556049346923828,0.03225064277648926,0.03885376453399658
1772726490031869400,9.509869384765626,0.03042888641357422,0.028566837310791016,0.004865765571594238
1772726490041386800,9.51938671875,-0.024565696716308594,0.08414244651794434,-0.007939696311950684
1772726490050904300,9.528904296875,-0.09547901153564453,0.05031561851501465,-0.008662104606628418
1772726490060422000,9.538421875,-0.1561880111694336,0.011154890060424805,-0.003631889820098877
1772726490069939500,9.547939453125,-0.1902313232421875,0.006380319595336914,0.03787398338317871
1772726490079457000,9.55745703125,-0.22149276733398438,-0.009558677673339844,0.06322860717773438
1772726490088974600,9.566974609375,-0.18907642364501953,-0.0738534927368164,0.06617337465286255
1772726490098492200,9.5764921875,-0.08727741241455078,-0.060544729232788086,0.029075324535369873
1772726490108009700,9.586009765625,0.01941967010498047,-0.027788639068603516,-0.06799763441085815
1772726490117527300,9.59552734375,0.1147012710571289,0.023629188537597656,-0.09621971845626831
1772726490127044900,9.605044921875,0.17569255828857422,0.02674078941345215,-0.05930602550506592
1772726490136562400,9.6145625,0.1869974136352539,-0.032839298248291016,-0.03728765249252319
1772726490146080000,9.624080078125,0.1970682144165039,-0.08012866973876953,0.010380744934082031
1772726490155597600,9.63359765625,0.17784595489501953,-0.0993340015411377,0.0733346939086914
1772726490165115000,9.643114990234375,0.051405906677246094,-0.0845482349395752,0.08869963884353638
1772726490174632400,9.652632568359374,-0.07100296020507812,-0.04102134704589844,0.01486295461654663
1772726490184150000,9.66214990234375,-0.14542770385742188,0.06764507293701172,-0.06961590051651001
1772726490193667600,9.67166748046875,-0.20359325408935547,0.14719438552856445,-0.1026807427406311
1772726490203185200,9.68118505859375,-0.22437477111816406,0.1554884910583496,-0.07183051109313965
1772726490212702700,9.69070263671875,-0.18439579010009766,0.06439971923828125,0.062317848205566406
1772726490222220300,9.70022021484375,-0.06271839141845703,-0.02290058135986328,0.09274476766586304
1772726490231737900,9.70973779296875,0.13302326202392578,-0.08017182350158691,0.08477592468261719
1772726490241255400,9.71925537109375,0.27027034759521484,-0.06651067733764648,0.07272779941558838
1772726490250773000,9.72877294921875,0.29804134368896484,-0.05078768730163574,0.03126484155654907
1772726490260290600,9.73829052734375,0.18233966827392578,-0.024713516235351562,-0.006408989429473877
1772726490269808000,9.74780810546875,0.05455493927001953,0.02428269386291504,-0.038290202617645264
1772726490279325700,9.75732568359375,-0.04532146453857422,0.04212784767150879,-0.04145228862762451
1772726490288843300,9.76684326171875,-0.08976936340332031,0.04172253608703613,-0.03519505262374878
1772726490298360600,9.776360595703125,-0.13164424896240234,0.04041576385498047,-0.004632413387298584
1772726490307878100,9.785878173828126,-0.23233985900878906,0.05278301239013672,0.019437730312347412
1772726490317395700,9.795395751953125,-0.26126670837402344,0.054392099380493164,0.01480036973953247
1772726490326913300,9.804913330078126,-0.1888580322265625,0.023689985275268555,0.016554296016693115
1772726490336430800,9.814430908203125,-0.16032886505126953,0.003500699996948242,0.028936922550201416
1772726490345948400,9.823948486328124,-0.07837867736816406,-0.013826608657836914,-0.026851654052734375
1772726490355466000,9.833466064453125,-0.009616851806640625,0.02081012725830078,-0.09010165929794312
1772726490364983600,9.842983642578124,-0.021086692810058594,0.07883763313293457,-0.08693861961364746
1772726490374501000,9.852501220703125,-0.037400245666503906,0.03761863708496094,-0.04877382516860962
1772726490384018700,9.862018798828124,-0.03897571563720703,-0.13102984428405762,0.13911205530166626
1772726490393536300,9.871536376953125,0.13256072998046875,-0.23908257484436035,0.29908424615859985
1772726490403053800,9.8810537109375,0.07838916778564453,-0.17249155044555664,0.09268981218338013
1772726490412571400,9.8905712890625,-0.0973348617553711,0.013773202896118164,-0.061140477657318115
1772726490422088700,9.900088623046875,-0.08640003204345703,0.13556313514709473,-0.1809765100479126
1772726490431606500,9.9096064453125,-0.008392333984375,0.1000821590423584,-0.09626376628875732
