time,seconds_elapsed,z,y,x
1772726480599977500,0.0779775390625,0.02932151034474373,-0.14110976457595825,0.043371398001909256
1772726480609494800,0.087494873046875,0.01282816007733345,-0.12400554865598679,0.04459312930703163
1772726480619012400,0.097012451171875,-0.0054977829568088055,-0.07757982611656189,0.0360410213470459
1772726480628530000,0.106530029296875,-0.020158538594841957,-0.013439024798572063,0.021991131827235222
1772726480638047500,0.116047607421875,-0.030543239787220955,0.04520399495959282,0.002443459117785096
1772726480647565000,0.12556494140625,-0.03848448023200035,0.08918625861406326,-0.018325943499803543
1772726480657082600,0.13508251953125,-0.039706211537122726,0.1130099818110466,-0.036651886999607086
1772726480666600200,0.14460009765625,-0.03481929376721382,0.11423171311616898,-0.05436696484684944
1772726480676117800,0.15411767578125,-0.026878049597144127,0.09285144507884979,-0.07452550530433655
1772726480685635300,0.16363525390625,-0.01893680728971958,0.06963858753442764,-0.10018182545900345
1772726480695153000,0.17315283203125,-0.014049889519810677,0.049480047076940536,-0.12950333952903748
1772726480704670500,0.18267041015625,-0.009162971749901772,0.039706211537122726,-0.15088360011577606
1772726480714187800,0.192187744140625,-0.002443459117785096,0.03298669680953026,-0.1533270627260208
1772726480723705600,0.20170556640625,0.008552107028663158,0.01893680728971958,-0.14233149588108063
1772726480733223000,0.211222900390625,0.01954767294228077,-0.001221729558892548,-0.12095122784376144
1772726480742740500,0.220740478515625,0.0256563201546669,-0.0256563201546669,-0.09407317638397217
1772726480752258000,0.230258056640625,0.0256563201546669,-0.04214967042207718,-0.07269290834665298
1772726480761775600,0.239775634765625,0.020769402384757996,-0.0360410213470459,-0.05742128938436508
1772726480771293200,0.249293212890625,0.018325943499803543,-0.010384701192378998,-0.04520399495959282
1772726480780810800,0.258810791015625,0.020158538594841957,0.012217295356094837,-0.03481929376721382
1772726480790328300,0.268328369140625,0.024434590712189674,0.02871064469218254,-0.02260199747979641
1772726480799846000,0.277845947265625,0.031154103577136993,0.0409279391169548,-0.010995565913617611
1772726480809363500,0.287363525390625,0.034208428114652634,0.043982263654470444,-0.003665188793092966
1772726480818881000,0.296881103515625,0.03298669680953026,0.03909534588456154,-0.0030543238390237093
1772726480828398600,0.306398681640625,0.026878049597144127,0.043982263654470444,-0.004276053514331579
1772726480837916000,0.315916015625,0.020769402384757996,0.053756099194288254,-0.006108647678047419
1772726480847433700,0.325433837890625,0.015271619893610477,0.05803215503692627,-0.006108647678047419
1772726480856951000,0.334950927734375,0.009162971749901772,0.06047561392188072,-0.004276053514331579
1772726480866468600,0.344468505859375,0.0030543238390237093,0.06597339361906052,-0.000610864779446274
1772726480875986200,0.353986083984375,-0.0030543238390237093,0.06719512492418289,-0.004276053514331579
1772726480885503700,0.363503662109375,-0.010995565913617611,0.05864302068948746,-0.014049889519810677
1772726480895021300,0.373021240234375,-0.014660755172371864,0.050090912729501724,-0.026878049597144127
1772726480904539000,0.382538818359375,-0.01282816007733345,0.049480047076940536,-0.03237583488225937
1772726480914056400,0.392056396484375,-0.006719512399286032,0.04886918142437935,-0.02626718580722809
1772726480923574000,0.401573974609375,-0.000610864779446274,0.04214967042207718,-0.009773836471140385
1772726480933091600,0.411091552734375,0.000610864779446274,0.023212861269712448,0.011606430634856224
1772726480942609200,0.420609130859375,-0.001832594396546483,-0.002443459117785096,0.0256563201546669
1772726480952126700,0.430126708984375,-0.008552107028663158,-0.029932374134659767,0.02626718580722809
1772726480961644300,0.439644287109375,-0.014660755172371864,-0.04825831577181816,0.009773836471140385
1772726480971161900,0.449161865234375,-0.02260199747979641,-0.0616973415017128,-0.021380268037319183
1772726480980679400,0.458679443359375,-0.031154103577136993,-0.07391463965177536,-0.06475166976451874
1772726480990196700,0.46819677734375,-0.03481929376721382,-0.0720820426940918,-0.10873392969369888
1772726480999714600,0.477714599609375,-0.03481929376721382,-0.056199558079242706,-0.13927717506885529
1772726481009232000,0.48723193359375,-0.03237583488225937,-0.03176496922969818,-0.14477495849132538
1772726481018749400,0.49674951171875,-0.02626718580722809,-0.010384701192378998,-0.12461641430854797
1772726481028267000,0.50626708984375,-0.01649334840476513,-0.001832594396546483,-0.09040798991918564
1772726481037784600,0.51578466796875,-0.006719512399286032,-0.004886918235570192,-0.056810423731803894
1772726481047302100,0.52530224609375,0.002443459117785096,-0.01893680728971958,-0.04153880476951599
1772726481056819700,0.53481982421875,0.007330377586185932,-0.0256563201546669,-0.02871064469218254
1772726481066337300,0.544337158203125,0.007330377586185932,-0.026878049597144127,-0.027488915249705315
1772726481075854800,0.553854736328125,0.006108647678047419,-0.020158538594841957,-0.036651886999607086
1772726481085372400,0.563372314453125,0.003665188793092966,-0.010384701192378998,-0.04764745384454727
1772726481094890000,0.572889892578125,0.001221729558892548,0,-0.05497783049941063
1772726481104407600,0.582407470703125,-0.000610864779446274,0.007330377586185932,-0.05925388261675835
1772726481113924900,0.5919248046875,-0.000610864779446274,0.010384701192378998,-0.05803215503692627
1772726481123442700,0.601442626953125,-0.002443459117785096,0.010995565913617611,-0.05436696484684944
1772726481132960000,0.6109599609375,-0.004276053514331579,0.007941242307424545,-0.0513126403093338
1772726481142477600,0.6204775390625,-0.007941242307424545,-0.006108647678047419,-0.053756099194288254
1772726481151995100,0.6299951171875,-0.010995565913617611,-0.021991131827235222,-0.056810423731803894
1772726481161512700,0.6395126953125,-0.01649334840476513,-0.028099779039621353,-0.059864748269319534
1772726481171030300,0.6490302734375,-0.017715077847242355,-0.029932374134659767,-0.06291907280683517
1772726481180547800,0.6585478515625,-0.01893680728971958,-0.03176496922969818,-0.06536252796649933
1772726481190065400,0.6680654296875,-0.018325943499803543,-0.028099779039621353,-0.06536252796649933
1772726481199583000,0.6775830078125,-0.01588248461484909,-0.01649334840476513,-0.06597339361906052
1772726481209100500,0.6871005859375,-0.01282816007733345,-0.008552107028663158,-0.06414080411195755
1772726481218618000,0.6966181640625,-0.007941242307424545,-0.010384701192378998,-0.05925388261675835
1772726481228135700,0.7061357421875,-0.000610864779446274,-0.010384701192378998,-0.049480047076940536
1772726481237653000,0.715653076171875,0.004886918235570192,0.001221729558892548,-0.033597562462091446
1772726481247170800,0.7251708984375,0.010995565913617611,0.021991131827235222,-0.013439024798572063
1772726481256688000,0.734688232421875,0.01588248461484909,0.03481929376721382,0.007941242307424545
1772726481266205700,0.744205810546875,0.018325943499803543,0.02932151034474373,0.02260199747979641
1772726481275723300,0.75372314453125,0.01588248461484909,0.012217295356094837,0.01954767294228077
1772726481285240800,0.76324072265625,0.012217295356094837,-0.002443459117785096,0.004886918235570192
1772726481294758400,0.77275830078125,0.011606430634856224,-0.004886918235570192,-0.014660755172371864
1772726481304276000,0.78227587890625,0.015271619893610477,0.004276053514331579,-0.030543239787220955
1772726481313793500,0.79179345703125,0.018325943499803543,0.01893680728971958,-0.034208428114652634
1772726481323311000,0.80131103515625,0.01954767294228077,0.028099779039621353,-0.027488915249705315
1772726481332828700,0.81082861328125,0.018325943499803543,0.028099779039621353,-0.015271619893610477
1772726481342346200,0.82034619140625,0.017715077847242355,0.01649334840476513,-0.0054977829568088055
1772726481351863800,0.82986376953125,0.01588248461484909,-0.011606430634856224,-0.007941242307424545
1772726481361381400,0.83938134765625,0.014049889519810677,-0.037262752652168274,-0.018325943499803543
1772726481370899000,0.84889892578125,0.013439024798572063,-0.04520399495959282,-0.029932374134659767
1772726481380416500,0.85841650390625,0.014660755172371864,-0.036651886999607086,-0.0360410213470459
1772726481389933800,0.867933837890625,0.014049889519810677,-0.0256563201546669,-0.040317077189683914
1772726481399451600,0.87745166015625,0.013439024798572063,-0.01954767294228077,-0.043982263654470444
1772726481408969000,0.886968994140625,0.009773836471140385,-0.004886918235570192,-0.04276053607463837
1772726481418486500,0.896486572265625,0.006108647678047419,0.01588248461484909,-0.03543015569448471
1772726481428004000,0.906004150390625,0.006108647678047419,0.021991131827235222,-0.02871064469218254
1772726481437521700,0.915521728515625,0.007330377586185932,0.006719512399286032,-0.027488915249705315
1772726481447039200,0.925039306640625,0.010384701192378998,-0.009162971749901772,-0.02932151034474373
1772726481456556800,0.934556884765625,0.01282816007733345,-0.008552107028663158,-0.02871064469218254
1772726481466074400,0.944074462890625,0.015271619893610477,0.001832594396546483,-0.0256563201546669
1772726481475592000,0.953592041015625,0.014049889519810677,0.006719512399286032,-0.023212861269712448
1772726481485109500,0.963109619140625,0.013439024798572063,0.012217295356094837,-0.020158538594841957
1772726481494627000,0.972626953125,0.017104214057326317,0.027488915249705315,-0.013439024798572063
1772726481504144600,0.98214453125,0.02260199747979641,0.03543015569448471,-0.004886918235570192
1772726481513662000,0.991661865234375,0.02260199747979641,0.02871064469218254,-0.004886918235570192
1772726481523179800,1.0011796875,0.021380268037319183,0.017715077847242355,-0.014049889519810677
1772726481532697000,1.010697021484375,0.01588248461484909,0.010995565913617611,-0.02626718580722809
1772726481542214700,1.020214599609375,0.010995565913617611,0.004276053514331579,-0.03848448023200035
1772726481551732200,1.029732177734375,0.004886918235570192,-0.001832594396546483,-0.05070177838206291
1772726481561249800,1.039249755859375,-0.001221729558892548,-0.006719512399286032,-0.059864748269319534
1772726481570767400,1.048767333984375,-0.004276053514331579,-0.004886918235570192,-0.06352993845939636
1772726481580285000,1.058284912109375,-0.0054977829568088055,-0.009773836471140385,-0.06291907280683517
1772726481589802500,1.067802490234375,-0.0030543238390237093,-0.012217295356094837,-0.056810423731803894
1772726481599320000,1.077320068359375,0.001832594396546483,-0.003665188793092966,-0.043371398001909256
1772726481608837600,1.086837646484375,0.007941242307424545,0.004276053514331579,-0.018325943499803543
1772726481618355200,1.096355224609375,0.013439024798572063,0.006108647678047419,0.011606430634856224
1772726481627872800,1.105872802734375,0.01588248461484909,0.006719512399286032,0.0409279391169548
1772726481637390300,1.115390380859375,0.015271619893610477,0.010995565913617611,0.06475166976451874
1772726481646908000,1.124907958984375,0.014049889519810677,0.017715077847242355,0.08063415437936783
1772726481656425200,1.13442529296875,0.014049889519810677,0.01893680728971958,0.08124501258134842
1772726481665942800,1.14394287109375,0.014049889519810677,0.010384701192378998,0.06719512492418289
1772726481675460400,1.15346044921875,0.01282816007733345,0.006108647678047419,0.04214967042207718
1772726481684978000,1.16297802734375,0.010995565913617611,0.009162971749901772,0.014049889519810677
1772726481694495500,1.17249560546875,0.012217295356094837,0.01588248461484909,-0.009773836471140385
1772726481704013000,1.182012939453125,0.012217295356094837,0.02626718580722809,-0.020769402384757996
1772726481713530600,1.191530517578125,0.012217295356094837,0.034208428114652634,-0.021380268037319183
1772726481723048200,1.201048095703125,0.011606430634856224,0.02871064469218254,-0.017104214057326317
1772726481732565800,1.210565673828125,0.010384701192378998,0.0054977829568088055,-0.01588248461484909
1772726481742083300,1.220083251953125,0.010384701192378998,-0.014049889519810677,-0.021380268037319183
1772726481751601000,1.229600830078125,0.012217295356094837,-0.023823726922273636,-0.028099779039621353
1772726481761118500,1.239118408203125,0.01649334840476513,-0.02871064469218254,-0.030543239787220955
1772726481770636000,1.248635986328125,0.018325943499803543,-0.02260199747979641,-0.029932374134659767
1772726481780153600,1.258153564453125,0.01588248461484909,-0.0054977829568088055,-0.024434590712189674
1772726481789671000,1.2676708984375,0.011606430634856224,0.002443459117785096,-0.018325943499803543
1772726481799188700,1.277188720703125,0.006719512399286032,0.000610864779446274,-0.012217295356094837
1772726481808706000,1.2867060546875,0.002443459117785096,-0.007941242307424545,-0.007330377586185932
1772726481818223600,1.2962236328125,-0.002443459117785096,-0.01649334840476513,-0.0030543238390237093
1772726481827741200,1.3057412109375,-0.0054977829568088055,-0.017715077847242355,0
1772726481837258800,1.3152587890625,-0.004276053514331579,-0.004886918235570192,0.002443459117785096
1772726481846776300,1.3247763671875,-0.000610864779446274,0.009773836471140385,0.007941242307424545
1772726481856294000,1.3342939453125,0.0030543238390237093,0.014660755172371864,0.014660755172371864
1772726481865811500,1.3438115234375,0.0054977829568088055,0.010995565913617611,0.024434590712189674
1772726481875329000,1.3533291015625,0.010384701192378998,-0.0054977829568088055,0.02932151034474373
1772726481884846600,1.3628466796875,0.014049889519810677,-0.021991131827235222,0.027488915249705315
1772726481894364200,1.3723642578125,0.013439024798572063,-0.024434590712189674,0.021991131827235222
1772726481903881700,1.3818818359375,0.014049889519810677,-0.01588248461484909,0.01282816007733345
1772726481913399000,1.39139892578125,0.014049889519810677,-0.007941242307424545,-0.001221729558892548
1772726481922916900,1.400916748046875,0.012217295356094837,-0.004886918235570192,-0.011606430634856224
1772726481932434200,1.41043408203125,0.009162971749901772,-0.0030543238390237093,-0.018325943499803543
1772726481941951700,1.41995166015625,0.007941242307424545,0,-0.01954767294228077
1772726481951469300,1.42946923828125,0.006719512399286032,-0.004886918235570192,-0.02260199747979641
1772726481960987000,1.43898681640625,0.004276053514331579,-0.01282816007733345,-0.024434590712189674
1772726481970504400,1.44850439453125,0.004886918235570192,-0.006108647678047419,-0.026878049597144127
1772726481980022000,1.45802197265625,0.006719512399286032,0.002443459117785096,-0.0256563201546669
1772726481989539600,1.46753955078125,0.011606430634856224,-0.001221729558892548,-0.01954767294228077
1772726481999057200,1.47705712890625,0.014049889519810677,-0.0054977829568088055,-0.011606430634856224
1772726482008574700,1.48657470703125,0.014049889519810677,-0.0054977829568088055,-0.006719512399286032
1772726482018092300,1.49609228515625,0.009773836471140385,-0.008552107028663158,-0.010995565913617611
1772726482027609900,1.50560986328125,0.006719512399286032,-0.014049889519810677,-0.020158538594841957
1772726482037127400,1.51512744140625,0.006108647678047419,-0.008552107028663158,-0.02871064469218254
1772726482046645000,1.52464501953125,0.001221729558892548,-0.001832594396546483,-0.03481929376721382
1772726482056162300,1.534162353515625,-0.004886918235570192,0.0030543238390237093,-0.03481929376721382
1772726482065680000,1.543679931640625,-0.008552107028663158,-0.0054977829568088055,-0.02871064469218254
1772726482075197400,1.553197509765625,-0.004276053514331579,-0.007330377586185932,-0.020158538594841957
1772726482084715000,1.562715087890625,0.000610864779446274,0.006108647678047419,-0.007330377586185932
1772726482094232600,1.572232666015625,0.003665188793092966,0.01954767294228077,0.006108647678047419
1772726482103750100,1.581750244140625,0.004886918235570192,0.01893680728971958,0.014049889519810677
1772726482113267700,1.591267822265625,0.007330377586185932,0.017104214057326317,0.021991131827235222
1772726482122785300,1.600785400390625,0.007941242307424545,0.017715077847242355,0.030543239787220955
1772726482132302800,1.610302734375,0.004886918235570192,0.012217295356094837,0.03237583488225937
1772726482141821200,1.6198212890625,0.001832594396546483,0.006108647678047419,0.021380268037319183
1772726482151338500,1.62933837890625,0.006108647678047419,0.010384701192378998,0.004886918235570192
1772726482160856300,1.638856201171875,0.008552107028663158,0.01649334840476513,-0.012217295356094837
1772726482170373600,1.64837353515625,0.006719512399286032,0.009162971749901772,-0.02871064469218254
1772726482179891200,1.65789111328125,0.0030543238390237093,-0.003665188793092966,-0.043371398001909256
1772726482189408800,1.66740869140625,0.001832594396546483,-0.023212861269712448,-0.053756099194288254
1772726482198926300,1.67692626953125,0,-0.043982263654470444,-0.06108647957444191
1772726482208444000,1.68644384765625,-0.002443459117785096,-0.053756099194288254,-0.06291907280683517
1772726482217961500,1.69596142578125,-0.000610864779446274,-0.04886918142437935,-0.06047561392188072
1772726482227479000,1.70547900390625,0.001221729558892548,-0.03848448023200035,-0.05497783049941063
1772726482236996600,1.71499658203125,0.001832594396546483,-0.027488915249705315,-0.04825831577181816
1772726482246514200,1.72451416015625,0.001221729558892548,-0.01282816007733345,-0.03848448023200035
1772726482256031700,1.73403173828125,0.001221729558892548,0.002443459117785096,-0.028099779039621353
1772726482265549300,1.74354931640625,0.0030543238390237093,0.0054977829568088055,-0.017715077847242355
1772726482275066600,1.753066650390625,0.0030543238390237093,0.001832594396546483,-0.008552107028663158
1772726482284584400,1.76258447265625,0.001221729558892548,-0.000610864779446274,-0.003665188793092966
1772726482294101800,1.772101806640625,-0.000610864779446274,0.008552107028663158,-0.001221729558892548
1772726482303619300,1.781619384765625,-0.0030543238390237093,0.01954767294228077,-0.0054977829568088055
1772726482313137000,1.791136962890625,-0.003665188793092966,0.017104214057326317,-0.020158538594841957
1772726482322654500,1.800654541015625,-0.000610864779446274,0.007330377586185932,-0.03481929376721382
1772726482332172000,1.810172119140625,0.002443459117785096,0.000610864779446274,-0.04214967042207718
1772726482341689600,1.819689697265625,0.003665188793092966,-0.0054977829568088055,-0.040317077189683914
1772726482351207200,1.829207275390625,0.0030543238390237093,-0.01954767294228077,-0.033597562462091446
1772726482360724700,1.838724853515625,0.003665188793092966,-0.03787361457943916,-0.027488915249705315
1772726482370242300,1.8482421875,0.001832594396546483,-0.047036588191986084,-0.026878049597144127
1772726482379759900,1.857759765625,0.001832594396546483,-0.046425722539424896,-0.03298669680953026
1772726482389277400,1.86727734375,0.002443459117785096,-0.03848448023200035,-0.03787361457943916
1772726482398795000,1.876794921875,0.004276053514331579,-0.023212861269712448,-0.0409279391169548
1772726482408312600,1.8863125,0.006719512399286032,-0.002443459117785096,-0.03481929376721382
1772726482417830100,1.895830078125,0.007941242307424545,0.012217295356094837,-0.02260199747979641
1772726482427347500,1.905347412109375,0.006108647678047419,0.009162971749901772,-0.009773836471140385
1772726482436865000,1.914864990234375,0.002443459117785096,-0.002443459117785096,-0.002443459117785096
1772726482446382600,1.924382568359375,0,-0.004276053514331579,-0.001221729558892548
1772726482455900200,1.933900146484375,-0.001832594396546483,0.004276053514331579,-0.002443459117785096
1772726482465417700,1.943417724609375,-0.003665188793092966,0.01282816007733345,-0.006108647678047419
1772726482474935300,1.952935302734375,-0.003665188793092966,0.01954767294228077,-0.01282816007733345
1772726482484452900,1.962452880859375,-0.002443459117785096,0.021991131827235222,-0.01649334840476513
1772726482493970400,1.971970458984375,-0.000610864779446274,0.015271619893610477,-0.01649334840476513
1772726482503488000,1.981488037109375,0.0030543238390237093,0.001832594396546483,-0.010384701192378998
1772726482513005600,1.991005615234375,0.006719512399286032,-0.007330377586185932,0
1772726482522523100,2.000523193359375,0.008552107028663158,-0.009162971749901772,0.010995565913617611
1772726482532040700,2.010040771484375,0.008552107028663158,-0.002443459117785096,0.014660755172371864
1772726482541558300,2.019558349609375,0.004886918235570192,0.007330377586185932,0.007941242307424545
1772726482551075600,2.02907568359375,0.004276053514331579,0.014049889519810677,-0.0030543238390237093
1772726482560593400,2.038593505859375,0.004276053514331579,0.01649334840476513,-0.01282816007733345
1772726482570110700,2.04811083984375,0.006719512399286032,0.010384701192378998,-0.01893680728971958
1772726482579628300,2.057628173828125,0.006719512399286032,0.006719512399286032,-0.023212861269712448
1772726482589145900,2.067145751953125,0.0054977829568088055,0.010995565913617611,-0.029932374134659767
1772726482598663400,2.076663330078125,0.002443459117785096,0.009162971749901772,-0.03176496922969818
1772726482608181000,2.086180908203125,0.000610864779446274,0.004276053514331579,-0.026878049597144127
1772726482617698600,2.095698486328125,0.001832594396546483,0,-0.014049889519810677
1772726482627216100,2.105216064453125,0.002443459117785096,-0.007330377586185932,0.006108647678047419
1772726482636733700,2.114733642578125,0.000610864779446274,-0.01893680728971958,0.021991131827235222
1772726482646251300,2.124251220703125,-0.003665188793092966,-0.030543239787220955,0.026878049597144127
1772726482655768800,2.133768798828125,-0.001221729558892548,-0.024434590712189674,0.020158538594841957
1772726482665286400,2.143286376953125,0.000610864779446274,-0.011606430634856224,0.007941242307424545
1772726482674803700,2.1528037109375,0.001221729558892548,-0.007330377586185932,-0.010384701192378998
1772726482684321500,2.162321533203125,0.002443459117785096,-0.010384701192378998,-0.027488915249705315
1772726482693838800,2.1718388671875,0.000610864779446274,-0.004886918235570192,-0.0409279391169548
1772726482703356400,2.1813564453125,-0.001221729558892548,0.001832594396546483,-0.04276053607463837
1772726482712874000,2.1908740234375,-0.001832594396546483,-0.002443459117785096,-0.039706211537122726
1772726482722391600,2.2003916015625,-0.003665188793092966,-0.017715077847242355,-0.0360410213470459
1772726482731909000,2.2099091796875,-0.006719512399286032,-0.023823726922273636,-0.03298669680953026
1772726482741426700,2.2194267578125,-0.009162971749901772,-0.025045456364750862,-0.03298669680953026
1772726482750944300,2.2289443359375,-0.010384701192378998,-0.020158538594841957,-0.034208428114652634
1772726482760461800,2.2384619140625,-0.009162971749901772,-0.014660755172371864,-0.03237583488225937
1772726482769979400,2.2479794921875,-0.006108647678047419,-0.007330377586185932,-0.02871064469218254
1772726482779497000,2.2574970703125,-0.0030543238390237093,0.001832594396546483,-0.021991131827235222
1772726482789014500,2.2670146484375,-0.004276053514331579,0.004886918235570192,-0.017104214057326317
1772726482798532000,2.276531982421875,-0.003665188793092966,0.0054977829568088055,-0.01282816007733345
1772726482808049700,2.286049560546875,-0.004886918235570192,0.009162971749901772,-0.006719512399286032
1772726482817567000,2.29556689453125,-0.001832594396546483,0.015271619893610477,-0.000610864779446274
1772726482827084500,2.30508447265625,0.000610864779446274,0.02260199747979641,0.004886918235570192
1772726482836602000,2.31460205078125,0.001832594396546483,0.03176496922969818,0.006108647678047419
1772726482846119700,2.32411962890625,0.003665188793092966,0.02871064469218254,0.001221729558892548
1772726482855637200,2.33363720703125,0.003665188793092966,0.010995565913617611,-0.009773836471140385
1772726482865154800,2.34315478515625,0.002443459117785096,-0.0054977829568088055,-0.023212861269712448
1772726482874672400,2.35267236328125,-0.000610864779446274,-0.01588248461484909,-0.03848448023200035
1772726482884190000,2.36218994140625,-0.003665188793092966,-0.021991131827235222,-0.053756099194288254
1772726482893707500,2.37170751953125,-0.008552107028663158,-0.021991131827235222,-0.059864748269319534
1772726482903225000,2.38122509765625,-0.010995565913617611,-0.020158538594841957,-0.05558869615197182
1772726482912742700,2.39074267578125,-0.011606430634856224,-0.017104214057326317,-0.043982263654470444
1772726482922260200,2.40026025390625,-0.008552107028663158,-0.013439024798572063,-0.023823726922273636
1772726482931777800,2.40977783203125,-0.004886918235570192,-0.014660755172371864,0.001221729558892548
1772726482941295400,2.41929541015625,-0.001832594396546483,-0.017104214057326317,0.023212861269712448
1772726482950812700,2.428812744140625,0.001221729558892548,-0.017715077847242355,0.031154103577136993
1772726482960330500,2.43833056640625,0.0030543238390237093,-0.009162971749901772,0.028099779039621353
1772726482969847800,2.447847900390625,0.000610864779446274,0,0.017104214057326317
1772726482979365400,2.457365478515625,0.001832594396546483,0.001221729558892548,-0.001832594396546483
1772726482988883000,2.466883056640625,0.003665188793092966,-0.001221729558892548,-0.020769402384757996
1772726482998400500,2.476400390625,0.006108647678047419,-0.008552107028663158,-0.03481929376721382
1772726483007918000,2.48591796875,0.004276053514331579,-0.01954767294228077,-0.04520399495959282
1772726483017435600,2.495435546875,0.0030543238390237093,-0.0256563201546669,-0.05070177838206291
1772726483026953200,2.504953125,0.002443459117785096,-0.01282816007733345,-0.04764745384454727
1772726483036470800,2.514470703125,0.0030543238390237093,0.0054977829568088055,-0.03298669680953026
1772726483045988400,2.52398828125,0.004886918235570192,0.010384701192378998,-0.010384701192378998
1772726483055506000,2.533505859375,0.007330377586185932,0.006719512399286032,0.010995565913617611
1772726483065023500,2.5430234375,0.010384701192378998,-0.003665188793092966,0.02871064469218254
1772726483074540800,2.552540771484375,0.012217295356094837,-0.01588248461484909,0.03543015569448471
1772726483084058600,2.56205859375,0.010995565913617611,-0.02260199747979641,0.025045456364750862
1772726483093576000,2.571575927734375,0.008552107028663158,-0.01954767294228077,0.003665188793092966
1772726483103093500,2.581093505859375,0.007941242307424545,-0.013439024798572063,-0.017715077847242355
1772726483112611000,2.590611083984375,0.007330377586185932,-0.004276053514331579,-0.029932374134659767
1772726483122128600,2.600128662109375,0.007941242307424545,0.0030543238390237093,-0.031154103577136993
1772726483131646200,2.609646240234375,0.006719512399286032,0.0054977829568088055,-0.024434590712189674
1772726483141163800,2.619163818359375,0.006719512399286032,0.007330377586185932,-0.01282816007733345
1772726483150681300,2.628681396484375,0.007330377586185932,0.009162971749901772,-0.001221729558892548
1772726483160199000,2.638198974609375,0.004886918235570192,0.004276053514331579,0.002443459117785096
1772726483169716500,2.647716552734375,0.004886918235570192,-0.0030543238390237093,-0.001221729558892548
1772726483179234000,2.657234130859375,0.004276053514331579,-0.004276053514331579,-0.008552107028663158
1772726483188751600,2.666751708984375,0.004886918235570192,-0.004886918235570192,-0.01588248461484909
1772726483198269000,2.67626904296875,0.004886918235570192,-0.002443459117785096,-0.020158538594841957
1772726483207786800,2.685786865234375,0.007330377586185932,0.001221729558892548,-0.020158538594841957
1772726483217304000,2.695303955078125,0.010995565913617611,0.007941242307424545,-0.01588248461484909
1772726483226821600,2.704821533203125,0.013439024798572063,0.01649334840476513,-0.010995565913617611
1772726483236339200,2.714339111328125,0.013439024798572063,0.025045456364750862,-0.007330377586185932
1772726483245856800,2.723856689453125,0.012217295356094837,0.024434590712189674,-0.010384701192378998
1772726483255374300,2.733374267578125,0.008552107028663158,0.01282816007733345,-0.021380268037319183
1772726483264892000,2.742891845703125,0.004886918235570192,0.003665188793092966,-0.03848448023200035
1772726483274409500,2.752409423828125,0.002443459117785096,0.009162971749901772,-0.05864302068948746
1772726483283927000,2.761927001953125,0,0.007330377586185932,-0.07330377399921417
1772726483293444600,2.771444580078125,0.002443459117785096,-0.014660755172371864,-0.08307760953903198
1772726483302962200,2.780962158203125,0.0054977829568088055,-0.03543015569448471,-0.08429934084415436
1772726483312479700,2.790479736328125,0.006719512399286032,-0.04153880476951599,-0.07635809481143951
1772726483321997300,2.799997314453125,0.0054977829568088055,-0.031154103577136993,-0.06108647957444191
1772726483331515000,2.809514892578125,0.007330377586185932,-0.01954767294228077,-0.037262752652168274
1772726483341032400,2.819032470703125,0.009773836471140385,-0.006719512399286032,-0.011606430634856224
1772726483350549800,2.8285498046875,0.011606430634856224,0.0054977829568088055,0.014049889519810677
1772726483360067600,2.838067626953125,0.009773836471140385,0.014660755172371864,0.033597562462091446
1772726483369585000,2.8475849609375,0.008552107028663158,0.018325943499803543,0.04153880476951599
1772726483379102500,2.8571025390625,0.007941242307424545,0.01588248461484909,0.04153880476951599
1772726483388620000,2.8666201171875,0.007330377586185932,0.007330377586185932,0.031154103577136993
1772726483398137600,2.8761376953125,0.007330377586185932,-0.001832594396546483,0.018325943499803543
1772726483407655200,2.8856552734375,0.006719512399286032,-0.007330377586185932,0.002443459117785096
1772726483417172700,2.8951728515625,0.004276053514331579,-0.009773836471140385,-0.006719512399286032
1772726483426690300,2.904690185546875,0.001832594396546483,-0.009162971749901772,-0.009773836471140385
1772726483436207900,2.914207763671875,-0.000610864779446274,-0.004886918235570192,-0.006719512399286032
1772726483445725400,2.923725341796875,-0.000610864779446274,0.004276053514331579,0
1772726483455242800,2.93324267578125,0.000610864779446274,0.008552107028663158,0.0054977829568088055
1772726483464760600,2.942760498046875,0.001832594396546483,0.0030543238390237093,0.007941242307424545
1772726483474278000,2.95227783203125,0.002443459117785096,-0.003665188793092966,0.0054977829568088055
1772726483483795700,2.961795654296875,0.002443459117785096,-0.008552107028663158,0.001832594396546483
1772726483493313000,2.97131298828125,0.0030543238390237093,-0.010995565913617611,0
1772726483502830600,2.98083056640625,0.006108647678047419,-0.004276053514331579,0.000610864779446274
1772726483512348200,2.99034814453125,0.0054977829568088055,0.007941242307424545,-0.000610864779446274
1772726483521865700,2.99986572265625,0.006108647678047419,0.007941242307424545,-0.006719512399286032
1772726483531383300,3.00938330078125,0.009773836471140385,0.001221729558892548,-0.01954767294228077
1772726483540900900,3.01890087890625,0.011606430634856224,-0.008552107028663158,-0.03848448023200035
1772726483550418400,3.02841845703125,0.011606430634856224,-0.01954767294228077,-0.05864302068948746
1772726483559936000,3.03793603515625,0.011606430634856224,-0.033597562462091446,-0.0720820426940918
1772726483569453600,3.04745361328125,0.007941242307424545,-0.04153880476951599,-0.0769689604640007
1772726483578971000,3.056970947265625,0.006108647678047419,-0.04153880476951599,-0.07024945318698883
1772726483588488700,3.06648876953125,0.004276053514331579,-0.036651886999607086,-0.056810423731803894
1772726483598006000,3.076006103515625,0.003665188793092966,-0.033597562462091446,-0.0409279391169548
1772726483607523600,3.085523681640625,0.0030543238390237093,-0.02626718580722809,-0.023823726922273636
1772726483617041200,3.095041259765625,0.0030543238390237093,-0.013439024798572063,-0.006108647678047419
1772726483626558700,3.104558837890625,0.006108647678047419,-0.004276053514331579,0.006719512399286032
1772726483636076300,3.114076171875,0.009162971749901772,0.002443459117785096,0.013439024798572063
1772726483645593900,3.12359375,0.009773836471140385,0.006719512399286032,0.011606430634856224
1772726483655111400,3.133111328125,0.008552107028663158,0.007330377586185932,0.0054977829568088055
1772726483664629000,3.14262890625,0.010384701192378998,0.0054977829568088055,0
1772726483674146600,3.152146484375,0.012217295356094837,-0.001832594396546483,0.000610864779446274
1772726483683664100,3.1616640625,0.014049889519810677,-0.01282816007733345,0.001832594396546483
1772726483693181700,3.171181640625,0.014660755172371864,-0.01893680728971958,0.0054977829568088055
1772726483702699000,3.180698974609375,0.014660755172371864,-0.023212861269712448,0.007330377586185932
1772726483712216800,3.190216796875,0.012217295356094837,-0.0256563201546669,0.006719512399286032
1772726483721734400,3.199734375,0.013439024798572063,-0.020158538594841957,0.0054977829568088055
1772726483731251700,3.209251708984375,0.014660755172371864,-0.009162971749901772,0.006719512399286032
1772726483740769500,3.21876953125,0.01282816007733345,-0.007330377586185932,0.007941242307424545
1772726483750286800,3.228286865234375,0.010384701192378998,-0.008552107028663158,0.001832594396546483
1772726483759804400,3.237804443359375,0.009773836471140385,-0.0054977829568088055,-0.006719512399286032
1772726483769322000,3.247322021484375,0.009162971749901772,-0.010384701192378998,-0.018325943499803543
1772726483778839600,3.256839599609375,0.007330377586185932,-0.021380268037319183,-0.02626718580722809
1772726483788357000,3.266357177734375,0.008552107028663158,-0.023823726922273636,-0.029932374134659767
1772726483797874700,3.275874755859375,0.008552107028663158,-0.017715077847242355,-0.030543239787220955
1772726483807392300,3.285392333984375,0.008552107028663158,-0.010384701192378998,-0.02932151034474373
1772726483816909800,3.294909912109375,0.009773836471140385,-0.002443459117785096,-0.028099779039621353
1772726483826427400,3.304427490234375,0.007941242307424545,0.002443459117785096,-0.0256563201546669
1772726483835945000,3.313945068359375,0.007330377586185932,0,-0.02260199747979641
1772726483845462500,3.323462646484375,0.006108647678047419,-0.009773836471140385,-0.021991131827235222
1772726483854979800,3.332979736328125,0.007330377586185932,-0.01893680728971958,-0.0256563201546669
1772726483864497700,3.34249755859375,0.007330377586185932,-0.021991131827235222,-0.03176496922969818
1772726483874015000,3.352014892578125,0.007330377586185932,-0.013439024798572063,-0.034208428114652634
1772726483883532500,3.361532470703125,0.004276053514331579,-0.006108647678047419,-0.03176496922969818
1772726483893050000,3.371050048828125,0.004886918235570192,0,-0.02260199747979641
1772726483902567700,3.380567626953125,0.0054977829568088055,0.006108647678047419,-0.009162971749901772
1772726483912085200,3.390085205078125,0.007330377586185932,0.002443459117785096,0.002443459117785096
1772726483921602800,3.399602783203125,0.007330377586185932,-0.006108647678047419,0.007330377586185932
1772726483931120400,3.409120361328125,0.009162971749901772,-0.013439024798572063,0.003665188793092966
1772726483940638000,3.418637939453125,0.008552107028663158,-0.0256563201546669,-0.009773836471140385
1772726483950155500,3.428155517578125,0.009773836471140385,-0.02932151034474373,-0.02626718580722809
1772726483959673000,3.437673095703125,0.009162971749901772,-0.021991131827235222,-0.03848448023200035
1772726483969190700,3.447190673828125,0.009162971749901772,-0.007330377586185932,-0.04214967042207718
1772726483978708000,3.4567080078125,0.009773836471140385,0.006108647678047419,-0.03481929376721382
1772726483988225800,3.466225830078125,0.010995565913617611,0.010995565913617611,-0.017715077847242355
1772726483997743000,3.4757431640625,0.010384701192378998,0.004276053514331579,0.001832594396546483
1772726484007260700,3.4852607421875,0.009773836471140385,-0.006719512399286032,0.01893680728971958
1772726484016778200,3.4947783203125,0.007330377586185932,-0.01588248461484909,0.023823726922273636
1772726484026295800,3.5042958984375,0.006108647678047419,-0.018325943499803543,0.014660755172371864
1772726484035813400,3.5138134765625,0.004886918235570192,-0.012217295356094837,-0.002443459117785096
1772726484045331000,3.5233310546875,0.007941242307424545,-0.0030543238390237093,-0.021380268037319183
1772726484054848500,3.5328486328125,0.008552107028663158,0.001221729558892548,-0.03481929376721382
1772726484064366000,3.542365966796875,0.009773836471140385,0.006719512399286032,-0.03909534588456154
1772726484073883600,3.551883544921875,0.010995565913617611,0.009773836471140385,-0.03481929376721382
1772726484083401200,3.561401123046875,0.011606430634856224,-0.003665188793092966,-0.028099779039621353
1772726484092918800,3.570918701171875,0.012217295356094837,-0.021991131827235222,-0.023823726922273636
1772726484102436400,3.580436279296875,0.010995565913617611,-0.03237583488225937,-0.023823726922273636
1772726484111954000,3.589953857421875,0.006719512399286032,-0.03543015569448471,-0.02626718580722809
1772726484121471200,3.59947119140625,0.0030543238390237093,-0.02871064469218254,-0.033597562462091446
1772726484130988800,3.60898876953125,0.002443459117785096,-0.011606430634856224,-0.037262752652168274
1772726484140506400,3.61850634765625,0.006719512399286032,0.008552107028663158,-0.030543239787220955
1772726484150024000,3.62802392578125,0.010995565913617611,0.01893680728971958,-0.017104214057326317
1772726484159541500,3.63754150390625,0.014049889519810677,0.01649334840476513,-0.001832594396546483
1772726484169059000,3.64705908203125,0.013439024798572063,0.006719512399286032,0.013439024798572063
1772726484178576600,3.65657666015625,0.009773836471140385,-0.001832594396546483,0.023212861269712448
1772726484188094200,3.66609423828125,0.004886918235570192,-0.003665188793092966,0.027488915249705315
1772726484197611800,3.67561181640625,0.003665188793092966,0.004886918235570192,0.0256563201546669
1772726484207129300,3.68512939453125,0.0054977829568088055,0.01893680728971958,0.01588248461484909
1772726484216647000,3.69464697265625,0.006108647678047419,0.02932151034474373,0.001221729558892548
1772726484226164500,3.70416455078125,0.006719512399286032,0.023212861269712448,-0.01954767294228077
1772726484235682000,3.71368212890625,0.007330377586185932,0.004276053514331579,-0.040317077189683914
1772726484245199600,3.72319970703125,0.008552107028663158,-0.01954767294228077,-0.056810423731803894
1772726484254717000,3.732717041015625,0.008552107028663158,-0.039706211537122726,-0.06597339361906052
1772726484264234800,3.74223486328125,0.008552107028663158,-0.04886918142437935,-0.06536252796649933
1772726484273752000,3.751751953125,0.007941242307424545,-0.04581485688686371,-0.05558869615197182
1772726484283269600,3.76126953125,0.003665188793092966,-0.03176496922969818,-0.039706211537122726
1772726484292787200,3.770787109375,0,-0.014660755172371864,-0.02260199747979641
1772726484302304800,3.7803046875,0,-0.004886918235570192,-0.007330377586185932
1772726484311822300,3.789822265625,0.0030543238390237093,0.006719512399286032,0.006719512399286032
1772726484321340000,3.79933984375,0.004886918235570192,0.015271619893610477,0.017104214057326317
1772726484330857500,3.808857421875,0.006108647678047419,0.012217295356094837,0.020769402384757996
1772726484340375000,3.818375,0.006719512399286032,0.010995565913617611,0.01954767294228077
1772726484349892600,3.827892578125,0.007330377586185932,0.015271619893610477,0.014660755172371864
1772726484359410200,3.83741015625,0.0054977829568088055,0.02260199747979641,0.010995565913617611
1772726484368927700,3.846927734375,0.004886918235570192,0.025045456364750862,0.002443459117785096
1772726484378445000,3.856445068359375,0.0054977829568088055,0.020158538594841957,-0.004276053514331579
1772726484387963000,3.865962890625,0.006108647678047419,0.009773836471140385,-0.010384701192378998
1772726484397480200,3.875480224609375,0.006108647678047419,-0.008552107028663158,-0.020158538594841957
1772726484406997800,3.884997802734375,0.006108647678047419,-0.023212861269712448,-0.031154103577136993
1772726484416515300,3.894515380859375,0.006108647678047419,-0.02626718580722809,-0.0409279391169548
1772726484426033000,3.904032958984375,0.006719512399286032,-0.026878049597144127,-0.049480047076940536
1772726484435550500,3.913550537109375,0.008552107028663158,-0.02871064469218254,-0.053145237267017365
1772726484445068000,3.923068115234375,0.008552107028663158,-0.021991131827235222,-0.04581485688686371
1772726484454585600,3.932585693359375,0.006719512399286032,-0.01649334840476513,-0.03298669680953026
1772726484464103200,3.942103271484375,0.004886918235570192,-0.017715077847242355,-0.017104214057326317
1772726484473620700,3.951620849609375,0.004886918235570192,-0.01893680728971958,-0.004276053514331579
1772726484483138300,3.96113818359375,0.004276053514331579,-0.01893680728971958,0.007330377586185932
1772726484492655900,3.97065576171875,0.004886918235570192,-0.020158538594841957,0.012217295356094837
1772726484502173200,3.980173095703125,0.0054977829568088055,-0.01954767294228077,0.01282816007733345
1772726484511691000,3.98969091796875,0.006108647678047419,-0.014049889519810677,0.007941242307424545
1772726484521208300,3.999208251953125,0.004886918235570192,-0.008552107028663158,-0.001221729558892548
1772726484530726000,4.008725830078125,0.001832594396546483,-0.008552107028663158,-0.009773836471140385
1772726484540243500,4.018243408203125,0.001832594396546483,-0.007330377586185932,-0.015271619893610477
1772726484549761000,4.027760986328125,0.001832594396546483,-0.004886918235570192,-0.017104214057326317
1772726484559278600,4.037278564453125,0.002443459117785096,-0.004886918235570192,-0.013439024798572063
1772726484568796200,4.046796142578125,0.006719512399286032,-0.009162971749901772,-0.009162971749901772
1772726484578313700,4.056313720703125,0.009162971749901772,-0.01588248461484909,-0.004276053514331579
1772726484587831300,4.065831298828125,0.008552107028663158,-0.018325943499803543,-0.0030543238390237093
1772726484597348900,4.075348876953125,0.010384701192378998,-0.012217295356094837,-0.004886918235570192
1772726484606866400,4.084866455078125,0.012217295356094837,-0.012217295356094837,-0.01282816007733345
1772726484616384000,4.094384033203125,0.010995565913617611,-0.012217295356094837,-0.020158538594841957
1772726484625901600,4.103901611328125,0.011606430634856224,-0.000610864779446274,-0.020769402384757996
1772726484635419100,4.113419189453125,0.01282816007733345,0.011606430634856224,-0.010384701192378998
1772726484644936700,4.122936767578125,0.015271619893610477,0.015271619893610477,0.0054977829568088055
1772726484654454000,4.1324541015625,0.01588248461484909,0.015271619893610477,0.021380268037319183
1772726484663971600,4.1419716796875,0.014660755172371864,0.017715077847242355,0.03481929376721382
1772726484673489200,4.1514892578125,0.014660755172371864,0.013439024798572063,0.040317077189683914
1772726484683006700,4.1610068359375,0.013439024798572063,0.0030543238390237093,0.03298669680953026
1772726484692524300,4.170524169921875,0.010995565913617611,-0.007941242307424545,0.012217295356094837
1772726484702041900,4.180041748046875,0.009162971749901772,-0.013439024798572063,-0.012217295356094837
1772726484711559400,4.189559326171875,0.007330377586185932,-0.020769402384757996,-0.03848448023200035
1772726484721077000,4.199076904296875,0.008552107028663158,-0.033597562462091446,-0.06047561392188072
1772726484730594600,4.208594482421875,0.009773836471140385,-0.0360410213470459,-0.0720820426940918
1772726484740112100,4.218112060546875,0.014660755172371864,-0.02626718580722809,-0.07086031138896942
1772726484749629700,4.227629638671875,0.018325943499803543,-0.013439024798572063,-0.053756099194288254
1772726484759147300,4.237147216796875,0.020769402384757996,-0.004886918235570192,-0.026878049597144127
1772726484768664800,4.246664794921875,0.023212861269712448,-0.0030543238390237093,0
1772726484778182100,4.25618212890625,0.023823726922273636,-0.001221729558892548,0.023823726922273636
1772726484787700000,4.265699951171875,0.01954767294228077,0.006719512399286032,0.03909534588456154
1772726484797217300,4.27521728515625,0.017715077847242355,0.017715077847242355,0.043982263654470444
1772726484806734800,4.28473486328125,0.01588248461484909,0.020158538594841957,0.04214967042207718
1772726484816252400,4.29425244140625,0.01282816007733345,0.014049889519810677,0.034208428114652634
1772726484825770000,4.30377001953125,0.006719512399286032,0,0.023823726922273636
1772726484835287600,4.31328759765625,0.001832594396546483,-0.020158538594841957,0.008552107028663158
1772726484844805000,4.32280517578125,-0.000610864779446274,-0.030543239787220955,-0.010384701192378998
1772726484854322700,4.33232275390625,-0.001832594396546483,-0.023823726922273636,-0.026878049597144127
1772726484863840300,4.34184033203125,-0.001832594396546483,-0.014049889519810677,-0.03787361457943916
1772726484873357800,4.35135791015625,-0.001221729558892548,-0.002443459117785096,-0.040317077189683914
1772726484882875400,4.36087548828125,0.003665188793092966,0.0054977829568088055,-0.03543015569448471
1772726484892393000,4.37039306640625,0.006108647678047419,0.006108647678047419,-0.024434590712189674
1772726484901910300,4.37991015625,0.006719512399286032,0.004276053514331579,-0.009773836471140385
1772726484911428000,4.389427978515625,0.0030543238390237093,0,0.004276053514331579
1772726484920945400,4.3989453125,0.001832594396546483,-0.0054977829568088055,0.01588248461484909
1772726484930463000,4.408462890625,0.001221729558892548,-0.000610864779446274,0.023823726922273636
1772726484939980500,4.41798046875,0.003665188793092966,0.018325943499803543,0.02626718580722809
1772726484949498000,4.427498046875,0.006719512399286032,0.031154103577136993,0.015271619893610477
1772726484959015700,4.437015625,0.007941242307424545,0.02932151034474373,-0.006719512399286032
1772726484968533200,4.446533203125,0.006719512399286032,0.008552107028663158,-0.029932374134659767
1772726484978050800,4.45605078125,0.0030543238390237093,-0.020769402384757996,-0.043982263654470444
1772726484987568400,4.465568359375,0.000610864779446274,-0.0409279391169548,-0.05070177838206291
1772726484997086000,4.4750859375,-0.000610864779446274,-0.0409279391169548,-0.050090912729501724
1772726485006603500,4.484603515625,-0.0030543238390237093,-0.03298669680953026,-0.04520399495959282
1772726485016121000,4.49412109375,-0.003665188793092966,-0.023823726922273636,-0.0360410213470459
1772726485025638700,4.503638671875,-0.0030543238390237093,-0.018325943499803543,-0.024434590712189674
1772726485035156200,4.51315625,0,-0.014049889519810677,-0.010384701192378998
1772726485044673500,4.522673583984375,0.004886918235570192,-0.007330377586185932,0.0054977829568088055
1772726485054191000,4.532191162109375,0.006719512399286032,0.000610864779446274,0.020769402384757996
1772726485063708700,4.541708740234375,0.006719512399286032,0.002443459117785096,0.028099779039621353
1772726485073226200,4.551226318359375,0.002443459117785096,0.006719512399286032,0.0256563201546669
1772726485082743800,4.560743896484375,-0.001221729558892548,0.008552107028663158,0.015271619893610477
1772726485092261400,4.570261474609375,-0.004276053514331579,0.006719512399286032,-0.002443459117785096
1772726485101779000,4.579779052734375,-0.003665188793092966,0.003665188793092966,-0.020158538594841957
1772726485111296500,4.589296630859375,-0.001832594396546483,0,-0.03176496922969818
1772726485120814000,4.59881396484375,0.002443459117785096,-0.002443459117785096,-0.03237583488225937
1772726485130331600,4.60833154296875,0.006719512399286032,-0.002443459117785096,-0.024434590712189674
1772726485139849200,4.61784912109375,0.009162971749901772,0.000610864779446274,-0.012217295356094837
1772726485149366800,4.62736669921875,0.010384701192378998,0.004276053514331579,-0.000610864779446274
1772726485158884400,4.63688427734375,0.009162971749901772,-0.000610864779446274,0.009162971749901772
1772726485168402000,4.64640185546875,0.008552107028663158,-0.006719512399286032,0.012217295356094837
1772726485177919200,4.655919189453125,0.008552107028663158,-0.01282816007733345,0.007330377586185932
1772726485187437000,4.66543701171875,0.006719512399286032,-0.021380268037319183,-0.006108647678047419
1772726485196954400,4.674954345703125,0.003665188793092966,-0.02932151034474373,-0.025045456364750862
1772726485206472000,4.684471923828125,0.006108647678047419,-0.026878049597144127,-0.03909534588456154
1772726485215989500,4.693989501953125,0.007941242307424545,-0.018325943499803543,-0.04520399495959282
1772726485225507000,4.703507080078125,0.010995565913617611,-0.020769402384757996,-0.04214967042207718
1772726485235024600,4.713024658203125,0.017715077847242355,-0.02626718580722809,-0.031154103577136993
1772726485244542200,4.722542236328125,0.021991131827235222,-0.017715077847242355,-0.013439024798572063
1772726485254059800,4.732059814453125,0.01954767294228077,-0.006719512399286032,0.004886918235570192
1772726485263577300,4.741577392578125,0.013439024798572063,0.000610864779446274,0.017104214057326317
1772726485273095000,4.751094970703125,0.012217295356094837,0.006108647678047419,0.023212861269712448
1772726485282612500,4.760612548828125,0.012217295356094837,0.009773836471140385,0.028099779039621353
1772726485292130000,4.770130126953125,0.009162971749901772,0.002443459117785096,0.02932151034474373
1772726485301647400,4.7796474609375,0.007330377586185932,-0.004886918235570192,0.02871064469218254
1772726485311165200,4.789165283203125,0.008552107028663158,-0.007330377586185932,0.025045456364750862
1772726485320682500,4.7986826171875,0.009773836471140385,-0.007941242307424545,0.02260199747979641
1772726485330200000,4.808199951171875,0.010384701192378998,-0.002443459117785096,0.01954767294228077
1772726485339717600,4.817717529296875,0.010384701192378998,0.007941242307424545,0.020769402384757996
1772726485349235200,4.827235107421875,0.012217295356094837,0.008552107028663158,0.02260199747979641
1772726485358752800,4.836752685546875,0.01282816007733345,0.0030543238390237093,0.01954767294228077
1772726485368270300,4.846270263671875,0.011606430634856224,0.0030543238390237093,0.014049889519810677
1772726485377788000,4.855787841796875,0.010995565913617611,0.003665188793092966,0.003665188793092966
1772726485387305500,4.865305419921875,0.010384701192378998,0.001832594396546483,-0.010995565913617611
1772726485396823000,4.874822998046875,0.009162971749901772,0.001832594396546483,-0.029932374134659767
1772726485406340600,4.884340576171875,0.007941242307424545,0.002443459117785096,-0.04459312930703163
1772726485415858200,4.893858154296875,0.008552107028663158,-0.004276053514331579,-0.05192350596189499
1772726485425375500,4.90337548828125,0.009773836471140385,-0.012217295356094837,-0.05253437161445618
1772726485434893300,4.912893310546875,0.009773836471140385,-0.013439024798572063,-0.04520399495959282
1772726485444410600,4.92241064453125,0.008552107028663158,-0.014660755172371864,-0.03481929376721382
1772726485453928200,4.93192822265625,0.007330377586185932,-0.013439024798572063,-0.024434590712189674
1772726485463445800,4.94144580078125,0.006719512399286032,-0.007330377586185932,-0.01649334840476513
1772726485472963300,4.95096337890625,0.0054977829568088055,-0.004276053514331579,-0.011606430634856224
1772726485482481000,4.96048095703125,0.006719512399286032,-0.003665188793092966,-0.011606430634856224
1772726485491998500,4.96999853515625,0.007941242307424545,0.001832594396546483,-0.012217295356094837
1772726485501516000,4.97951611328125,0.008552107028663158,0.007330377586185932,-0.01282816007733345
1772726485511033600,4.98903369140625,0.008552107028663158,0.014660755172371864,-0.0054977829568088055
1772726485520551200,4.99855126953125,0.008552107028663158,0.017104214057326317,0.006108647678047419
1772726485530068700,5.00806884765625,0.006719512399286032,0.013439024798572063,0.014660755172371864
1772726485539586300,5.01758642578125,0.004276053514331579,0.004276053514331579,0.01954767294228077
1772726485549103900,5.027103759765625,0.0030543238390237093,-0.004276053514331579,0.01893680728971958
1772726485558621400,5.036621337890625,0.0054977829568088055,0,0.015271619893610477
1772726485568139000,5.046138916015625,0.010384701192378998,0.010384701192378998,0.010384701192378998
1772726485577656300,5.05565625,0.012217295356094837,0.010995565913617611,0.006108647678047419
1772726485587174000,5.065173828125,0.012217295356094837,0.0054977829568088055,0.001221729558892548
1772726485596691500,5.07469140625,0.011606430634856224,-0.002443459117785096,-0.004276053514331579
1772726485606209000,5.084208984375,0.009773836471140385,-0.015271619893610477,-0.015271619893610477
1772726485615726600,5.0937265625,0.006719512399286032,-0.023212861269712448,-0.031154103577136993
1772726485625244200,5.103244140625,0.004276053514331579,-0.021380268037319183,-0.047036588191986084
1772726485634761700,5.11276171875,0.001832594396546483,-0.015271619893610477,-0.05742128938436508
1772726485644279300,5.122279296875,0.002443459117785096,-0.008552107028663158,-0.06047561392188072
1772726485653796900,5.131796875,0.0054977829568088055,0.001832594396546483,-0.05436696484684944
1772726485663314400,5.141314453125,0.008552107028663158,0.012217295356094837,-0.040317077189683914
1772726485672832000,5.15083203125,0.007941242307424545,0.010995565913617611,-0.025045456364750862
1772726485682349300,5.160349365234375,0.006719512399286032,0.006108647678047419,-0.010384701192378998
1772726485691867100,5.1698671875,0.006719512399286032,0.004276053514331579,0.007941242307424545
1772726485701384400,5.179384521484375,0.007941242307424545,0.010995565913617611,0.02260199747979641
1772726485710902300,5.18890234375,0.010384701192378998,0.020158538594841957,0.028099779039621353
1772726485720419600,5.198419677734375,0.012217295356094837,0.023823726922273636,0.023823726922273636
1772726485729937200,5.207937255859375,0.012217295356094837,0.017104214057326317,0.01282816007733345
1772726485739454700,5.217454833984375,0.009773836471140385,-0.002443459117785096,-0.001832594396546483
1772726485748972300,5.22697216796875,0.010995565913617611,-0.023823726922273636,-0.017715077847242355
1772726485758489900,5.23648974609375,0.007941242307424545,-0.040317077189683914,-0.03176496922969818
1772726485768007400,5.24600732421875,0.006108647678047419,-0.04520399495959282,-0.04214967042207718
1772726485777524700,5.255524658203125,0.002443459117785096,-0.03298669680953026,-0.047036588191986084
1772726485787042600,5.26504248046875,0.001221729558892548,-0.018325943499803543,-0.04764745384454727
1772726485796560100,5.27456005859375,0.001221729558892548,-0.009773836471140385,-0.04764745384454727
1772726485806077400,5.284077392578125,0.004886918235570192,-0.003665188793092966,-0.04153880476951599
1772726485815595300,5.29359521484375,0.009162971749901772,0.003665188793092966,-0.029932374134659767
1772726485825112600,5.303112548828125,0.01282816007733345,0.0054977829568088055,-0.017104214057326317
1772726485834630400,5.31263037109375,0.014049889519810677,0.003665188793092966,-0.002443459117785096
1772726485844147700,5.322147705078125,0.01282816007733345,0.001221729558892548,0.011606430634856224
1772726485853665300,5.331665283203125,0.010995565913617611,0,0.020769402384757996
1772726485863182800,5.341182861328125,0.008552107028663158,-0.001832594396546483,0.02260199747979641
1772726485872700400,5.350700439453125,0.007330377586185932,-0.002443459117785096,0.01649334840476513
1772726485882218000,5.360218017578125,0.007941242307424545,-0.0054977829568088055,0.004276053514331579
1772726485891735600,5.369735595703125,0.006719512399286032,-0.006108647678047419,-0.007330377586185932
1772726485901253000,5.379253173828125,0.007941242307424545,-0.003665188793092966,-0.017715077847242355
1772726485910770700,5.388770751953125,0.009773836471140385,-0.000610864779446274,-0.02260199747979641
1772726485920288300,5.398288330078125,0.009162971749901772,0.004886918235570192,-0.023212861269712448
1772726485929805600,5.4078056640625,0.008552107028663158,0.010384701192378998,-0.020769402384757996
1772726485939323400,5.417323486328125,0.008552107028663158,0.008552107028663158,-0.014660755172371864
1772726485948840700,5.4268408203125,0.008552107028663158,0,-0.009773836471140385
1772726485958358300,5.436358154296875,0.007330377586185932,-0.011606430634856224,-0.008552107028663158
1772726485967875800,5.445875732421875,0.006108647678047419,-0.01649334840476513,-0.008552107028663158
1772726485977393400,5.455393310546875,0.0054977829568088055,-0.01588248461484909,-0.009162971749901772
1772726485986911000,5.464910888671875,0.006719512399286032,-0.008552107028663158,-0.011606430634856224
1772726485996428500,5.474428466796875,0.007330377586185932,0.001832594396546483,-0.014660755172371864
1772726486005946000,5.483946044921875,0.0054977829568088055,0.008552107028663158,-0.02260199747979641
1772726486015463700,5.493463623046875,0.004276053514331579,0.007330377586185932,-0.027488915249705315
1772726486024981200,5.502981201171875,0.004886918235570192,0.007941242307424545,-0.028099779039621353
1772726486034498800,5.512498779296875,0.004886918235570192,0.006108647678047419,-0.025045456364750862
1772726486044016400,5.522016357421875,0.006719512399286032,0,-0.01954767294228077
1772726486053534000,5.531533935546875,0.007941242307424545,0.001832594396546483,-0.011606430634856224
1772726486063051500,5.541051513671875,0.011606430634856224,0.007330377586185932,-0.003665188793092966
1772726486072569000,5.550569091796875,0.01282816007733345,0.004886918235570192,0.007941242307424545
1772726486082086400,5.56008642578125,0.013439024798572063,0.001832594396546483,0.01893680728971958
1772726486091604000,5.56960400390625,0.013439024798572063,0.000610864779446274,0.026878049597144127
1772726486101121500,5.57912158203125,0.012217295356094837,0.000610864779446274,0.03176496922969818
1772726486110639000,5.58863916015625,0.009162971749901772,0.001832594396546483,0.026878049597144127
1772726486120156700,5.59815673828125,0.0054977829568088055,0.001832594396546483,0.01588248461484909
1772726486129674200,5.60767431640625,0.0030543238390237093,0.000610864779446274,0.001832594396546483
1772726486139191800,5.61719189453125,0.004276053514331579,-0.007330377586185932,-0.009773836471140385
1772726486148709400,5.62670947265625,0.009162971749901772,-0.012217295356094837,-0.017104214057326317
1772726486158227000,5.63622705078125,0.013439024798572063,-0.007330377586185932,-0.01893680728971958
1772726486167744500,5.64574462890625,0.014660755172371864,-0.004886918235570192,-0.017715077847242355
1772726486177262000,5.655261962890625,0.014049889519810677,-0.001832594396546483,-0.01649334840476513
1772726486186779600,5.664779541015625,0.011606430634856224,-0.001221729558892548,-0.01588248461484909
1772726486196297200,5.674297119140625,0.007330377586185932,-0.001221729558892548,-0.015271619893610477
1772726486205814500,5.683814453125,0.004276053514331579,-0.004886918235570192,-0.017104214057326317
1772726486215332400,5.693332275390625,0.002443459117785096,-0.004886918235570192,-0.017715077847242355
1772726486224849700,5.702849609375,0.003665188793092966,-0.004886918235570192,-0.01649334840476513
1772726486234367200,5.7123671875,0.006719512399286032,-0.0054977829568088055,-0.007330377586185932
1772726486243884800,5.721884765625,0.009162971749901772,-0.0030543238390237093,0.0030543238390237093
1772726486253402400,5.73140234375,0.011606430634856224,-0.000610864779446274,0.015271619893610477
1772726486262920000,5.740919921875,0.013439024798572063,0,0.01954767294228077
1772726486272437500,5.7504375,0.012217295356094837,-0.001832594396546483,0.01588248461484909
1772726486281955000,5.759955078125,0.010995565913617611,-0.001832594396546483,0.007330377586185932
1772726486291472600,5.76947265625,0.009162971749901772,-0.001832594396546483,-0.0030543238390237093
1772726486300990200,5.778990234375,0.010384701192378998,0.002443459117785096,-0.010995565913617611
1772726486310507800,5.7885078125,0.010995565913617611,0.0030543238390237093,-0.01282816007733345
1772726486320025300,5.798025390625,0.012217295356094837,-0.0054977829568088055,-0.012217295356094837
1772726486329542700,5.807542724609375,0.012217295356094837,-0.009162971749901772,-0.009773836471140385
1772726486339060500,5.817060546875,0.014660755172371864,-0.004886918235570192,-0.007941242307424545
1772726486348577800,5.826577880859375,0.013439024798572063,-0.001221729558892548,-0.007330377586185932
1772726486358095400,5.836095458984375,0.013439024798572063,0.001221729558892548,-0.007941242307424545
1772726486367613000,5.845613037109375,0.012217295356094837,-0.000610864779446274,-0.012217295356094837
1772726486377130500,5.855130615234375,0.007941242307424545,-0.004886918235570192,-0.013439024798572063
1772726486386648000,5.86464794921875,0.006108647678047419,-0.0054977829568088055,-0.010995565913617611
1772726486396165600,5.87416552734375,0.006108647678047419,-0.0030543238390237093,-0.0054977829568088055
1772726486405683200,5.88368310546875,0.009162971749901772,0.006108647678047419,0.0030543238390237093
1772726486415200800,5.89320068359375,0.010384701192378998,0.011606430634856224,0.007941242307424545
1772726486424718300,5.90271826171875,0.007941242307424545,0.014049889519810677,0.010384701192378998
1772726486434236000,5.91223583984375,0.007330377586185932,0.01282816007733345,0.012217295356094837
1772726486443753500,5.92175341796875,0.006719512399286032,0.007941242307424545,0.01282816007733345
1772726486453270800,5.931270751953125,0.0054977829568088055,0.003665188793092966,0.012217295356094837
1772726486462788600,5.94078857421875,0.0054977829568088055,0.009162971749901772,0.008552107028663158
1772726486472306000,5.950305908203125,0.010384701192378998,0.014660755172371864,0.001832594396546483
1772726486481823500,5.959823486328125,0.01588248461484909,0.010384701192378998,-0.009162971749901772
1772726486491341000,5.969341064453125,0.01893680728971958,-0.003665188793092966,-0.02260199747979641
1772726486500858600,5.978858642578125,0.017104214057326317,-0.015271619893610477,-0.03481929376721382
1772726486510376200,5.988376220703125,0.013439024798572063,-0.02626718580722809,-0.04459312930703163
1772726486519893800,5.997893798828125,0.007941242307424545,-0.03909534588456154,-0.050090912729501724
1772726486529411300,6.007411376953125,0.0054977829568088055,-0.03909534588456154,-0.049480047076940536
1772726486538929000,6.016928955078125,0.004886918235570192,-0.02932151034474373,-0.04214967042207718
1772726486548446500,6.026446533203125,0.004276053514331579,-0.021991131827235222,-0.02626718580722809
1772726486557964000,6.035964111328125,0.0054977829568088055,-0.010995565913617611,-0.004276053514331579
1772726486567481600,6.045481689453125,0.007941242307424545,-0.0054977829568088055,0.014660755172371864
1772726486576999200,6.054999267578125,0.010384701192378998,-0.007330377586185932,0.0256563201546669
1772726486586516700,6.064516845703125,0.012217295356094837,-0.007941242307424545,0.026878049597144127
1772726486596034000,6.074033935546875,0.010384701192378998,-0.006108647678047419,0.017715077847242355
1772726486605551600,6.083551513671875,0.008552107028663158,0.000610864779446274,0.004276053514331579
1772726486615069200,6.093069091796875,0.006719512399286032,0.006719512399286032,-0.010384701192378998
1772726486624586800,6.102586669921875,0.006719512399286032,0.010995565913617611,-0.017104214057326317
1772726486634104300,6.112104248046875,0.010384701192378998,0.006719512399286032,-0.020769402384757996
1772726486643622000,6.121621826171875,0.014049889519810677,-0.003665188793092966,-0.01954767294228077
1772726486653139500,6.131139404296875,0.014049889519810677,-0.014660755172371864,-0.01649334840476513
1772726486662657000,6.140656982421875,0.01282816007733345,-0.020769402384757996,-0.014660755172371864
1772726486672174600,6.150174560546875,0.013439024798572063,-0.024434590712189674,-0.013439024798572063
1772726486681692200,6.159692138671875,0.014049889519810677,-0.023823726922273636,-0.007941242307424545
1772726486691209700,6.169209716796875,0.014049889519810677,-0.012217295356094837,0.002443459117785096
1772726486700727300,6.178727294921875,0.013439024798572063,-0.004276053514331579,0.014049889519810677
1772726486710244900,6.188244873046875,0.010995565913617611,-0.006108647678047419,0.020158538594841957
1772726486719762400,6.197762451171875,0.009773836471140385,-0.013439024798572063,0.01893680728971958
1772726486729279700,6.20727978515625,0.007941242307424545,-0.014660755172371864,0.013439024798572063
1772726486738797300,6.21679736328125,0.006108647678047419,-0.011606430634856224,0.001221729558892548
1772726486748315000,6.22631494140625,0.007330377586185932,-0.007330377586185932,-0.01282816007733345
1772726486757832400,6.23583251953125,0.007330377586185932,-0.0054977829568088055,-0.025045456364750862
1772726486767350000,6.24535009765625,0.007330377586185932,-0.009773836471140385,-0.034208428114652634
1772726486776867600,6.25486767578125,0.006108647678047419,-0.009773836471140385,-0.033597562462091446
1772726486786385200,6.26438525390625,0.008552107028663158,-0.007330377586185932,-0.023212861269712448
1772726486795902700,6.27390283203125,0.009773836471140385,-0.006719512399286032,-0.006719512399286032
1772726486805420300,6.283420166015625,0.010384701192378998,-0.006719512399286032,0.009162971749901772
1772726486814937900,6.292937744140625,0.010384701192378998,-0.007941242307424545,0.018325943499803543
1772726486824455400,6.302455322265625,0.008552107028663158,-0.007941242307424545,0.018325943499803543
1772726486833973000,6.311972900390625,0.006719512399286032,-0.0054977829568088055,0.015271619893610477
1772726486843490600,6.321490478515625,0.006108647678047419,-0.004886918235570192,0.012217295356094837
1772726486853008000,6.3310078125,0.0054977829568088055,-0.003665188793092966,0.010995565913617611
1772726486862525700,6.340525634765625,0.007330377586185932,-0.001832594396546483,0.014049889519810677
1772726486872043000,6.35004296875,0.009162971749901772,-0.003665188793092966,0.017715077847242355
1772726486881560600,6.359560546875,0.008552107028663158,-0.007941242307424545,0.01893680728971958
1772726486891078100,6.369078125,0.006719512399286032,-0.01282816007733345,0.01588248461484909
1772726486900595700,6.378595703125,0.004276053514331579,-0.01282816007733345,0.009773836471140385
1772726486910113300,6.38811328125,0.0030543238390237093,-0.010384701192378998,-0.000610864779446274
1772726486919630800,6.397630859375,0.001832594396546483,-0.010384701192378998,-0.008552107028663158
1772726486929148400,6.4071484375,0.002443459117785096,-0.012217295356094837,-0.017104214057326317
1772726486938666000,6.416666015625,0.002443459117785096,-0.010995565913617611,-0.021991131827235222
1772726486948183600,6.42618359375,0.002443459117785096,-0.011606430634856224,-0.021991131827235222
1772726486957701000,6.435701171875,0.004886918235570192,-0.010995565913617611,-0.014660755172371864
1772726486967218700,6.44521875,0.006719512399286032,-0.007330377586185932,-0.004886918235570192
1772726486976736000,6.454736083984375,0.007330377586185932,-0.002443459117785096,0.003665188793092966
1772726486986253800,6.46425390625,0.0054977829568088055,0.004276053514331579,0.009162971749901772
1772726486995771100,6.473771240234375,0.002443459117785096,-0.000610864779446274,0.007330377586185932
1772726487005288700,6.483288818359375,0.0030543238390237093,-0.006719512399286032,-0.000610864779446274
1772726487014806300,6.49280615234375,0.003665188793092966,-0.009162971749901772,-0.009162971749901772
1772726487024323800,6.50232373046875,0.004886918235570192,-0.007941242307424545,-0.017104214057326317
1772726487033841400,6.51184130859375,0.006719512399286032,-0.000610864779446274,-0.021380268037319183
1772726487043359200,6.521359130859375,0.007330377586185932,0.006108647678047419,-0.021380268037319183
1772726487052876500,6.53087646484375,0.007941242307424545,0.007330377586185932,-0.021991131827235222
1772726487062394000,6.54039404296875,0.009162971749901772,0.004276053514331579,-0.021380268037319183
1772726487071911700,6.54991162109375,0.008552107028663158,-0.0030543238390237093,-0.02260199747979641
1772726487081429200,6.55942919921875,0.006719512399286032,-0.01649334840476513,-0.027488915249705315
1772726487090946800,6.56894677734375,0.004886918235570192,-0.02871064469218254,-0.031154103577136993
1772726487100464000,6.578464111328125,0.006719512399286032,-0.02932151034474373,-0.029932374134659767
1772726487109982000,6.58798193359375,0.007941242307424545,-0.023212861269712448,-0.02260199747979641
1772726487119499300,6.597499267578125,0.009162971749901772,-0.014660755172371864,-0.012217295356094837
1772726487129016800,6.607016845703125,0.007941242307424545,-0.011606430634856224,-0.002443459117785096
1772726487138534400,6.616534423828125,0.006108647678047419,-0.0030543238390237093,0.007330377586185932
1772726487148052000,6.626052001953125,0.007941242307424545,0.006719512399286032,0.013439024798572063
1772726487157569500,6.635569580078125,0.008552107028663158,0.008552107028663158,0.01588248461484909
1772726487167087000,6.645087158203125,0.007941242307424545,0.006719512399286032,0.01282816007733345
1772726487176604700,6.654604736328125,0.006108647678047419,0.007330377586185932,0.009162971749901772
1772726487186122200,6.664122314453125,0.001832594396546483,0.007941242307424545,0.004886918235570192
1772726487195639800,6.673639892578125,-0.000610864779446274,0.004276053514331579,-0.007330377586185932
1772726487205157400,6.683157470703125,0.000610864779446274,0.007941242307424545,-0.021380268037319183
1772726487214675000,6.692675048828125,0.0054977829568088055,0.014660755172371864,-0.03237583488225937
1772726487224192300,6.702192138671875,0.011606430634856224,0.010384701192378998,-0.0409279391169548
1772726487233710000,6.7117099609375,0.014660755172371864,-0.002443459117785096,-0.04764745384454727
1772726487243227400,6.721227294921875,0.014049889519810677,-0.020158538594841957,-0.04886918142437935
1772726487252745000,6.730744873046875,0.014049889519810677,-0.03848448023200035,-0.04581485688686371
1772726487262262500,6.740262451171875,0.013439024798572063,-0.04886918142437935,-0.04276053607463837
1772726487271780000,6.749780029296875,0.010995565913617611,-0.04459312930703163,-0.03909534588456154
1772726487281297700,6.759297607421875,0.007941242307424545,-0.02626718580722809,-0.03176496922969818
1772726487290815200,6.768815185546875,0.004886918235570192,-0.001221729558892548,-0.018325943499803543
1772726487300332800,6.778332763671875,0.006719512399286032,0.017715077847242355,0.003665188793092966
1772726487309850400,6.787850341796875,0.008552107028663158,0.02626718580722809,0.024434590712189674
1772726487319368000,6.797367919921875,0.011606430634856224,0.02260199747979641,0.036651886999607086
1772726487328885500,6.806885498046875,0.014049889519810677,0.009773836471140385,0.03176496922969818
1772726487338403000,6.816403076171875,0.014660755172371864,-0.001832594396546483,0.010995565913617611
1772726487347920600,6.825920654296875,0.015271619893610477,-0.006108647678047419,-0.01893680728971958
1772726487357438200,6.835438232421875,0.015271619893610477,-0.0054977829568088055,-0.047036588191986084
1772726487366955800,6.844955810546875,0.01588248461484909,-0.009773836471140385,-0.06719512492418289
1772726487376473000,6.85447314453125,0.017715077847242355,-0.020158538594841957,-0.06902772188186646
1772726487385990700,6.86399072265625,0.018325943499803543,-0.030543239787220955,-0.05436696484684944
1772726487395508200,6.87350830078125,0.01893680728971958,-0.02932151034474373,-0.028099779039621353
1772726487405025800,6.88302587890625,0.017104214057326317,-0.01893680728971958,0
1772726487414543400,6.89254345703125,0.015271619893610477,-0.000610864779446274,0.025045456364750862
1772726487424061000,6.90206103515625,0.014049889519810677,0.01282816007733345,0.036651886999607086
1772726487433578500,6.91157861328125,0.010995565913617611,0.018325943499803543,0.03481929376721382
1772726487443096000,6.921095947265625,0.010995565913617611,0.01588248461484909,0.024434590712189674
1772726487452613600,6.930613525390625,0.011606430634856224,0.006719512399286032,0.008552107028663158
1772726487462131200,6.940131103515625,0.01282816007733345,-0.009773836471140385,-0.012217295356094837
1772726487471648800,6.949648681640625,0.012217295356094837,-0.021991131827235222,-0.03237583488225937
1772726487481166300,6.959166259765625,0.01282816007733345,-0.02260199747979641,-0.043982263654470444
1772726487490684000,6.968683837890625,0.012217295356094837,-0.014660755172371864,-0.04886918142437935
1772726487500201200,6.978201171875,0.012217295356094837,-0.000610864779446274,-0.04581485688686371
1772726487509719000,6.987718994140625,0.012217295356094837,0.009162971749901772,-0.03848448023200035
1772726487519236400,6.997236328125,0.009773836471140385,0.009162971749901772,-0.027488915249705315
1772726487528754000,7.00675390625,0.006719512399286032,0.001221729558892548,-0.01893680728971958
1772726487538271500,7.016271484375,0.004276053514331579,-0.009773836471140385,-0.015271619893610477
1772726487547789000,7.0257890625,0.003665188793092966,-0.017104214057326317,-0.014660755172371864
1772726487557306600,7.035306640625,0.0054977829568088055,-0.014049889519810677,-0.010384701192378998
1772726487566824200,7.04482421875,0.008552107028663158,-0.004886918235570192,-0.002443459117785096
1772726487576341800,7.054341796875,0.011606430634856224,0.0030543238390237093,0.006719512399286032
1772726487585859300,7.063859375,0.012217295356094837,0.008552107028663158,0.011606430634856224
1772726487595377000,7.073376953125,0.012217295356094837,0.008552107028663158,0.010995565913617611
1772726487604894200,7.082894287109375,0.012217295356094837,0.0030543238390237093,0.004276053514331579
1772726487614412000,7.092412109375,0.010384701192378998,-0.001221729558892548,-0.004886918235570192
1772726487623929300,7.101929443359375,0.010384701192378998,-0.000610864779446274,-0.014660755172371864
1772726487633447200,7.111447265625,0.008552107028663158,-0.000610864779446274,-0.021991131827235222
1772726487642964500,7.120964599609375,0.007330377586185932,-0.001832594396546483,-0.023823726922273636
1772726487652482000,7.13048193359375,0.006719512399286032,-0.006108647678047419,-0.018325943499803543
1772726487661999600,7.13999951171875,0.0054977829568088055,-0.013439024798572063,-0.013439024798572063
1772726487671517200,7.14951708984375,0.006719512399286032,-0.020158538594841957,-0.007941242307424545
1772726487681034800,7.15903466796875,0.007941242307424545,-0.01893680728971958,-0.0054977829568088055
1772726487690552300,7.16855224609375,0.006719512399286032,-0.014660755172371864,-0.008552107028663158
1772726487700070000,7.17806982421875,0.004886918235570192,-0.009773836471140385,-0.017104214057326317
1772726487709587500,7.18758740234375,0.006108647678047419,-0.003665188793092966,-0.02871064469218254
1772726487719105000,7.19710498046875,0.007941242307424545,0.008552107028663158,-0.03787361457943916
1772726487728622300,7.206622314453125,0.009773836471140385,0.011606430634856224,-0.040317077189683914
1772726487738140200,7.21614013671875,0.008552107028663158,-0.000610864779446274,-0.03848448023200035
1772726487747657500,7.225657470703125,0.007941242307424545,-0.009162971749901772,-0.03176496922969818
1772726487757175300,7.23517529296875,0.006108647678047419,-0.017715077847242355,-0.0256563201546669
1772726487766692600,7.244692626953125,0.0054977829568088055,-0.023212861269712448,-0.023212861269712448
1772726487776210200,7.254210205078125,0.0054977829568088055,-0.02260199747979641,-0.0256563201546669
1772726487785727700,7.263727783203125,0.0030543238390237093,-0.018325943499803543,-0.03176496922969818
1772726487795245300,7.273245361328125,0.000610864779446274,-0.01588248461484909,-0.03909534588456154
1772726487804763000,7.282762939453125,-0.002443459117785096,-0.009773836471140385,-0.04153880476951599
1772726487814280400,7.292280517578125,-0.003665188793092966,0.000610864779446274,-0.03787361457943916
1772726487823798000,7.301798095703125,-0.004886918235570192,0.008552107028663158,-0.03298669680953026
1772726487833315600,7.311315673828125,-0.001832594396546483,0.008552107028663158,-0.028099779039621353
1772726487842833200,7.320833251953125,0.002443459117785096,0.009162971749901772,-0.025045456364750862
1772726487852350700,7.330350830078125,0.006719512399286032,0.009162971749901772,-0.020769402384757996
1772726487861868300,7.339868408203125,0.008552107028663158,0.0054977829568088055,-0.015271619893610477
1772726487871385600,7.349385498046875,0.008552107028663158,0.001221729558892548,-0.006719512399286032
1772726487880903200,7.358903076171875,0.007941242307424545,0,-0.001221729558892548
1772726487890420700,7.368420654296875,0.004276053514331579,0.003665188793092966,0.004886918235570192
1772726487899938300,7.377938232421875,0.0030543238390237093,0.010384701192378998,0.006719512399286032
1772726487909456000,7.387455810546875,0.006108647678047419,0.014049889519810677,-0.001221729558892548
1772726487918973400,7.396973388671875,0.009773836471140385,0.009162971749901772,-0.013439024798572063
1772726487928491000,7.406490966796875,0.012217295356094837,-0.001832594396546483,-0.028099779039621353
1772726487938008600,7.416008544921875,0.013439024798572063,-0.01649334840476513,-0.04214967042207718
1772726487947526100,7.425526123046875,0.012217295356094837,-0.0256563201546669,-0.053145237267017365
1772726487957043700,7.435043701171875,0.009162971749901772,-0.031154103577136993,-0.05925388261675835
1772726487966561300,7.444561279296875,0.006108647678047419,-0.03481929376721382,-0.06047561392188072
1772726487976078800,7.454078857421875,0.0030543238390237093,-0.029932374134659767,-0.056199558079242706
1772726487985596400,7.463596435546875,0.001221729558892548,-0.018325943499803543,-0.04581485688686371
1772726487995114000,7.473114013671875,0.0030543238390237093,-0.009162971749901772,-0.03237583488225937
1772726488004631300,7.48263134765625,0.006108647678047419,-0.004276053514331579,-0.01893680728971958
1772726488014149000,7.492149169921875,0.011606430634856224,0.000610864779446274,-0.006719512399286032
1772726488023666400,7.50166650390625,0.015271619893610477,0.001221729558892548,0.003665188793092966
1772726488033184000,7.51118408203125,0.01649334840476513,0.001221729558892548,0.008552107028663158
1772726488042701600,7.52070166015625,0.015271619893610477,0.004276053514331579,0.006108647678047419
1772726488052219100,7.53021923828125,0.011606430634856224,0.006108647678047419,-0.001832594396546483
1772726488061736700,7.53973681640625,0.007330377586185932,0.001221729558892548,-0.008552107028663158
1772726488071254300,7.549254150390625,0.006108647678047419,-0.007941242307424545,-0.017715077847242355
1772726488080771800,7.558771728515625,0.006108647678047419,-0.01893680728971958,-0.02626718580722809
1772726488090289400,7.568289306640625,0.007941242307424545,-0.030543239787220955,-0.033597562462091446
1772726488099807000,7.577806884765625,0.009773836471140385,-0.033597562462091446,-0.036651886999607086
1772726488109324500,7.587324462890625,0.009773836471140385,-0.028099779039621353,-0.036651886999607086
1772726488118842000,7.596842041015625,0.010995565913617611,-0.021380268037319183,-0.03481929376721382
1772726488128359400,7.606359375,0.009773836471140385,-0.01588248461484909,-0.03298669680953026
1772726488137877200,7.615877197265625,0.007330377586185932,-0.013439024798572063,-0.03176496922969818
1772726488147394600,7.62539453125,0.006108647678047419,-0.012217295356094837,-0.033597562462091446
1772726488156912000,7.634912109375,0.006108647678047419,-0.014049889519810677,-0.036651886999607086
1772726488166429700,7.6444296875,0.004886918235570192,-0.021380268037319183,-0.04520399495959282
1772726488175947300,7.653947265625,0.006108647678047419,-0.02260199747979641,-0.05497783049941063
1772726488185464800,7.66346484375,0.0054977829568088055,-0.020769402384757996,-0.06414080411195755
1772726488194982400,7.672982421875,0.004886918235570192,-0.01588248461484909,-0.0665842592716217
1772726488204500000,7.6825,0.006108647678047419,-0.006108647678047419,-0.06108647957444191
1772726488214017500,7.692017578125,0.007330377586185932,0.000610864779446274,-0.04886918142437935
1772726488223535000,7.70153515625,0.008552107028663158,0.004276053514331579,-0.02871064469218254
1772726488233052700,7.711052734375,0.009773836471140385,0.0030543238390237093,-0.0054977829568088055
1772726488242570200,7.7205703125,0.01282816007733345,0.004276053514331579,0.014660755172371864
1772726488252087600,7.730087646484375,0.013439024798572063,0.008552107028663158,0.029932374134659767
1772726488261605400,7.73960546875,0.014049889519810677,0.014049889519810677,0.03787361457943916
1772726488271122700,7.749122802734375,0.01282816007733345,0.020158538594841957,0.03848448023200035
1772726488280640300,7.75864013671875,0.010995565913617611,0.021380268037319183,0.03237583488225937
1772726488290157800,7.76815771484375,0.007330377586185932,0.017715077847242355,0.02260199747979641
1772726488299675400,7.77767529296875,0.0054977829568088055,0.007330377586185932,0.009162971749901772
1772726488309193000,7.78719287109375,0.006719512399286032,-0.003665188793092966,0
1772726488318710500,7.79671044921875,0.007330377586185932,-0.01282816007733345,-0.011606430634856224
1772726488328228000,7.80622802734375,0.007330377586185932,-0.01954767294228077,-0.023212861269712448
1772726488337745700,7.81574560546875,0.007330377586185932,-0.018325943499803543,-0.03543015569448471
1772726488347263200,7.82526318359375,0.007330377586185932,-0.013439024798572063,-0.0409279391169548
1772726488356780800,7.83478076171875,0.009773836471140385,-0.009162971749901772,-0.04276053607463837
1772726488366298400,7.84429833984375,0.008552107028663158,-0.009162971749901772,-0.04214967042207718
1772726488375815700,7.853815673828125,0.006108647678047419,-0.012217295356094837,-0.037262752652168274
1772726488385333500,7.86333349609375,0.003665188793092966,-0.017104214057326317,-0.0360410213470459
1772726488394850800,7.872850830078125,0.0030543238390237093,-0.01954767294228077,-0.03543015569448471
1772726488404368400,7.882368408203125,0.003665188793092966,-0.01649334840476513,-0.036651886999607086
1772726488413886000,7.891885986328125,0.004276053514331579,-0.011606430634856224,-0.0409279391169548
1772726488423403500,7.901403564453125,0.004276053514331579,-0.010384701192378998,-0.043982263654470444
1772726488432921000,7.910921142578125,0.004276053514331579,-0.009773836471140385,-0.043371398001909256
1772726488442438700,7.920438720703125,0.006719512399286032,-0.006719512399286032,-0.040317077189683914
1772726488451956200,7.929956298828125,0.009162971749901772,0.006108647678047419,-0.03298669680953026
1772726488461473800,7.939473876953125,0.008552107028663158,0.014049889519810677,-0.020769402384757996
1772726488470991400,7.948991455078125,0.006108647678047419,0.011606430634856224,-0.008552107028663158
1772726488480509000,7.958509033203125,0.0030543238390237093,0.002443459117785096,-0.001221729558892548
1772726488490026500,7.968026611328125,0.001832594396546483,-0.004886918235570192,0
1772726488499543800,7.977543701171875,0.003665188793092966,-0.008552107028663158,-0.002443459117785096
1772726488509061600,7.9870615234375,0.008552107028663158,-0.0054977829568088055,-0.006108647678047419
1772726488518579000,7.996578857421875,0.010384701192378998,0.006108647678047419,-0.009162971749901772
1772726488528096500,8.006096435546874,0.010384701192378998,0.017104214057326317,-0.008552107028663158
1772726488537614000,8.015614013671875,0.012217295356094837,0.020158538594841957,-0.004886918235570192
1772726488547131600,8.025131591796875,0.01282816007733345,0.024434590712189674,-0.001221729558892548
1772726488556649200,8.034649169921876,0.01282816007733345,0.02626718580722809,0.004276053514331579
1772726488566166800,8.044166748046875,0.014660755172371864,0.020769402384757996,0.007330377586185932
1772726488575684400,8.053684326171876,0.01588248461484909,0.009773836471140385,0.003665188793092966
1772726488585202000,8.063201904296875,0.017104214057326317,0.000610864779446274,-0.003665188793092966
1772726488594719500,8.072719482421874,0.017104214057326317,-0.007941242307424545,-0.015271619893610477
1772726488604237000,8.082237060546875,0.014660755172371864,-0.021380268037319183,-0.028099779039621353
1772726488613754600,8.091754638671874,0.011606430634856224,-0.03543015569448471,-0.04153880476951599
1772726488623272200,8.101272216796875,0.007941242307424545,-0.04214967042207718,-0.056810423731803894
1772726488632789800,8.110789794921875,0.003665188793092966,-0.043982263654470444,-0.07330377399921417
1772726488642307000,8.12030712890625,0.000610864779446274,-0.04520399495959282,-0.08796452730894089
1772726488651824600,8.12982470703125,0.001221729558892548,-0.0409279391169548,-0.09529490768909454
1772726488661342200,8.13934228515625,0.003665188793092966,-0.033597562462091446,-0.09712749719619751
1772726488670859800,8.14885986328125,0.009162971749901772,-0.024434590712189674,-0.09101885557174683
1772726488680377300,8.15837744140625,0.014660755172371864,-0.01588248461484909,-0.07941242307424545
1772726488689895000,8.16789501953125,0.01649334840476513,-0.008552107028663158,-0.06719512492418289
1772726488699412500,8.17741259765625,0.01588248461484909,0.001221729558892548,-0.053756099194288254
1772726488708930000,8.186929931640625,0.013439024798572063,0.01282816007733345,-0.03848448023200035
1772726488718447600,8.196447509765624,0.011606430634856224,0.012217295356094837,-0.024434590712189674
1772726488727965200,8.205965087890625,0.009162971749901772,0.004276053514331579,-0.01282816007733345
1772726488737482800,8.215482666015625,0.007330377586185932,-0.006719512399286032,-0.0054977829568088055
1772726488747000300,8.225000244140626,0.006719512399286032,-0.009773836471140385,-0.0030543238390237093
1772726488756518000,8.234517822265625,0.0054977829568088055,-0.008552107028663158,-0.004886918235570192
1772726488766035500,8.244035400390626,0.004886918235570192,-0.001832594396546483,-0.007941242307424545
1772726488775552800,8.253552734375,0.0054977829568088055,0.008552107028663158,-0.007330377586185932
1772726488785070300,8.2630703125,0.007941242307424545,0.01282816007733345,-0.004886918235570192
1772726488794588000,8.272587890625,0.01282816007733345,0.012217295356094837,-0.001221729558892548
1772726488804105500,8.28210546875,0.015271619893610477,0.006719512399286032,0.002443459117785096
1772726488813623000,8.291623046875,0.017104214057326317,0.001832594396546483,0.002443459117785096
1772726488823140600,8.301140625,0.01649334840476513,-0.000610864779446274,-0.000610864779446274
1772726488832658200,8.310658203125,0.014660755172371864,0.001221729558892548,-0.006108647678047419
1772726488842175700,8.32017578125,0.011606430634856224,0.006719512399286032,-0.010995565913617611
1772726488851693300,8.329693359375,0.007941242307424545,0.008552107028663158,-0.014049889519810677
1772726488861211000,8.3392109375,0.004276053514331579,0.007941242307424545,-0.014660755172371864
1772726488870728400,8.348728515625,0.001832594396546483,0.006719512399286032,-0.01282816007733345
1772726488880246000,8.35824609375,0.000610864779446274,0.006108647678047419,-0.01282816007733345
1772726488889763600,8.367763671875,0.000610864779446274,0.007941242307424545,-0.015271619893610477
1772726488899281000,8.377281005859375,0.001221729558892548,0.010995565913617611,-0.01893680728971958
1772726488908798700,8.386798828125,0.0030543238390237093,0.010995565913617611,-0.023212861269712448
1772726488918316000,8.39631591796875,0.004276053514331579,0.006108647678047419,-0.024434590712189674
1772726488927833600,8.40583349609375,0.006108647678047419,-0.000610864779446274,-0.024434590712189674
1772726488937351200,8.41535107421875,0.007330377586185932,-0.006719512399286032,-0.02260199747979641
1772726488946868700,8.42486865234375,0.007941242307424545,-0.009773836471140385,-0.020769402384757996
1772726488956386300,8.43438623046875,0.008552107028663158,-0.003665188793092966,-0.021991131827235222
1772726488965904000,8.44390380859375,0.008552107028663158,0.007330377586185932,-0.020769402384757996
1772726488975421400,8.45342138671875,0.006108647678047419,0.010384701192378998,-0.020769402384757996
1772726488984939000,8.46293896484375,0.002443459117785096,0.0054977829568088055,-0.020158538594841957
1772726488994456600,8.47245654296875,0.001221729558892548,0.001832594396546483,-0.017104214057326317
1772726489003974100,8.48197412109375,0.0030543238390237093,-0.001832594396546483,-0.013439024798572063
1772726489013491700,8.49149169921875,0.004276053514331579,-0.0030543238390237093,-0.010384701192378998
1772726489023009000,8.501009033203125,0.007941242307424545,0.001832594396546483,-0.0030543238390237093
1772726489032526800,8.51052685546875,0.010384701192378998,0.006108647678047419,0.007330377586185932
1772726489042044200,8.520044189453126,0.011606430634856224,0.006719512399286032,0.017104214057326317
1772726489051561700,8.529561767578125,0.011606430634856224,0.007941242307424545,0.027488915249705315
1772726489061079300,8.539079345703126,0.010995565913617611,0.000610864779446274,0.033597562462091446
1772726489070596900,8.548596923828125,0.009162971749901772,-0.006719512399286032,0.033597562462091446
1772726489080114400,8.558114501953124,0.006719512399286032,-0.011606430634856224,0.026878049597144127
1772726489089632000,8.567632080078125,0.006108647678047419,-0.01282816007733345,0.018325943499803543
1772726489099149600,8.577149658203124,0.006108647678047419,-0.006108647678047419,0.010995565913617611
1772726489108667100,8.586667236328125,0.007330377586185932,0.004886918235570192,0.004276053514331579
1772726489118184700,8.596184814453125,0.006719512399286032,0.007941242307424545,-0.001221729558892548
1772726489127702300,8.605702392578126,0.006719512399286032,-0.000610864779446274,-0.006108647678047419
1772726489137219800,8.6152197265625,0.0030543238390237093,-0.007941242307424545,-0.009162971749901772
1772726489146737200,8.624737060546876,0.002443459117785096,-0.011606430634856224,-0.008552107028663158
1772726489156255000,8.6342548828125,0.002443459117785096,-0.010384701192378998,-0.007330377586185932
1772726489165772300,8.643772216796876,0.002443459117785096,-0.009773836471140385,-0.010384701192378998
1772726489175289900,8.653289794921875,0.002443459117785096,-0.007330377586185932,-0.017715077847242355
1772726489184807400,8.662807373046874,0.002443459117785096,0.000610864779446274,-0.023823726922273636
1772726489194325000,8.672324951171875,0.001832594396546483,0.0030543238390237093,-0.023823726922273636
1772726489203842600,8.681842529296874,0.004886918235570192,0.004886918235570192,-0.01649334840476513
1772726489213360000,8.691360107421875,0.007941242307424545,0.007941242307424545,-0.002443459117785096
1772726489222877700,8.700877685546875,0.011606430634856224,0.009162971749901772,0.009773836471140385
1772726489232395300,8.710395263671876,0.013439024798572063,0.009162971749901772,0.013439024798572063
1772726489241912800,8.719912841796875,0.015271619893610477,0.003665188793092966,0.009162971749901772
1772726489251430400,8.729430419921876,0.012217295356094837,-0.015271619893610477,-0.002443459117785096
1772726489260948000,8.738947998046875,0.007941242307424545,-0.037262752652168274,-0.020158538594841957
1772726489270465300,8.74846533203125,0.0054977829568088055,-0.04581485688686371,-0.03543015569448471
1772726489279983000,8.757983154296875,0.0030543238390237093,-0.04581485688686371,-0.043371398001909256
1772726489289500400,8.76750048828125,0.001221729558892548,-0.033597562462091446,-0.03909534588456154
1772726489299018000,8.77701806640625,0.001832594396546483,-0.014049889519810677,-0.0256563201546669
1772726489308535600,8.78653564453125,0.004276053514331579,0.003665188793092966,-0.007330377586185932
1772726489318053000,8.79605322265625,0.007330377586185932,0.010384701192378998,0.009773836471140385
1772726489327570700,8.80557080078125,0.012217295356094837,0.011606430634856224,0.01954767294228077
1772726489337088300,8.815088134765626,0.013439024798572063,0.014049889519810677,0.02260199747979641
1772726489346605800,8.824605712890625,0.010995565913617611,0.008552107028663158,0.018325943499803543
1772726489356123400,8.834123291015626,0.009162971749901772,-0.001221729558892548,0.007941242307424545
1772726489365641000,8.843640869140625,0.008552107028663158,-0.002443459117785096,-0.003665188793092966
1772726489375158500,8.853158447265624,0.009773836471140385,-0.001221729558892548,-0.006719512399286032
1772726489384676000,8.862676025390625,0.010995565913617611,-0.001221729558892548,-0.0030543238390237093
1772726489394193400,8.872193359375,0.012217295356094837,-0.004276053514331579,0.0054977829568088055
1772726489403711200,8.881711181640625,0.014660755172371864,-0.007941242307424545,0.012217295356094837
1772726489413228500,8.891228515625,0.014660755172371864,-0.010384701192378998,0.017715077847242355
1772726489422746000,8.90074609375,0.01649334840476513,-0.008552107028663158,0.017104214057326317
1772726489432263700,8.910263671875,0.01588248461484909,0,0.010384701192378998
1772726489441781200,8.91978125,0.01588248461484909,0.008552107028663158,0.004276053514331579
1772726489451298800,8.929298828125,0.01649334840476513,0.007941242307424545,0
1772726489460816400,8.93881640625,0.017104214057326317,0.001832594396546483,-0.002443459117785096
1772726489470334000,8.948333984375,0.018325943499803543,-0.002443459117785096,-0.002443459117785096
1772726489479851500,8.9578515625,0.01649334840476513,-0.010995565913617611,-0.006108647678047419
1772726489489369000,8.967369140625,0.013439024798572063,-0.018325943499803543,-0.012217295356094837
1772726489498886400,8.976886474609374,0.012217295356094837,-0.017104214057326317,-0.017715077847242355
1772726489508404200,8.986404296875,0.011606430634856224,-0.01282816007733345,-0.01893680728971958
1772726489517921800,8.995921875,0.010384701192378998,-0.010384701192378998,-0.017715077847242355
1772726489527439000,9.005439208984376,0.011606430634856224,-0.007330377586185932,-0.01282816007733345
1772726489536956700,9.014956787109375,0.012217295356094837,-0.000610864779446274,-0.006719512399286032
1772726489546474200,9.02447412109375,0.014049889519810677,0.007330377586185932,0.000610864779446274
1772726489555991800,9.03399169921875,0.015271619893610477,0.010995565913617611,0.007330377586185932
1772726489565509400,9.04350927734375,0.01649334840476513,0.009773836471140385,0.012217295356094837
1772726489575027000,9.05302685546875,0.015271619893610477,0.006108647678047419,0.01588248461484909
1772726489584544500,9.06254443359375,0.011606430634856224,0.000610864779446274,0.015271619893610477
1772726489594062000,9.07206201171875,0.012217295356094837,-0.000610864779446274,0.014660755172371864
1772726489603579600,9.08157958984375,0.01282816007733345,0.000610864779446274,0.01282816007733345
1772726489613097200,9.09109716796875,0.013439024798572063,0,0.007941242307424545
1772726489622614800,9.10061474609375,0.012217295356094837,-0.001832594396546483,0.001832594396546483
1772726489632132400,9.11013232421875,0.011606430634856224,0,-0.004276053514331579
1772726489641650000,9.11964990234375,0.013439024798572063,-0.000610864779446274,-0.0054977829568088055
1772726489651167200,9.129167236328126,0.012217295356094837,-0.004886918235570192,-0.004276053514331579
1772726489660685000,9.13868505859375,0.011606430634856224,-0.008552107028663158,-0.003665188793092966
1772726489670202400,9.148202392578124,0.010384701192378998,-0.006719512399286032,-0.004276053514331579
1772726489679720000,9.157719970703125,0.010384701192378998,0.001221729558892548,-0.007941242307424545
1772726489689237500,9.167237548828124,0.009162971749901772,-0.0030543238390237093,-0.014660755172371864
1772726489698755000,9.176755126953125,0.008552107028663158,-0.012217295356094837,-0.01954767294228077
1772726489708272600,9.186272705078125,0.006719512399286032,-0.017715077847242355,-0.020769402384757996
1772726489717790200,9.195790283203126,0.006108647678047419,-0.024434590712189674,-0.01954767294228077
1772726489727307800,9.205307861328125,0.008552107028663158,-0.021380268037319183,-0.015271619893610477
1772726489736825300,9.214825439453126,0.011606430634856224,-0.017104214057326317,-0.013439024798572063
1772726489755860500,9.233860595703124,0.01282816007733345,-0.028099779039621353,0.006108647678047419
1772726489765378000,9.2433779296875,0.007941242307424545,-0.02871064469218254,0.020769402384757996
1772726489774895400,9.252895263671874,0.000610864779446274,-0.01649334840476513,0.031154103577136993
1772726489784413200,9.2624130859375,-0.004886918235570192,-0.004276053514331579,0.02871064469218254
1772726489793930500,9.271930419921874,-0.0030543238390237093,0.004276053514331579,0.015271619893610477
1772726489803448000,9.281447998046875,0.007941242307424545,0.001221729558892548,0.001221729558892548
1772726489812965600,9.290965576171875,0.01588248461484909,-0.01282816007733345,-0.007330377586185932
1772726489822483200,9.300483154296876,0.01588248461484909,-0.018325943499803543,-0.009162971749901772
1772726489832000800,9.310000732421875,0.010995565913617611,-0.011606430634856224,-0.007941242307424545
1772726489841518300,9.319518310546876,0.004886918235570192,-0.006719512399286032,-0.01282816007733345
1772726489851036000,9.329035888671875,0.003665188793092966,-0.004886918235570192,-0.021991131827235222
1772726489860553500,9.338553466796874,0.0030543238390237093,-0.009773836471140385,-0.03298669680953026
1772726489870071000,9.348071044921875,0.001221729558892548,-0.01588248461484909,-0.039706211537122726
1772726489879588600,9.357588623046874,-0.001832594396546483,-0.015271619893610477,-0.03543015569448471
1772726489889106200,9.367106201171875,-0.004276053514331579,-0.01282816007733345,-0.02626718580722809
1772726489898623500,9.37662353515625,-0.001832594396546483,-0.010384701192378998,-0.011606430634856224
1772726489908141300,9.386141357421875,0.002443459117785096,0.001221729558892548,0.001832594396546483
1772726489917658600,9.39565869140625,0.007330377586185932,0.014049889519810677,0.003665188793092966
1772726489927176200,9.40517626953125,0.01282816007733345,0.015271619893610477,-0.004886918235570192
1772726489936693800,9.41469384765625,0.017715077847242355,0.012217295356094837,-0.014660755172371864
1772726489946211300,9.42421142578125,0.012217295356094837,-0.000610864779446274,-0.021991131827235222
1772726489955729000,9.43372900390625,-0.000610864779446274,-0.030543239787220955,-0.029932374134659767
1772726489965246500,9.44324658203125,-0.008552107028663158,-0.04459312930703163,-0.03848448023200035
1772726489974764000,9.452763916015625,-0.010995565913617611,-0.034208428114652634,-0.04581485688686371
1772726489984281600,9.462281494140624,-0.006719512399286032,-0.023823726922273636,-0.043371398001909256
1772726489993799200,9.471799072265625,0.001221729558892548,-0.017104214057326317,-0.024434590712189674
1772726490003316700,9.481316650390625,0.006108647678047419,-0.01282816007733345,0.004886918235570192
1772726490012834300,9.490834228515626,0.010995565913617611,-0.009773836471140385,0.03176496922969818
1772726490022351600,9.5003515625,0.01893680728971958,-0.0030543238390237093,0.047036588191986084
1772726490031869400,9.509869384765626,0.025045456364750862,-0.002443459117785096,0.05253437161445618
1772726490041386800,9.51938671875,0.024434590712189674,-0.009162971749901772,0.04825831577181816
1772726490050904300,9.528904296875,0.018325943499803543,-0.010384701192378998,0.03787361457943916
1772726490060422000,9.538421875,0.009773836471140385,-0.001832594396546483,0.025045456364750862
1772726490069939500,9.547939453125,0.009773836471140385,0.01282816007733345,0.01588248461484909
1772726490079457000,9.55745703125,0.010995565913617611,0.025045456364750862,0.009773836471140385
1772726490088974600,9.566974609375,0.002443459117785096,0.012217295356094837,0.001221729558892548
1772726490098492200,9.5764921875,-0.010384701192378998,-0.020158538594841957,-0.012217295356094837
1772726490108009700,9.586009765625,-0.010995565913617611,-0.0409279391169548,-0.021991131827235222
1772726490117527300,9.59552734375,-0.004886918235570192,-0.050090912729501724,-0.026878049597144127
1772726490127044900,9.605044921875,-0.001221729558892548,-0.03543015569448471,-0.02260199747979641
1772726490136562400,9.6145625,0.0054977829568088055,-0.007330377586185932,-0.006108647678047419
1772726490146080000,9.624080078125,0.009773836471140385,0.023212861269712448,0.02626718580722809
1772726490155597600,9.63359765625,0.004886918235570192,0.043982263654470444,0.06475166976451874
1772726490165115000,9.643114990234375,-0.0054977829568088055,0.04581485688686371,0.08429934084415436
1772726490174632400,9.652632568359374,-0.007330377586185932,0.023212861269712448,0.07574722915887833
1772726490184150000,9.66214990234375,0.007330377586185932,0.000610864779446274,0.04764745384454727
1772726490193667600,9.67166748046875,0.030543239787220955,-0.010384701192378998,0.007941242307424545
1772726490203185200,9.68118505859375,0.04581485688686371,-0.006108647678047419,-0.028099779039621353
1772726490212702700,9.69070263671875,0.04825831577181816,-0.001832594396546483,-0.05070177838206291
1772726490222220300,9.70022021484375,0.0360410213470459,-0.010384701192378998,-0.04886918142437935
1772726490231737900,9.70973779296875,0.01282816007733345,-0.02260199747979641,-0.023823726922273636
1772726490241255400,9.71925537109375,-0.010384701192378998,-0.02626718580722809,0.012217295356094837
1772726490250773000,9.72877294921875,-0.020158538594841957,-0.01893680728971958,0.0409279391169548
1772726490260290600,9.73829052734375,-0.01282816007733345,-0.007330377586185932,0.053756099194288254
1772726490269808000,9.74780810546875,-0.001832594396546483,0.002443459117785096,0.05497783049941063
1772726490279325700,9.75732568359375,0.008552107028663158,0.006108647678047419,0.0513126403093338
1772726490288843300,9.76684326171875,0.01282816007733345,0.007330377586185932,0.0409279391169548
1772726490298360600,9.776360595703125,0.017715077847242355,0.01954767294228077,0.023823726922273636
1772726490307878100,9.785878173828126,0.027488915249705315,0.0360410213470459,0.001221729558892548
1772726490317395700,9.795395751953125,0.03543015569448471,0.03848448023200035,-0.013439024798572063
1772726490326913300,9.804913330078126,0.031154103577136993,0.028099779039621353,-0.020769402384757996
1772726490336430800,9.814430908203125,0.020769402384757996,0.010995565913617611,-0.026878049597144127
1772726490345948400,9.823948486328124,0.009773836471140385,-0.017715077847242355,-0.028099779039621353
1772726490355466000,9.833466064453125,0.007330377586185932,-0.034208428114652634,-0.026878049597144127
1772726490364983600,9.842983642578124,0.01954767294228077,-0.007941242307424545,-0.0054977829568088055
1772726490374501000,9.852501220703125,0.029932374134659767,0.04825831577181816,0.04214967042207718
1772726490384018700,9.862018798828124,0.011606430634856224,0.09285144507884979,0.11056652665138245
1772726490393536300,9.871536376953125,-0.03176496922969818,0.06047561392188072,0.1533270627260208
1772726490403053800,9.8810537109375,-0.04276053607463837,0.01282816007733345,0.11423171311616898
1772726490412571400,9.8905712890625,-0.006719512399286032,-0.0030543238390237093,0.04764745384454727
1772726490422088700,9.900088623046875,0.034208428114652634,-0.031154103577136993,-0.007941242307424545
1772726490431606500,9.9096064453125,0.043371398001909256,-0.025045456364750862,-0.036651886999607086
