time,seconds_elapsed,z,y,x
1772725802096925000,0.103925048828125,9.018548965454102,4.046263217926025,-0.6436693072319031
1772725802106442000,0.11344189453125,8.9850492477417,4.051048755645752,-0.5934200286865234
1772725802115959300,0.122959228515625,8.965906143188477,4.113262176513672,-0.6149554252624512
1772725802125476400,0.132476318359375,8.922835350036621,4.120440483093262,-0.6269195079803467
1772725802134993700,0.14199365234375,8.879764556884766,4.144368648529053,-0.6101697683334351
1772725802144510700,0.1515107421875,8.920442581176758,4.170690059661865,-0.6795616149902344
1772725802154027800,0.16102783203125,8.975478172302246,4.161118507385254,-0.7130611538887024
1772725802163545000,0.170545166015625,9.018548965454102,4.122833251953125,-0.6867401003837585
1772725802173062100,0.180062255859375,9.023334503173828,4.139583110809326,-0.6508477330207825
1772725802182579500,0.189579345703125,9.006584167480469,4.146761417388916,-0.6029912829399109
1772725802192096500,0.199096435546875,9.028120040893555,4.168296813964844,-0.6221339106559753
1772725802201613600,0.208613525390625,9.087940216064453,4.161118507385254,-0.6173482537269592
1772725802211131000,0.218130859375,9.181260108947754,4.146761417388916,-0.6484549641609192
1772725802220648000,0.22764794921875,9.231510162353516,4.120440483093262,-0.6245267391204834
1772725802230165200,0.237165283203125,9.183652877807617,4.077369689941406,-0.6293123364448547
1772725802239682300,0.246682373046875,9.114261627197266,4.046263217926025,-0.7058826684951782
1772725802249199600,0.25619970703125,9.040083885192871,4.043870449066162,-0.7872386574745178
1772725802258716700,0.265716552734375,8.982656478881836,4.01754903793335,-0.8374879360198975
1772725802268234000,0.27523388671875,8.93958568572998,4.060619831085205,-0.8398807644844055
1772725802277751000,0.2847509765625,8.896514892578125,4.07258415222168,-0.8542376756668091
1772725802287268000,0.29426806640625,8.858229637145996,4.108476638793945,-0.7896314859390259
1772725802296785400,0.303785400390625,8.848658561706543,4.096512317657471,-0.729810893535614
1772725802306302500,0.313302490234375,8.8438720703125,4.082155227661133,-0.7489534616470337
1772725802315819800,0.32281982421875,8.898907661437988,4.106083869934082,-0.8207381963729858
1772725802325336800,0.3323369140625,8.96112060546875,4.067798614501953,-0.8350951075553894
1772725802334854000,0.34185400390625,8.994620323181152,4.039084434509277,-0.794417142868042
1772725802344371200,0.35137109375,8.958727836608887,4.041477680206299,-0.7202396392822266
1772725802353888300,0.36088818359375,8.930013656616211,4.077369689941406,-0.6532405614852905
1772725802363405600,0.370405517578125,8.965906143188477,4.132404804229736,-0.638883650302887
1772725802372922600,0.379922607421875,8.994620323181152,4.132404804229736,-0.6317051649093628
1772725802382440000,0.38943994140625,9.09990406036377,4.118047714233398,-0.6125625967979431
1772725802391957000,0.39895703125,9.205188751220703,4.137190341949463,-0.6604190468788147
1772725802401474300,0.408474365234375,9.20997428894043,4.151547431945801,-0.6245267391204834
1772725802410991400,0.417991455078125,9.169296264648438,4.125226020812988,-0.6269195079803467
1772725802420508700,0.4275087890625,9.068798065185547,4.137190341949463,-0.6173482537269592
1772725802430025700,0.437025634765625,8.97787094116211,4.158725738525391,-0.6293123364448547
1772725802439542800,0.446542724609375,8.96112060546875,4.2209391593933105,-0.607776939868927
1772725802449060000,0.45606005859375,8.973084449768066,4.230510234832764,-0.605384111404419
1772725802458577200,0.4655771484375,8.973084449768066,4.2209391593933105,-0.5742774605751038
1772725802468094200,0.47509423828125,8.922835350036621,4.208974838256836,-0.6245267391204834
1772725802477611500,0.484611572265625,8.874979019165039,4.211368083953857,-0.6628118753433228
1772725802487128600,0.494128662109375,8.82233715057373,4.18983268737793,-0.6843472719192505
1772725802496646000,0.50364599609375,8.80798053741455,4.137190341949463,-0.7537391185760498
1772725802506163000,0.513162841796875,8.831908226013184,4.101297855377197,-0.794417142868042
1772725802515680300,0.52268017578125,8.86780071258545,4.070191383361816,-0.7800601720809937
1772725802525197300,0.532197265625,8.93958568572998,4.07258415222168,-0.7322037220001221
1772725802534714600,0.541714599609375,9.008976936340332,4.084548473358154,-0.6939185857772827
1772725802544231700,0.551231689453125,9.013762474060059,4.1036906242370605,-0.6867401003837585
1772725802553749000,0.5607490234375,8.980263710021973,4.077369689941406,-0.6939185857772827
1772725802563266000,0.57026611328125,9.016156196594238,4.1036906242370605,-0.7441678643226624
1772725802572783000,0.579783203125,9.028120040893555,4.1419758796691895,-0.763310432434082
1772725802582300400,0.589300537109375,9.052047729492188,4.110869407653809,-0.7369893789291382
1772725802591817500,0.5988173828125,9.145368576049805,4.151547431945801,-0.727418065071106
1772725802601334800,0.608334716796875,9.22433090209961,4.185046672821045,-0.7417750358581543
1772725802610851800,0.617851806640625,9.238688468933105,4.146761417388916,-0.7226324677467346
1772725802620369000,0.627368896484375,9.207581520080566,4.101297855377197,-0.698704183101654
1772725802629886200,0.63688623046875,9.150154113769531,4.1491546630859375,-0.7345965504646301
1772725802639403300,0.6464033203125,9.087940216064453,4.18983268737793,-0.7345965504646301
1772725802648920600,0.655920654296875,9.090332984924316,4.187439441680908,-0.6939185857772827
1772725802658437600,0.665437744140625,9.123832702636719,4.168296813964844,-0.6149554252624512
1772725802667955000,0.674954833984375,9.162117958068848,4.182653903961182,-0.550349235534668
1772725802677472000,0.684471923828125,9.121439933776855,4.187439441680908,-0.5742774605751038
1772725802686989300,0.6939892578125,8.989834785461426,4.192225456237793,-0.6197410821914673
1772725802696506400,0.70350634765625,8.841479301452637,4.1970109939575195,-0.6963114142417908
1772725802706023400,0.7130234375,8.740981101989746,4.232903480529785,-0.7465606927871704
1772725802715540700,0.722540771484375,8.717052459716797,4.235296249389648,-0.7345965504646301
1772725802725057800,0.732057861328125,8.72901725769043,4.218546390533447,-0.6891329288482666
1772725802734575000,0.7415751953125,8.812766075134277,4.213760852813721,-0.6771687865257263
1772725802744092200,0.751092041015625,8.872586250305176,4.201796531677246,-0.6460621356964111
1772725802753609200,0.760609130859375,8.898907661437988,4.177868366241455,-0.6125625967979431
1772725802763126500,0.77012646484375,8.882157325744629,4.168296813964844,-0.672383189201355
1772725802772643600,0.7796435546875,8.884550094604492,4.1491546630859375,-0.7657032608985901
1772725802782161000,0.789160888671875,8.882157325744629,4.094119548797607,-0.8087740540504456
1772725802791678000,0.798677978515625,8.846264839172363,4.110869407653809,-0.7872386574745178
1772725802801195300,0.8081953125,8.925228118896484,4.137190341949463,-0.763310432434082
1772725802810712300,0.81771240234375,9.056833267211914,4.1419758796691895,-0.7034898400306702
1772725802820229600,0.827229736328125,9.140582084655762,4.146761417388916,-0.6963114142417908
1772725802829746700,0.83674658203125,9.21715259552002,4.158725738525391,-0.6795616149902344
1772725802839263700,0.846263671875,9.272188186645508,4.132404804229736,-0.7058826684951782
1772725802848781000,0.855781005859375,9.267401695251465,4.1419758796691895,-0.7680960893630981
1772725802858298000,0.865298095703125,9.274580955505371,4.1491546630859375,-0.763310432434082
1772725802867815400,0.8748154296875,9.219545364379883,4.113262176513672,-0.7010970115661621
1772725802877332500,0.88433251953125,9.138189315795898,4.091726779937744,-0.6101697683334351
1772725802886849500,0.893849609375,9.056833267211914,4.1491546630859375,-0.5814558863639832
1772725802896366800,0.903366943359375,9.025727272033691,4.187439441680908,-0.5623133182525635
1772725802905884000,0.9128837890625,9.001798629760742,4.201796531677246,-0.5670989751815796
1772725802915401000,0.92240087890625,8.994620323181152,4.2281174659729,-0.6221339106559753
1772725802924918300,0.931918212890625,8.906085968017578,4.218546390533447,-0.605384111404419
1772725802934435300,0.941435302734375,8.841479301452637,4.216153621673584,-0.5982056856155396
1772725802943952600,0.95095263671875,8.80798053741455,4.244867324829102,-0.6221339106559753
1772725802953470000,0.960469970703125,8.846264839172363,4.261617183685303,-0.5838487148284912
1772725802962987000,0.969987060546875,8.824729919433594,4.1970109939575195,-0.519242525100708
1772725802972504300,0.97950439453125,8.810373306274414,4.185046672821045,-0.48813581466674805
1772725802982021400,0.989021484375,8.85344409942627,4.232903480529785,-0.550349235534668
1772725802991538400,0.998538330078125,8.882157325744629,4.218546390533447,-0.576670229434967
1772725803001055700,1.0080556640625,8.925228118896484,4.204189300537109,-0.6125625967979431
1772725803010572800,1.01757275390625,8.937192916870117,4.177868366241455,-0.6484549641609192
1772725803020090000,1.027090087890625,8.95394229888916,4.1491546630859375,-0.641276478767395
1772725803029607200,1.036607177734375,9.035298347473145,4.175475597381592,-0.607776939868927
1772725803039124200,1.046124267578125,9.09990406036377,4.192225456237793,-0.5982056856155396
1772725803048641500,1.0556416015625,9.142974853515625,4.130012035369873,-0.5647061467170715
1772725803058158600,1.06515869140625,9.150154113769531,4.137190341949463,-0.5670989751815796
1772725803067675600,1.074675537109375,9.097511291503906,4.158725738525391,-0.5886343717575073
1772725803077193000,1.08419287109375,9.06401252746582,4.151547431945801,-0.6149554252624512
1772725803086710000,1.0937099609375,9.018548965454102,4.1659040451049805,-0.6197410821914673
1772725803096227300,1.103227294921875,9.040083885192871,4.175475597381592,-0.6628118753433228
1772725803105744600,1.11274462890625,9.087940216064453,4.201796531677246,-0.729810893535614
1772725803115261700,1.12226171875,9.075976371765137,4.158725738525391,-0.7513462901115417
1772725803124778800,1.13177880859375,9.087940216064453,4.1347975730896,-0.7441678643226624
1772725803134296000,1.141296142578125,9.066405296325684,4.125226020812988,-0.7393822073936462
1772725803143813000,1.150813232421875,9.044869422912598,4.115654945373535,-0.7393822073936462
1772725803153330400,1.160330322265625,9.001798629760742,4.120440483093262,-0.7465606927871704
1772725803162847500,1.169847412109375,9.05444049835205,4.132404804229736,-0.7393822073936462
1772725803172364500,1.179364501953125,9.126225471496582,4.125226020812988,-0.6843472719192505
1772725803181881900,1.1888818359375,9.090332984924316,4.110869407653809,-0.638883650302887
1772725803191399000,1.19839892578125,8.989834785461426,4.077369689941406,-0.6173482537269592
1772725803200916200,1.207916259765625,8.949156761169434,4.098905086517334,-0.6867401003837585
1772725803210433300,1.217433349609375,9.008976936340332,4.122833251953125,-0.727418065071106
1772725803219950300,1.226950439453125,9.011369705200195,4.153940200805664,-0.672383189201355
1772725803229467600,1.236467529296875,8.975478172302246,4.1491546630859375,-0.6197410821914673
1772725803238984700,1.245984619140625,8.927620887756348,4.168296813964844,-0.576670229434967
1772725803248502000,1.255501953125,8.889336585998535,4.2209391593933105,-0.5958128571510315
1772725803258019000,1.26501904296875,8.886942863464355,4.242474555969238,-0.6029912829399109
1772725803267536400,1.274536376953125,8.95394229888916,4.218546390533447,-0.5958128571510315
1772725803277053400,1.284053466796875,8.975478172302246,4.201796531677246,-0.5312066078186035
1772725803286570800,1.29357080078125,8.93240737915039,4.18983268737793,-0.5072783827781677
1772725803296087800,1.303087890625,8.941978454589844,4.230510234832764,-0.5718846321105957
1772725803305604900,1.31260498046875,8.980263710021973,4.242474555969238,-0.6340979933738708
1772725803315122200,1.3221220703125,9.008976936340332,4.168296813964844,-0.5982056856155396
1772725803324639200,1.33163916015625,9.047262191772461,4.12761926651001,-0.576670229434967
1772725803334156500,1.341156494140625,9.080761909484863,4.122833251953125,-0.6005984544754028
1772725803343673600,1.350673583984375,9.08554744720459,4.1419758796691895,-0.6436693072319031
1772725803353190700,1.360190673828125,9.09272575378418,4.118047714233398,-0.638883650302887
1772725803362708000,1.3697080078125,9.073583602905273,4.1347975730896,-0.7034898400306702
1772725803372225000,1.37922509765625,9.044869422912598,4.137190341949463,-0.7393822073936462
1772725803381742300,1.388742431640625,9.013762474060059,4.110869407653809,-0.729810893535614
1772725803391259400,1.39825927734375,8.989834785461426,4.115654945373535,-0.7417750358581543
1772725803400776700,1.407776611328125,8.989834785461426,4.12761926651001,-0.7369893789291382
1772725803410293800,1.417293701171875,8.9850492477417,4.130012035369873,-0.760917603969574
1772725803419811000,1.42681103515625,9.016156196594238,4.1347975730896,-0.7561319470405579
1772725803429328100,1.436328125,9.073583602905273,4.158725738525391,-0.7082754969596863
1772725803438845200,1.44584521484375,9.056833267211914,4.120440483093262,-0.6747759580612183
1772725803448362500,1.455362548828125,9.001798629760742,4.108476638793945,-0.6340979933738708
1772725803457879600,1.464879638671875,8.910871505737305,4.137190341949463,-0.6508477330207825
1772725803467396900,1.47439697265625,8.886942863464355,4.182653903961182,-0.672383189201355
1772725803476914000,1.483913818359375,8.874979019165039,4.175475597381592,-0.6963114142417908
1772725803486431000,1.493430908203125,8.870193481445312,4.177868366241455,-0.6508477330207825
1772725803495948300,1.5029482421875,8.884550094604492,4.18983268737793,-0.6460621356964111
1772725803505465300,1.51246533203125,8.86780071258545,4.180261135101318,-0.6173482537269592
1772725803514982700,1.521982666015625,8.851051330566406,4.177868366241455,-0.5982056856155396
1772725803524499700,1.531499755859375,8.891729354858398,4.168296813964844,-0.5814558863639832
1772725803534017000,1.54101708984375,9.044869422912598,4.177868366241455,-0.5264210104942322
1772725803543534000,1.5505341796875,9.123832702636719,4.158725738525391,-0.48574298620224
1772725803553051400,1.560051513671875,9.128618240356445,4.1491546630859375,-0.45224347710609436
1772725803562568400,1.569568359375,9.140582084655762,4.201796531677246,-0.5072783827781677
1772725803572085500,1.57908544921875,9.107083320617676,4.208974838256836,-0.5790630578994751
1772725803581602800,1.588602783203125,9.121439933776855,4.199403762817383,-0.5958128571510315
1772725803591120000,1.598119873046875,9.193224906921387,4.187439441680908,-0.6364908218383789
1772725803600637200,1.60763720703125,9.236295700073242,4.1659040451049805,-0.6580262184143066
1772725803610154200,1.617154296875,9.1716890335083,4.144368648529053,-0.6221339106559753
1772725803619671300,1.62667138671875,9.095118522644043,4.1419758796691895,-0.6269195079803467
1772725803629188600,1.636188720703125,9.037691116333008,4.153940200805664,-0.6364908218383789
1772725803638705700,1.64570556640625,8.980263710021973,4.130012035369873,-0.6628118753433228
1772725803648223000,1.655222900390625,8.956335067749023,4.106083869934082,-0.6628118753433228
1772725803657740000,1.664739990234375,8.987442016601562,4.110869407653809,-0.7034898400306702
1772725803667257300,1.67425732421875,8.999405860900879,4.094119548797607,-0.7322037220001221
1772725803676774400,1.6837744140625,9.004191398620605,4.096512317657471,-0.729810893535614
1772725803686291700,1.693291748046875,8.944371223449707,4.094119548797607,-0.698704183101654
1772725803695808800,1.702808837890625,8.930013656616211,4.106083869934082,-0.6891329288482666
1772725803705325800,1.712325927734375,8.882157325744629,4.139583110809326,-0.6675975322723389
1772725803714843100,1.721843017578125,8.86780071258545,4.156332969665527,-0.6173482537269592
1772725803724360200,1.731360107421875,8.903693199157715,4.156332969665527,-0.5838487148284912
1772725803733877500,1.74087744140625,9.011369705200195,4.216153621673584,-0.6101697683334351
1772725803743394600,1.75039453125,9.047262191772461,4.194618225097656,-0.607776939868927
1772725803752911600,1.75991162109375,9.047262191772461,4.132404804229736,-0.5647061467170715
1772725803762429000,1.769428955078125,9.023334503173828,4.1347975730896,-0.5623133182525635
1772725803771946000,1.778946044921875,9.018548965454102,4.158725738525391,-0.5742774605751038
1772725803781463300,1.78846337890625,9.008976936340332,4.18983268737793,-0.5623133182525635
1772725803790980400,1.79798046875,8.958727836608887,4.177868366241455,-0.5623133182525635
1772725803800497700,1.80749755859375,8.930013656616211,4.187439441680908,-0.5742774605751038
1772725803810014700,1.8170146484375,8.95394229888916,4.194618225097656,-0.6029912829399109
1772725803819532000,1.826531982421875,9.018548965454102,4.170690059661865,-0.6340979933738708
1772725803829049000,1.836049072265625,9.07119083404541,4.132404804229736,-0.6771687865257263
1772725803838566100,1.845566162109375,9.107083320617676,4.0797624588012695,-0.6795616149902344
1772725803848083500,1.85508349609375,9.111868858337402,4.0558342933654785,-0.6939185857772827
1772725803857600500,1.8646005859375,9.119047164916992,4.034298896789551,-0.7058826684951782
1772725803867117800,1.874117919921875,9.109476089477539,4.048655986785889,-0.7226324677467346
1772725803876635000,1.883634765625,9.135796546936035,4.053441524505615,-0.727418065071106
1772725803886152000,1.89315185546875,9.133403778076172,4.0558342933654785,-0.7082754969596863
1772725803895669200,1.902669189453125,9.123832702636719,4.1036906242370605,-0.7202396392822266
1772725803905186300,1.912186279296875,9.042476654052734,4.101297855377197,-0.7154539823532104
1772725803914703600,1.92170361328125,8.970691680908203,4.137190341949463,-0.7226324677467346
1772725803924220700,1.931220703125,8.93240737915039,4.163511276245117,-0.6221339106559753
1772725803933737700,1.94073779296875,8.908478736877441,4.130012035369873,-0.6005984544754028
1772725803943255000,1.950255126953125,8.884550094604492,4.1491546630859375,-0.5359922647476196
1772725803952772400,1.9597724609375,8.913264274597168,4.168296813964844,-0.5264210104942322
1772725803962289400,1.969289306640625,8.975478172302246,4.218546390533447,-0.48574298620224
1772725803971806500,1.978806396484375,9.004191398620605,4.208974838256836,-0.4785645306110382
1772725803981323800,1.98832373046875,8.992227554321289,4.199403762817383,-0.4498506486415863
1772725803990840800,1.9978408203125,9.05444049835205,4.180261135101318,-0.47617170214653015
1772725804000358100,2.007358154296875,9.121439933776855,4.18983268737793,-0.519242525100708
1772725804009875200,2.016875244140625,9.221938133239746,4.132404804229736,-0.5479564070701599
1772725804019392300,2.026392333984375,9.267401695251465,4.096512317657471,-0.5264210104942322
1772725804028909600,2.03590966796875,9.262616157531738,4.098905086517334,-0.5335994362831116
1772725804038426600,2.045426513671875,9.186046600341797,4.110869407653809,-0.5455635786056519
1772725804047944000,2.05494384765625,9.07119083404541,4.12761926651001,-0.5958128571510315
1772725804057461000,2.0644609375,8.963513374328613,4.156332969665527,-0.6340979933738708
1772725804066978000,2.07397802734375,8.891729354858398,4.1347975730896,-0.6891329288482666
1772725804076495400,2.083495361328125,8.901300430297852,4.146761417388916,-0.7441678643226624
1772725804086012400,2.093012451171875,8.949156761169434,4.153940200805664,-0.7417750358581543
1772725804095529700,2.10252978515625,8.965906143188477,4.137190341949463,-0.7345965504646301
1772725804105047000,2.112047119140625,8.94676399230957,4.089334011077881,-0.6771687865257263
1772725804114564000,2.121564208984375,8.920442581176758,4.074976921081543,-0.6221339106559753
1772725804124081200,2.1310810546875,8.882157325744629,4.067798614501953,-0.6149554252624512
1772725804133598500,2.140598388671875,8.941978454589844,4.067798614501953,-0.5814558863639832
1772725804143115500,2.150115478515625,8.973084449768066,4.089334011077881,-0.5742774605751038
1772725804152632600,2.159632568359375,9.018548965454102,4.106083869934082,-0.576670229434967
1772725804162150000,2.16914990234375,9.013762474060059,4.094119548797607,-0.6245267391204834
1772725804171667000,2.1786669921875,9.011369705200195,4.113262176513672,-0.6652047038078308
1772725804181184300,2.188184326171875,9.016156196594238,4.132404804229736,-0.6771687865257263
1772725804190701300,2.197701416015625,8.999405860900879,4.156332969665527,-0.6460621356964111
1772725804200218400,2.20721826171875,8.999405860900879,4.175475597381592,-0.6125625967979431
1772725804209735700,2.216735595703125,9.023334503173828,4.1730828285217285,-0.6245267391204834
1772725804219252700,2.226252685546875,9.042476654052734,4.1491546630859375,-0.5814558863639832
1772725804228770000,2.23577001953125,9.035298347473145,4.122833251953125,-0.5455635786056519
1772725804238287000,2.245287109375,9.06401252746582,4.106083869934082,-0.5479564070701599
1772725804247804400,2.254804443359375,9.08554744720459,4.108476638793945,-0.5718846321105957
1772725804257321500,2.264321533203125,9.104690551757812,4.058227062225342,-0.5982056856155396
1772725804266838800,2.2738388671875,9.09272575378418,4.070191383361816,-0.5934200286865234
1772725804276355800,2.28335595703125,9.07119083404541,4.053441524505615,-0.5814558863639832
1772725804285873000,2.292872802734375,9.05444049835205,4.07258415222168,-0.6173482537269592
1772725804295390200,2.30239013671875,9.066405296325684,4.082155227661133,-0.607776939868927
1772725804304907300,2.3119072265625,9.080761909484863,4.110869407653809,-0.6101697683334351
1772725804314424600,2.321424560546875,9.025727272033691,4.091726779937744,-0.5718846321105957
1772725804323941600,2.330941650390625,9.08554744720459,4.106083869934082,-0.6005984544754028
1772725804333458700,2.340458740234375,9.095118522644043,4.1036906242370605,-0.6173482537269592
1772725804342976000,2.34997607421875,9.109476089477539,4.084548473358154,-0.6317051649093628
1772725804352493000,2.3594931640625,9.08554744720459,4.077369689941406,-0.6340979933738708
1772725804362010400,2.36901025390625,9.080761909484863,4.089334011077881,-0.6604190468788147
1772725804371527400,2.37852734375,9.090332984924316,4.086941242218018,-0.6747759580612183
1772725804381044700,2.388044677734375,9.049654960632324,4.077369689941406,-0.6628118753433228
1772725804390561800,2.397561767578125,9.013762474060059,4.082155227661133,-0.6317051649093628
1772725804400079000,2.4070791015625,9.044869422912598,4.098905086517334,-0.6532405614852905
1772725804409596200,2.41659619140625,9.042476654052734,4.108476638793945,-0.6149554252624512
1772725804419113200,2.42611328125,9.047262191772461,4.077369689941406,-0.5407779216766357
1772725804428630500,2.435630615234375,9.083154678344727,4.113262176513672,-0.47617170214653015
1772725804438147600,2.445147705078125,9.107083320617676,4.125226020812988,-0.48574298620224
1772725804447664600,2.45466455078125,9.090332984924316,4.1036906242370605,-0.48574298620224
1772725804457182000,2.464181884765625,9.07119083404541,4.110869407653809,-0.5240281820297241
1772725804466699000,2.473698974609375,9.040083885192871,4.091726779937744,-0.5838487148284912
1772725804476216300,2.48321630859375,8.975478172302246,4.101297855377197,-0.605384111404419
1772725804485733400,2.4927333984375,8.906085968017578,4.122833251953125,-0.6125625967979431
1772725804495250700,2.502250732421875,8.848658561706543,4.163511276245117,-0.6508477330207825
1772725804504767700,2.511767822265625,8.851051330566406,4.158725738525391,-0.6436693072319031
1772725804514285000,2.52128515625,8.918049812316895,4.146761417388916,-0.6173482537269592
1772725804523802000,2.530802001953125,8.9850492477417,4.084548473358154,-0.5814558863639832
1772725804533319400,2.5403193359375,9.001798629760742,4.039084434509277,-0.5982056856155396
1772725804542836500,2.54983642578125,8.982656478881836,4.015156269073486,-0.6125625967979431
1772725804552353500,2.559353515625,9.011369705200195,4.005585193634033,-0.6245267391204834
1772725804561870800,2.568870849609375,9.107083320617676,3.9768712520599365,-0.6197410821914673
1772725804571388000,2.578387939453125,9.20279598236084,3.972085475921631,-0.6340979933738708
1772725804580905200,2.5879052734375,9.248259544372559,3.9936211109161377,-0.5838487148284912
1772725804590422300,2.59742236328125,9.198010444641113,4.036691665649414,-0.6029912829399109
1772725804599939300,2.606939208984375,9.152546882629395,4.070191383361816,-0.6005984544754028
1772725804609456600,2.61645654296875,9.142974853515625,4.110869407653809,-0.5982056856155396
1772725804618973700,2.6259736328125,9.10229778289795,4.130012035369873,-0.5886343717575073
1772725804628491000,2.635490966796875,9.08554744720459,4.091726779937744,-0.5551348328590393
1772725804638008000,2.645008056640625,9.052047729492188,4.132404804229736,-0.48574298620224
1772725804647525000,2.654525146484375,9.035298347473145,4.115654945373535,-0.5000999569892883
1772725804657042400,2.66404248046875,9.016156196594238,4.113262176513672,-0.519242525100708
1772725804666559700,2.673559814453125,8.94676399230957,4.120440483093262,-0.5096712112426758
1772725804676076800,2.683076904296875,8.965906143188477,4.1347975730896,-0.5599204897880554
1772725804685593900,2.69259375,9.011369705200195,4.144368648529053,-0.5886343717575073
1772725804695111200,2.702111083984375,9.061619758605957,4.098905086517334,-0.5599204897880554
1772725804704628200,2.711628173828125,9.128618240356445,4.060619831085205,-0.5431707501411438
1772725804714145500,2.7211455078125,9.142974853515625,4.053441524505615,-0.5335994362831116
1772725804723662600,2.73066259765625,9.126225471496582,4.051048755645752,-0.5599204897880554
1772725804733179600,2.7401796875,9.09990406036377,4.058227062225342,-0.5886343717575073
1772725804742697000,2.749697021484375,9.030512809753418,4.060619831085205,-0.6005984544754028
1772725804752214000,2.759214111328125,8.973084449768066,4.058227062225342,-0.6460621356964111
1772725804761731300,2.7687314453125,8.930013656616211,4.084548473358154,-0.6915257573127747
1772725804771248400,2.778248291015625,8.86780071258545,4.0558342933654785,-0.7106683254241943
1772725804780765400,2.787765380859375,8.889336585998535,4.074976921081543,-0.7250252366065979
1772725804790282800,2.79728271484375,8.963513374328613,4.070191383361816,-0.6747759580612183
1772725804799799800,2.8067998046875,9.018548965454102,4.074976921081543,-0.6436693072319031
1772725804809317000,2.816317138671875,9.040083885192871,4.063013076782227,-0.607776939868927
1772725804818834200,2.825834228515625,9.030512809753418,4.053441524505615,-0.5814558863639832
1772725804828351500,2.8353515625,9.052047729492188,4.084548473358154,-0.5527420043945312
1772725804837868500,2.84486865234375,9.128618240356445,4.113262176513672,-0.519242525100708
1772725804847385900,2.8543857421875,9.198010444641113,4.091726779937744,-0.5216353535652161
1772725804856903000,2.86390283203125,9.166903495788574,4.074976921081543,-0.5144568681716919
1772725804866420000,2.873419921875,9.152546882629395,4.086941242218018,-0.5599204897880554
1772725804875937300,2.882937255859375,9.17886734008789,4.130012035369873,-0.5958128571510315
1772725804885454300,2.892454345703125,9.152546882629395,4.132404804229736,-0.605384111404419
1772725804894971600,2.9019716796875,9.119047164916992,4.115654945373535,-0.5527420043945312
1772725804904488700,2.91148876953125,9.10229778289795,4.110869407653809,-0.5359922647476196
1772725804914005800,2.921005859375,9.090332984924316,4.110869407653809,-0.5623133182525635
1772725804923523000,2.930523193359375,9.10229778289795,4.122833251953125,-0.5838487148284912
1772725804933040000,2.9400400390625,9.035298347473145,4.101297855377197,-0.5814558863639832
1772725804942557400,2.949557373046875,8.941978454589844,4.077369689941406,-0.6245267391204834
1772725804952074500,2.959074462890625,8.925228118896484,4.122833251953125,-0.6245267391204834
1772725804961591800,2.968591796875,8.94676399230957,4.113262176513672,-0.6293123364448547
1772725804971108900,2.97810888671875,9.06401252746582,4.120440483093262,-0.6245267391204834
1772725804980626200,2.987626220703125,9.111868858337402,4.122833251953125,-0.5623133182525635
1772725804990143200,2.997143310546875,9.114261627197266,4.084548473358154,-0.5335994362831116
1772725804999660300,3.006660400390625,9.042476654052734,4.084548473358154,-0.5312066078186035
1772725805009177600,3.016177490234375,9.011369705200195,4.108476638793945,-0.5838487148284912
1772725805018694700,3.025694580078125,8.963513374328613,4.1347975730896,-0.5958128571510315
1772725805028211700,3.035211669921875,8.982656478881836,4.146761417388916,-0.6460621356964111
1772725805037729000,3.04472900390625,8.980263710021973,4.137190341949463,-0.6484549641609192
1772725805047246000,3.05424609375,8.992227554321289,4.125226020812988,-0.6484549641609192
1772725805056763400,3.063763427734375,9.032905578613281,4.082155227661133,-0.6125625967979431
1772725805066280400,3.073280517578125,9.035298347473145,4.07258415222168,-0.5958128571510315
1772725805075797800,3.0827978515625,9.020941734313965,4.063013076782227,-0.6005984544754028
1772725805085314800,3.092314697265625,9.008976936340332,4.077369689941406,-0.6245267391204834
1772725805094832000,3.10183203125,8.97787094116211,4.0797624588012695,-0.6340979933738708
1772725805104349200,3.11134912109375,9.001798629760742,4.1036906242370605,-0.5886343717575073
1772725805113866200,3.1208662109375,9.056833267211914,4.130012035369873,-0.605384111404419
1772725805123383600,3.130383544921875,9.126225471496582,4.139583110809326,-0.5814558863639832
1772725805132900600,3.139900634765625,9.138189315795898,4.094119548797607,-0.5910272002220154
1772725805142418000,3.14941796875,9.150154113769531,4.1036906242370605,-0.576670229434967
1772725805151935000,3.15893505859375,9.111868858337402,4.101297855377197,-0.5814558863639832
1772725805161452300,3.168452392578125,9.06401252746582,4.12761926651001,-0.5455635786056519
1772725805170969300,3.17796923828125,9.001798629760742,4.125226020812988,-0.5599204897880554
1772725805180486400,3.187486328125,8.920442581176758,4.1347975730896,-0.607776939868927
1772725805190003700,3.197003662109375,8.8438720703125,4.151547431945801,-0.6508477330207825
1772725805199520800,3.206520751953125,8.810373306274414,4.153940200805664,-0.6269195079803467
1772725805209038000,3.2160380859375,8.886942863464355,4.161118507385254,-0.641276478767395
1772725805218555100,3.22555517578125,8.987442016601562,4.1347975730896,-0.6221339106559753
1772725805228072400,3.235072509765625,9.011369705200195,4.07258415222168,-0.5982056856155396
1772725805237589500,3.244589599609375,9.030512809753418,4.041477680206299,-0.5551348328590393
1772725805247106800,3.25410693359375,9.061619758605957,4.07258415222168,-0.5814558863639832
1772725805256623900,3.263623779296875,9.087940216064453,4.051048755645752,-0.5670989751815796
1772725805266141000,3.273140869140625,9.128618240356445,4.051048755645752,-0.5479564070701599
1772725805275658200,3.282658203125,9.157332420349121,4.060619831085205,-0.5599204897880554
1772725805285175300,3.29217529296875,9.186046600341797,4.113262176513672,-0.6436693072319031
1772725805294692600,3.301692626953125,9.176474571228027,4.113262176513672,-0.6891329288482666
1772725805304209700,3.311209716796875,9.119047164916992,4.084548473358154,-0.7417750358581543
1772725805313726700,3.320726806640625,9.020941734313965,4.1419758796691895,-0.7058826684951782
1772725805323244000,3.330244140625,8.989834785461426,4.158725738525391,-0.6604190468788147
1772725805332761000,3.339760986328125,9.047262191772461,4.175475597381592,-0.6125625967979431
1772725805342278400,3.3492783203125,9.08554744720459,4.151547431945801,-0.5312066078186035
1772725805351795500,3.35879541015625,9.121439933776855,4.122833251953125,-0.49292147159576416
1772725805361312800,3.368312744140625,9.123832702636719,4.137190341949463,-0.5096712112426758
1772725805370829800,3.377829833984375,9.068798065185547,4.113262176513672,-0.5431707501411438
1772725805380347100,3.38734716796875,9.016156196594238,4.096512317657471,-0.5623133182525635
1772725805389864200,3.3968642578125,8.989834785461426,4.098905086517334,-0.5934200286865234
1772725805399381200,3.40638134765625,8.997013092041016,4.091726779937744,-0.6005984544754028
1772725805408898600,3.415898681640625,9.032905578613281,4.07258415222168,-0.6221339106559753
1772725805418415600,3.42541552734375,9.023334503173828,4.0797624588012695,-0.6245267391204834
1772725805427933000,3.434932861328125,9.025727272033691,4.074976921081543,-0.6149554252624512
1772725805437450000,3.444449951171875,8.999405860900879,4.043870449066162,-0.6245267391204834
1772725805446967000,3.453967041015625,8.930013656616211,4.058227062225342,-0.6532405614852905
1772725805456484400,3.463484375,8.93958568572998,4.074976921081543,-0.6604190468788147
1772725805466001400,3.47300146484375,8.951549530029297,4.077369689941406,-0.6675975322723389
1772725805475518500,3.4825185546875,8.989834785461426,4.089334011077881,-0.6675975322723389
1772725805485035800,3.492035888671875,9.001798629760742,4.130012035369873,-0.6317051649093628
1772725805494552800,3.501552734375,9.018548965454102,4.118047714233398,-0.6005984544754028
1772725805504070100,3.511070068359375,9.030512809753418,4.1036906242370605,-0.5742774605751038
1772725805513587500,3.52058740234375,9.047262191772461,4.108476638793945,-0.5168496966362
1772725805523104500,3.5301044921875,9.075976371765137,4.089334011077881,-0.5000999569892883
1772725805532621600,3.53962158203125,9.10229778289795,4.108476638793945,-0.48813581466674805
1772725805542139000,3.549138916015625,9.147761344909668,4.118047714233398,-0.5000999569892883
1772725805551656000,3.558656005859375,9.145368576049805,4.12761926651001,-0.5024927258491516
1772725805561173200,3.56817333984375,9.109476089477539,4.070191383361816,-0.5335994362831116
1772725805570690300,3.577690185546875,9.061619758605957,4.101297855377197,-0.550349235534668
1772725805580207400,3.587207275390625,9.023334503173828,4.115654945373535,-0.6005984544754028
1772725805589724700,3.596724609375,9.032905578613281,4.113262176513672,-0.641276478767395
1772725805599241700,3.60624169921875,9.001798629760742,4.113262176513672,-0.6580262184143066
1772725805608758800,3.6157587890625,8.96829891204834,4.1036906242370605,-0.6245267391204834
1772725805618276000,3.625276123046875,8.975478172302246,4.108476638793945,-0.6149554252624512
1772725805627793200,3.634793212890625,8.956335067749023,4.108476638793945,-0.6125625967979431
1772725805637310500,3.644310546875,9.052047729492188,4.070191383361816,-0.6125625967979431
1772725805646827500,3.65382763671875,9.131011009216309,4.084548473358154,-0.5862415432929993
1772725805656344800,3.6633447265625,9.133403778076172,4.048655986785889,-0.5934200286865234
1772725805665862000,3.67286181640625,9.087940216064453,4.060619831085205,-0.5838487148284912
1772725805675379200,3.682379150390625,9.066405296325684,4.096512317657471,-0.5958128571510315
1772725805684896300,3.691896240234375,9.047262191772461,4.108476638793945,-0.6005984544754028
1772725805694413300,3.701413330078125,9.040083885192871,4.137190341949463,-0.5694918036460876
1772725805703930600,3.7109306640625,9.056833267211914,4.113262176513672,-0.5527420043945312
1772725805713447700,3.72044775390625,9.138189315795898,4.139583110809326,-0.5527420043945312
1772725805722965000,3.729965087890625,9.186046600341797,4.12761926651001,-0.5694918036460876
1772725805732482000,3.73948193359375,9.131011009216309,4.082155227661133,-0.5527420043945312
1772725805741999000,3.7489990234375,9.075976371765137,4.0558342933654785,-0.5407779216766357
1772725805751516400,3.758516357421875,9.013762474060059,4.084548473358154,-0.5694918036460876
1772725805761033500,3.768033447265625,8.973084449768066,4.113262176513672,-0.5862415432929993
1772725805770550800,3.77755078125,8.97787094116211,4.12761926651001,-0.5479564070701599
1772725805780067800,3.78706787109375,8.997013092041016,4.125226020812988,-0.5575276613235474
1772725805789585200,3.796585205078125,8.9850492477417,4.113262176513672,-0.5694918036460876
1772725805799102200,3.806102294921875,8.93958568572998,4.07258415222168,-0.5551348328590393
1772725805808619500,3.81561962890625,8.918049812316895,4.060619831085205,-0.5670989751815796
1772725805818136600,3.825136474609375,8.937192916870117,4.082155227661133,-0.5934200286865234
1772725805827653600,3.834653564453125,8.989834785461426,4.048655986785889,-0.6101697683334351
1772725805837171000,3.8441708984375,9.030512809753418,4.058227062225342,-0.5958128571510315
1772725805846688000,3.85368798828125,9.073583602905273,4.051048755645752,-0.5838487148284912
1772725805856205300,3.863205322265625,9.052047729492188,4.0319061279296875,-0.5886343717575073
1772725805865722400,3.872722412109375,9.044869422912598,4.036691665649414,-0.6173482537269592
1772725805875239400,3.882239501953125,9.059226989746094,4.022335052490234,-0.6149554252624512
1772725805884756700,3.8917568359375,9.068798065185547,4.051048755645752,-0.6532405614852905
1772725805894273800,3.901273681640625,9.049654960632324,4.060619831085205,-0.6819544434547424
1772725805903791000,3.910791015625,9.061619758605957,4.074976921081543,-0.7010970115661621
1772725805913308200,3.92030810546875,9.008976936340332,4.098905086517334,-0.6771687865257263
1772725805922825500,3.929825439453125,8.963513374328613,4.110869407653809,-0.6532405614852905
1772725805932342500,3.939342529296875,8.934800148010254,4.120440483093262,-0.6101697683334351
1772725805941859800,3.94885986328125,9.037691116333008,4.137190341949463,-0.6173482537269592
1772725805951377000,3.958376953125,9.183652877807617,4.137190341949463,-0.6029912829399109
1772725805960894000,3.96789404296875,9.291330337524414,4.077369689941406,-0.4953143000602722
1772725805970411300,3.977411376953125,9.315258979797363,4.067798614501953,-0.4307080805301666
1772725805979928300,3.98692822265625,9.308079719543457,4.053441524505615,-0.41156548261642456
1772725805989445600,3.996445556640625,9.315258979797363,4.067798614501953,-0.46420758962631226
1772725805998962700,4.005962646484375,9.265008926391602,4.077369689941406,-0.4977070987224579
1772725806008479700,4.015479736328125,9.214759826660156,4.06540584564209,-0.5312066078186035
1772725806017997000,4.0249970703125,9.111868858337402,4.074976921081543,-0.5407779216766357
1772725806027514000,4.03451416015625,9.008976936340332,4.098905086517334,-0.5455635786056519
1772725806037031400,4.044031494140625,8.970691680908203,4.108476638793945,-0.5288137793540955
1772725806046548500,4.053548583984375,8.975478172302246,4.12761926651001,-0.47617170214653015
1772725806056065500,4.0630654296875,8.951549530029297,4.108476638793945,-0.4426721930503845
1772725806065582800,4.072582763671875,8.915657043457031,4.12761926651001,-0.4331009089946747
1772725806075100200,4.08210009765625,8.865407943725586,4.120440483093262,-0.4666004180908203
1772725806084617200,4.0916171875,8.86780071258545,4.1347975730896,-0.5144568681716919
1772725806094134300,4.10113427734375,8.898907661437988,4.125226020812988,-0.5575276613235474
1772725806103651600,4.110651611328125,8.94676399230957,4.101297855377197,-0.5647061467170715
1772725806113168600,4.120168701171875,9.004191398620605,4.06540584564209,-0.5670989751815796
1772725806122685700,4.129685791015625,9.037691116333008,4.048655986785889,-0.550349235534668
1772725806132203000,4.139203125,9.09272575378418,4.041477680206299,-0.5479564070701599
1772725806141720000,4.148719970703125,9.140582084655762,4.034298896789551,-0.5694918036460876
1772725806151237400,4.1582373046875,9.133403778076172,4.005585193634033,-0.5862415432929993
1772725806160754400,4.16775439453125,9.126225471496582,4.022335052490234,-0.5862415432929993
1772725806170271500,4.177271484375,9.131011009216309,4.048655986785889,-0.6675975322723389
1772725806179788800,4.186788818359375,9.140582084655762,4.063013076782227,-0.6795616149902344
1772725806189305900,4.196305908203125,9.140582084655762,4.058227062225342,-0.6556333899497986
1772725806198823200,4.2058232421875,9.135796546936035,4.051048755645752,-0.6245267391204834
1772725806208340200,4.21534033203125,9.073583602905273,4.029513359069824,-0.5838487148284912
1772725806217857500,4.224857421875,9.032905578613281,4.015156269073486,-0.5264210104942322
1772725806227374600,4.23437451171875,8.992227554321289,4.0558342933654785,-0.5264210104942322
1772725806236892000,4.243891845703125,9.016156196594238,4.094119548797607,-0.5312066078186035
1772725806246409000,4.253408935546875,9.073583602905273,4.120440483093262,-0.550349235534668
1772725806255926300,4.26292626953125,9.104690551757812,4.094119548797607,-0.5144568681716919
1772725806265443300,4.272443359375,9.068798065185547,4.07258415222168,-0.4737788736820221
1772725806274960400,4.28196044921875,8.951549530029297,4.096512317657471,-0.4570291340351105
1772725806284477700,4.291477783203125,8.886942863464355,4.108476638793945,-0.5096712112426758
1772725806293994800,4.300994873046875,8.879764556884766,4.1491546630859375,-0.5168496966362
1772725806303511800,4.31051171875,8.874979019165039,4.12761926651001,-0.5575276613235474
1772725806313029000,4.320029052734375,8.886942863464355,4.1036906242370605,-0.5383850932121277
1772725806322546200,4.329546142578125,8.925228118896484,4.094119548797607,-0.5144568681716919
1772725806332063500,4.3390634765625,8.999405860900879,4.084548473358154,-0.5144568681716919
1772725806341580500,4.34858056640625,9.078369140625,4.051048755645752,-0.5096712112426758
1772725806351097900,4.358097900390625,9.114261627197266,4.0319061279296875,-0.4737788736820221
1772725806360615000,4.367614990234375,9.097511291503906,4.024727821350098,-0.4953143000602722
1772725806370132200,4.37713232421875,9.133403778076172,4.058227062225342,-0.5551348328590393
1772725806379649300,4.386649169921875,9.145368576049805,4.108476638793945,-0.6197410821914673
1772725806389166300,4.396166259765625,9.121439933776855,4.1036906242370605,-0.6245267391204834
1772725806398683600,4.40568359375,9.068798065185547,4.077369689941406,-0.6101697683334351
1772725806408200700,4.41520068359375,9.008976936340332,4.146761417388916,-0.6221339106559753
1772725806417718000,4.424718017578125,8.949156761169434,4.144368648529053,-0.5527420043945312
1772725806427235000,4.434235107421875,8.965906143188477,4.139583110809326,-0.5096712112426758
1772725806436752100,4.443752197265625,9.109476089477539,4.1970109939575195,-0.5383850932121277
1772725806446269400,4.45326953125,9.214759826660156,4.163511276245117,-0.5383850932121277
1772725806455786500,4.462786376953125,9.183652877807617,4.094119548797607,-0.5264210104942322
1772725806465303800,4.4723037109375,9.095118522644043,4.089334011077881,-0.5383850932121277
1772725806474820900,4.48182080078125,9.040083885192871,4.110869407653809,-0.6173482537269592
1772725806484338200,4.491338134765625,9.013762474060059,4.094119548797607,-0.6580262184143066
1772725806493855200,4.500855224609375,9.023334503173828,4.082155227661133,-0.6484549641609192
1772725806503372500,4.51037255859375,9.030512809753418,4.039084434509277,-0.607776939868927
1772725806512889600,4.5198896484375,9.035298347473145,4.029513359069824,-0.576670229434967
1772725806522406700,4.52940673828125,9.037691116333008,4.074976921081543,-0.5575276613235474
1772725806531924000,4.538924072265625,8.987442016601562,4.051048755645752,-0.5144568681716919
1772725806541441000,4.54844091796875,8.927620887756348,4.067798614501953,-0.5024927258491516
1772725806550958300,4.557958251953125,8.896514892578125,4.091726779937744,-0.5288137793540955
1772725806560475400,4.567475341796875,9.016156196594238,4.151547431945801,-0.5407779216766357
1772725806569992400,4.576992431640625,9.119047164916992,4.1491546630859375,-0.5288137793540955
1772725806579509800,4.586509765625,9.128618240356445,4.086941242218018,-0.4713860750198364
1772725806589026800,4.59602685546875,9.044869422912598,4.113262176513672,-0.4977070987224579
1772725806598544100,4.605544189453125,8.934800148010254,4.1730828285217285,-0.6173482537269592
1772725806608061200,4.615061279296875,8.894122123718262,4.156332969665527,-0.6628118753433228
1772725806617578500,4.62457861328125,8.901300430297852,4.151547431945801,-0.6675975322723389
1772725806627095600,4.634095458984375,8.958727836608887,4.151547431945801,-0.6675975322723389
1772725806636612900,4.64361279296875,9.013762474060059,4.122833251953125,-0.6580262184143066
1772725806646130000,4.6531298828125,9.083154678344727,4.070191383361816,-0.6173482537269592
1772725806655647000,4.66264697265625,9.157332420349121,4.027120590209961,-0.6029912829399109
1772725806665164300,4.672164306640625,9.229117393493652,4.015156269073486,-0.5718846321105957
1772725806674681300,4.681681396484375,9.257830619812012,4.01037073135376,-0.5599204897880554
1772725806684198700,4.69119873046875,9.22433090209961,4.027120590209961,-0.5910272002220154
1772725806693715700,4.7007158203125,9.212367057800293,4.063013076782227,-0.6101697683334351
1772725806703232800,4.710232666015625,9.164510726928711,4.089334011077881,-0.605384111404419
1772725806712750000,4.71975,9.083154678344727,4.091726779937744,-0.5623133182525635
1772725806722267100,4.72926708984375,8.992227554321289,4.122833251953125,-0.5144568681716919
1772725806731784200,4.7387841796875,9.013762474060059,4.1659040451049805,-0.5359922647476196
1772725806741301500,4.748301513671875,9.030512809753418,4.168296813964844,-0.5096712112426758
1772725806750818600,4.757818603515625,8.994620323181152,4.156332969665527,-0.47617170214653015
1772725806760336000,4.7673359375,8.93240737915039,4.1491546630859375,-0.5144568681716919
1772725806769853200,4.776853271484375,8.879764556884766,4.1491546630859375,-0.5479564070701599
1772725806779370200,4.786370361328125,8.913264274597168,4.151547431945801,-0.5383850932121277
1772725806788887300,4.79588720703125,8.980263710021973,4.120440483093262,-0.5144568681716919
1772725806798404600,4.805404541015625,9.05444049835205,4.115654945373535,-0.48574298620224
1772725806807921700,4.814921630859375,9.121439933776855,4.101297855377197,-0.49292147159576416
1772725806817438700,4.824438720703125,9.131011009216309,4.1036906242370605,-0.5168496966362
1772725806826956000,4.8339560546875,9.049654960632324,4.082155227661133,-0.5264210104942322
1772725806836473000,4.84347314453125,8.9850492477417,4.082155227661133,-0.5886343717575073
1772725806845990400,4.852990478515625,9.004191398620605,4.098905086517334,-0.6556333899497986
1772725806855507500,4.862507568359375,8.989834785461426,4.108476638793945,-0.6939185857772827
1772725806865024500,4.8720244140625,8.97787094116211,4.070191383361816,-0.6436693072319031
1772725806874541800,4.881541748046875,8.989834785461426,4.058227062225342,-0.5862415432929993
1772725806884059000,4.891058837890625,8.987442016601562,4.082155227661133,-0.5479564070701599
1772725806893576200,4.900576171875,9.028120040893555,4.089334011077881,-0.5455635786056519
1772725806903093200,4.91009326171875,9.095118522644043,4.082155227661133,-0.5168496966362
1772725806912610600,4.919610595703125,9.107083320617676,4.094119548797607,-0.5024927258491516
1772725806922127600,4.929127685546875,9.080761909484863,4.070191383361816,-0.5312066078186035
1772725806931645000,4.93864501953125,9.044869422912598,4.089334011077881,-0.5623133182525635
1772725806941162000,4.948161865234375,9.056833267211914,4.084548473358154,-0.5958128571510315
1772725806950679000,4.957678955078125,9.138189315795898,4.1036906242370605,-0.576670229434967
1772725806960196400,4.9671962890625,9.176474571228027,4.106083869934082,-0.5551348328590393
1772725806969713400,4.97671337890625,9.140582084655762,4.122833251953125,-0.4713860750198364
1772725806979230700,4.986230712890625,9.035298347473145,4.132404804229736,-0.4713860750198364
1772725806988747800,4.995747802734375,8.951549530029297,4.156332969665527,-0.5048855543136597
1772725806998264800,5.005264892578125,8.896514892578125,4.170690059661865,-0.5264210104942322
1772725807007782100,5.0147822265625,8.906085968017578,4.161118507385254,-0.5814558863639832
1772725807017299200,5.02429931640625,8.891729354858398,4.130012035369873,-0.5982056856155396
1772725807026816500,5.03381640625,8.894122123718262,4.089334011077881,-0.6628118753433228
1772725807036333600,5.04333349609375,8.879764556884766,4.053441524505615,-0.6364908218383789
1772725807045851000,5.052850830078125,8.872586250305176,4.000799655914307,-0.6364908218383789
1772725807055368000,5.062367919921875,8.913264274597168,3.9792640209198,-0.6340979933738708
1772725807064885200,5.07188525390625,8.949156761169434,4.039084434509277,-0.5838487148284912
1772725807074402300,5.08140234375,8.922835350036621,4.024727821350098,-0.5000999569892883
1772725807083919400,5.09091943359375,8.908478736877441,4.039084434509277,-0.4713860750198364
1772725807093436700,5.100436767578125,8.963513374328613,4.06540584564209,-0.5048855543136597
1772725807102953700,5.10995361328125,9.066405296325684,4.06540584564209,-0.5264210104942322
1772725807112471000,5.119470947265625,9.229117393493652,4.060619831085205,-0.5120640397071838
1772725807121988000,5.128988037109375,9.34875774383545,4.0319061279296875,-0.4570291340351105
1772725807131505200,5.138505126953125,9.382257461547852,4.022335052490234,-0.4163511395454407
1772725807141022500,5.1480224609375,9.343972206115723,4.0558342933654785,-0.4426721930503845
1772725807150539500,5.15753955078125,9.281759262084961,4.041477680206299,-0.4737788736820221
1772725807160056800,5.167056884765625,9.260223388671875,4.0797624588012695,-0.5000999569892883
1772725807169574000,5.176573974609375,9.193224906921387,4.067798614501953,-0.5048855543136597
1772725807179091200,5.18609130859375,9.20997428894043,4.110869407653809,-0.5479564070701599
1772725807188608300,5.195608154296875,9.233902931213379,4.144368648529053,-0.5407779216766357
1772725807198125600,5.20512548828125,9.255437850952148,4.077369689941406,-0.5240281820297241
1772725807207642600,5.214642578125,9.253045082092285,4.046263217926025,-0.4618147611618042
1772725807217159700,5.22415966796875,9.166903495788574,4.060619831085205,-0.48813581466674805
1772725807226676700,5.2336767578125,9.073583602905273,4.0558342933654785,-0.5359922647476196
1772725807236194000,5.243194091796875,8.96829891204834,4.070191383361816,-0.5312066078186035
1772725807245711000,5.252711181640625,8.941978454589844,4.118047714233398,-0.5240281820297241
1772725807255228400,5.262228515625,8.930013656616211,4.163511276245117,-0.5694918036460876
1772725807264745500,5.271745361328125,8.865407943725586,4.120440483093262,-0.5958128571510315
1772725807274262800,5.2812626953125,8.764909744262695,4.0797624588012695,-0.605384111404419
1772725807283779800,5.29077978515625,8.752944946289062,4.067798614501953,-0.6699903607368469
1772725807293297000,5.300296875,8.781659126281738,4.082155227661133,-0.6963114142417908
1772725807302814200,5.309814208984375,8.85344409942627,4.034298896789551,-0.6675975322723389
1772725807312331300,5.319331298828125,8.96112060546875,4.005585193634033,-0.6197410821914673
1772725807321848600,5.3288486328125,8.982656478881836,3.988835334777832,-0.6125625967979431
1772725807331365600,5.33836572265625,8.999405860900879,3.9601213932037354,-0.6293123364448547
1772725807340883000,5.347883056640625,9.040083885192871,3.9361932277679443,-0.641276478767395
1772725807350400000,5.35739990234375,9.109476089477539,3.9696927070617676,-0.6819544434547424
1772725807359917300,5.366917236328125,9.176474571228027,3.9864425659179688,-0.7130611538887024
1772725807369434400,5.376434326171875,9.221938133239746,3.9672999382019043,-0.6340979933738708
1772725807378951400,5.385951416015625,9.248259544372559,3.988835334777832,-0.5982056856155396
1772725807388468700,5.39546875,9.238688468933105,3.9864425659179688,-0.5790630578994751
1772725807397985800,5.40498583984375,9.20279598236084,3.988835334777832,-0.5694918036460876
1772725807407503000,5.414503173828125,9.219545364379883,4.000799655914307,-0.5024927258491516
1772725807417020200,5.424020263671875,9.214759826660156,4.039084434509277,-0.4259224236011505
1772725807426537200,5.433537109375,9.238688468933105,4.094119548797607,-0.41156548261642456
1772725807436054500,5.443054443359375,9.241081237792969,4.082155227661133,-0.3732803463935852
1772725807445571600,5.452571533203125,9.147761344909668,4.106083869934082,-0.3684946894645691
1772725807455089000,5.4620888671875,9.083154678344727,4.115654945373535,-0.4259224236011505
1772725807464606000,5.47160595703125,9.047262191772461,4.1347975730896,-0.48574298620224
1772725807474123300,5.481123291015625,9.032905578613281,4.098905086517334,-0.4977070987224579
1772725807483640300,5.490640380859375,9.023334503173828,4.074976921081543,-0.45942193269729614
1772725807493157600,5.50015771484375,9.037691116333008,4.053441524505615,-0.4570291340351105
1772725807502674700,5.5096748046875,9.059226989746094,4.039084434509277,-0.46899324655532837
1772725807512191700,5.519191650390625,9.052047729492188,4.036691665649414,-0.4953143000602722
1772725807521709000,5.528708984375,9.047262191772461,4.000799655914307,-0.5718846321105957
1772725807531226000,5.53822607421875,9.020941734313965,3.9768712520599365,-0.6173482537269592
1772725807540743200,5.5477431640625,8.963513374328613,3.9768712520599365,-0.607776939868927
1772725807550260500,5.557260498046875,8.944371223449707,4.01754903793335,-0.6556333899497986
1772725807559777500,5.566777587890625,8.989834785461426,4.034298896789551,-0.7178468108177185
1772725807569294800,5.576294921875,9.023334503173828,4.01754903793335,-0.698704183101654
1772725807578812000,5.58581201171875,9.040083885192871,3.988835334777832,-0.6101697683334351
1772725807588329200,5.5953291015625,9.066405296325684,3.964907169342041,-0.5335994362831116
1772725807597846300,5.60484619140625,9.075976371765137,3.9601213932037354,-0.5264210104942322
1772725807607363600,5.614363525390625,9.097511291503906,3.9936211109161377,-0.5144568681716919
1772725807616880600,5.623880615234375,9.09990406036377,3.981656789779663,-0.4905286431312561
1772725807626397700,5.633397705078125,9.087940216064453,3.988835334777832,-0.46899324655532837
1772725807635915000,5.6429150390625,9.138189315795898,4.041477680206299,-0.4833501875400543
1772725807645432000,5.65243212890625,9.18843936920166,4.082155227661133,-0.45942193269729614
1772725807654949400,5.661949462890625,9.1716890335083,4.07258415222168,-0.4091726839542389
1772725807664466400,5.671466552734375,9.138189315795898,4.063013076782227,-0.41156548261642456
1772725807673983500,5.6809833984375,9.119047164916992,4.019941806793213,-0.43549370765686035
1772725807683500800,5.690500732421875,9.075976371765137,4.0558342933654785,-0.4785645306110382
1772725807693017900,5.700017822265625,9.056833267211914,4.048655986785889,-0.45224347710609436
1772725807702535200,5.70953515625,9.119047164916992,4.029513359069824,-0.4618147611618042
1772725807712052200,5.71905224609375,9.126225471496582,4.0319061279296875,-0.5120640397071838
1772725807721569500,5.728569580078125,9.07119083404541,4.012763500213623,-0.5048855543136597
1772725807731086600,5.738086669921875,9.016156196594238,3.9864425659179688,-0.5216353535652161
1772725807740604000,5.74760400390625,9.044869422912598,3.996013879776001,-0.5670989751815796
1772725807750121000,5.757120849609375,9.147761344909668,4.01037073135376,-0.5910272002220154
1772725807759638000,5.766637939453125,9.169296264648438,3.9433717727661133,-0.576670229434967
1772725807769155300,5.7761552734375,9.145368576049805,3.9146578311920166,-0.5647061467170715
1772725807778672400,5.78567236328125,9.140582084655762,3.924229145050049,-0.605384111404419
1772725807788189700,5.795189697265625,9.08554744720459,3.9290146827697754,-0.6245267391204834
1772725807797706800,5.804706787109375,9.013762474060059,3.9768712520599365,-0.638883650302887
1772725807807223800,5.814223876953125,9.030512809753418,3.9912281036376953,-0.6173482537269592
1772725807816741000,5.8237412109375,9.083154678344727,3.9936211109161377,-0.605384111404419
1772725807826258200,5.833258056640625,9.109476089477539,3.9744784832000732,-0.5742774605751038
1772725807835775200,5.842775146484375,9.140582084655762,4.00319242477417,-0.5335994362831116
1772725807845292500,5.85229248046875,9.169296264648438,3.9936211109161377,-0.45942193269729614
1772725807854809600,5.8618095703125,9.1716890335083,4.015156269073486,-0.45224347710609436
1772725807864327000,5.871326904296875,9.152546882629395,3.996013879776001,-0.46420758962631226
1772725807873844200,5.88084423828125,9.107083320617676,4.022335052490234,-0.5216353535652161
1772725807883361300,5.890361328125,9.059226989746094,4.048655986785889,-0.5551348328590393
1772725807892878300,5.89987841796875,9.044869422912598,4.034298896789551,-0.5551348328590393
1772725807902395600,5.909395751953125,9.035298347473145,4.027120590209961,-0.5647061467170715
1772725807911912700,5.91891259765625,9.028120040893555,4.0079779624938965,-0.5479564070701599
1772725807921429800,5.9284296875,9.05444049835205,4.01037073135376,-0.5670989751815796
1772725807930947000,5.937947021484375,9.049654960632324,3.988835334777832,-0.5120640397071838
1772725807940464000,5.947464111328125,9.116654396057129,3.9696927070617676,-0.47617170214653015
1772725807949981400,5.9569814453125,9.145368576049805,3.9936211109161377,-0.45942193269729614
1772725807959498500,5.96649853515625,9.183652877807617,3.996013879776001,-0.4378865361213684
1772725807969015600,5.976015625,9.169296264648438,4.000799655914307,-0.4953143000602722
1772725807978532900,5.985532958984375,9.133403778076172,3.9912281036376953,-0.5383850932121277
1772725807988050000,5.9950498046875,9.044869422912598,3.9840497970581055,-0.5910272002220154
1772725807997567200,6.004567138671875,9.001798629760742,4.000799655914307,-0.638883650302887
1772725808007084300,6.014084228515625,8.96829891204834,3.9912281036376953,-0.6484549641609192
1772725808016601600,6.0236015625,8.997013092041016,3.9840497970581055,-0.576670229434967
1772725808026118700,6.03311865234375,9.078369140625,4.0079779624938965,-0.5814558863639832
1772725808035636000,6.042635986328125,9.193224906921387,3.988835334777832,-0.5886343717575073
1772725808045153000,6.052153076171875,9.214759826660156,3.94815731048584,-0.5790630578994751
1772725808054670000,6.061670166015625,9.190832138061523,3.8739798069000244,-0.5694918036460876
1772725808064187400,6.0711875,9.164510726928711,3.864408493041992,-0.550349235534668
1772725808073704400,6.080704345703125,9.142974853515625,3.902693748474121,-0.5742774605751038
1772725808083221800,6.0902216796875,9.131011009216309,3.926621913909912,-0.607776939868927
1772725808092738800,6.09973876953125,9.09272575378418,3.9840497970581055,-0.6245267391204834
1772725808102255900,6.109255859375,9.042476654052734,4.00319242477417,-0.6197410821914673
1772725808111773200,6.118773193359375,8.999405860900879,3.9768712520599365,-0.5670989751815796
1772725808121290200,6.128290283203125,9.044869422912598,3.9672999382019043,-0.5144568681716919
1772725808130807600,6.1378076171875,9.114261627197266,4.015156269073486,-0.5024927258491516
1772725808140324600,6.14732470703125,9.154939651489258,4.0319061279296875,-0.4570291340351105
1772725808149842000,6.156842041015625,9.142974853515625,4.0079779624938965,-0.4426721930503845
1772725808159359000,6.16635888671875,9.083154678344727,4.015156269073486,-0.45224347710609436
1772725808168876300,6.175876220703125,9.028120040893555,4.046263217926025,-0.48574298620224
1772725808178393300,6.185393310546875,9.044869422912598,4.036691665649414,-0.4618147611618042
1772725808187910400,6.194910400390625,9.121439933776855,4.036691665649414,-0.44027936458587646
1772725808197427700,6.204427734375,9.233902931213379,4.019941806793213,-0.4737788736820221
1772725808206944800,6.21394482421875,9.221938133239746,3.950550079345703,-0.4785645306110382
1772725808216461800,6.2234619140625,9.162117958068848,3.9290146827697754,-0.4666004180908203
1772725808225979100,6.232979248046875,9.116654396057129,3.9314076900482178,-0.4785645306110382
1772725808235496200,6.24249609375,9.095118522644043,3.964907169342041,-0.519242525100708
1772725808245013500,6.252013427734375,9.169296264648438,4.019941806793213,-0.5718846321105957
1772725808254530600,6.261530517578125,9.140582084655762,3.9672999382019043,-0.5096712112426758
1772725808264047900,6.2710478515625,9.049654960632324,3.9433717727661133,-0.48574298620224
1772725808273565000,6.28056494140625,8.970691680908203,3.988835334777832,-0.5383850932121277
1772725808283082200,6.290082275390625,8.930013656616211,4.027120590209961,-0.607776939868927
1772725808292599300,6.299599365234375,8.95394229888916,3.996013879776001,-0.6340979933738708
1772725808302116400,6.309116455078125,8.982656478881836,3.957728624343872,-0.5718846321105957
1772725808311633700,6.318633544921875,9.028120040893555,3.9457645416259766,-0.550349235534668
1772725808321150700,6.328150634765625,9.052047729492188,3.9672999382019043,-0.5072783827781677
1772725808330668000,6.33766796875,9.032905578613281,3.9672999382019043,-0.4833501875400543
1772725808340185000,6.34718505859375,9.037691116333008,3.955335855484009,-0.4666004180908203
1772725808349702100,6.3567021484375,9.066405296325684,3.9768712520599365,-0.5048855543136597
1772725808359219500,6.366219482421875,9.075976371765137,3.9625144004821777,-0.550349235534668
1772725808368736500,6.375736572265625,9.080761909484863,3.964907169342041,-0.5527420043945312
1772725808378253800,6.38525390625,9.07119083404541,3.9601213932037354,-0.550349235534668
1772725808387771000,6.39477099609375,9.068798065185547,3.9912281036376953,-0.5958128571510315
1772725808397288000,6.404287841796875,9.152546882629395,3.9984066486358643,-0.5670989751815796
1772725808406805200,6.41380517578125,9.20997428894043,3.9864425659179688,-0.5264210104942322
1772725808416322600,6.423322509765625,9.1716890335083,3.9672999382019043,-0.46420758962631226
1772725808425839600,6.432839599609375,9.107083320617676,4.012763500213623,-0.4666004180908203
1772725808435356700,6.442356689453125,9.116654396057129,4.034298896789551,-0.5096712112426758
1772725808444874000,6.4518740234375,9.166903495788574,4.046263217926025,-0.45224347710609436
1772725808454391000,6.46139111328125,9.28893756866455,4.024727821350098,-0.44027936458587646
1772725808463908400,6.470908447265625,9.332008361816406,3.9912281036376953,-0.4785645306110382
1772725808473425400,6.48042529296875,9.305686950683594,3.9529430866241455,-0.4785645306110382
1772725808482942500,6.4899423828125,9.279366493225098,3.9696927070617676,-0.519242525100708
1772725808492459800,6.499459716796875,9.226723670959473,3.972085475921631,-0.5694918036460876
1772725808501976800,6.508976806640625,9.138189315795898,3.964907169342041,-0.5742774605751038
1772725808511494000,6.518493896484375,9.040083885192871,3.9768712520599365,-0.576670229434967
1772725808521011200,6.52801123046875,8.973084449768066,3.9864425659179688,-0.5910272002220154
1772725808530528300,6.5375283203125,8.973084449768066,4.0079779624938965,-0.6245267391204834
1772725808540045600,6.547045654296875,8.96112060546875,3.9840497970581055,-0.6245267391204834
1772725808549562600,6.556562744140625,8.989834785461426,3.9744784832000732,-0.6173482537269592
1772725808559080000,6.566079833984375,9.008976936340332,3.9529430866241455,-0.6460621356964111
1772725808568597000,6.575596923828125,9.056833267211914,3.924229145050049,-0.6460621356964111
1772725808578114300,6.5851142578125,9.126225471496582,3.893122434616089,-0.6221339106559753
1772725808587631400,6.59463134765625,9.140582084655762,3.88594388961792,-0.5910272002220154
1772725808597148400,6.6041484375,9.159725189208984,3.90987229347229,-0.576670229434967
1772725808606665700,6.613665771484375,9.114261627197266,3.91705060005188,-0.5527420043945312
1772725808616182800,6.623182861328125,9.097511291503906,3.9290146827697754,-0.5647061467170715
1772725808625700000,6.6327001953125,9.09272575378418,3.9864425659179688,-0.5886343717575073
1772725808635217200,6.642217041015625,9.121439933776855,3.988835334777832,-0.5838487148284912
1772725808644734200,6.651734130859375,9.114261627197266,3.964907169342041,-0.4905286431312561
1772725808654251500,6.66125146484375,9.121439933776855,3.9601213932037354,-0.4570291340351105
1772725808663768600,6.6707685546875,9.111868858337402,3.9912281036376953,-0.4785645306110382
1772725808673286000,6.680285888671875,9.052047729492188,4.005585193634033,-0.5168496966362
1772725808682803000,6.689802978515625,9.004191398620605,4.029513359069824,-0.5551348328590393
1772725808692320300,6.6993203125,9.011369705200195,4.027120590209961,-0.5790630578994751
1772725808701837300,6.70883740234375,9.016156196594238,4.022335052490234,-0.5479564070701599
1772725808711354600,6.718354736328125,9.061619758605957,4.01037073135376,-0.5647061467170715
1772725808720871700,6.72787158203125,9.109476089477539,3.9840497970581055,-0.5216353535652161
1772725808730388700,6.737388671875,9.157332420349121,3.950550079345703,-0.5240281820297241
1772725808739906000,6.746906005859375,9.128618240356445,3.893122434616089,-0.4905286431312561
1772725808749423000,6.756423095703125,9.08554744720459,3.8811583518981934,-0.5120640397071838
1772725808758940200,6.765940185546875,9.116654396057129,3.8835511207580566,-0.5718846321105957
1772725808768457500,6.77545751953125,9.152546882629395,3.8979079723358154,-0.6221339106559753
1772725808777974500,6.784974609375,9.1716890335083,3.8739798069000244,-0.6221339106559753
1772725808787491800,6.794491943359375,9.152546882629395,3.87876558303833,-0.5790630578994751
1772725808797009000,6.8040087890625,9.157332420349121,3.9122650623321533,-0.5934200286865234
1772725808806526000,6.81352587890625,9.159725189208984,3.94815731048584,-0.576670229434967
1772725808816043300,6.823043212890625,9.212367057800293,3.94815731048584,-0.5240281820297241
1772725808825560600,6.832560546875,9.221938133239746,3.933800458908081,-0.49292147159576416
1772725808835077600,6.84207763671875,9.20279598236084,3.9601213932037354,-0.47617170214653015
1772725808844594700,6.8515947265625,9.212367057800293,3.9696927070617676,-0.5168496966362
1772725808854112000,6.861112060546875,9.233902931213379,3.9529430866241455,-0.5144568681716919
1772725808863629000,6.870629150390625,9.198010444641113,3.924229145050049,-0.4666004180908203
1772725808873146400,6.880146484375,9.181260108947754,3.933800458908081,-0.45224347710609436
1772725808882663400,6.889663330078125,9.147761344909668,3.9457645416259766,-0.48574298620224
1772725808892180500,6.899180419921875,9.116654396057129,3.957728624343872,-0.5000999569892883
1772725808901697800,6.90869775390625,9.09272575378418,3.926621913909912,-0.48095735907554626
1772725808911214800,6.91821484375,9.128618240356445,3.9433717727661133,-0.5120640397071838
1772725808920732200,6.927732177734375,9.147761344909668,3.9218363761901855,-0.5240281820297241
1772725808930249200,6.937249267578125,9.116654396057129,3.87876558303833,-0.5312066078186035
1772725808939766300,6.946766357421875,9.075976371765137,3.893122434616089,-0.5647061467170715
1772725808949283600,6.95628369140625,9.035298347473145,3.9122650623321533,-0.576670229434967
1772725808958800600,6.965800537109375,9.023334503173828,3.91705060005188,-0.5814558863639832
1772725808968318000,6.97531787109375,9.025727272033691,3.926621913909912,-0.576670229434967
1772725808977835000,6.9848349609375,9.059226989746094,3.8979079723358154,-0.5934200286865234
1772725808987352300,6.994352294921875,9.111868858337402,3.8811583518981934,-0.576670229434967
1772725808996869400,7.003869384765625,9.123832702636719,3.9050865173339844,-0.5742774605751038
1772725809006386400,7.013386474609375,9.114261627197266,3.8979079723358154,-0.5359922647476196
1772725809015903700,7.02290380859375,9.157332420349121,3.8763725757598877,-0.5407779216766357
1772725809025420800,7.0324208984375,9.164510726928711,3.8835511207580566,-0.5264210104942322
1772725809034938000,7.041938232421875,9.162117958068848,3.924229145050049,-0.4953143000602722
1772725809044455200,7.051455078125,9.183652877807617,3.957728624343872,-0.48813581466674805
1772725809053972200,7.06097216796875,9.219545364379883,3.955335855484009,-0.4953143000602722
1772725809063489500,7.070489501953125,9.245866775512695,3.996013879776001,-0.4737788736820221
1772725809073006600,7.080006591796875,9.19561767578125,3.964907169342041,-0.4211367964744568
1772725809082524000,7.08952392578125,9.114261627197266,3.9696927070617676,-0.4211367964744568
1772725809092041000,7.099041015625,9.040083885192871,3.9744784832000732,-0.43549370765686035
1772725809101558300,7.108558349609375,9.068798065185547,3.981656789779663,-0.4426721930503845
1772725809111075300,7.118075439453125,9.142974853515625,3.9912281036376953,-0.4570291340351105
1772725809120592600,7.127592529296875,9.169296264648438,3.9361932277679443,-0.4426721930503845
1772725809130109700,7.137109619140625,9.121439933776855,3.9050865173339844,-0.4546363055706024
1772725809139626800,7.146626708984375,9.095118522644043,3.9194436073303223,-0.5048855543136597
1772725809149144000,7.15614404296875,9.056833267211914,3.955335855484009,-0.5359922647476196
1772725809158661000,7.1656611328125,9.037691116333008,3.924229145050049,-0.5527420043945312
1772725809168178400,7.175178466796875,9.059226989746094,3.9146578311920166,-0.5431707501411438
1772725809177695500,7.184695556640625,9.109476089477539,3.9146578311920166,-0.5742774605751038
1772725809187212500,7.194212646484375,9.142974853515625,3.8907296657562256,-0.5790630578994751
1772725809196729900,7.203729736328125,9.138189315795898,3.8907296657562256,-0.5694918036460876
1772725809206247000,7.213246826171875,9.142974853515625,3.8739798069000244,-0.5623133182525635
1772725809215764200,7.22276416015625,9.10229778289795,3.8739798069000244,-0.5838487148284912
1772725809225281300,7.23228125,9.078369140625,3.8883368968963623,-0.5838487148284912
1772725809234798600,7.241798583984375,9.075976371765137,3.9194436073303223,-0.5982056856155396
1772725809244315600,7.251315673828125,9.131011009216309,3.9050865173339844,-0.607776939868927
1772725809253833000,7.2608330078125,9.186046600341797,3.895515203475952,-0.605384111404419
1772725809263350000,7.27035009765625,9.250652313232422,3.895515203475952,-0.5886343717575073
1772725809272867000,7.2798671875,9.236295700073242,3.8763725757598877,-0.576670229434967
1772725809282384400,7.28938427734375,9.250652313232422,3.8668015003204346,-0.5647061467170715
1772725809291901400,7.2989013671875,9.276973724365234,3.8811583518981934,-0.5647061467170715
1772725809301418500,7.30841845703125,9.291330337524414,3.9122650623321533,-0.5479564070701599
1772725809310935800,7.317935791015625,9.241081237792969,3.8572301864624023,-0.5383850932121277
1772725809320452900,7.327452880859375,9.205188751220703,3.8907296657562256,-0.4905286431312561
1772725809329970200,7.33697021484375,9.157332420349121,3.9218363761901855,-0.5120640397071838
1772725809339487200,7.3464873046875,9.121439933776855,3.94815731048584,-0.5359922647476196
1772725809349004300,7.35600439453125,9.042476654052734,3.950550079345703,-0.5335994362831116
1772725809358521600,7.365521484375,8.97787094116211,3.933800458908081,-0.5096712112426758
1772725809368039000,7.375038818359375,8.941978454589844,3.972085475921631,-0.5168496966362
1772725809377556000,7.384555908203125,8.937192916870117,3.996013879776001,-0.5383850932121277
1772725809387073000,7.394072998046875,8.944371223449707,4.024727821350098,-0.5479564070701599
1772725809396590300,7.40359033203125,8.910871505737305,3.9984066486358643,-0.5168496966362
1772725809406107400,7.413107421875,8.894122123718262,3.955335855484009,-0.4713860750198364
1772725809415624700,7.422624755859375,8.970691680908203,3.94815731048584,-0.48813581466674805
1772725809425141800,7.432141845703125,9.047262191772461,3.9314076900482178,-0.4953143000602722
1772725809434658800,7.441658935546875,9.162117958068848,3.91705060005188,-0.4953143000602722
1772725809444176100,7.451176025390625,9.298508644104004,3.8572301864624023,-0.5144568681716919
1772725809453693200,7.460693115234375,9.360722541809082,3.81655216217041,-0.48095735907554626
1772725809463210200,7.470210205078125,9.360722541809082,3.8045880794525146,-0.5335994362831116
1772725809472727600,7.4797275390625,9.360722541809082,3.8668015003204346,-0.605384111404419
1772725809482244600,7.48924462890625,9.312865257263184,3.8668015003204346,-0.6293123364448547
1772725809491762000,7.498761962890625,9.255437850952148,3.862015724182129,-0.6005984544754028
1772725809501279000,7.508279052734375,9.269794464111328,3.9218363761901855,-0.550349235534668
1772725809510796300,7.51779638671875,9.276973724365234,3.933800458908081,-0.4905286431312561
1772725809520313300,7.527313232421875,9.248259544372559,3.9146578311920166,-0.3565305769443512
1772725809529830700,7.53683056640625,9.181260108947754,3.9122650623321533,-0.3278166949748993
1772725809539347700,7.54634765625,9.142974853515625,4.000799655914307,-0.4211367964744568
1772725809548864800,7.55586474609375,9.080761909484863,4.012763500213623,-0.5000999569892883
1772725809558382000,7.565382080078125,9.037691116333008,3.9768712520599365,-0.5048855543136597
1772725809567899100,7.574899169921875,9.032905578613281,3.91705060005188,-0.5000999569892883
1772725809577416400,7.58441650390625,9.073583602905273,3.91705060005188,-0.5216353535652161
1772725809586933500,7.59393359375,9.142974853515625,3.8979079723358154,-0.5551348328590393
1772725809596450600,7.603450439453125,9.128618240356445,3.893122434616089,-0.5144568681716919
1772725809605968000,7.6129677734375,9.083154678344727,3.8524444103240967,-0.4498506486415863
1772725809615485000,7.62248486328125,9.061619758605957,3.8763725757598877,-0.40677985548973083
1772725809625002200,7.632002197265625,9.035298347473145,3.9122650623321533,-0.4211367964744568
1772725809634519300,7.641519287109375,9.035298347473145,3.9314076900482178,-0.48813581466674805
1772725809644036600,7.65103662109375,9.044869422912598,3.94815731048584,-0.519242525100708
1772725809653553700,7.6605537109375,9.044869422912598,3.94815731048584,-0.5335994362831116
1772725809663071000,7.670071044921875,9.09990406036377,3.9290146827697754,-0.48574298620224
1772725809672588000,7.679588134765625,9.119047164916992,3.9218363761901855,-0.4426721930503845
1772725809682105000,7.68910498046875,9.145368576049805,3.9122650623321533,-0.43549370765686035
1772725809691622400,7.698622314453125,9.186046600341797,3.9146578311920166,-0.4307080805301666
1772725809701139500,7.708139404296875,9.238688468933105,3.90987229347229,-0.48574298620224
1772725809710656500,7.717656494140625,9.308079719543457,3.900300979614258,-0.5024927258491516
1772725809720173800,7.727173828125,9.343972206115723,3.871587038040161,-0.5240281820297241
1772725809729691000,7.73669091796875,9.363115310668945,3.8883368968963623,-0.5000999569892883
1772725809739208200,7.746208251953125,9.312865257263184,3.9050865173339844,-0.4905286431312561
1772725809748725200,7.755725341796875,9.265008926391602,3.933800458908081,-0.4450650215148926
1772725809758242600,7.76524267578125,9.212367057800293,3.926621913909912,-0.42831525206565857
1772725809767759600,7.774759521484375,9.205188751220703,3.9361932277679443,-0.45224347710609436
1772725809777277000,7.78427685546875,9.169296264648438,3.950550079345703,-0.4666004180908203
1772725809786794000,7.7937939453125,9.133403778076172,3.9696927070617676,-0.4785645306110382
1772725809796311000,7.80331103515625,9.10229778289795,3.9696927070617676,-0.4833501875400543
1772725809805828400,7.812828369140625,9.059226989746094,3.9601213932037354,-0.4713860750198364
1772725809815345400,7.822345458984375,9.006584167480469,3.9768712520599365,-0.4307080805301666
1772725809824862700,7.83186279296875,8.925228118896484,3.972085475921631,-0.40677985548973083
1772725809834379800,7.8413798828125,8.937192916870117,3.9840497970581055,-0.41874396800994873
1772725809843896800,7.850896728515625,8.934800148010254,4.0079779624938965,-0.4019941985607147
1772725809853414100,7.8604140625,8.94676399230957,4.005585193634033,-0.39960137009620667
1772725809862931200,7.86993115234375,8.941978454589844,3.9744784832000732,-0.3924229145050049
1772725809872448500,7.879448486328125,8.934800148010254,3.957728624343872,-0.4666004180908203
1772725809881965600,7.888965576171875,8.949156761169434,3.9314076900482178,-0.5024927258491516
1772725809891482600,7.898482666015625,8.9850492477417,3.9385859966278076,-0.4785645306110382
1772725809901000000,7.908,9.042476654052734,3.964907169342041,-0.4498506486415863
1772725809910517200,7.917517333984375,9.128618240356445,3.9840497970581055,-0.4713860750198364
1772725809920034300,7.927034423828125,9.152546882629395,3.9672999382019043,-0.4905286431312561
1772725809929551400,7.93655126953125,9.152546882629395,3.9361932277679443,-0.48813581466674805
1772725809939068700,7.946068603515625,9.159725189208984,3.9050865173339844,-0.5216353535652161
1772725809948585700,7.955585693359375,9.200403213500977,3.9122650623321533,-0.5288137793540955
1772725809958102800,7.965102783203125,9.229117393493652,3.950550079345703,-0.5718846321105957
1772725809967620000,7.9746201171875,9.243474006652832,3.91705060005188,-0.5240281820297241
1772725809977137200,7.98413720703125,9.207581520080566,3.8835511207580566,-0.49292147159576416
1772725809986654500,7.993654541015625,9.152546882629395,3.9050865173339844,-0.48574298620224
1772725809996171500,8.003171630859375,9.119047164916992,3.9696927070617676,-0.48095735907554626
1772725810005688800,8.012688720703125,9.157332420349121,3.9936211109161377,-0.48095735907554626
1772725810015206000,8.022205810546875,9.174081802368164,3.9672999382019043,-0.48813581466674805
1772725810024723200,8.03172314453125,9.142974853515625,3.94097900390625,-0.4211367964744568
1772725810034240300,8.041240234375,9.10229778289795,3.9385859966278076,-0.42352959513664246
1772725810043757300,8.05075732421875,9.040083885192871,3.9840497970581055,-0.44027936458587646
1772725810053274600,8.060274658203125,8.989834785461426,3.9768712520599365,-0.47617170214653015
1772725810062791700,8.069791748046875,8.934800148010254,3.988835334777832,-0.5168496966362
1772725810072309000,8.07930908203125,8.927620887756348,3.9912281036376953,-0.5599204897880554
1772725810081826000,8.088825927734375,8.97787094116211,4.0079779624938965,-0.5407779216766357
1772725810091343000,8.098343017578125,9.035298347473145,3.9840497970581055,-0.5072783827781677
1772725810100860400,8.1078603515625,9.097511291503906,3.9529430866241455,-0.4833501875400543
1772725810110377500,8.11737744140625,9.119047164916992,3.9122650623321533,-0.4713860750198364
1772725810119894800,8.126894775390625,9.166903495788574,3.88594388961792,-0.42831525206565857
1772725810129411800,8.136411865234376,9.176474571228027,3.8883368968963623,-0.43549370765686035
1772725810138929200,8.14592919921875,9.19561767578125,3.9146578311920166,-0.41874396800994873
1772725810148446200,8.1554462890625,9.200403213500977,3.9385859966278076,-0.45224347710609436
1772725810157963500,8.164963623046875,9.147761344909668,3.94815731048584,-0.46420758962631226
1772725810167480600,8.17448046875,9.133403778076172,3.9601213932037354,-0.4785645306110382
1772725810176997600,8.18399755859375,9.138189315795898,3.9984066486358643,-0.5096712112426758
1772725810186515000,8.193514892578126,9.1716890335083,3.988835334777832,-0.5120640397071838
1772725810196032000,8.203031982421875,9.169296264648438,3.9792640209198,-0.46899324655532837
1772725810205549300,8.21254931640625,9.142974853515625,3.9864425659179688,-0.4570291340351105
1772725810215066400,8.22206640625,9.121439933776855,3.9912281036376953,-0.4618147611618042
1772725810224583400,8.23158349609375,9.116654396057129,3.9864425659179688,-0.4450650215148926
1772725810234100700,8.241100830078125,9.107083320617676,3.9864425659179688,-0.4139583110809326
1772725810243617800,8.25061767578125,9.083154678344727,3.957728624343872,-0.38763725757598877
1772725810253134800,8.260134765625,9.104690551757812,3.955335855484009,-0.3732803463935852
1772725810262652200,8.269652099609376,9.157332420349121,3.9290146827697754,-0.38285163044929504
1772725810272169200,8.279169189453125,9.226723670959473,3.955335855484009,-0.44745782017707825
1772725810281686500,8.2886865234375,9.281759262084961,3.9314076900482178,-0.4785645306110382
1772725810291203600,8.29820361328125,9.186046600341797,3.91705060005188,-0.46899324655532837
1772725810300721000,8.307720947265626,9.087940216064453,3.9122650623321533,-0.48813581466674805
1772725810310238000,8.317238037109375,9.042476654052734,3.9290146827697754,-0.5240281820297241
1772725810319755300,8.32675537109375,9.016156196594238,3.9840497970581055,-0.5431707501411438
1772725810329272300,8.336272216796875,9.013762474060059,3.964907169342041,-0.5647061467170715
1772725810338789400,8.345789306640626,8.965906143188477,3.955335855484009,-0.5240281820297241
1772725810348306700,8.355306640625,8.934800148010254,3.9385859966278076,-0.4833501875400543
1772725810357823700,8.36482373046875,8.973084449768066,3.957728624343872,-0.46420758962631226
1772725810367341000,8.374341064453125,9.025727272033691,3.950550079345703,-0.4450650215148926
1772725810376858000,8.383858154296876,9.087940216064453,3.94815731048584,-0.4331009089946747
1772725810386375200,8.393375244140625,9.109476089477539,3.9194436073303223,-0.38763725757598877
1772725810395892500,8.402892578125,9.097511291503906,3.957728624343872,-0.4139583110809326
1772725810405409500,8.412409423828125,9.131011009216309,3.996013879776001,-0.4426721930503845
1772725810414926800,8.4219267578125,9.169296264648438,3.988835334777832,-0.42831525206565857
1772725810424444000,8.43144384765625,9.183652877807617,3.955335855484009,-0.39960137009620667
1772725810433961200,8.440961181640626,9.19561767578125,3.950550079345703,-0.37088751792907715
1772725810443478300,8.450478271484375,9.205188751220703,3.94815731048584,-0.38763725757598877
1772725810452995300,8.459995361328126,9.221938133239746,3.955335855484009,-0.4378865361213684
1772725810462512600,8.4695126953125,9.22433090209961,3.9290146827697754,-0.49292147159576416
1772725810472029700,8.47902978515625,9.221938133239746,3.9074792861938477,-0.5048855543136597
1772725810481547000,8.488547119140625,9.207581520080566,3.924229145050049,-0.5575276613235474
1772725810491064000,8.49806396484375,9.150154113769531,3.91705060005188,-0.5814558863639832
1772725810500581000,8.5075810546875,9.068798065185547,3.902693748474121,-0.5647061467170715
1772725810510098400,8.517098388671876,9.006584167480469,3.9361932277679443,-0.5527420043945312
1772725810519615500,8.526615478515625,8.994620323181152,3.9625144004821777,-0.5359922647476196
1772725810529132800,8.5361328125,8.992227554321289,3.9696927070617676,-0.5000999569892883
1772725810538649900,8.54564990234375,9.061619758605957,3.9625144004821777,-0.4666004180908203
1772725810548167200,8.555167236328124,9.109476089477539,3.955335855484009,-0.48095735907554626
1772725810557684200,8.564684326171875,9.147761344909668,3.964907169342041,-0.45942193269729614
1772725810567201500,8.574201416015624,9.150154113769531,3.9361932277679443,-0.4570291340351105
1772725810576718600,8.583718505859375,9.152546882629395,3.9146578311920166,-0.4450650215148926
1772725810586235600,8.593235595703124,9.145368576049805,3.9314076900482178,-0.4570291340351105
1772725810595753000,8.6027529296875,9.154939651489258,3.933800458908081,-0.47617170214653015
1772725810605270000,8.61227001953125,9.181260108947754,3.957728624343872,-0.4833501875400543
1772725810614787300,8.621787353515625,9.123832702636719,3.94815731048584,-0.46899324655532837
1772725810624304400,8.631304443359374,9.078369140625,3.964907169342041,-0.4498506486415863
1772725810633821400,8.640821533203125,9.040083885192871,3.988835334777832,-0.4450650215148926
1772725810643338800,8.6503388671875,9.023334503173828,3.9768712520599365,-0.4331009089946747
1772725810652855800,8.659855712890625,9.035298347473145,3.9768712520599365,-0.3852444589138031
1772725810662372900,8.669372802734374,9.114261627197266,3.9625144004821777,-0.397208571434021
1772725810671890200,8.67889013671875,9.243474006652832,4.005585193634033,-0.4019941985607147
1772725810681407200,8.6884072265625,9.293723106384277,3.9840497970581055,-0.40677985548973083
1772725810690924500,8.697924560546875,9.250652313232422,3.926621913909912,-0.36610186100006104
1772725810700441600,8.707441650390624,9.20997428894043,3.924229145050049,-0.349352091550827
1772725810709959000,8.716958984375,9.221938133239746,3.957728624343872,-0.35413774847984314
1772725810719476000,8.72647607421875,9.253045082092285,3.955335855484009,-0.4091726839542389
1772725810728993300,8.7359931640625,9.207581520080566,3.9696927070617676,-0.4546363055706024
1772725810738510300,8.74551025390625,9.095118522644043,3.9840497970581055,-0.5431707501411438
1772725810748027400,8.75502734375,8.965906143188477,3.9840497970581055,-0.5647061467170715
1772725810757544700,8.764544677734374,8.975478172302246,4.0079779624938965,-0.5958128571510315
1772725810767061800,8.774061767578125,9.028120040893555,3.972085475921631,-0.605384111404419
1772725810776579000,8.7835791015625,9.083154678344727,3.9218363761901855,-0.5455635786056519
1772725810786096000,8.79309619140625,9.10229778289795,3.9074792861938477,-0.5120640397071838
1772725810795613200,8.80261328125,9.037691116333008,3.895515203475952,-0.4713860750198364
1772725810805130500,8.812130615234375,9.006584167480469,3.8596229553222656,-0.4546363055706024
1772725810814647600,8.8216474609375,9.028120040893555,3.87876558303833,-0.4666004180908203
1772725810824164900,8.831164794921875,9.114261627197266,3.9194436073303223,-0.5072783827781677
1772725810833682000,8.840681884765624,9.21715259552002,3.926621913909912,-0.5240281820297241
1772725810843199200,8.85019921875,9.253045082092285,3.9194436073303223,-0.5096712112426758
1772725810852716300,8.85971630859375,9.262616157531738,3.9194436073303223,-0.4498506486415863
1772725810862233600,8.869233642578125,9.274580955505371,3.926621913909912,-0.41874396800994873
1772725810871750700,8.878750732421874,9.312865257263184,3.94815731048584,-0.4259224236011505
1772725810881267700,8.888267822265625,9.28893756866455,3.964907169342041,-0.41874396800994873
1772725810890785000,8.897784912109374,9.212367057800293,3.94097900390625,-0.3924229145050049
1772725810900302000,8.907302001953125,9.123832702636719,3.9744784832000732,-0.3924229145050049
1772725810909819100,8.916819091796874,9.080761909484863,4.01754903793335,-0.4378865361213684
1772725810919336400,8.92633642578125,9.032905578613281,4.027120590209961,-0.4450650215148926
1772725810928853500,8.935853515625,9.037691116333008,3.9936211109161377,-0.46899324655532837
1772725810938370800,8.945370849609375,9.023334503173828,3.9792640209198,-0.48574298620224
1772725810947887900,8.954887939453124,9.066405296325684,3.9625144004821777,-0.5312066078186035
1772725810957405200,8.9644052734375,9.059226989746094,3.9122650623321533,-0.5240281820297241
1772725810966922200,8.973922119140624,9.059226989746094,3.8668015003204346,-0.5288137793540955
1772725810976439600,8.983439453125,9.047262191772461,3.8596229553222656,-0.5144568681716919
1772725810985956600,8.99295654296875,8.96829891204834,3.9074792861938477,-0.5072783827781677
1772725810995473700,9.0024736328125,8.872586250305176,3.9529430866241455,-0.4977070987224579
1772725811004991000,9.011990966796875,8.913264274597168,3.981656789779663,-0.49292147159576416
1772725811014508000,9.021508056640625,9.047262191772461,3.950550079345703,-0.4546363055706024
1772725811024025300,9.031025390625,9.121439933776855,3.9314076900482178,-0.45942193269729614
1772725811033542400,9.04054248046875,9.166903495788574,3.926621913909912,-0.4498506486415863
1772725811043059500,9.0500595703125,9.221938133239746,3.895515203475952,-0.46420758962631226
1772725811052576800,9.05957666015625,9.267401695251465,3.88594388961792,-0.4498506486415863
1772725811062093800,9.06909375,9.317651748657227,3.9050865173339844,-0.43549370765686035
1772725811071611000,9.07861083984375,9.34157943725586,3.895515203475952,-0.4043870270252228
1772725811081128200,9.088128173828125,9.29611587524414,3.9050865173339844,-0.4043870270252228
1772725811090645500,9.0976455078125,9.269794464111328,3.950550079345703,-0.4307080805301666
1772725811100162600,9.10716259765625,9.207581520080566,3.950550079345703,-0.45224347710609436
1772725811109679600,9.1166796875,9.183652877807617,3.9361932277679443,-0.4666004180908203
1772725811119197000,9.126197021484375,9.114261627197266,3.893122434616089,-0.5359922647476196
1772725811128714000,9.1357138671875,9.035298347473145,3.8907296657562256,-0.5838487148284912
1772725811138231300,9.145231201171875,8.95394229888916,3.895515203475952,-0.5790630578994751
1772725811147748400,9.154748291015625,8.925228118896484,3.8883368968963623,-0.5599204897880554
1772725811157265400,9.164265380859375,8.937192916870117,3.8883368968963623,-0.5455635786056519
1772725811166782700,9.17378271484375,8.93958568572998,3.8668015003204346,-0.4905286431312561
1772725811176299800,9.1832998046875,8.999405860900879,3.8763725757598877,-0.4570291340351105
1772725811185817000,9.192817138671876,9.097511291503906,3.869194269180298,-0.4450650215148926
1772725811195334100,9.202334228515625,9.159725189208984,3.8835511207580566,-0.44027936458587646
1772725811204851200,9.211851318359376,9.166903495788574,3.871587038040161,-0.4378865361213684
1772725811214368500,9.221368408203125,9.183652877807617,3.8763725757598877,-0.45942193269729614
1772725811223885600,9.230885498046876,9.243474006652832,3.9050865173339844,-0.48574298620224
1772725811233403000,9.24040283203125,9.293723106384277,3.893122434616089,-0.4833501875400543
1772725811242920000,9.249919921875,9.298508644104004,3.8907296657562256,-0.46420758962631226
1772725811252437200,9.259437255859375,9.279366493225098,3.9074792861938477,-0.4666004180908203
1772725811261954300,9.268954345703126,9.279366493225098,3.91705060005188,-0.4713860750198364
1772725811271471600,9.2784716796875,9.255437850952148,3.90987229347229,-0.4977070987224579
1772725811280988700,9.28798876953125,9.226723670959473,3.9218363761901855,-0.5096712112426758
1772725811290505700,9.297505615234375,9.212367057800293,3.9290146827697754,-0.5048855543136597
1772725811300023000,9.30702294921875,9.169296264648438,3.9361932277679443,-0.48813581466674805
1772725811309540000,9.3165400390625,9.147761344909668,3.9290146827697754,-0.4331009089946747
1772725811319057200,9.32605712890625,9.104690551757812,3.9314076900482178,-0.4163511395454407
1772725811328574500,9.335574462890625,9.06401252746582,3.94097900390625,-0.4331009089946747
1772725811338091500,9.345091552734376,9.011369705200195,3.9194436073303223,-0.4450650215148926
1772725811347608800,9.35460888671875,9.006584167480469,3.9050865173339844,-0.4666004180908203
1772725811357126000,9.3641259765625,9.020941734313965,3.862015724182129,-0.45942193269729614
1772725811366643200,9.373643310546875,9.07119083404541,3.8668015003204346,-0.5144568681716919
1772725811376160300,9.38316015625,9.135796546936035,3.862015724182129,-0.5264210104942322
1772725811385677600,9.392677490234375,9.159725189208984,3.864408493041992,-0.5048855543136597
1772725811395194600,9.402194580078126,9.140582084655762,3.8333017826080322,-0.4905286431312561
1772725811404711700,9.411711669921875,9.131011009216309,3.8428730964660645,-0.4546363055706024
1772725811414229000,9.42122900390625,9.169296264648438,3.869194269180298,-0.4570291340351105
1772725811423746000,9.43074609375,9.212367057800293,3.8811583518981934,-0.42352959513664246
1772725811433263400,9.440263427734376,9.214759826660156,3.9074792861938477,-0.4043870270252228
1772725811442780400,9.449780517578125,9.164510726928711,3.9385859966278076,-0.44027936458587646
1772725811452297500,9.45929736328125,9.114261627197266,3.9768712520599365,-0.48095735907554626
1772725811461814800,9.468814697265625,9.087940216064453,3.988835334777832,-0.45942193269729614
1772725811471331800,9.478331787109376,9.078369140625,4.00319242477417,-0.4618147611618042
1772725811480849200,9.48784912109375,9.104690551757812,3.9864425659179688,-0.4498506486415863
1772725811490366200,9.4973662109375,9.138189315795898,3.9314076900482178,-0.41874396800994873
1772725811499883500,9.506883544921875,9.19561767578125,3.895515203475952,-0.43549370765686035
1772725811509400600,9.516400634765626,9.226723670959473,3.840480327606201,-0.4426721930503845
1772725811518918000,9.52591796875,9.260223388671875,3.82373046875,-0.46899324655532837
1772725811528435000,9.53543505859375,9.241081237792969,3.7782669067382812,-0.48095735907554626
1772725811537952000,9.544951904296875,9.19561767578125,3.81655216217041,-0.5264210104942322
1772725811547469300,9.55446923828125,9.193224906921387,3.8333017826080322,-0.5599204897880554
1772725811556986400,9.563986328125,9.17886734008789,3.85483717918396,-0.5862415432929993
1772725811566503700,9.573503662109376,9.181260108947754,3.8524444103240967,-0.576670229434967
1772725811576020700,9.583020751953125,9.20997428894043,3.8668015003204346,-0.5670989751815796
1772725811585537800,9.592537841796876,9.157332420349121,3.84765887260437,-0.519242525100708
1772725811595055000,9.60205517578125,9.097511291503906,3.8524444103240967,-0.5096712112426758
1772725811604572200,9.611572265625,9.08554744720459,3.8739798069000244,-0.5240281820297241
1772725811614089200,9.621089111328125,9.020941734313965,3.893122434616089,-0.5024927258491516
1772725811623606500,9.6306064453125,8.879764556884766,3.900300979614258,-0.45224347710609436
1772725811633123800,9.640123779296875,8.944371223449707,3.9385859966278076,-0.39960137009620667
1772725811642641000,9.649640869140624,9.056833267211914,3.9672999382019043,-0.4570291340351105
1772725811652158000,9.659157958984375,9.166903495788574,3.94815731048584,-0.4426721930503845
1772725811661675300,9.66867529296875,9.257830619812012,3.88594388961792,-0.41874396800994873
1772725811671192300,9.6781923828125,9.265008926391602,3.840480327606201,-0.38285163044929504
1772725811680709600,9.687709716796874,9.19561767578125,3.84765887260437,-0.39960137009620667
1772725811690226700,9.697226806640625,9.138189315795898,3.9074792861938477,-0.519242525100708
1772725811699743700,9.70674365234375,9.116654396057129,3.9361932277679443,-0.5407779216766357
1772725811709261000,9.716260986328125,9.145368576049805,3.902693748474121,-0.5407779216766357
1772725811718778000,9.725778076171874,9.181260108947754,3.895515203475952,-0.5455635786056519
1772725811728295400,9.73529541015625,9.145368576049805,3.8596229553222656,-0.5288137793540955
1772725811737812500,9.7448125,9.107083320617676,3.862015724182129,-0.5240281820297241
1772725811747329500,9.75432958984375,9.154939651489258,3.8596229553222656,-0.5359922647476196
1772725811756846800,9.763846923828124,9.221938133239746,3.8356947898864746,-0.5144568681716919
1772725811766364000,9.773364013671875,9.339186668395996,3.8117663860321045,-0.48813581466674805
1772725811775881200,9.782881103515624,9.408578872680664,3.8045880794525146,-0.4785645306110382
1772725811785398300,9.792398193359375,9.387042999267578,3.7974095344543457,-0.4546363055706024
1772725811794915600,9.80191552734375,9.286544799804688,3.830909013748169,-0.4570291340351105
1772725811804432600,9.8114326171875,9.162117958068848,3.8763725757598877,-0.5144568681716919
1772725811813950000,9.820949951171874,9.09272575378418,3.9218363761901855,-0.5527420043945312
1772725811823467000,9.830467041015625,9.078369140625,3.94097900390625,-0.6005984544754028
1772725811832984000,9.839984130859374,9.066405296325684,3.8907296657562256,-0.5742774605751038
1772725811842501400,9.84950146484375,9.008976936340332,3.8811583518981934,-0.5359922647476196
1772725811852018400,9.859018310546874,8.941978454589844,3.9074792861938477,-0.49292147159576416
1772725811861535500,9.868535400390625,9.004191398620605,3.9218363761901855,-0.46899324655532837
1772725811871052800,9.878052734375,9.073583602905273,3.902693748474121,-0.45942193269729614
1772725811880569900,9.88756982421875,9.164510726928711,3.8739798069000244,-0.5000999569892883
1772725811890087200,9.897087158203124,9.152546882629395,3.838087558746338,-0.5096712112426758
1772725811899604200,9.906604248046875,9.087940216064453,3.845266103744507,-0.4977070987224579
1772725811909121500,9.91612158203125,9.073583602905273,3.864408493041992,-0.5407779216766357
1772725811918638600,9.925638671875,9.140582084655762,3.869194269180298,-0.5838487148284912
1772725811928156000,9.935156005859374,9.265008926391602,3.8811583518981934,-0.5647061467170715
1772725811937673000,9.9446728515625,9.281759262084961,3.840480327606201,-0.4737788736820221
1772725811947190000,9.95418994140625,9.198010444641113,3.8524444103240967,-0.4546363055706024
1772725811956707300,9.963707275390625,9.162117958068848,3.893122434616089,-0.48574298620224
1772725811966224400,9.973224365234374,9.135796546936035,3.9194436073303223,-0.550349235534668
1772725811975741700,9.98274169921875,9.116654396057129,3.9290146827697754,-0.5479564070701599
1772725811985258800,9.9922587890625,9.095118522644043,3.933800458908081,-0.5072783827781677
1772725811994775800,10.00177587890625,9.042476654052734,3.9385859966278076,-0.5168496966362
1772725812004293000,10.011293212890624,8.927620887756348,3.9314076900482178,-0.5407779216766357
1772725812013810200,10.02081005859375,8.879764556884766,3.926621913909912,-0.605384111404419
1772725812023327200,10.0303271484375,8.903693199157715,3.893122434616089,-0.6197410821914673
1772725812032844500,10.039844482421875,8.94676399230957,3.864408493041992,-0.5910272002220154
1772725812042361900,10.04936181640625,8.922835350036621,3.840480327606201,-0.550349235534668
1772725812051879000,10.05887890625,8.999405860900879,3.7878382205963135,-0.5144568681716919
1772725812061396200,10.068396240234375,9.037691116333008,3.7974095344543457,-0.5431707501411438
1772725812070913300,10.077913330078125,8.944371223449707,3.81655216217041,-0.5886343717575073
1772725812080430300,10.087430419921875,8.894122123718262,3.768695592880249,-0.5670989751815796
1772725812089947600,10.09694775390625,8.83669376373291,3.7256247997283936,-0.5407779216766357
1772725812099464700,10.106464599609374,9.047262191772461,3.5605201721191406,-0.45224347710609436
1772725812108981800,10.115981689453125,9.4061861038208,3.6370904445648193,-0.4618147611618042
1772725812118499000,10.1254990234375,9.597611427307129,3.895515203475952,-0.5599204897880554
1772725812128016100,10.13501611328125,9.69093132019043,3.94815731048584,-0.5958128571510315
1772725812137533400,10.144533447265625,9.501898765563965,3.7639100551605225,-0.5000999569892883
1772725812147050500,10.154050537109375,9.308079719543457,3.7112679481506348,-0.3565305769443512
1772725812156567600,10.163567626953125,9.095118522644043,3.8189449310302734,-0.3924229145050049
1772725812166084900,10.1730849609375,8.949156761169434,3.9840497970581055,-0.4666004180908203
1772725812175602000,10.182601806640625,9.044869422912598,3.9625144004821777,-0.3900300860404968
1772725812185119200,10.192119140625,9.162117958068848,3.9625144004821777,-0.3086741268634796
1772725812194636300,10.20163623046875,9.274580955505371,3.9361932277679443,-0.33738797903060913
1772725812204153600,10.211153564453125,9.66221809387207,4.01037073135376,-0.45942193269729614
