time,seconds_elapsed,z,y,x
1772709060974747600,0.05774755859375,-1.1671481748849153,0.677959467318654,1.5518898350268602
1772709060984772600,0.067772705078125,-0.9667600425750017,0.596454904064536,1.559108826494962
1772709060994797600,0.077797607421875,-0.7454296600013971,0.5807052540078759,1.2309985696353019
1772709061004822500,0.087822509765625,-0.49797640965580936,0.5019561269417405,0.8808949460238218
1772709061014847500,0.097847412109375,-0.11252163280844688,0.4089151474118232,0.6549287203431129
1772709061024873500,0.10787353515625,0.4405968183547258,0.4820920273035764,0.24420623124837873
1772709061034898400,0.1178984375,0.7565402520805596,0.8439806351244449,-0.11351678132563829
1772709061044923600,0.127923583984375,0.848973036584258,1.1379437077105046,-0.44842824263274667
1772709061054948600,0.137948486328125,0.7623632591456174,0.9736851656630635,-0.7532362420991062
1772709061064973600,0.1479736328125,0.8875017969429493,1.0078799884706735,-1.0061186778865754
1772709061074998500,0.15799853515625,1.4712076940715313,1.3476079101487994,-1.0849117902249097
1772709061085023700,0.168023681640625,2.1226374663829803,1.889439535883069,-0.9989939405731856
1772709061095049700,0.1780498046875,2.5786089640021324,2.3376722559437155,-0.8379232347816228
1772709061105074700,0.18807470703125,2.856960041436553,2.50391992598176,-0.6421482953555882
1772709061115099600,0.198099609375,2.8898563488662243,2.324616082754731,-0.5068697640769183
1772709061125124600,0.20812451171875,2.5675170766234396,1.864714844471216,-0.4610764195427298
1772709061135149600,0.218149658203125,2.113232509177923,1.4411527475476265,-0.5094146262541414
1772709061145174500,0.228174560546875,1.4538368725538253,1.1490958008438348,-0.3923305078357458
1772709061155199500,0.238199462890625,0.5767962638705969,0.9415718253046274,0.06056669690459966
1772709061165224400,0.248224365234375,-0.8709861309498548,0.569697830042243,0.7815911067068576
1772709061175250400,0.25825048828125,-2.5294524266451597,-0.06731938603520393,1.362854871380329
1772709061185275600,0.268275634765625,-3.4767426295965906,-0.3340811479628086,1.324366735292971
1772709061195300600,0.278300537109375,-3.8995957014679905,-0.22707272561788558,0.8057137405723332
1772709061205325600,0.28832568359375,-4.234394642311335,-0.24911621512174606,-0.13652823907881975
1772709061215350500,0.2983505859375,-3.485350883466005,0.30079145730137824,0.4095487691402435
1772709061225375700,0.308375732421875,-3.9355157406330106,-0.28850772978961464,2.2335876120910045
1772709061235401700,0.318401611328125,-4.625779978251457,-1.4655787482738494,3.785409934839606
1772709061245426700,0.3284267578125,-4.863099372595548,-2.121474267822504,4.572172891226411
1772709061255451600,0.33845166015625,-4.3750779552429915,-1.8476690171241759,4.246920946407318
1772709061265476400,0.348476318359375,-3.5510008749842643,-0.6939245136916637,3.410741048161685
1772709061275501600,0.35850146484375,-4.382456375056505,-1.5758540634602307,3.12621595826745
1772709061285526500,0.368526611328125,-5.354703909131884,-2.57081728721261,3.007357815913856
1772709061295551500,0.378551513671875,-6.6117065424650905,-2.898594366595149,3.4920863292008635
1772709061305576400,0.388576416015625,-8.852243243041634,-3.6176924845099445,5.021165782004594
1772709061315602400,0.3986025390625,-10.640514899301529,-4.305671826061606,4.901548053455352
1772709061325627600,0.408627685546875,-10.298094962060452,-3.8104333169370888,1.9374338975928722
1772709061335652600,0.418652587890625,-8.633032336840033,-4.234669952121377,0.3807224876284599
1772709061345677600,0.428677490234375,-6.846781957274675,-4.412928085687756,-0.6374727047599852
1772709061355702500,0.43870263671875,-5.458525518134236,-3.677420684763789,-2.1528383972488343
1772709061365727700,0.448727783203125,-4.605167398333549,-2.4214836348354813,-1.898360655093938
1772709061375752700,0.458752685546875,-1.122392502835393,-0.6648772829055786,-0.8517150287687778
1772709061385778700,0.46877880859375,4.0472003380954265,0.4929869308054447,-0.4294135994307697
1772709061395803600,0.4788037109375,4.6221389914005995,1.9569518141418694,-0.014867898786067962
1772709061405828400,0.488828369140625,5.042946821179986,3.429581649971008,-0.7484051686808466
1772709061415853600,0.498853515625,4.662212058591843,2.7436405362486838,0.1473280116431415
1772709061425878500,0.50887841796875,2.638791337764263,0.7146779633849859,1.1015654033839701
1772709061435903500,0.518903564453125,0.3652987085253,-0.6877075388729572,1.4949119563944637
1772709061445928400,0.528928466796875,-0.5173234996825457,-0.7274667178094386,1.2740233262389897
1772709061455954400,0.538954345703125,0.1248556292027235,0.76754329213202,-0.23777407930903136
1772709061465979600,0.548979736328125,1.9449387202650308,2.397655015480518,-1.7962689386241137
1772709061476004600,0.559004638671875,3.1457401584267615,2.0119524013519285,-1.3482180048711596
1772709061486029600,0.569029541015625,4.149858164015412,1.5611299570590256,-0.5576675658348947
1772709061496054500,0.579054443359375,5.379839519432187,1.9138012392014263,-0.2358680995572358
1772709061506079700,0.589079833984375,6.197918820580839,2.145991453963518,0.0863843711849302
1772709061516104700,0.599104736328125,5.9448062292993065,2.563402042520046,0.05934884554743766
1772709061526130700,0.609130615234375,5.865363859272003,3.0439784045636653,-0.18858469912838188
1772709061536155600,0.61915576171875,4.620232280996442,3.2395231884956357,-0.8681726078990847
1772709061546180600,0.6291806640625,3.1576942155927417,3.4188176793724296,-1.428980663716793
1772709061556205600,0.63920556640625,2.2012878092497585,3.823758077934384,-1.5164187086731196
1772709061566230500,0.64923046875,1.535248496827483,4.197320172414184,-1.3253097152315079
1772709061576255500,0.65925537109375,1.3469295724958181,4.268480451786518,-1.366137984704226
1772709061586280700,0.66928076171875,2.052218945288658,4.051543335735798,-1.7822424590982495
1772709061596306700,0.679306640625,3.0057711312443014,3.800921976748109,-2.2543252796933055
1772709061606331600,0.68933154296875,3.6178386149823663,3.3823686478972435,-2.465558338883519
1772709061616356600,0.699356689453125,3.9575153909951446,3.091357410854101,-2.31884597492069
1772709061626381600,0.709381591796875,3.846999837312102,3.2826088815063237,-1.9213798577621577
1772709061636406800,0.71940673828125,3.404402785050869,3.322043650794029,-1.3177736206382513
1772709061646431700,0.729431640625,3.308946268811822,3.417230117920041,-1.2230731103982775
1772709061656456400,0.73945654296875,3.4763083298325537,3.464941717165708,-1.3548352310538292
1772709061666482700,0.749482666015625,3.809558287668228,3.1758430357456207,-0.9983174295511096
1772709061676507400,0.75950732421875,4.169511543512344,2.8635768292278048,-0.8894096763908863
1772709061686532600,0.76953271484375,3.95606869931817,2.8896687173396347,-1.128492865537107
1772709061696557600,0.7795576171875,3.1471815894067285,3.6140094120830297,-1.5306377881616353
1772709061706582500,0.78958251953125,2.0149048214167355,4.4803456714004275,-2.1069465607762337
1772709061716607500,0.799607421875,0.7589888142764568,5.106542802777886,-2.3901667055517435
1772709061726632700,0.8096328125,-0.047044075247645374,5.272449988815188,-2.4015927933208645
1772709061736658700,0.81965869140625,-0.3794546596497297,5.107502587720751,-2.5436829043105242
1772709061746683600,0.82968359375,-0.4031400711417198,4.66781119377315,-2.9686516531616447
1772709061756708600,0.83970849609375,-0.7159206569224595,3.6600919488221404,-3.5051936480551955
1772709061766733600,0.849733642578125,-2.0565911690235135,1.9460785379499197,-3.599657061603665
1772709061776758800,0.8597587890625,-3.7320425017893313,-0.2656301275491714,-3.2430952017635106
1772709061786783700,0.86978369140625,-4.937774382090568,-3.3688147543191906,-2.250232165160775
1772709061796808400,0.879808349609375,-4.3896600228250025,-6.9918620438605545,-1.2512431930236518
1772709061806834700,0.889834716796875,-3.030738983762264,-10.680056636095046,-1.104899735438451
1772709061816859400,0.899859375,-1.9246715927839277,-13.569191684949397,-1.3289929337888955
1772709061826884600,0.909884521484375,-1.923085784897208,-13.578808239078521,-1.4907124588780105
1772709061836909600,0.91990966796875,-2.530076696023345,-11.005864461231232,-0.46079504531808196
1772709061846934500,0.9299345703125,-6.647099927407503,-8.016137286815047,1.3538463661469518
1772709061856959500,0.93995947265625,-11.724644014716148,-7.938094262191653,3.5180835247665643
1772709061866985500,0.9499853515625,-14.235337380355595,-10.352434455013274,5.923838844594359
1772709061877010700,0.9600107421875,-14.325063828510045,-10.31504843494892,5.724951179975271
1772709061887035600,0.97003564453125,-14.44411690891385,-10.23726026186943,5.6301008129358285
1772709061897060600,0.980060546875,-14.572642751061915,-10.128055206263065,5.664162072491646
1772709061907085600,0.99008544921875,-14.716175608205795,-9.993255106151103,5.792115667709708
1772709061917110800,1.00011083984375,-0.6279992123633623,-10.010220269477367,0.08932575839906931
1772709061927135500,1.010135498046875,1.8283347865790127,-7.705162873673439,-0.46841406895443793
1772709061937161700,1.02016162109375,3.9756098506122823,-5.307168250975012,0.08317819555476308
1772709061947186400,1.0301865234375,5.121877734553814,-2.7242116131573915,0.5953413898646831
1772709061957211100,1.040211181640625,6.052607263326644,0.042247488620877266,1.3449850142993032
1772709061967235800,1.05023583984375,6.947145534777641,2.6250264317840335,1.9347388132899999
1772709061977260800,1.0602607421875,7.5265160330504175,4.75789010862708,1.706602696224302
1772709061987285800,1.07028564453125,7.674365584349632,6.4490545588314525,0.7573311832625419
1772709061997311000,1.08031103515625,7.556442384758591,7.72269210062325,-0.5994619038607925
1772709062007337000,1.0903369140625,7.07131961145699,8.314753738164901,-1.7569544347152113
1772709062017362000,1.10036181640625,6.259657776135206,8.45090174575448,-2.361692306217551
1772709062027387000,1.110386962890625,5.56178306351304,8.34569365082979,-2.633246563118696
1772709062037411800,1.120411865234375,4.905365565916895,8.038415169596671,-2.808991837081313
1772709062047437000,1.13043701171875,4.336870097401738,7.6729446116358035,-2.8244325673192736
1772709062057462000,1.1404619140625,3.841468506669998,7.5610221137642855,-2.6961078007012604
1772709062067487000,1.150487060546875,2.7029800245583058,7.450316005945205,-2.224351581712067
1772709062077513000,1.160512939453125,1.6777894203245638,6.88987291098237,-1.3863272246435283
1772709062087538000,1.170537841796875,2.563079386436939,7.016435928624868,-1.9810214026458561
1772709062097563100,1.180563232421875,2.570323366215825,6.510376750278472,-1.6849854693084954
1772709062107587800,1.190587890625,3.2811341327786443,5.876043658718467,-1.550257119258493
1772709062117612800,1.20061279296875,3.8465748898983,5.462375179299712,-1.6470875541992485
1772709062127637800,1.2106376953125,3.9269466497302052,5.102979557338356,-1.0544831880830228
1772709062137663000,1.2206630859375,3.9757875452667473,4.907090490013361,-0.44582909298501905
1772709062147689000,1.23068896484375,4.157830458068847,4.926583710512519,0.03659892480727285
1772709062157714000,1.2407138671875,4.477880742591619,4.943023388659954,0.4524304640114307
1772709062167739000,1.25073876953125,4.891267482459545,4.903917120674252,0.73022449208498
1772709062177763800,1.260763916015625,5.353007042086124,4.792418401172757,0.8645855431925505
1772709062187789000,1.2707890625,5.758066683113575,4.855476622632145,0.7286097503647208
1772709062197814000,1.28081396484375,5.956667932006717,5.052131998154521,0.3998986415350809
1772709062207839000,1.2908388671875,5.780543887859583,5.095501768803596,0.20590905115585773
1772709062217865000,1.300864990234375,5.211453960582614,4.9416871716201305,0.3168183899294585
1772709062227890000,1.310889892578125,4.492810016176104,4.752712998250127,0.5524654306145385
1772709062237915000,1.320914794921875,3.2113042252272366,4.667741051146388,0.472762509954907
1772709062247939800,1.33093994140625,2.743756271582842,4.326017863997817,0.01961896577067673
1772709062257964800,1.34096484375,3.474796756225824,3.91388258549571,-0.2791506303142756
1772709062267989800,1.35098974609375,3.232219002962112,4.10603421985805,-0.9645092679735272
1772709062278015000,1.361014892578125,3.7370220437675714,4.18003819822371,-1.3760884469628334
1772709062288041000,1.371041015625,3.558455282643437,3.791597683563828,-1.5769086870796978
1772709062298066000,1.38106591796875,2.5344343067109585,3.1085563829362393,-1.1816712788213044
1772709062308091000,1.3910908203125,0.5068365924596786,2.281422837716341,-0.3039507615825161
1772709062318115800,1.40111572265625,-2.6998417265325783,1.0332453158736228,0.7518784708146006
1772709062328141000,1.41114111328125,-6.131091017454862,-0.610069587919116,2.1055231038443742
1772709062338166000,1.421166015625,-10.364496648728847,-4.7890404491722585,3.136891666060686
1772709062348191000,1.43119091796875,-14.61526725630164,-11.4104412871778,4.381392545217276
1772709062358217000,1.441217041015625,-14.533613055443762,-11.514682582896947,4.279923344559967
1772709062368242000,1.451241943359375,-14.45146434906721,-11.615130331552027,4.24387734092772
1772709062378267000,1.461266845703125,-14.350917231690882,-11.739303823709488,4.219908144058287
1772709062388291800,1.471291748046875,-14.230345563417671,-11.897910331344605,4.163810117000341
1772709062398316800,1.48131689453125,-14.116469008868933,-12.064167061471938,4.052278956533968
1772709062408341800,1.491341796875,-14.024317963916063,-12.212689397466182,3.925155382399261
1772709062418367000,1.501366943359375,-13.937367994737624,-12.351819635736941,3.844478794401884
1772709062428393000,1.51139306640625,-9.610628246206044,-10.831106444740294,7.5277715860694645
1772709062438418000,1.52141796875,-6.726098060798645,-11.160171225845813,7.583222839656472
1772709062448443000,1.53144287109375,-3.345628524520993,-8.419286125785112,6.209516319394111
1772709062458467800,1.5414677734375,-1.1666717895448206,-4.893169516688585,4.332587890037894
1772709062468493000,1.5514931640625,-0.07883797439336776,-1.2426894458204507,2.3575348942771552
1772709062478518000,1.56151806640625,-0.021669980016350746,2.2895178813666104,0.2844089892338961
1772709062488543000,1.57154296875,-0.8091331936269998,4.0405122386336325,-1.2917046750105916
1772709062498569000,1.58156884765625,-1.8287158948510884,4.702672079274058,-1.815514175711572
1772709062508594000,1.591593994140625,-2.021360281166434,5.42897501400113,-2.0726412633314726
1772709062518619000,1.601618896484375,-0.8852963958531618,5.9855965048491955,-2.5787501260384915
1772709062528643800,1.611643798828125,1.1652321121305227,5.912600242221355,-2.6850556608110665
1772709062538668800,1.621668701171875,3.412621162819862,5.536275112769007,-2.2081711390227077
1772709062548694000,1.631694091796875,5.434470688807964,5.226438763746619,-1.3257863928325473
1772709062558719000,1.641718994140625,6.647433104884624,5.161233593386411,-0.07344926709234714
1772709062568745000,1.651744873046875,7.670687188097834,5.350602903553844,1.0775169307332486
1772709062578770000,1.66177001953125,8.559458566585183,5.699263781011104,1.7547044638313352
1772709062588795000,1.671794921875,9.272339709681273,6.073300507265329,2.10732167769894
1772709062598820000,1.681820068359375,9.694648591673374,6.343168418514728,2.1571467619672418
1772709062608845000,1.691844970703125,9.541209257543086,6.384806250804663,2.117104382175207
1772709062618870000,1.7018701171875,8.889572564482688,6.0278118447661395,1.9232197865404188
1772709062628894700,1.711894775390625,7.929546798598766,5.3463218652337785,1.5929261942923068
1772709062638920000,1.721919921875,6.826508984574676,4.649498707491159,1.3029039682865142
1772709062648946000,1.73194580078125,4.352757986885309,3.95467052295804,1.6151994008988142
1772709062658971000,1.741970947265625,2.4427877041488886,2.686350961318612,2.6256495321184397
1772709062668995800,1.751995849609375,3.123141373127699,3.143439480268955,1.9297230309545992
1772709062679020800,1.762020751953125,3.1333991477698087,4.031617569038271,2.25885795468688
1772709062689046000,1.7720458984375,4.2252094653368,4.790778817272186,2.0859686546772718
1772709062699071000,1.782071044921875,5.010321731907129,4.7039732250005,2.2386956027545035
1772709062709096000,1.792095947265625,5.60936022272408,4.432143658289313,2.464103463900089
1772709062719122000,1.802121826171875,6.191368668285012,4.281169837489724,2.4531100684598086
1772709062729147000,1.81214697265625,6.426571508866548,4.16440925193727,2.3903427927710115
1772709062739172000,1.822172119140625,6.380248733630776,4.1030502356112,2.000772835689783
1772709062749197000,1.832197021484375,6.222658125039935,4.050731434831023,1.4760180169627068
1772709062759222000,1.842221923828125,6.258963364130258,4.0791695938080546,1.1398732875335962
1772709062769246700,1.852246826171875,6.385851375943422,4.0232904701977965,0.8320608455542474
1772709062779272000,1.86227197265625,6.112472826224566,3.920846579289436,0.3882309635624289
1772709062789298000,1.8722978515625,5.7454170448988675,3.8519215116232632,-0.15918693787157534
1772709062799323000,1.882322998046875,5.4361009203582995,3.8261896889954805,-0.6225467191111296
1772709062809347800,1.892347900390625,5.035962369120121,3.9735213539004324,-0.865027953197807
1772709062819372800,1.902372802734375,4.394004189509153,4.211747341695427,-1.0918575907748191
1772709062829398000,1.91239794921875,3.393088779354095,3.983097576019168,-1.609494467255473
1772709062839423000,1.922423095703125,2.006632667633891,2.7929589861690998,-2.0687324193246663
1772709062849448000,1.932447998046875,-0.34772155078053474,0.14761457349956034,-2.1169993143655357
1772709062859474000,1.942473876953125,-4.738176523375511,-4.961638657280802,-1.3277040630221366
1772709062869499000,1.952498779296875,-9.871433730077744,-12.467311808788775,0.5877957602581009
1772709062879524000,1.962524169921875,-12.237978152501583,-18.54696723803878,1.5255736366398631
1772709062889549000,1.972549072265625,-12.297358562231063,-18.48146454603672,1.54513378489539
1772709062899573800,1.98257373046875,-12.327323492383956,-18.448735996389388,1.5790392693676054
1772709062909598700,1.9925986328125,-12.293326530236005,-18.485588932490348,1.595930344544351
1772709062919624000,2.0026240234375,-12.205705529928206,-18.582575142514706,1.566934843945503
1772709062929650000,2.01264990234375,-12.099308517479896,-18.705055859279632,1.4730376859776675
1772709062939675000,2.0226748046875,-12.003038931292295,-18.824260915374754,1.3020020510107277
1772709062949699800,2.032699951171875,-11.936004791939258,-18.920811072069405,1.0724916499171406
1772709062959725800,2.042725830078125,-11.902582999330757,-18.983220474231242,0.8675675546780228
1772709062969750800,2.052750732421875,-11.894509582990407,-19.005406587076187,0.7731686577331275
1772709062979776000,2.06277587890625,-11.900264785516262,-18.991286876308916,0.8257889987431466
1772709062989801000,2.072801025390625,-4.399725489765405,-12.212965291798113,4.401701466013491
1772709062999826000,2.082825927734375,-1.6273779144704341,-9.777777541258931,3.835592015852034
1772709063009852000,2.092851806640625,0.5137210912764072,-7.072094687482714,3.7415015272691843
1772709063019876900,2.102876953125,2.549254274702072,-4.365402948924899,3.942885977140069
1772709063029902000,2.112902099609375,4.383663997280597,-1.9518360785633324,3.8014424934908746
1772709063039927000,2.122927001953125,5.7010763833910225,0.10707564236223698,3.023386867433786
1772709063049952000,2.132951904296875,6.3449839435040944,1.9116344165563581,1.8387775623992084
1772709063059977000,2.14297705078125,6.521261132386327,3.265996769401431,0.5838851992182433
1772709063070002000,2.153001953125,6.3776166315615175,3.9648470490574836,-0.36806744258627294
1772709063080028200,2.163028076171875,5.895820956856012,4.080131716838479,-0.508270863046497
1772709063090052900,2.173052978515625,5.823125138479471,3.793353002798557,-0.761970460435748
1772709063100077800,2.183077880859375,6.206649824047088,3.3962639022588728,-0.8571921450056135
1772709063110102800,2.193102783203125,6.871386821699142,3.405682887989282,-0.21174203162565827
1772709063120128000,2.2031279296875,7.686634114292263,3.4002895045131445,0.8126531844466924
1772709063130153000,2.213153076171875,8.334148174464701,3.4479140099972483,1.8473944379664957
1772709063140178000,2.223177978515625,8.626953309187293,3.9531647945702075,2.4335838224738833
1772709063150204000,2.233203857421875,8.267253735843301,4.786866612264514,2.4153837105251847
1772709063160228900,2.243228759765625,7.3170491067498915,5.511929191541672,2.229969421593845
1772709063170254000,2.253254150390625,4.90379086394608,5.417803631645441,2.2839498719759286
1772709063180279000,2.263279052734375,1.5033832860112188,3.7765316318571567,3.3727114694967866
1772709063190304000,2.273303955078125,1.548451092749834,4.10408571613878,2.805236868461966
1772709063200329000,2.283328857421875,2.0077882674098015,4.800389233921468,2.335321016642451
1772709063210354000,2.29335400390625,3.3896494525551795,4.505522198233008,1.8429834896564483
1772709063220379000,2.30337890625,4.45348513700366,3.7335172505170107,1.8270824484303592
1772709063230404900,2.31340478515625,4.980025962364674,3.2269945463120937,1.6895882869288323
1772709063240429800,2.323429931640625,5.015830266195535,2.9618285291433333,1.6741199380315839
1772709063250454800,2.333454833984375,4.577350001603365,3.0003572895020243,1.7201169884443281
1772709063260480000,2.34347998046875,4.205575375062227,3.223753956955671,1.6433179725326597
1772709063270505000,2.3535048828125,4.236745004829764,3.5038603536248205,1.5364878293640911
1772709063280530000,2.363530029296875,4.41653984644413,3.9177912833720443,1.2557165390454232
1772709063290555000,2.373554931640625,4.38259549126625,4.323374656012654,0.5263786205366253
1772709063300580900,2.383580810546875,4.049893814963102,4.4897781011343,-0.39062487296164033
1772709063310606000,2.393606201171875,3.8104432538092134,4.364306385859847,-1.189441985888034
1772709063320631000,2.403631103515625,3.7764854546278714,4.015886331421137,-1.7758919210277497
1772709063330656000,2.413656005859375,3.5554987709254022,3.134837656140327,-2.4302986633233723
1772709063340681000,2.423680908203125,2.8246120155394077,1.9066952065885066,-3.9360339192882177
1772709063350706000,2.433705810546875,1.6618927630126474,1.0847294193953274,-6.749471337601542
1772709063360731000,2.44373095703125,0.09783201319873333,1.047189670073986,-11.119850905895232
1772709063370755800,2.453755859375,-1.6112112080454826,1.7422499097973108,-15.603159518754481
1772709063380781800,2.46378173828125,-3.7202532797962427,3.0434552574723956,-18.37580753830075
1772709063390807000,2.47380712890625,-7.762008796489238,5.7064732739984985,-16.727099251031873
1772709063400832000,2.48383203125,-8.588396491777896,6.617918841108679,-12.832486014151572
1772709063410857000,2.49385693359375,-7.868749507808685,6.379353246095776,-8.335076979747415
1772709063420882000,2.5038818359375,-6.90658322276473,3.789643626886606,-3.5431823101878166
1772709063430907100,2.5139072265625,-5.931655655825137,-1.987823922267556,1.7461716132856904
1772709063440932000,2.52393212890625,-3.4681863981753587,-8.720016208288072,7.136779633361101
1772709063450957000,2.53395703125,0.4655944814890623,-9.915009836953878,8.727636035642027
1772709063460983000,2.543983154296875,3.208021550294757,-8.366227904814481,8.136933996015786
1772709063471008000,2.554008056640625,4.345876410678029,-7.977748811709881,7.820958998107909
1772709063481033000,2.564032958984375,3.137055332189798,-8.430325406193733,10.21029159092307
1772709063491058000,2.574057861328125,0.14226678273081778,-9.802179576587676,14.436025956916808
1772709063501083000,2.584082763671875,-4.163061928981542,-11.889529456490278,18.170722188085318
1772709063511107800,2.59410791015625,-6.106331839251518,-12.891491160827874,20.495752696859835
1772709063521133000,2.604133056640625,-5.913856964284181,-13.056706272947787,20.582439631187913
1772709063531159000,2.614158935546875,-4.388778563815355,-10.479649799084664,17.692499111169575
1772709063541184000,2.62418408203125,-3.2719173916220665,-8.686102248248458,14.064976137518881
1772709063551209000,2.634208984375,-2.4273504810422657,-5.584658327665925,10.080380431896447
1772709063561234000,2.64423388671875,-1.3278314887940883,-1.6404530846208334,6.08987813257873
1772709063571259100,2.654259033203125,-0.30369185491800305,1.8247300400853157,3.5787753093555565
1772709063581284000,2.6642841796875,0.5730833808273077,5.009380067142844,2.0127005893707275
1772709063591309000,2.67430908203125,1.307746147620678,7.307029817038774,0.49356180808395145
1772709063601333800,2.684333740234375,1.5459206974893807,8.560500769114494,-0.2710642814271152
1772709063611360000,2.694360107421875,1.2827110750854014,8.69279093223214,-0.5334693094499409
1772709063621385000,2.704385009765625,0.7697679824441671,7.9217820098161695,-0.6713187871951609
1772709063631410000,2.714409912109375,-0.16090777031481265,7.172451250723004,-0.7946728527285158
1772709063641435000,2.724434814453125,-0.9770464587897062,6.4819000128567215,-1.1126744610931725
1772709063651459800,2.7344599609375,-0.9368845442712307,5.906904660928249,-1.7782935753419995
1772709063661485000,2.744485107421875,-0.0022387188374996185,5.15683389712274,-3.0581299717739223
1772709063671510000,2.754510009765625,1.5091116005301475,4.0837691965579985,-4.633166581371427
1772709063681536000,2.764535888671875,2.7612340606063603,2.941949816457927,-5.331041878515482
1772709063691561000,2.77456103515625,2.8484488182008265,2.649615806378424,-4.91990437887907
1772709063701586000,2.7845859375,1.8777350695639847,2.9607834040045735,-3.724403677473962
1772709063711611100,2.794611083984375,0.8609042973965406,3.1944293705329296,-2.109925868847966
1772709063721636000,2.804635986328125,0.5748848772913218,3.4708258067682385,-0.6749477182820439
1772709063731660800,2.814660888671875,0.9317600408643484,3.8653798358723517,0.17463607061170042
1772709063741685800,2.824685791015625,1.381842480444908,4.145765341743827,0.3871217602115124
1772709063751711000,2.8347109375,1.851082040438056,4.2994995671674605,-0.058318479586392635
1772709063761737000,2.844737060546875,2.3562083218485115,4.266360390892625,-0.9431695428248494
1772709063771762000,2.854761962890625,2.7594039225697515,3.849407482975721,-1.6243670422166585
1772709063781787000,2.864786865234375,3.1799493020206686,3.3010230745971203,-1.754758093714714
1772709063791811800,2.874811767578125,3.5360032123386858,2.829266563346982,-1.5694721073381601
1772709063801837000,2.884837158203125,3.9311177979350087,2.485640757447481,-1.3685405158013104
1772709063811862000,2.894862060546875,4.361700587275624,2.4310785616546866,-1.2951301194146274
1772709063821887000,2.904886962890625,4.507913477283716,2.5692905160367485,-1.1828433182753622
1772709063831912000,2.914911865234375,4.6395466377973555,2.7984476467132566,-0.9375069139532745
1772709063841938000,2.92493798828125,4.804003040504456,3.112200876918435,-0.8153969301968812
1772709063851963100,2.934963134765625,4.7977404729783535,3.364295231068134,-0.9794523508876561
1772709063861988000,2.944988037109375,4.614022904962301,3.518143145999312,-1.5226666631519794
1772709063872012800,2.9550126953125,4.544717898067832,3.4238527509301897,-2.2563998940102756
1772709063882037800,2.965037841796875,4.6444595442801715,3.24738559243381,-2.7177994080275294
1772709063892063000,2.97506298828125,4.785082066935301,3.1642186489254236,-2.8214576431617138
1772709063902088000,2.985087890625,4.993861595493555,2.845068528112769,-2.5976801596969366
1772709063912113000,2.99511279296875,5.08055554408431,2.1501702009528874,-2.2925386904925107
1772709063922139000,3.005138916015625,5.215201330417394,1.3893372201144694,-1.4702221901655197
1772709063932163800,3.015163818359375,5.676075797647237,0.820184748995304,-0.2715282456770539
1772709063942189000,3.02518896484375,5.840141155210137,-0.38453824652433394,1.1105734702259302
1772709063952214000,3.035214111328125,4.758551787406206,-2.4072201316833493,2.895757389603555
1772709063962238200,3.04523828125,2.8500305344343184,-4.104717876562476,3.9740696354329583
1772709063972263400,3.055263427734375,0.571743656656146,-4.8690509744763375,3.1722400428175925
1772709063982288400,3.065288330078125,-2.3086323316812516,-5.4098237388074395,1.0923669285364448
1772709063992313300,3.075313232421875,-7.120787698981165,-7.018467726713419,-0.7265246146537363
1772709064002339300,3.08533935546875,-13.33369249176979,-9.801602068960666,-2.036444014660269
1772709064012364300,3.0953642578125,-17.759195396870375,-10.849171678262948,-4.824915480151772
1772709064022389200,3.10538916015625,-17.726240052729842,-10.881835930502413,-4.7872868835031985
1772709064032414200,3.115414306640625,-17.694959948325156,-10.924091017907857,-4.795440379342437
1772709064042439200,3.125439208984375,-17.66401302139759,-10.978756674075125,-4.852029697048664
1772709064052464000,3.135464111328125,-17.647365837979315,-11.023867735433578,-4.938488667839765
1772709064062489300,3.1454892578125,-17.664312296605107,-11.026383517646789,-5.026258721229434
1772709064072515300,3.155515380859375,-17.70949934580922,-10.981438460505007,-5.075061038321256
1772709064082540300,3.165540283203125,-17.76367751072049,-10.909030226898192,-5.066809927326441
1772709064092565200,3.175565185546875,-10.382671772366761,-4.4141158341676,8.518608085280656
1772709064102590200,3.185590087890625,-7.00214729103148,-5.454140434917807,7.2536045163214204
1772709064112615400,3.195615478515625,-3.2759061689972877,-5.1389942890495055,5.069167888629436
1772709064122640400,3.205640380859375,0.3705985684990883,-3.025384763252735,2.2445890447072685
1772709064132665300,3.215665283203125,3.4775428400635717,-1.5703607267409563,-0.6709467390123754
1772709064142690300,3.225690185546875,5.962842821249366,-0.5711871918171644,-3.0525846126064655
1772709064152716300,3.23571630859375,7.3613260553717605,0.29855040037631986,-3.339287338800728
1772709064162741200,3.2457412109375,8.354192014583944,2.125878640261292,-3.178005474476516
1772709064172766200,3.25576611328125,9.37860929635763,4.413166570618748,-3.2607956936269997
1772709064182791200,3.265791259765625,9.728100779420137,5.77288314397335,-2.3563790022403
1772709064192816400,3.27581640625,9.134577837154268,6.1840878636270755,-1.3659554677441716
1772709064202841300,3.28584130859375,7.583464247196912,4.914546651238203,-0.8569273565895855
1772709064212866300,3.2958662109375,6.817348357519507,2.8727117373198268,-2.0293454347014426
1772709064222891300,3.305891357421875,5.702489172798395,1.8901462228477,-2.3056278891682624
1772709064232917200,3.315917236328125,5.929409338203072,2.5027865380376575,-2.778750428074598
1772709064242942200,3.325942138671875,6.585589519912004,3.400044589841366,-3.280361979362368
1772709064252967400,3.335967529296875,6.748989107042551,3.571204874101281,-3.239205500848591
1772709064262992400,3.345992431640625,6.467605530044436,3.3506752865165472,-2.5944474613860247
1772709064273017300,3.356017333984375,5.6429649706840515,3.2070278630822897,-1.3589622478559613
1772709064283042300,3.366042236328125,4.47297426584959,3.2832842965498563,-0.16839776074402033
1772709064293067300,3.3760673828125,3.278672711101174,3.2947572922006247,0.5000204461714253
1772709064303092200,3.38609228515625,2.4330256040692326,3.316199016419053,0.5942746739486232
1772709064313117200,3.3961171875,1.9694132363080976,3.3990225533172485,0.3688292572716251
1772709064323143200,3.40614306640625,2.2748621640264988,3.5025285204991694,0.1586689053468406
1772709064333168400,3.41616845703125,2.7409949901759623,3.3517376550510525,0.11132069605346769
1772709064343193300,3.426193359375,3.0535879444301126,3.2071693173795937,0.27875607803873714
1772709064353218300,3.43621826171875,3.247693050947785,3.437285648477077,0.6267381794515997
1772709064363243300,3.4462431640625,3.1634406502902506,3.749173084810376,1.0221345776639879
1772709064373268500,3.4562685546875,3.1482933500409125,4.003877329197525,1.4552636904865504
1772709064383293400,3.46629345703125,3.2921126229107376,4.282825203481316,1.9832291418232022
1772709064393319400,3.4763193359375,3.7850095373451706,4.541906932300329,2.423725860804319
1772709064403344400,3.486344482421875,4.552720002737641,4.8657618698030705,2.5584847521230576
1772709064413369000,3.496369140625,5.292039070904255,5.207578580453991,2.3810879115611314
1772709064423394300,3.506394287109375,5.554030549690127,5.30517853846252,1.9676004877977071
1772709064433419300,3.516419189453125,5.409534984993934,5.3125481904476874,1.4186772963672876
1772709064443444200,3.5264443359375,5.1002235366284845,5.346497806322574,0.5892347435526549
1772709064453469200,3.53646923828125,4.938421447822451,5.265943091139197,-0.3596428747206926
1772709064463494400,3.546494384765625,4.97757097042799,5.023526665917038,-1.4509101714521646
1772709064473520400,3.556520263671875,5.147742828172445,4.551368588128685,-2.635674667048454
1772709064483545300,3.56654541015625,5.394367226478457,4.3656215601116415,-3.598034428837895
1772709064493570300,3.5765703125,5.3427790780603885,4.6892204770267005,-4.25609384842217
1772709064503595300,3.58659521484375,4.789840659639239,5.042275205528735,-4.53388670745194
1772709064513620500,3.596620361328125,3.844777485087514,5.137174087885022,-4.437830471754074
1772709064523645400,3.6066455078125,2.6365035190880297,4.84698176600933,-3.889297010293603
1772709064533670100,3.616670166015625,1.2018763739168643,3.6311177832722663,-3.1452161345526575
1772709064543695000,3.626695068359375,-0.9761866270899772,1.1411024640023708,-2.1532605681836605
1772709064553721000,3.63672119140625,-5.059027602887153,-2.586843123862147,-0.333723274435848
1772709064563746300,3.646746337890625,-10.023283164668083,-8.207437272784114,2.6486788177892566
1772709064573771300,3.656771240234375,-11.015610779219864,-11.718518225312232,3.94535412081927
1772709064583796200,3.666796142578125,-9.72770272001326,-13.137141161143779,3.2195275714322924
1772709064593821200,3.6768212890625,-9.684493692883848,-13.194685003095865,3.3059014942884444
1772709064603846400,3.686846435546875,-9.535955574798583,-13.356236332011221,3.2949609980791803
1772709064613871400,3.696871337890625,-9.313188437420129,-13.596250372266768,3.1544121251821515
1772709064623896300,3.706896240234375,-9.077223964816332,-13.863013303238153,2.8957334242060777
1772709064633922300,3.71692236328125,-8.883186078315973,-14.102280324518679,2.559752287840843
1772709064643947300,3.726947265625,-8.750647493395208,-14.28831376826167,2.251443148385733
1772709064653972500,3.736972412109375,-8.652241479700804,-14.440457801884412,2.082808290950209
1772709064663997200,3.7469970703125,-9.240183991485834,-11.330104598659275,12.06147826077938
1772709064674022100,3.757022216796875,-6.311730493199825,-8.513588795813918,9.152288265889883
1772709064684047000,3.767047119140625,-5.78067832789421,-4.775895136395096,5.356245293354988
1772709064694072300,3.777072265625,-6.359700451120734,-2.244262735362351,1.7404954673454165
1772709064704097300,3.78709716796875,-6.829051654794812,-0.5228109911829233,-1.6453978475466369
1772709064714123300,3.797123291015625,-5.34598342705965,1.6483306861281395,-4.903844055438041
1772709064724148200,3.807148193359375,-1.7187953844517467,2.8572520101204515,-7.831078241062164
1772709064734173200,3.817173095703125,2.2677491171509025,3.681066640050709,-9.083635000902413
1772709064744198400,3.827198486328125,5.286973019686341,5.235075074666738,-8.634325883781909
1772709064754223400,3.837223388671875,7.05246351981759,6.808013542941212,-6.906792481601238
1772709064764248300,3.847248291015625,7.915245301523804,6.97931820410788,-4.441024007098377
1772709064774273300,3.857273193359375,7.976005182912945,6.049367258492111,-2.198373236977309
1772709064784298200,3.86729833984375,7.666942156350612,5.568749395394325,-0.7287198596756905
1772709064794323200,3.8773232421875,7.574677129629254,5.858810199844837,-0.0970244231428951
1772709064804349200,3.88734912109375,7.632646503517031,5.864194815492629,-0.15727116737812757
1772709064814374100,3.8973740234375,7.530925081664323,5.505451519960165,-0.5679989171698689
1772709064824399400,3.9073994140625,7.2147612831860775,5.179096582335234,-1.0652596528369933
1772709064834424300,3.91742431640625,6.733105309212207,5.0675984473556275,-1.4979919483616948
1772709064844449300,3.92744921875,6.204947111782431,5.079506911814213,-1.7707888988003133
1772709064854474200,3.93747412109375,5.768340239846706,4.963095870351791,-1.6363289904281495
1772709064864499500,3.94749951171875,5.670767169845104,4.750783491492271,-1.1534930859547108
1772709064874524400,3.9575244140625,5.831116137233376,4.5230829893648625,-0.4806052228119224
1772709064884550400,3.96755029296875,6.014730244874954,4.238493894323707,0.11311163459084927
1772709064894575400,3.977575439453125,6.045760173910856,4.095997686751186,0.4936350925158709
1772709064904600300,3.987600341796875,5.914187803673744,4.047598982024192,0.5476804978929459
1772709064914625300,3.997625244140625,5.741867243462801,3.85829659961313,0.2706668065421283
1772709064924650200,4.007650146484375,5.614091927421093,3.4837297120049593,-0.38722448993362485
1772709064934675200,4.01767529296875,5.687772080659866,3.2506536543190476,-1.1716734702896325
1772709064944700200,4.0277001953125,5.920110763981938,3.3275855028301478,-1.8208442846931516
1772709064954725400,4.037725341796875,6.450445136407017,3.4475229648530483,-2.2368051128327844
1772709064964750800,4.047750732421875,7.0455357663810245,3.4889983000576494,-2.4782056390106675
1772709064974776800,4.05777685546875,7.4689622542262075,3.7649049069494005,-2.4448075195387005
1772709064984801800,4.0678017578125,7.535151759448647,4.230855946791172,-2.230181018517911
1772709064994826800,4.07782666015625,7.300645084437727,4.761120176589489,-2.0367016426831483
1772709065004851700,4.087851806640625,7.230020227116346,5.279387094601988,-1.6266186205357311
1772709065014877000,4.097876953125,7.368800336775183,5.520845488446951,-1.1659054082822053
1772709065024902000,4.10790185546875,7.5332444645226,5.336873653408885,-0.8258774076789617
1772709065034926800,4.1179267578125,7.585102662053703,5.096549816551804,-0.6002621873930096
1772709065044951600,4.12795166015625,7.457173616755008,4.995453833121061,-0.7521259427696466
1772709065054977800,4.137977783203125,7.106243040800094,4.885205405941606,-1.2773141844779252
1772709065065002800,4.148002685546875,6.388675201192497,4.462571529778838,-2.0438342710420487
1772709065075027700,4.15802783203125,5.130498847904801,3.44595293905735,-2.9803441367819903
1772709065085052700,4.168052734375,2.9729373676568267,0.8601964413881301,-3.8479634216472505
1772709065095077600,4.17807763671875,-0.49661505817472934,-4.845045829510688,-4.919557172876596
1772709065105102800,4.188102783203125,-5.400877631285787,-14.680683439064024,-5.336418895378708
1772709065115127800,4.1981279296875,-8.446087623471021,-22.483192588245867,-6.280205474123358
1772709065125152800,4.20815283203125,-8.365958440223336,-22.603082703995703,-6.447434848675131
1772709065135178800,4.2181787109375,-8.285174592459201,-22.73427279691696,-6.629858285227417
1772709065145203700,4.22820361328125,-8.225185695442557,-22.85726789294481,-6.893775763639807
1772709065155229000,4.23822900390625,-8.206898928123712,-22.941179517340657,-7.194606383907795
1772709065165254000,4.24825390625,-8.232297573274373,-22.963933785462377,-7.448306419688463
1772709065175278800,4.25827880859375,-8.285551609078048,-22.921525553321835,-7.58440123578608
1772709065185303800,4.2683037109375,-8.338360239201783,-22.832619773900507,-7.545823375588655
1772709065195328800,4.278328857421875,-8.369507072615622,-22.72848836829662,-7.312218617853522
1772709065205353700,4.288353759765625,-7.655946130561828,-13.130400454711912,15.960515159320831
1772709065215379700,4.298379638671875,-5.478253131911158,-13.674884933042526,10.246294632196426
1772709065225404700,4.30840478515625,-3.437463343131542,-11.91582358917594,4.924178402936458
1772709065235430000,4.318429931640625,-2.5543624114960433,-8.232819551321864,1.1869211621735245
1772709065245454800,4.328454833984375,-3.648888417762518,-4.070762999990582,-1.139671189090237
1772709065255479800,4.338479736328125,-5.499988578379154,0.2794710213750601,-2.005484082120657
1772709065265504800,4.3485048828125,-7.119713347747921,3.842785142226517,-0.8839818061232566
1772709065275530000,4.358530029296875,-7.602671636492014,6.0467591218203305,1.4590844178184865
1772709065285555000,4.368554931640625,-6.002800153106451,7.073773434349894,3.848278186684847
1772709065295581000,4.378580810546875,-2.789794969180226,7.341088738507032,5.521013830751181
1772709065305606000,4.38860595703125,0.44022915408611296,7.764531008443236,6.614631490001082
1772709065315630600,4.398630615234375,2.661798119342327,7.905155284664034,7.436439456284046
1772709065325655800,4.40865576171875,4.234510377645492,7.20763245421946,7.651312625542283
1772709065335680800,4.4186806640625,5.4946402030885215,6.474817361119389,7.131053656929731
1772709065345705700,4.428705810546875,6.2214107553273434,6.261202082967758,6.237889011919498
1772709065355730700,4.438730712890625,6.4920402985990044,6.446583784803748,5.194579398149251
1772709065365756000,4.448755859375,6.298488734310865,6.832351865383982,4.305059247121215
1772709065375782000,4.458781982421875,5.776094507235288,7.360553317433595,3.576564647568762
1772709065385806800,4.468806884765625,5.069007729631662,7.880900548851489,3.222351396681368
1772709065395831800,4.478831787109375,4.229214609324932,7.9490780130207535,3.1919638572022317
1772709065405856800,4.488856689453125,3.603622458103299,7.49571991277039,3.030528555881977
1772709065415882000,4.498882080078125,3.354545405948162,7.020864850983023,2.846649367563426
1772709065425907000,4.508906982421875,3.6209231369942425,6.681628219953179,2.7959119907557963
1772709065435931600,4.518931640625,4.260797496068477,6.25026860102117,2.673607799601555
1772709065445956600,4.52895654296875,5.154857044091821,5.529572400259971,2.3313626344054934
1772709065455982600,4.538982666015625,6.013850539430975,4.614364265745878,1.880468878442049
1772709065466007800,4.5490078125,6.651694853982329,4.119955777704716,1.6046929121926425
1772709065476032800,4.55903271484375,6.9137401087820525,4.161963612350822,1.620850558528304
1772709065486057700,4.5690576171875,6.868513896611333,4.349691585052013,1.938317548559606
1772709065496082700,4.579082763671875,7.00544633257687,4.580518694767355,2.326577299825102
1772709065506108000,4.58910791015625,7.389006673979758,4.640219422492384,2.3528715786412358
1772709065516132900,4.5991328125,7.777945201289653,4.679395248582959,2.1236437208160757
1772709065526157800,4.60915771484375,8.049356834849714,4.764813770410418,1.769322041118145
1772709065536183800,4.619183837890625,8.24774531777501,4.841694765517115,1.2575146745085715
1772709065546208800,4.629208740234375,8.123253261187672,5.067423090788722,1.0336147337079047
1772709065556234000,4.63923388671875,7.515073432537913,4.9371805078506465,0.8450816551689058
1772709065566259000,4.649259033203125,6.427479855883121,4.505786986649036,0.5081498670153319
1772709065576283600,4.65928369140625,4.952000475841761,4.498895473569632,0.2424634792342782
1772709065586308600,4.66930859375,3.3192999050438403,4.4210529399544,0.15553089958205818
1772709065596333800,4.679333740234375,1.7140397143572568,3.5232343316584824,0.06684343908652662
1772709065606358800,4.68935888671875,0.39033085845112797,1.7756974213689565,0.2563952662140131
1772709065616383700,4.6993837890625,-0.08019815683066844,0.23949615386128426,0.5873901385992765
1772709065626409700,4.70940966796875,-0.44978491793870923,-0.48752924992144103,0.8353715044721961
1772709065636434700,4.7194345703125,-1.8824328719913959,-2.30695592290163,0.7548929232649505
1772709065646460000,4.7294599609375,-4.1603608533293,-6.535476120221614,1.017922732122615
1772709065656484900,4.73948486328125,-5.795587143212557,-11.971261983281373,1.5742299693897366
1772709065666509800,4.749509765625,-4.241923284250498,-14.200526763737201,0.8593066529415547
1772709065676534800,4.75953466796875,-4.340730279961228,-14.070096549272536,1.0650584311764686
1772709065686559700,4.769559814453125,-1.8723592217445373,-11.043665491837263,-1.7013325007364153
1772709065696586000,4.7795859375,-7.181024433279037,-8.235788337999582,-2.078359056456387
1772709065706610700,4.789610595703125,-16.1770244053483,-6.114449094733596,-1.4283718841686843
1772709065716635600,4.7996357421875,-23.339788374793528,-5.799007180789113,0.6465238070260733
1772709065726660600,4.80966064453125,-23.35571542724371,-5.78080984531939,0.6477329636201262
1772709065736685800,4.819685791015625,-23.455554104089735,-5.668268338766694,0.6925787251058966
1772709065746710800,4.829710693359375,-23.61436870151758,-5.497572164887189,0.8639966373886913
1772709065756735700,4.83973583984375,-23.81721182576418,-5.301804678115248,1.1728816039703787
1772709065766760700,4.8497607421875,-24.043129536128042,-5.117008082690835,1.5578613106518984
1772709065776786700,4.85978662109375,1.2242530408978463,-10.671735382473468,-4.103942216014862
1772709065786812000,4.86981201171875,3.081396573331952,-8.414315936157108,-4.460157746635377
1772709065796836900,4.8798369140625,4.203790245211124,-5.837638232478499,-4.100172634348273
1772709065806861800,4.88986181640625,5.02585657016933,-2.3006688054561613,-4.350225253537297
1772709065816886800,4.89988671875,5.7116001154929394,1.9725474426805971,-4.2732256004869935
1772709065826911700,4.909911865234375,4.633427278134227,4.887894791156053,-2.12746795527935
1772709065836936700,4.919936767578125,0.9586544775307178,4.334949358472228,0.4543837169710547
1772709065846961700,4.929961669921875,-5.966181610283256,2.557048289579153,0.3061489657465368
1772709065856987000,4.93998681640625,-11.208936718058585,2.3432056324124333,-2.4480714897707103
1772709065867012900,4.950012939453125,-11.213126570963858,3.9678403856545685,-5.061377965405583
1772709065877037800,4.960037841796875,-9.288581819429993,4.59662577995956,-5.757786112606525
1772709065887062800,4.970062744140625,-6.151303199878335,3.668600833970308,-4.7796349074453115
1772709065897087700,4.980087646484375,-1.5650748952925204,3.08798413502872,-3.2846512009888884
1772709065907113000,4.990113037109375,2.8983418531388043,3.154821290504932,-2.325033723644912
1772709065917138000,5.000137939453125,6.161212599474191,3.3841029243439436,-1.6295849229954182
1772709065927163000,5.010162841796875,8.110875425651669,3.4636738891869783,-1.0680218840919435
1772709065937188900,5.02018896484375,8.720814665189385,3.507632273378968,-0.46806934716999526
1772709065947213800,5.0302138671875,8.553978089347481,4.036888202917575,-0.6299830796569585
1772709065957238800,5.04023876953125,8.156858593669533,5.023812497121096,-0.7394009742964058
1772709065967263700,5.050263671875,7.689521067905425,6.100152273833752,-0.6501042227961122
1772709065977288700,5.060288818359375,6.995000926408172,6.6637973797082894,-0.054041021462902426
1772709065987313700,5.070313720703125,5.74696018268764,6.474450865894556,1.042487702928111
1772709065997339000,5.0803388671875,3.715058633762598,5.783686862060427,2.9258894930168986
1772709066007363800,5.09036376953125,3.69813906314373,5.58735297357738,2.641788766014576
1772709066017389800,5.100389892578125,3.417282140368223,6.225794084978103,1.678585539138317
1772709066027414800,5.110414794921875,3.8356969375312326,6.9720017436146735,0.16307528707962482
1772709066037439700,5.120439697265625,4.241937897297739,7.147162495687604,-0.9634801441214979
1772709066047465000,5.13046484375,4.238817134928703,6.978686920467019,-1.3447500364996492
1772709066057490000,5.140489990234375,3.9148511382669207,6.833727245390415,-1.3405771347291766
1772709066067515000,5.150514892578125,3.553267066350579,6.86943334954381,-1.0319288264475763
1772709066077539600,5.16053955078125,3.5881957563906908,7.030248765400052,-0.4944843662889674
1772709066087564800,5.170564697265625,4.136448647344112,7.2824004026949405,0.043344928468763824
1772709066097589800,5.18058984375,4.5168636764585965,7.648788075500726,0.5590937261804938
1772709066107615700,5.19061572265625,4.553808967018127,7.9637886754184954,1.0793981413699687
1772709066117640700,5.200640625,4.2785956030875445,8.161087025019526,1.2004554742682725
1772709066127665700,5.210665771484375,4.039935315528512,8.098108883059025,0.9146686208099126
1772709066137691000,5.22069091796875,3.802137197756767,7.466262932139634,0.27431729187369347
1772709066147715800,5.2307158203125,3.339808440065384,6.380761943849921,-0.766989822967723
1772709066157740800,5.24074072265625,2.2113550297558304,5.054541397383809,-1.4505916070222853
1772709066167765800,5.250765869140625,0.8637479963898659,3.361826210606098,-1.5164572871178388
1772709066177791700,5.260791748046875,-0.2859428477376699,1.0553437504351137,-0.9107891490280627
1772709066187817000,5.27081689453125,-1.278047759449482,-1.686228162845969,0.3455494674384594
1772709066197842000,5.280842041015625,-2.1317899101316926,-4.308142600089312,2.0167052949674424
1772709066207867000,5.290866943359375,-2.578264096087217,-6.426438822397589,3.461201361593604
1772709066217891600,5.3008916015625,-3.5872277881413694,-8.797142702588438,3.768165954571962
1772709066227916800,5.310916748046875,-4.690426930207014,-10.944161161512136,2.3557703688226637
1772709066237941800,5.320941650390625,-5.303381133651733,-11.93268003143072,-0.13475932971015572
1772709066257364700,5.34036474609375,-6.388008261716365,-12.467398318028449,-1.5901476694896817
1772709066267389700,5.3503896484375,-7.289143447214364,-12.816481804811954,-0.8431063365079462
1772709066277415000,5.360414794921875,-8.682390534248947,-12.143987032639979,0.8501052554845809
1772709066287440000,5.37043994140625,-10.039462730574607,-10.941871004748343,2.6234453000724316
1772709066297465900,5.3804658203125,-8.86923938602805,-12.161818457406758,4.715393029159308
1772709066307490800,5.39049072265625,-5.1159197029322385,-14.543863231301307,6.469953554475307
1772709066317515800,5.400515869140625,-2.1187334446817636,-15.762696585237979,7.139445053178072
1772709066327541000,5.410541015625,-1.3607272117018698,-14.21916132158041,6.159898594266176
1772709066337566000,5.42056591796875,-2.0694874754756687,-10.784805296814442,4.164990266695618
1772709066347590700,5.430590576171875,-2.4567080929517746,-7.697576364067197,2.373501986476779
1772709066357615600,5.44061572265625,-2.2977923732370136,-5.17824493394196,1.3423906138919293
1772709066367640800,5.450640869140625,-2.04691791627109,-2.651887550702691,0.9823615163326263
1772709066377666800,5.460666748046875,-2.065450767305493,0.12829261791408061,0.9467737778618931
1772709066387691800,5.47069189453125,-1.8584867637366056,2.631717453855276,1.2369552860826254
1772709066397716700,5.480716796875,-1.2409458170235157,4.1715298975974315,1.5886830037645994
1772709066407741700,5.49074169921875,-0.31701252426207066,4.936330028501152,1.5867150646924972
1772709066417767000,5.500766845703125,0.7229448564708233,5.053197581559419,1.3936469000071285
1772709066427792000,5.5107919921875,1.8169377787739038,4.64957118820548,1.3359713944993912
1772709066437816800,5.52081689453125,3.028604309821129,4.172878974118828,1.1569123198136686
1772709066447841800,5.530841796875,4.448323808717728,3.726540981763601,0.5611936210691929
1772709066457867800,5.54086767578125,5.788408629885316,3.6560388740390537,-0.08436945116594434
1772709066467893000,5.55089306640625,6.418523811489344,3.9704029296189542,-0.478336766423285
1772709066477917700,5.560917724609375,6.53255643338263,3.834983236303925,-0.7876223496951162
1772709066487942700,5.570942626953125,6.170140586817264,3.8183389754950996,-1.2262938990756869
1772709066497967600,5.580967529296875,5.040996271634102,4.3068122282683845,-1.4392331776618956
1772709066507992800,5.590992919921875,3.8372821608960628,4.972506088253855,-0.9535688448294997
1772709066518017800,5.601017822265625,2.953347116523981,5.451899377992749,-0.22688144082948564
1772709066528042800,5.611042724609375,2.38644271659255,5.844501103985309,0.23357845425009727
1772709066538068700,5.62106884765625,2.369687981146574,6.035511167097091,0.5993346972845495
1772709066548093700,5.63109375,2.837787723454833,6.148219846910238,0.8102432006955146
1772709066558119000,5.641118896484375,3.409569958555698,6.33318770724833,0.7348191263988614
1772709066568144000,5.651143798828125,3.9769507438272234,6.224424550190568,0.2677970232594758
1772709066578168800,5.6611689453125,4.338105192154646,5.9418900495916604,-0.6422910648271442
1772709066588193800,5.67119384765625,4.4539106689393515,6.011020284441113,-1.2605283232413231
1772709066598846700,5.6818466796875,4.400416394639015,6.361698346939683,-1.1259689000174402
1772709066608871700,5.69187158203125,4.42957468458414,6.513388207054138,-0.7399970404934137
1772709066618896600,5.701896728515625,4.572480934262275,6.822018687418103,-0.41756241811737416
1772709066628921900,5.711921875,4.792967851749062,6.848101223179698,-0.1054320398736745
1772709066638946800,5.72194677734375,4.998188226521015,6.5808373569488525,0.15869798531085252
1772709066648972800,5.731972900390625,5.1941947827458375,6.324373117151856,0.044949806382134555
1772709066658997800,5.741997802734375,5.244590506508946,6.1423220210433005,-0.3895809168666601
1772709066669022700,5.752022705078125,5.138077758726477,5.7250499641746275,-0.7438977011937647
1772709066679048000,5.7620478515625,4.92939701436758,5.065336347642541,-0.8982162293113768
1772709066689073000,5.772072998046875,4.909648357802629,4.067687245807051,-0.618924144699797
1772709066699097900,5.782097900390625,4.777732288694382,2.698181099843979,-0.140980030855909
1772709066709122800,5.792122802734375,4.354941176143289,0.6540571982055902,0.28576230353899296
1772709066719148800,5.802148681640625,2.930961097192764,-2.2413708133131265,0.46049080167450007
1772709066729174000,5.812174072265625,-0.3009282354235649,-6.053764616668224,0.19818236589394508
1772709066739198700,5.82219873046875,-4.872354692196846,-9.662228669583797,-1.1753588808041064
1772709066749223700,5.8322236328125,-9.355548738765716,-11.385869155979156,-3.6812639161884784
1772709066759248600,5.84224853515625,-12.878167568874359,-10.822435647028684,-5.483534871706366
1772709066769273900,5.85227392578125,-16.122897678363323,-10.510255365228652,-6.443345533534884
1772709066779298800,5.862298828125,-16.045011305606366,-10.601448963326215,-6.409403516444564
1772709066789323800,5.87232373046875,-16.036519371593,-10.612163249564171,-6.39021892350316
1772709066799349800,5.882349853515625,-16.120526857578753,-10.51902319357395,-6.303838863167166
1772709066809374700,5.892374755859375,-16.29016913849115,-10.340783764708041,-6.139742525944113
1772709066819400000,5.90239990234375,-16.515627414649725,-10.122959344428777,-5.928068444988131
1772709066829425000,5.9124248046875,-16.738544189631938,-9.93170027499199,-5.687909443303942
1772709066839449900,5.922449951171875,-16.888945178979633,-9.826420868396758,-5.449773471879959
1772709066849474800,5.932474853515625,-16.91901415402889,-9.83430840677619,-5.254260252130031
1772709066859499800,5.942499755859375,-16.81681400874853,-9.956126275718212,-5.1280988010257476
1772709066869526000,5.952526123046875,3.4857933665364977,-7.920090403467416,-0.23978403089195488
1772709066879550700,5.96255078125,2.7475053949832913,-3.198119749483466,-1.5154749980822204
1772709066889575700,5.97257568359375,1.4055319835901259,0.7801485066831112,-2.451862406486273
1772709066899600600,5.9826005859375,-1.345577573364973,3.1684108399182556,-2.521079442836344
1772709066909625900,5.9926259765625,-3.652829848864674,3.65584130564034,-2.1799550983637572
1772709066919650800,6.00265087890625,-4.437698954328894,3.1496003409862516,-2.872214309191704
1772709066929675800,6.01267578125,-3.653127370506525,3.509740059313178,-4.118780888706445
1772709066939700700,6.02270068359375,-1.5620231065064667,3.5804882507532834,-4.304249099782109
1772709066949726700,6.032726806640625,1.0795663375437259,2.93658244420588,-3.6037881700590253
1772709066959752000,6.042751953125,3.8528251824647186,2.7403625374913214,-2.8397525937870145
1772709066969776600,6.052776611328125,6.189624454966187,3.302694222679734,-2.011352535762638
1772709066979801600,6.062801513671875,7.73072986112833,4.101890544182062,-1.0540979881577193
1772709066989826600,6.07282666015625,8.583336285778879,4.756118422779441,0.05901756776645779
1772709066999851500,6.0828515625,8.801611372435092,5.332029720509052,1.159088933200389
1772709067009876500,6.09287646484375,8.936946894598007,6.183347274392843,1.6198989568918942
1772709067019902500,6.10290234375,9.057613839939236,6.62483724219501,2.01179136557132
1772709067029927400,6.112927490234375,8.96716959890425,6.073790921130776,2.48237854078114
1772709067039952600,6.12295263671875,8.25975665808618,5.469061525195837,2.6064722457006573
1772709067049977600,6.1329775390625,6.565899900057912,5.355230563354492,2.6026614552408454
1772709067060002600,6.14300244140625,5.756707085198164,5.366826308602095,1.6737582651123404
1772709067070027500,6.153027587890625,5.208056719359755,5.6002288217633955,0.31900676681920886
1772709067080052700,6.163052734375,4.637921666944027,5.744413420814276,-0.18413272468820213
1772709067090077700,6.17307763671875,4.427713566887379,5.624165577667951,-0.32197628414928914
1772709067100103700,6.183103759765625,3.996299587419629,5.14527146962285,0.0704267044007778
1772709067110128600,6.193128662109375,3.8465520935446023,4.62465418909192,0.6129926357589661
1772709067120153300,6.2031533203125,4.14391240735352,4.3939884074181315,1.1625243144765496
1772709067130178600,6.213178466796875,4.60570749655962,4.538173590990901,1.6553230292335153
1772709067140203500,6.22320361328125,4.959035781306028,4.869148005110025,1.9301798348113894
1772709067150228500,6.233228515625,4.992081141817569,5.2163943395942445,1.9459858912304042
1772709067160253400,6.24325341796875,4.284260204720497,5.609630856359004,1.5677420686751604
1772709067170278700,6.253278564453125,2.762232423993945,5.960313595032692,1.118309252109751
1772709067180304600,6.2633046875,1.106047517234087,5.913278287613392,0.7807496143814175
1772709067190329600,6.27332958984375,0.11678162834048271,5.620184983599185,0.527101089592278
1772709067200354600,6.2833544921875,-0.04347673815488815,4.914217565414309,0.20629406841807066
1772709067210379500,6.293379638671875,-0.07681377508938313,3.8870536152809856,-0.15253851283304393
1772709067220404700,6.30340478515625,-0.5207084659457206,2.7767630536496637,-0.32486068047918376
1772709067230429700,6.3134296875,-1.5381173302620648,1.4280997892290352,0.07168773731254041
1772709067240454400,6.323454345703125,-3.010992080762982,-0.3746054660528898,0.569205370350182
1772709067250480600,6.333480712890625,-5.474413407617807,-2.1874697117775677,1.1249281587928532
1772709067260505300,6.34350537109375,-8.710560982200503,-3.7369624225348232,2.305633295995742
1772709067270530600,6.353530517578125,-10.88922779431939,-5.389602204033732,3.7499347168326373
1772709067280555500,6.363555419921875,-10.981744749975205,-7.029387180134654,4.008534799614549
1772709067290580500,6.37358056640625,-9.993657257211208,-8.894563796898723,2.1915223481692374
1772709067300605400,6.38360546875,-9.569834463524819,-11.212703377115727,-0.6793316324546933
1772709067310630700,6.393630615234375,-11.381861673903465,-12.999348308956622,-2.577410694128275
1772709067320655600,6.403655517578125,-11.385046149158477,-12.999038512355089,-2.5482518196612594
1772709067330681600,6.413681640625,-11.383071634215115,-12.996699255752564,-2.5962568488955498
1772709067340706600,6.42370654296875,-11.414421881246566,-12.962357425689696,-2.6827161119475957
1772709067350731500,6.4337314453125,-11.481064390933513,-12.898128991407155,-2.778166490706801
1772709067360756700,6.4437568359375,-11.546783356034755,-12.837793472909926,-2.8568112806156276
1772709067370781400,6.453781494140625,-11.573971807211636,-12.812794640731811,-2.9041356341093776
1772709067380806400,6.463806396484375,-6.897301015156507,-11.413618748170137,2.3505142018601295
1772709067390831400,6.473831298828125,-5.67357112134993,-8.559528709211945,0.7234003451533615
1772709067400857300,6.483857421875,-3.9065883368343113,-5.677676803103089,-1.1034678760044276
1772709067410882600,6.493882568359375,-1.8458453088283537,-2.8101509439885612,-2.088798909667134
1772709067420907500,6.503907470703125,0.06969196038544177,0.667472560095787,-1.9695555673882363
1772709067430932500,6.513932373046875,1.3515619084715842,3.903631240594387,-0.8623225666966289
1772709067440957400,6.52395751953125,2.594008777707815,5.380935497975349,0.5323355196470394
1772709067450982700,6.533982666015625,3.673211542636156,5.8457578260481355,1.5201789379894732
1772709067461007600,6.544007568359375,4.080309996014833,6.0697916223615405,1.972544958462566
1772709067471032600,6.554032470703125,4.485083221316337,5.5854035930752755,1.7806547515153883
1772709067481058600,6.56405859375,5.3714019459545606,4.669821949073672,0.9829796482309698
1772709067491083500,6.57408349609375,6.408511536040902,4.051318294808269,-0.23658516178540884
1772709067501108700,6.584108642578125,7.386029119473696,4.015322852319478,-1.4150292952537535
1772709067511133400,6.594133544921875,8.489420569241046,4.3790141256481405,-2.487378541025519
1772709067521158400,6.604158447265625,9.34522608219385,4.893322661423682,-3.1357100550606845
1772709067531183400,6.614183349609375,9.786260707443953,5.429022944796085,-3.1922534877985713
1772709067541208600,6.62420849609375,9.837751240706444,5.9005865638226265,-2.606936940602958
1772709067551234600,6.634234619140625,9.615106268402933,6.00668079393208,-1.6464136004604397
1772709067561259500,6.644259521484375,9.06221052007973,5.869833698162436,-0.6342408832319081
1772709067571284500,6.654284423828125,8.271810083973408,5.582432468309999,0.1384978586513549
1772709067581309400,6.664309326171875,7.53031659437716,5.307756864517927,0.5967806288875639
1772709067591334700,6.674334716796875,6.952030968731641,5.136435836738348,0.9550121755056082
1772709067601359600,6.684359619140625,6.604549071925878,4.967158882007003,1.134507961108163
1772709067611384600,6.694384521484375,6.092405605229735,4.796569091111421,0.9093236795853823
1772709067621409500,6.704409423828125,5.434101270973682,4.737591416963935,0.3604798370014876
1772709067631435500,6.714435546875,5.776693057650327,5.037015677565336,-0.9329045347243546
1772709067641460700,6.724460693359375,5.604537917134166,5.390293693429231,-1.5458245436385274
1772709067651485400,6.7344853515625,5.586222508242726,5.591334736689925,-2.0037154650129376
1772709067661510400,6.744510498046875,5.385698766854405,5.6722167841315265,-2.413834727517515
1772709067671535600,6.75453564453125,5.14859155395627,5.931268117812276,-2.7321692941635844
1772709067681560600,6.764560546875,5.117217926049232,6.250823312294483,-2.822619088156521
1772709067691585500,6.77458544921875,5.06724013543725,6.18760551635921,-2.3233166905939577
1772709067701611500,6.784611572265625,4.975750769263506,5.748181833437084,-1.4588554313682018
1772709067711636500,6.794636474609375,4.646781265226006,5.124833661749959,-0.9012532589197159
1772709067721661400,6.804661376953125,3.9175948840171095,4.556765478736162,-0.9067518563359975
1772709067731686700,6.814686767578125,3.111842565000057,3.937870194804668,-0.9820623872555792
1772709067741711600,6.824711669921875,2.357653259959817,2.9067823492258786,-1.0532003086656332
1772709067751736600,6.834736572265625,1.5533517242729662,1.5999784508913755,-1.0793484570093452
1772709067761761500,6.844761474609375,0.6836012725979089,0.5944634379863739,-1.0502182241149247
1772709067771786500,6.854786376953125,-0.5426958413481712,-0.5339022940397262,-0.8151790496625005
1772709067781812500,6.8648125,-2.0739017847865817,-3.08149301944375,0.10337181940823793
1772709067791837400,6.87483740234375,-3.767612996864319,-7.307817752546072,2.144984761139005
1772709067801862400,6.8848623046875,-5.356180995947122,-11.843375608080624,4.970563137492538
1772709067811887600,6.8948876953125,-5.619503431075811,-13.715819000977277,6.133790339541435
1772709067821912600,6.90491259765625,-5.725320013287663,-13.591208286446331,6.2923646984726185
1772709067831937500,6.9149375,-2.2840181149065493,-10.626153196471929,1.9767966245576738
1772709067841962500,6.92496240234375,-3.243694336700439,-11.166456005203724,0.07611775564923882
1772709067851988500,6.934988525390625,-7.256744567912817,-11.284409015411137,-0.05940685934498906
1772709067862013700,6.945013671875,-12.499203323090075,-10.057163222438096,0.9299892317995428
1772709067872038700,6.95503857421875,-15.762551623809337,-9.198576554334164,1.7707878758870064
1772709067882063600,6.965063720703125,-15.771167476463317,-9.18446502687335,1.915022451559454
1772709067892088600,6.975088623046875,-15.829319221180677,-9.127918963786959,2.085862271693349
1772709067902113500,6.985113525390625,-15.89401176584363,-9.07109174567163,2.2952748374581335
1772709067912138500,6.995138427734375,-15.939319226557016,-9.04031725270152,2.547031045694649
1772709067922164500,7.00516455078125,-15.967681397688388,-9.036210401904583,2.8313375244021413
1772709067932189400,7.015189453125,-1.0277928956866265,-9.839219559693335,-6.272341316619515
1772709067942214400,7.02521435546875,-0.1640519135594368,-6.884322291117906,-7.8940990531206126
1772709067952239600,7.035239501953125,1.069629465419054,-3.5890666940063234,-7.973389447456598
1772709067962264800,7.045264892578125,2.1743168002158404,-0.07924012545347213,-6.7034402387887235
1772709067972289800,7.055289794921875,2.852935023704171,2.984378799125552,-4.395234608086944
1772709067982314800,7.065314697265625,3.1180671386033296,5.19363130364418,-1.647866868008673
1772709067992340000,7.075340087890625,2.8028292227983473,6.577352437442541,1.0708749354355036
1772709068002366000,7.085365966796875,1.66470431330204,6.713331518206,3.6500785043299198
1772709068012391000,7.095390869140625,0.6782382842600345,5.534450819951296,4.667873153093457
1772709068022416000,7.105415771484375,0.7371984227508306,3.968939871329069,3.5511315156266092
1772709068032440800,7.11544091796875,1.6321230631709098,3.444686280122399,1.4162787107929586
1772709068042465800,7.1254658203125,3.4404537571191787,3.228649912303686,-0.32973800419196486
1772709068052490800,7.13549072265625,5.36289949054718,2.8086458001226187,-1.8242045549064874
1772709068062515700,7.145515625,6.595602379882335,2.9395114833950995,-2.9524864080414175
1772709068072540700,7.155540771484375,7.096110938364267,3.441547982096672,-2.9658906640157103
1772709068082566700,7.165566650390625,7.028383556050062,3.9580373690426347,-2.039355956584215
1772709068092591900,7.175591796875,6.55620501999557,4.544766413384676,-1.0492230755977332
1772709068102616800,7.185616943359375,5.842284012457728,5.055303029406071,0.08520780168622731
1772709068112641800,7.195641845703125,5.028475812757015,5.156901701661944,1.2109729958251119
1772709068122666800,7.205666748046875,4.6526305757761,4.976587220087647,1.7829256190568208
1772709068132692000,7.21569189453125,5.081771934136748,4.9112663143932815,1.766194264486432
1772709068142717000,7.225717041015625,5.856971293979883,5.031464473178983,1.107130928556621
1772709068152742000,7.235741943359375,6.357931687882542,4.967478615480661,0.5003708305116743
1772709068162768000,7.245767822265625,6.695343441572785,4.84496808809936,0.1317936117723584
1772709068172792600,7.25579248046875,6.952343687942624,4.866400167706608,-0.15095402012057602
1772709068182817800,7.26581787109375,6.908465383249521,5.135484235101938,-0.1527578546721488
1772709068192842800,7.2758427734375,6.52696022081077,5.611308434182405,0.10249985887929797
1772709068202867700,7.28586767578125,5.708375892749428,5.925540972337126,0.44534825066551564
1772709068212892700,7.295892578125,4.797090484637022,5.841282141938805,0.7323100661873817
1772709068222918000,7.30591796875,4.271322981736064,5.9513172186285255,0.9616220951646566
1772709068232942800,7.31594287109375,3.997195074954629,6.087912969985604,1.051715915326774
1772709068242968800,7.32596875,3.838438345193863,5.712426629444956,1.0434682383980602
1772709068252993800,7.335993896484375,3.497833932942152,4.982914085021615,1.2170570649791508
1772709068263018800,7.346018798828125,2.8431933818906545,4.186896978077292,1.3129679739221929
1772709068273044000,7.3560439453125,1.8903946446508169,3.642675534597039,1.2855606192976237
1772709068283069000,7.36606884765625,0.7768862900167703,3.2055536988765,1.4029109874367713
1772709068293093600,7.37609375,-1.0159259322822094,2.239607310771942,1.4676220906697213
1772709068303118600,7.38611865234375,-3.6452345714300867,0.6424672981768846,1.288249127729237
1772709068313144600,7.39614453125,-6.602520780968666,-1.586144571328163,1.0749794481448829
1772709068323169800,7.406169677734375,-9.812240367352961,-3.681038875260949,1.4189178271248937
1772709068333194800,7.41619482421875,-11.678161665004492,-4.665992746174335,1.7888516481049357
1772709068343219700,7.4262197265625,-10.861740067934988,-5.272220856234431,1.1431832157991826
1772709068353244700,7.43624462890625,-9.296855726778507,-7.240423547708987,0.26419571083188054
1772709068363270000,7.446269775390625,-8.88757233057618,-9.437850589877366,0.26469989749435335
1772709068373294800,7.456294921875,-11.073354527658223,-9.244436388233304,1.5667869599074125
1772709068383319800,7.46631982421875,-14.78380946701765,-8.011061883246898,3.472145364934206
1772709068393345800,7.476345703125,-17.74282761491537,-7.430907541120052,4.496755538931489
1772709068403370800,7.486370849609375,-17.760519923472405,-7.4077996372550725,4.613091177070141
1772709068413396000,7.49639599609375,-17.7761173055768,-7.389418761911988,4.7024826941818
1772709068423421000,7.5064208984375,-17.75748625486493,-7.407884392929077,4.741056754986942
1772709068433445600,7.516445556640625,-17.70547315903306,-7.461649300864338,4.7548757292419666
1772709068443470600,7.526470703125,-11.275711329692601,-9.624023149830103,-1.6377898567609488
1772709068453495800,7.536495849609375,-9.830180513191223,-6.742514358070492,-3.6092931972160933
1772709068463520800,7.546520751953125,-7.579884635144472,-4.214264292952418,-3.647313423530757
1772709068473546800,7.556546630859375,-4.266097940564156,-2.46889478982985,-1.7876985325470565
1772709068483571700,7.56657177734375,-0.7308505150288342,-0.8099164529591798,0.09107315005566924
1772709068493596700,7.5765966796875,2.1726532509177923,0.7010439903080463,1.5088627403356134
1772709068503622000,7.586621826171875,4.192166442912817,1.5873416721582412,2.621870013579726
1772709068513646800,7.596646728515625,4.968430217117071,1.7588520850300788,2.235832906799763
1772709068523671800,7.606671875,4.646407755738497,1.7135820337176322,0.6648580667484552
1772709068533696800,7.61669677734375,4.216353958708048,2.172982336741686,-1.3149340132981537
1772709068543721700,7.6267216796875,4.03087581076026,2.706047595435381,-3.5094013288781043
1772709068553748000,7.636748046875,4.005858273881674,3.1185014383673666,-4.977133163532614
1772709068563772700,7.646772705078125,4.133069526299834,3.287029620558023,-5.265432219007611
1772709068573797600,7.656797607421875,4.785477203732729,3.1797248456150293,-4.488741451562941
1772709068583822800,7.66682275390625,5.8135389794886105,3.3813679464221,-3.1688568301200863
1772709068593847800,7.676847900390625,6.557559357213973,4.04717520365417,-1.726531970053166
1772709068603872800,7.686872802734375,6.607742315009236,4.894197106170654,-0.3595253127556294
1772709068613897700,7.696897705078125,6.068797935149073,5.470097882506251,0.5306098283655941
1772709068623923000,7.7069228515625,5.2569566516071555,5.4291340039551255,0.8708217341683805
1772709068633949000,7.716948974609375,4.659275420618057,5.0672430580466985,0.7875821638152003
1772709068643974000,7.726973876953125,4.763901331740618,4.746651506254077,0.4430203557072207
1772709068653998800,7.736998779296875,5.69458994398117,4.676722229981422,0.11769122659922576
1772709068664023800,7.74702392578125,6.580251081493497,4.526604733750224,-0.04268887571282685
1772709068674049000,7.757049072265625,7.033432656133175,4.256690645271539,-0.0911557594383601
1772709068684073700,7.76707373046875,7.172415594887733,4.115021828433871,-0.10042455044258386
1772709068694098700,7.7770986328125,7.08079354224503,4.227075843730568,-0.08933811555714347
1772709068704123600,7.78712353515625,6.798896170505881,4.4191970829546445,-0.0777967491115909
1772709068714149600,7.797149658203125,6.375666666537523,4.574889748969674,-0.05560164924259297
1772709068724174800,7.8071748046875,5.823000635316967,4.846794719004631,-0.020195434501359702
1772709068734199800,7.81719970703125,5.2054631957352155,5.1846337581962345,0.04430808354564942
1772709068744224800,7.827224853515625,4.796312486001849,5.445819765818118,0.07204945133097936
1772709068754249700,7.837249755859375,4.669288280588388,5.6194397181898355,-0.017402139104576782
1772709068764275000,7.84727490234375,4.644512151250243,5.777554642915725,-0.2509332014158368
1772709068774300000,7.8572998046875,4.655251571929455,5.867842816606164,-0.4694372379897162
1772709068784324900,7.867324951171875,4.843326166111231,5.85660304518938,-0.31114597031623126
1772709068794350800,7.877350830078125,5.008316821825504,5.658920664706826,-0.20896730621531603
1772709068804375800,7.887375732421875,4.8266205305039875,5.444776394245028,-0.5494804599869996
1772709068814400800,7.89740087890625,4.273367639306187,5.294783401176333,-0.9811492179334164
1772709068824425700,7.90742578125,3.264302824965119,5.082471606838703,-1.1222985409416257
1772709068834450700,7.91745068359375,2.0541496210902928,4.24740259244442,-0.5975714870043098
1772709068844475600,7.9274755859375,1.1095026261240244,2.3991484689086673,0.36298915294129397
1772709068854500900,7.9375009765625,0.133321844252944,0.8167740637689829,0.849184779638797
1772709068864525800,7.94752587890625,-2.0922879208266734,-0.3817132522314787,0.9704731448139995
1772709068874551800,7.9575517578125,-5.362333088836073,-2.9803830074876547,1.5480433887317775
1772709068884576800,7.96757666015625,-8.843114764690398,-6.5635226495325565,2.636983703820407
1772709068894601700,7.977601806640625,-11.039626445579529,-9.696635966098308,2.4715064336329697
1772709068904627000,7.987626953125,-8.702268370151518,-9.86787516081333,-0.7633642528817057
1772709068914652000,7.99765185546875,-4.976911629736423,-9.406845210760832,-4.677092524598539
1772709068924676900,8.0076767578125,-4.364685740566253,-10.674884786415099,-4.615968193811178
1772709068934701600,8.01770166015625,-7.145421204978227,-12.2777069362998,-0.5025985530311241
1772709068944726800,8.027726806640626,-10.249995824801921,-11.192450862681865,2.9450153415083884
1772709068954752800,8.037752685546875,-12.200690332114696,-10.134901126635073,4.563003496342897
1772709068964777500,8.047777587890625,-12.154382169926166,-12.948359295475482,5.701003318154812
1772709068974802400,8.057802490234375,-12.020569911807774,-13.101291264605521,5.75615412749052
1772709068984827400,8.067827392578126,-11.874765602600574,-13.273559217846392,5.89328939255178
1772709068994852400,8.077852294921875,-11.741466554701327,-13.44111592465639,6.057700787073373
1772709069004877300,8.087877197265625,-11.64520865895152,-13.570264867138862,6.1952405412822955
1772709069014902300,8.09790234375,-9.502460716953873,-6.459001952350139,-6.145211312744021
1772709069024927500,8.107927490234376,-4.690194290494919,-3.775659525197744,-3.9776869491472837
1772709069034953500,8.117953369140626,-1.0398965904563664,-1.8247393924355506,-0.988724475493282
1772709069044978400,8.127978515625,1.0539590180784464,-0.13274725923538208,1.638624846280366
1772709069055003400,8.13800341796875,2.5305308695316313,1.574025678989291,3.1999080942049623
1772709069065028400,8.1480283203125,3.243849819523096,2.0931115121692416,3.0275057009294626
1772709069075053600,8.158053466796876,3.028722383242845,2.0128864673316476,1.9445907836101948
1772709069085078500,8.16807861328125,2.6746891650974747,2.422722821241617,0.8085550284128635
1772709069095103500,8.178103515625,2.4163778361290693,3.1637779194205997,-0.6201625273883342
1772709069105129500,8.18812939453125,2.081943052423,3.95368268096447,-1.31058180943802
1772709069115154400,8.198154541015626,2.5348534089058634,4.110756572204828,-0.6289335706040263
1772709069125179600,8.2081796875,4.114660009384155,3.5054625281244514,0.45626799634769555
1772709069135204400,8.218204345703125,5.536949066507816,3.535562482833862,0.9410219363369047
1772709069145229300,8.228229248046874,6.289498787647485,3.633493864753842,0.9728343940526246
1772709069155254300,8.238254150390626,6.578423281544446,3.5438328830510377,0.6870553585745394
1772709069165279500,8.248279541015625,6.759896870025992,3.5053035381704567,0.050023967841267586
1772709069175304400,8.258304443359375,6.885244082137942,3.2507243814676996,-0.8418389469206332
1772709069185330400,8.268330322265625,6.692007575148343,3.063188716468215,-1.7544272543251513
1772709069195355400,8.27835546875,5.987127952200174,3.0673692170232534,-2.321065696796775
1772709069205380400,8.28838037109375,5.089579393017292,2.9003987856686115,-2.0764393404401837
1772709069215405600,8.298405517578125,4.368064277088642,2.741578927543759,-1.150033373954892
1772709069225430500,8.308430419921875,3.867849148595333,2.859662286132574,-0.484682847514376
1772709069235455500,8.31845556640625,3.6895559437155723,3.1639848401695487,-0.2150899538140744
1772709069245480200,8.328480224609375,3.9941567301720378,3.3889474417656658,-0.05809184948997572
1772709069255505400,8.33850537109375,4.551427624839544,3.464824812787771,0.08708133133999071
1772709069265531400,8.348531494140625,5.185786435362696,3.4016415036439893,0.20541792490435762
1772709069275556400,8.358556396484374,5.514291244497895,3.3116678027302027,0.15977876628488302
1772709069285581300,8.368581298828126,5.377009848964214,3.3729379717290398,0.0704417741057463
1772709069295606300,8.378606201171875,5.35252890318036,3.5737083813548085,0.09040109601300209
1772709069305631500,8.388631591796875,5.416106180077791,3.9614036306053397,0.016767741058021784
1772709069315656400,8.398656494140624,5.275932570233941,4.269279493209719,-0.13816457157637924
1772709069325681400,8.408681396484376,4.992507258275151,4.338357121089101,-0.22934899998679756
1772709069335706400,8.418706298828125,4.804283611011505,4.383260092654824,-0.15479820139333605
1772709069345732400,8.428732421875,4.5218630921810865,4.371429954129457,-0.07762881779931485
1772709069355757600,8.438757568359375,4.190733779761195,4.5381350125461815,-0.20432810210734603
1772709069365782500,8.448782470703126,3.70794909401834,5.041361013293266,-0.2611536397222429
1772709069375807500,8.458807373046875,2.6674159592241047,4.925747259688377,-0.05367218815051019
1772709069385832200,8.468832275390625,1.0996697988957167,4.019344362920522,0.21379355732798574
1772709069395857400,8.478857421875,-0.08957797959446906,3.120025871455669,0.6002209785997867
1772709069405882400,8.48888232421875,-0.6567758095145225,2.1103350341707467,0.8805155913174152
1772709069415907300,8.4989072265625,-1.2619850979208946,0.654199237024784,1.3882391957446931
1772709069425933300,8.508933349609375,-2.892467992669344,-2.4858611221998927,2.5461688759073615
1772709069435958300,8.518958251953125,-4.5868116574317215,-6.938375952866673,3.776968854230642
1772709069445983500,8.5289833984375,-4.950978731578588,-9.817603940212726,4.09745577660501
1772709069456008400,8.539008544921876,-5.3715165122449395,-11.048038884615897,2.3279183391705156
1772709069466033400,8.549033447265625,-7.5170099535584445,-10.478917977678774,-0.28336386409513653
1772709069476058400,8.559058349609375,-12.210184136646985,-7.563493472313881,-1.69378442344442
1772709069486083600,8.56908349609375,-17.724785762268304,-5.567309717980027,-1.10480855002366
1772709069496108500,8.579108642578126,-17.624336844569445,-5.699921368137002,-1.2242628316394983
1772709069506134500,8.589134521484375,-17.581887695896626,-5.774491163691878,-1.352821260882914
1772709069516159500,8.599159423828125,-17.568350168931484,-5.810596496295928,-1.4440017072379587
1772709069526184400,8.609184326171874,-11.214177541321515,-10.490381620979308,3.200805043044686
1772709069536209400,8.61920947265625,-9.0660549205482,-11.04169331498146,3.0750425281301137
1772709069546234400,8.629234375,-7.955728118559717,-9.665485041031241,2.2722639642268416
1772709069556259300,8.63925927734375,-6.6964873509109015,-7.410595989975333,1.3398987970761953
1772709069566284500,8.649284423828124,-5.174323376584053,-5.240496515193581,0.5436908437348902
1772709069576309500,8.6593095703125,-3.8154946919798847,-3.079619042265415,-0.1404198396898806
1772709069586335500,8.66933544921875,-2.898957354688644,-1.3850912531077861,-0.6586578969340771
1772709069596360400,8.6793603515625,-1.582259838849306,-0.28368367063403127,-0.857336814173311
1772709069606385400,8.689385498046875,0.5482300945997238,0.46664603636860846,-0.55168271927163
1772709069616410400,8.699410400390626,2.5916929019808768,1.2149229024946688,0.10013576009646058
1772709069626435600,8.709435546875,4.197234832218289,2.325200020122528,1.1707927419323474
1772709069636460300,8.719460205078125,5.28885810278058,3.161751382029056,2.0851094074994325
1772709069646485200,8.7294853515625,6.1540808478981255,3.3209722221702336,2.4632062227994203
1772709069656510500,8.739510498046876,6.717026281070709,3.79789824501276,2.2457313466101883
1772709069666536400,8.749536376953126,6.759100166690349,4.771626957556605,1.5305712987966835
1772709069676561400,8.7595615234375,6.669080288547277,5.553796156412362,0.9041486881002784
1772709069686586400,8.76958642578125,7.030265716534853,5.8952761824548245,0.5976003477726132
1772709069696611300,8.779611328125,7.384623928850889,6.013347850605845,0.5849382154025137
1772709069706636500,8.789636474609376,7.052035649794339,6.09571692173481,0.9009881051775067
1772709069716661500,8.79966162109375,6.239999135941266,5.776840357166528,1.201645049379021
1772709069726686500,8.8096865234375,5.7197956969082355,5.049231600537896,1.0967803610645235
1772709069736711400,8.81971142578125,5.487973146414756,4.617607193189859,0.4894853524252772
1772709069746737400,8.8297373046875,5.771215503022074,4.5619683080762625,-0.3371272376604378
1772709069756762600,8.8397626953125,6.345880015560984,4.3413042804569,-0.934591391832754
1772709069766787600,8.84978759765625,6.582556435826421,4.243106356555224,-1.063351334997639
1772709069776812300,8.859812255859374,6.310758433297276,4.462686680591106,-0.9615700727164744
1772709069786837200,8.869837158203126,5.832715389123559,4.9379561683982605,-0.7739609040893614
1772709069796862500,8.879862548828125,5.138703781670332,5.45717527256906,-0.8283511773813516
1772709069806887400,8.889887451171875,4.243965019211172,5.400495938491821,-1.1134488064665347
1772709069816912400,8.899912353515624,3.6450749969542025,5.049841256868839,-1.265658233475685
1772709069826938400,8.9099384765625,3.567933305084705,4.951558577293158,-1.4094880277395248
1772709069836963300,8.91996337890625,3.818062496641278,4.9838960817962885,-1.5852118205226957
1772709069846988500,8.929988525390625,3.9584477034091945,4.955662505480647,-1.9272315063998102
1772709069857013500,8.940013427734375,4.05398196105957,4.658527817121148,-2.1421987836822867
1772709069867038500,8.95003857421875,4.272980101293325,4.405650788161158,-1.763823005310446
1772709069877063400,8.9600634765625,4.324730162274837,3.9198873788684603,-1.030758394428715
1772709069887088400,8.97008837890625,4.526190892252326,3.5277877571791407,-0.5425014878198504
1772709069897113300,8.98011328125,4.424396989685297,3.2473253866791723,-0.24367227050215004
1772709069907139300,8.990139404296874,3.585472468906641,2.5996786400377747,-0.15282712051607666
1772709069917164300,9.000164306640626,2.1841583952724934,1.6341934397041797,0.17132789591178296
1772709069927189200,9.010189208984375,1.134307981556654,0.5830974098414182,0.3929638373032212
1772709069937214500,9.02021435546875,0.23116671693325042,-0.02167816332280636,0.13584361781552434
1772709069947239400,9.030239501953124,-1.3884610218018292,-0.48040626617372034,-0.004922039637342095
1772709069957264400,9.040264404296876,-3.3327462465941906,-2.2783991059809923,1.4222029862754046
1772709069967289900,9.050289794921875,-2.2413246360838412,-4.95735352730751,3.6339600209608673
1772709069977315000,9.060315185546875,0.688817545941472,-5.129725525444746,1.3422431682452558
1772709069987340800,9.0703408203125,1.150792667889595,-4.900383101329207,-2.5470932972759006
1772709069997366000,9.080365966796874,-2.074600288444757,-4.884461894097924,-4.812131401902437
1772709070007391000,9.090390869140625,-5.506760848993062,-4.653962701162696,-4.433482797938585
1772709070017416000,9.100416015625,-5.200025973117351,-4.44253704200983,-2.2511348130889237
1772709070027441200,9.110441162109375,-3.0586510730385776,-4.266258099561929,-0.4023860379040241
1772709070037466000,9.120466064453124,-1.5172615892380474,-5.141450450029969,0.587099521622248
