time,seconds_elapsed,z,y,x
1772709060974747600,0.05774755859375,0.2042694389820099,0.4280987083911896,0.751393735408783
1772709060984772600,0.067772705078125,0.27925100922584534,0.4231545627117157,0.9485337138175964
1772709060994797600,0.077797607421875,0.33382925391197205,0.43994688987731934,1.1411677598953247
1772709061004822500,0.087822509765625,0.33912521600723267,0.48166343569755554,1.3367655277252197
1772709061014847500,0.097847412109375,0.27076756954193115,0.4836101830005646,1.5185445547103882
1772709061024873500,0.10787353515625,0.11527062952518463,0.295217901468277,1.6654738187789917
1772709061034898400,0.1178984375,-0.060994356870651245,-0.011134255677461624,1.7754887342453003
1772709061044923600,0.127923583984375,-0.2229182869195938,-0.22171014547348022,1.880717158317566
1772709061054948600,0.137948486328125,-0.39524534344673157,-0.33296236395835876,1.9350039958953857
1772709061064973600,0.1479736328125,-0.5542304515838623,-0.35872578620910645,1.8734346628189087
1772709061074998500,0.15799853515625,-0.6979163885116577,-0.17676503956317902,1.6986976861953735
1772709061085023700,0.168023681640625,-0.7904037237167358,0.16654331982135773,1.4639203548431396
1772709061095049700,0.1780498046875,-0.8188672065734863,0.49659523367881775,1.20669424533844
1772709061105074700,0.18807470703125,-0.7708637118339539,0.725557804107666,0.9525280594825745
1772709061115099600,0.198099609375,-0.6579111814498901,0.8580220341682434,0.7350113987922668
1772709061125124600,0.20812451171875,-0.5531701445579529,0.9367437362670898,0.5801448225975037
1772709061135149600,0.218149658203125,-0.5145483016967773,0.8886383771896362,0.48113805055618286
1772709061145174500,0.228174560546875,-0.5403021574020386,0.6826261281967163,0.4594833552837372
1772709061155199500,0.238199462890625,-0.5316088199615479,0.32937267422676086,0.5409736633300781
1772709061165224400,0.248224365234375,-0.44752591848373413,-0.1494349241256714,0.7690914869308472
1772709061175250400,0.25825048828125,-0.3000536859035492,-0.4865836203098297,1.1555570363998413
1772709061185275600,0.268275634765625,-0.2035345733165741,-0.6167056560516357,1.6146842241287231
1772709061195300600,0.278300537109375,-0.2401713728904724,-0.2688622772693634,1.9111788272857666
1772709061205325600,0.28832568359375,-0.5523591041564941,0.8229048848152161,1.4228036403656006
1772709061215350500,0.2983505859375,-0.3194594085216522,0.8340870141983032,1.1685069799423218
1772709061225375700,0.308375732421875,0.13467425107955933,0.6708197593688965,0.8549830317497253
1772709061235401700,0.318401611328125,0.5986790060997009,0.06260542571544647,0.49662312865257263
1772709061245426700,0.3284267578125,1.005494475364685,-0.7376878261566162,0.16506782174110413
1772709061255451600,0.33845166015625,1.4611496925354004,-1.2951459884643555,-0.21963435411453247
1772709061265476400,0.348476318359375,2.0436506271362305,-1.3907976150512695,-0.7202710509300232
1772709061275501600,0.35850146484375,2.470412492752075,-0.8079448342323303,-1.2785897254943848
1772709061285526500,0.368526611328125,2.8350982666015625,-0.03665798157453537,-1.7416943311691284
1772709061295551500,0.378551513671875,3.123990774154663,0.8045669198036194,-1.859937310218811
1772709061305576400,0.388576416015625,3.225090980529785,1.6235970258712769,-1.564414620399475
1772709061315602400,0.3986025390625,2.9833860397338867,2.1209161281585693,-1.0864338874816895
1772709061325627600,0.408627685546875,2.4756994247436523,1.9371904134750366,-0.7405499815940857
1772709061335652600,0.418652587890625,1.8910578489303589,1.1423038244247437,-0.5514460802078247
1772709061345677600,0.428677490234375,1.2055535316467285,0.3223879337310791,-0.3436950147151947
1772709061355702500,0.43870263671875,0.5053175687789917,-0.005407157354056835,-0.047430433332920074
1772709061365727700,0.448727783203125,-0.01876477710902691,0.7842313051223755,0.15337057411670685
1772709061375752700,0.458752685546875,-0.3199755847454071,0.43348681926727295,0.1028674766421318
1772709061385778700,0.46877880859375,-0.423575758934021,-0.07042265683412552,-0.1763596385717392
1772709061395803600,0.4788037109375,-0.44795531034469604,-0.3770955204963684,-0.5355424880981445
1772709061405828400,0.488828369140625,-0.464771032333374,-0.7324493527412415,-0.8445025086402893
1772709061415853600,0.498853515625,-0.2778974175453186,-1.5679820775985718,-1.1470253467559814
1772709061425878500,0.50887841796875,0.006144943181425333,-2.106572151184082,-1.2390413284301758
1772709061435903500,0.518903564453125,0.28969526290893555,-2.1260249614715576,-1.002551794052124
1772709061445928400,0.528928466796875,0.4995267987251282,-1.7548828125,-0.5825198292732239
1772709061455954400,0.538954345703125,0.5092387199401855,-1.363559365272522,-0.20627130568027496
1772709061465979600,0.548979736328125,0.4046875238418579,-1.3411896228790283,0.05262230709195137
1772709061476004600,0.559004638671875,0.3845994174480438,-1.4570695161819458,0.31787893176078796
1772709061486029600,0.569029541015625,0.4364815056324005,-1.5431462526321411,0.5069606900215149
1772709061496054500,0.579054443359375,0.6225247979164124,-1.262913703918457,0.3395524322986603
1772709061506079700,0.589079833984375,0.8939895629882812,-0.8224260807037354,-0.0006142091006040573
1772709061516104700,0.599104736328125,1.2469886541366577,-0.22664609551429749,-0.4961874485015869
1772709061526130700,0.609130615234375,1.4693093299865723,-0.11826394498348236,-0.7732229828834534
1772709061536155600,0.61915576171875,1.555449366569519,0.10551565885543823,-0.872067391872406
1772709061546180600,0.6291806640625,1.566946268081665,0.27026307582855225,-0.7752324342727661
1772709061556205600,0.63920556640625,1.603668451309204,0.28948548436164856,-0.4517992436885834
1772709061566230500,0.64923046875,1.6151705980300903,0.3752152919769287,0.08721952140331268
1772709061576255500,0.65925537109375,1.5394561290740967,0.6742565035820007,0.6847697496414185
1772709061586280700,0.66928076171875,1.420477271080017,0.8462059497833252,1.1815060377120972
1772709061596306700,0.679306640625,1.2737008333206177,0.6422053575515747,1.5148885250091553
1772709061606331600,0.68933154296875,1.0401504039764404,0.2529895007610321,1.7102322578430176
1772709061616356600,0.699356689453125,0.7900592684745789,-0.19250357151031494,1.8423876762390137
1772709061626381600,0.709381591796875,0.5483747720718384,-0.5111302733421326,2.0069568157196045
1772709061636406800,0.71940673828125,0.5024297833442688,-0.5845317840576172,2.1684019565582275
1772709061646431700,0.729431640625,0.49274253845214844,-0.4840086102485657,2.2383499145507812
1772709061656456400,0.73945654296875,0.38364797830581665,-0.4579903781414032,2.25115966796875
1772709061666482700,0.749482666015625,0.2558327615261078,-0.5952705144882202,2.1508238315582275
1772709061676507400,0.75950732421875,0.11935369670391083,-0.8585159778594971,1.8974077701568604
1772709061686532600,0.76953271484375,-0.042041853070259094,-1.0855000019073486,1.626741886138916
1772709061696557600,0.7795576171875,-0.1897009015083313,-1.2135262489318848,1.44119131565094
1772709061706582500,0.78958251953125,-0.3214847445487976,-1.2545604705810547,1.3747398853302002
1772709061716607500,0.799607421875,-0.37883931398391724,-1.0433651208877563,1.4092645645141602
1772709061726632700,0.8096328125,-0.3819535970687866,-0.5677144527435303,1.4561457633972168
1772709061736658700,0.81965869140625,-0.32951316237449646,-0.01116514764726162,1.4192371368408203
1772709061746683600,0.82968359375,-0.367320716381073,0.4856606125831604,1.31084406375885
1772709061756708600,0.83970849609375,-0.5300775766372681,0.7634119987487793,1.2231475114822388
1772709061766733600,0.849733642578125,-0.6240456104278564,1.1242578029632568,1.2417598962783813
1772709061776758800,0.8597587890625,-0.6684316396713257,1.7347766160964966,1.3202484846115112
1772709061786783700,0.86978369140625,-0.6622285842895508,2.132188081741333,1.5101723670959473
1772709061796808400,0.879808349609375,-0.7227367758750916,1.9566080570220947,1.5658724308013916
1772709061806834700,0.889834716796875,-1.1457918882369995,1.2397549152374268,1.2534981966018677
1772709061816859400,0.899859375,-1.7227057218551636,0.42564597725868225,0.4977545738220215
1772709061826884600,0.909884521484375,-2.0303332805633545,0.15271323919296265,-0.5809979438781738
1772709061836909600,0.91990966796875,-1.9429103136062622,0.5797808766365051,-1.382270097732544
1772709061846934500,0.9299345703125,-1.512038230895996,1.6088000535964966,-1.3519047498703003
1772709061856959500,0.93995947265625,-0.842358410358429,2.8520164489746094,-0.6327185034751892
1772709061866985500,0.9499853515625,-0.17913438379764557,3.4628546237945557,0.23535457253456116
1772709061877010700,0.9600107421875,0.2674933075904846,2.854595422744751,0.9010818600654602
1772709061887035600,0.97003564453125,0.5067179203033447,1.1048167943954468,1.4164890050888062
1772709061897060600,0.980060546875,0.5049377083778381,-0.896857500076294,1.9293197393417358
1772709061907085600,0.99008544921875,0.28129473328590393,-2.2801499366760254,2.429157257080078
1772709061917110800,1.00011083984375,-0.09927245229482651,-2.8549280166625977,2.7578909397125244
1772709061927135500,1.010135498046875,-0.4833202660083771,-2.8762741088867188,2.7616333961486816
1772709061937161700,1.02016162109375,-0.6447733044624329,-2.5488815307617188,2.454028367996216
1772709061947186400,1.0301865234375,-0.5262250900268555,-1.868491530418396,1.9145972728729248
1772709061957211100,1.040211181640625,-0.14400501549243927,-0.8623389601707458,1.2343316078186035
1772709061967235800,1.05023583984375,0.3969583809375763,0.09981349110603333,0.418341726064682
1772709061977260800,1.0602607421875,0.9282239675521851,0.8479577302932739,-0.4443383812904358
1772709061987285800,1.07028564453125,1.3500124216079712,1.3248684406280518,-1.2190560102462769
1772709061997311000,1.08031103515625,1.5736274719238281,1.503797173500061,-1.837751030921936
1772709062007337000,1.0903369140625,1.6186087131500244,1.4430171251296997,-2.2245473861694336
1772709062017362000,1.10036181640625,1.539063572883606,1.164577841758728,-2.380436420440674
1772709062027387000,1.110386962890625,1.4204732179641724,0.7052426934242249,-2.3385214805603027
1772709062037411800,1.120411865234375,1.273353934288025,0.2342376708984375,-2.167431116104126
1772709062047437000,1.13043701171875,1.1166704893112183,-0.11563058942556381,-1.9490646123886108
1772709062057462000,1.1404619140625,1.0031208992004395,-0.26021409034729004,-1.7121937274932861
1772709062067487000,1.150487060546875,0.9522928595542908,-0.13266251981258392,-1.3904372453689575
1772709062077513000,1.160512939453125,0.9556079506874084,0.027467690408229828,-1.0776675939559937
1772709062087538000,1.170537841796875,0.9190976619720459,0.2518214285373688,-0.7245601415634155
1772709062097563100,1.180563232421875,0.8243128061294556,0.265546590089798,-0.38584768772125244
1772709062107587800,1.190587890625,0.6811580657958984,0.10237816721200943,-0.11605004966259003
1772709062117612800,1.20061279296875,0.4623396396636963,-0.05297118425369263,0.11468379199504852
1772709062127637800,1.2106376953125,0.2689789831638336,-0.22898641228675842,0.31040245294570923
1772709062137663000,1.2206630859375,0.12797920405864716,-0.4737895429134369,0.5354111790657043
1772709062147689000,1.23068896484375,0.045312024652957916,-0.7332205772399902,0.7664854526519775
1772709062157714000,1.2407138671875,0.005845869425684214,-0.8662300109863281,0.9242061376571655
1772709062167739000,1.25073876953125,-0.020509304478764534,-0.8263548016548157,0.970782458782196
1772709062177763800,1.260763916015625,-0.04231594502925873,-0.7052770853042603,0.8840081095695496
1772709062187789000,1.2707890625,-0.1197177991271019,-0.6526703238487244,0.6611619591712952
1772709062197814000,1.28081396484375,-0.27355194091796875,-0.7380363941192627,0.3574928045272827
1772709062207839000,1.2908388671875,-0.4742429554462433,-0.9571636319160461,0.07169487327337265
1772709062217865000,1.300864990234375,-0.675398051738739,-1.2471305131912231,-0.12887369096279144
1772709062227890000,1.310889892578125,-0.8419870138168335,-1.5059330463409424,-0.24991384148597717
1772709062237915000,1.320914794921875,-0.9641484618186951,-1.2251498699188232,-0.36656007170677185
1772709062247939800,1.33093994140625,-1.1112945079803467,-1.2966556549072266,-0.4798450767993927
1772709062257964800,1.34096484375,-1.3535252809524536,-1.1325926780700684,-0.643936276435852
1772709062267989800,1.35098974609375,-1.6422711610794067,-0.8096969723701477,-0.9554363489151001
1772709062278015000,1.361014892578125,-2.0168051719665527,-0.6355547904968262,-1.423036813735962
1772709062288041000,1.371041015625,-2.465418815612793,-0.6985729336738586,-1.9161498546600342
1772709062298066000,1.38106591796875,-2.838406801223755,-1.1162304878234863,-2.341209650039673
1772709062308091000,1.3910908203125,-2.999436378479004,-1.440670132637024,-2.5935494899749756
1772709062318115800,1.40111572265625,-2.7975783348083496,-1.195143699645996,-2.5086052417755127
1772709062328141000,1.41114111328125,-2.1746749877929688,-0.4221671223640442,-2.21695613861084
1772709062338166000,1.421166015625,-1.6757904291152954,0.7132667899131775,-1.8766388893127441
1772709062348191000,1.43119091796875,-1.3645210266113281,0.8481228947639465,-1.4038865566253662
1772709062358217000,1.441217041015625,-1.0014435052871704,-0.11974889039993286,-1.2219055891036987
1772709062368242000,1.451241943359375,-1.2227823734283447,-0.7260529398918152,-1.2933006286621094
1772709062378267000,1.461266845703125,-1.5029215812683105,-0.8237456679344177,-1.7223484516143799
1772709062388291800,1.471291748046875,-1.791146159172058,-0.29127833247184753,-1.9960976839065552
1772709062398316800,1.48131689453125,-1.8882691860198975,0.26811227202415466,-1.7842506170272827
1772709062408341800,1.491341796875,-1.6085232496261597,0.25875258445739746,-1.544608473777771
1772709062418367000,1.501366943359375,-1.1023361682891846,-0.16729560494422913,-1.5784718990325928
1772709062428393000,1.51139306640625,-0.5861226320266724,-0.39475589990615845,-1.7885420322418213
1772709062438418000,1.52141796875,-0.06865743547677994,-0.3782060444355011,-2.258451223373413
1772709062448443000,1.53144287109375,0.39661306142807007,-0.18505099415779114,-2.92549729347229
1772709062458467800,1.5414677734375,0.7626478672027588,0.2813987731933594,-3.5856680870056152
1772709062468493000,1.5514931640625,1.0050957202911377,0.7982197999954224,-4.0280866622924805
1772709062478518000,1.56151806640625,1.0240086317062378,1.1055872440338135,-3.9967639446258545
1772709062488543000,1.57154296875,0.8376576900482178,0.904111385345459,-3.4353654384613037
1772709062498569000,1.58156884765625,0.674057126045227,0.2560620605945587,-2.3682026863098145
1772709062508594000,1.591593994140625,0.5441638231277466,-0.49531206488609314,-1.0305262804031372
1772709062518619000,1.601618896484375,0.36527228355407715,-1.1412416696548462,0.27776527404785156
1772709062528643800,1.611643798828125,0.1423875242471695,-1.6241904497146606,1.3561396598815918
1772709062538668800,1.621668701171875,-0.06698223203420639,-2.003147840499878,2.1610522270202637
1772709062548694000,1.631694091796875,-0.1998305469751358,-2.3239316940307617,2.7014641761779785
1772709062558719000,1.641718994140625,-0.19876615703105927,-2.459022283554077,3.0197465419769287
1772709062568745000,1.651744873046875,-0.05016124248504639,-2.358489513397217,3.1093838214874268
1772709062578770000,1.66177001953125,0.17135952413082123,-2.0682406425476074,2.9879355430603027
1772709062588795000,1.671794921875,0.4046018421649933,-1.7459629774093628,2.6553139686584473
1772709062598820000,1.681820068359375,0.5970348715782166,-1.514943242073059,2.1827845573425293
1772709062608845000,1.691844970703125,0.7528833150863647,-1.3864144086837769,1.717917799949646
1772709062618870000,1.7018701171875,0.8422914743423462,-1.297221302986145,1.3510595560073853
1772709062628894700,1.711894775390625,0.8279418349266052,-1.1965885162353516,1.0892255306243896
1772709062638920000,1.721919921875,0.7173711061477661,-1.0977109670639038,0.9427042007446289
1772709062648946000,1.73194580078125,0.6559479832649231,-0.8085443377494812,1.1204073429107666
1772709062658971000,1.741970947265625,0.6605473160743713,-0.5058273077011108,1.4270756244659424
1772709062668995800,1.751995849609375,0.701737105846405,0.04988544434309006,1.7885222434997559
1772709062679020800,1.762020751953125,0.6798347234725952,0.5594685077667236,1.9438873529434204
1772709062689046000,1.7720458984375,0.6749984622001648,0.9926052689552307,1.9531168937683105
1772709062699071000,1.782071044921875,0.6638686060905457,1.3267794847488403,1.8898059129714966
1772709062709096000,1.792095947265625,0.6398231983184814,1.3963713645935059,1.7031621932983398
1772709062719122000,1.802121826171875,0.6010568141937256,1.263956904411316,1.465363621711731
1772709062729147000,1.81214697265625,0.5547130107879639,1.0630778074264526,1.243065595626831
1772709062739172000,1.822172119140625,0.46401676535606384,0.8459120392799377,1.0498480796813965
1772709062749197000,1.832197021484375,0.3191264271736145,0.62577885389328,0.8973093032836914
1772709062759222000,1.842221923828125,0.17989706993103027,0.4254422187805176,0.7324731349945068
1772709062769246700,1.852246826171875,0.045406896620988846,0.33291202783584595,0.4838968515396118
1772709062779272000,1.86227197265625,-0.10554968565702438,0.35667920112609863,0.19570685923099518
1772709062789298000,1.8722978515625,-0.2709450423717499,0.4226219952106476,-0.09405997395515442
1772709062799323000,1.882322998046875,-0.4370571970939636,0.49127164483070374,-0.3528202772140503
1772709062809347800,1.892347900390625,-0.5311152338981628,0.5861419439315796,-0.568701446056366
1772709062819372800,1.902372802734375,-0.5166823863983154,0.7889163494110107,-0.7530229091644287
1772709062829398000,1.91239794921875,-0.42962199449539185,1.0678033828735352,-0.8710582256317139
1772709062839423000,1.922423095703125,-0.3268771469593048,1.3209980726242065,-0.9257190227508545
1772709062849448000,1.932447998046875,-0.2137378305196762,1.4870834350585938,-0.8435197472572327
1772709062859474000,1.942473876953125,-0.14074721932411194,1.5806888341903687,-0.38602110743522644
1772709062869499000,1.952498779296875,-0.015088899061083794,1.319520115852356,0.3983980715274811
1772709062879524000,1.962524169921875,0.11535195261240005,0.20545849204063416,0.9081287980079651
1772709062889549000,1.972549072265625,-0.21877411007881165,-0.7041574716567993,0.8099151849746704
1772709062899573800,1.98257373046875,-0.9763323068618774,-1.3012853860855103,0.02282179705798626
1772709062909598700,1.9925986328125,-1.5876648426055908,-1.4701489210128784,-1.0101237297058105
1772709062919624000,2.0026240234375,-1.7355382442474365,-0.7123178839683533,-1.5680567026138306
1772709062929650000,2.01264990234375,-1.359973669052124,0.5528122186660767,-1.6668245792388916
1772709062939675000,2.0226748046875,-0.8670531511306763,2.0899391174316406,-1.4252543449401855
1772709062949699800,2.032699951171875,-0.47336792945861816,2.7111387252807617,-1.0368213653564453
1772709062959725800,2.042725830078125,-0.21107956767082214,1.9581692218780518,-0.5364163517951965
1772709062969750800,2.052750732421875,-0.14215749502182007,0.16737531125545502,-0.014205088838934898
1772709062979776000,2.06277587890625,-0.2675124406814575,-1.8295835256576538,0.4039396345615387
1772709062989801000,2.072801025390625,-0.4284544587135315,-3.306499481201172,0.6329498887062073
1772709062999826000,2.082825927734375,-0.40208861231803894,-4.056307792663574,0.7053109407424927
1772709063009852000,2.092851806640625,-0.12174190580844879,-4.146674633026123,0.5702149271965027
1772709063019876900,2.102876953125,0.3540714979171753,-3.818713665008545,0.24624675512313843
1772709063029902000,2.112902099609375,0.8846639394760132,-3.411679983139038,-0.19500069320201874
1772709063039927000,2.122927001953125,1.354493498802185,-2.9834794998168945,-0.6396148800849915
1772709063049952000,2.132951904296875,1.6629761457443237,-2.352222204208374,-1.0581873655319214
1772709063059977000,2.14297705078125,1.7797255516052246,-1.5014402866363525,-1.4138309955596924
1772709063070002000,2.153001953125,1.7291539907455444,-0.5051881670951843,-1.6396782398223877
1772709063080028200,2.163028076171875,1.5261269807815552,0.3953360319137573,-1.7435122728347778
1772709063090052900,2.173052978515625,1.1934092044830322,0.9943662285804749,-1.6925263404846191
1772709063100077800,2.183077880859375,0.8096764087677002,1.1506673097610474,-1.507641315460205
1772709063110102800,2.193102783203125,0.47230401635169983,0.8577012419700623,-1.3025481700897217
1772709063120128000,2.2031279296875,0.2535977065563202,0.37009671330451965,-1.15336012840271
1772709063130153000,2.213153076171875,0.17983108758926392,-0.10770580917596817,-1.1403332948684692
1772709063140178000,2.223177978515625,0.16980746388435364,-0.38010749220848083,-1.2403901815414429
1772709063150204000,2.233203857421875,0.15771031379699707,-0.3638611435890198,-1.320090889930725
1772709063160228900,2.243228759765625,0.16112329065799713,-0.08547712117433548,-1.2265944480895996
1772709063170254000,2.253254150390625,0.27891969680786133,0.29236337542533875,-0.7258179783821106
1772709063180279000,2.263279052734375,0.4366264045238495,0.8572136163711548,-0.02792893722653389
1772709063190304000,2.273303955078125,0.47931554913520813,1.214113473892212,0.5712857842445374
1772709063200329000,2.283328857421875,0.37985536456108093,1.337171196937561,0.9226093888282776
1772709063210354000,2.29335400390625,0.239694282412529,1.1405420303344727,1.1247928142547607
1772709063220379000,2.30337890625,0.053092487156391144,0.6386370658874512,1.2188677787780762
1772709063230404900,2.31340478515625,-0.1295047551393509,0.04627096280455589,1.2953505516052246
1772709063240429800,2.323429931640625,-0.2571815550327301,-0.45040076971054077,1.373476266860962
1772709063250454800,2.333454833984375,-0.34493112564086914,-0.7298837900161743,1.4586164951324463
1772709063260480000,2.34347998046875,-0.36786404252052307,-0.8369301557540894,1.4999918937683105
1772709063270505000,2.3535048828125,-0.30438438057899475,-0.8350880146026611,1.4606993198394775
1772709063280530000,2.363530029296875,-0.22802747786045074,-0.6793233752250671,1.35609769821167
1772709063290555000,2.373554931640625,-0.18777352571487427,-0.43522098660469055,1.2917293310165405
1772709063300580900,2.383580810546875,-0.21936054527759552,-0.3315993547439575,1.3101609945297241
1772709063310606000,2.393606201171875,-0.25128039717674255,-0.6106935143470764,1.3627959489822388
1772709063320631000,2.403631103515625,-0.20422039926052094,-1.1939343214035034,1.376919150352478
1772709063330656000,2.413656005859375,-0.1019321009516716,-1.6846458911895752,1.3163186311721802
1772709063340681000,2.423680908203125,-0.06247974559664726,-1.7936536073684692,1.1563092470169067
1772709063350706000,2.433705810546875,-0.23192043602466583,-1.4091932773590088,0.9127241373062134
1772709063360731000,2.44373095703125,-0.7552295923233032,-0.42387256026268005,0.5394618511199951
1772709063370755800,2.453755859375,-1.601029396057129,0.895887017250061,0.07318439334630966
1772709063380781800,2.46378173828125,-2.5061779022216797,2.469337224960327,-0.1668071746826172
1772709063390807000,2.47380712890625,-3.065072536468506,3.882596969604492,0.1540435403585434
1772709063400832000,2.48383203125,-3.2509968280792236,4.488814353942871,0.917479932308197
1772709063410857000,2.49385693359375,-3.1721272468566895,4.083882808685303,1.8700827360153198
1772709063420882000,2.5038818359375,-3.0203933715820312,3.0810558795928955,2.8487305641174316
1772709063430907100,2.5139072265625,-2.9216299057006836,1.7771373987197876,3.571174383163452
1772709063440932000,2.52393212890625,-2.659597635269165,-0.04841098189353943,3.707263708114624
1772709063450957000,2.53395703125,-2.343578815460205,-1.6333476305007935,3.15396785736084
1772709063460983000,2.543983154296875,-2.2011804580688477,-2.155306577682495,2.0003209114074707
1772709063471008000,2.554008056640625,-2.046637535095215,-1.5296108722686768,0.35606613755226135
1772709063481033000,2.564032958984375,-1.7752269506454468,-0.20701396465301514,-1.3727205991744995
1772709063491058000,2.574057861328125,-1.212954044342041,0.5005964636802673,-2.5229930877685547
1772709063501083000,2.584082763671875,-0.4675563871860504,0.440623939037323,-2.770803213119507
1772709063511107800,2.59410791015625,0.37675780057907104,-0.16238977015018463,-2.655874013900757
1772709063521133000,2.604133056640625,1.0699886083602905,-0.8407144546508789,-2.6238486766815186
1772709063531159000,2.614158935546875,1.5346747636795044,-1.164164423942566,-2.8176913261413574
1772709063541184000,2.62418408203125,1.7987351417541504,-0.9667686223983765,-3.1097264289855957
1772709063551209000,2.634208984375,1.7943273782730103,-0.3206801116466522,-3.4033994674682617
1772709063561234000,2.64423388671875,1.6475300788879395,0.3231161832809448,-3.6339054107666016
1772709063571259100,2.654259033203125,1.5878605842590332,0.8170740008354187,-3.7604756355285645
1772709063581284000,2.6642841796875,1.5895940065383911,1.2470355033874512,-3.8822362422943115
1772709063591309000,2.67430908203125,1.6788673400878906,1.6118766069412231,-3.9372997283935547
1772709063601333800,2.684333740234375,1.926911473274231,1.8365797996520996,-3.860689163208008
1772709063611360000,2.694360107421875,2.219226598739624,1.8201651573181152,-3.628329277038574
1772709063621385000,2.704385009765625,2.4992330074310303,1.727373719215393,-3.1725034713745117
1772709063631410000,2.714409912109375,2.7347543239593506,1.7407290935516357,-2.4515225887298584
1772709063641435000,2.724434814453125,2.8936190605163574,1.85011625289917,-1.5491459369659424
1772709063651459800,2.7344599609375,2.930830717086792,1.9275966882705688,-0.6773217916488647
1772709063661485000,2.744485107421875,2.7312915325164795,1.826843500137329,-0.05596724897623062
1772709063671510000,2.754510009765625,2.1901028156280518,1.4344704151153564,0.2195282280445099
1772709063681536000,2.764535888671875,1.5123909711837769,0.7650366425514221,0.33116415143013
1772709063691561000,2.77456103515625,0.9724438190460205,0.12903808057308197,0.5315883159637451
1772709063701586000,2.7845859375,0.659034788608551,-0.29997825622558594,0.8808116316795349
1772709063711611100,2.794611083984375,0.561977744102478,-0.4576568603515625,1.2729820013046265
1772709063721636000,2.804635986328125,0.6588940620422363,-0.3570040166378021,1.5776604413986206
1772709063731660800,2.814660888671875,0.8823245167732239,-0.03868009150028229,1.7610355615615845
1772709063741685800,2.824685791015625,1.1194709539413452,0.4250417947769165,1.8779197931289673
1772709063751711000,2.8347109375,1.2434027194976807,0.8165985941886902,1.9389008283615112
1772709063761737000,2.844737060546875,1.2049049139022827,1.0163313150405884,1.9771455526351929
1772709063771762000,2.854761962890625,1.091045618057251,1.0516771078109741,2.0056469440460205
1772709063781787000,2.864786865234375,0.9909200668334961,1.0496162176132202,2.0094258785247803
1772709063791811800,2.874811767578125,0.9128290414810181,1.1233903169631958,1.9550179243087769
1772709063801837000,2.884837158203125,0.8465615510940552,1.2499946355819702,1.8149652481079102
1772709063811862000,2.894862060546875,0.8074452877044678,1.45207679271698,1.6383161544799805
1772709063821887000,2.904886962890625,0.8161496520042419,1.7043901681900024,1.457970142364502
1772709063831912000,2.914911865234375,0.8705654740333557,1.9050774574279785,1.2759404182434082
1772709063841938000,2.92493798828125,0.9446830153465271,2.019542694091797,1.120285987854004
1772709063851963100,2.934963134765625,0.9569026827812195,2.056489944458008,1.0543413162231445
1772709063861988000,2.944988037109375,0.8191568851470947,1.975667119026184,1.0625673532485962
1772709063872012800,2.9550126953125,0.5267473459243774,1.7398055791854858,1.1064155101776123
1772709063882037800,2.965037841796875,0.13379265367984772,1.4328559637069702,1.1522204875946045
1772709063892063000,2.97506298828125,-0.2724222242832184,1.1340982913970947,1.1692886352539062
1772709063902088000,2.985087890625,-0.6580512523651123,0.9233363270759583,1.104521632194519
1772709063912113000,2.99511279296875,-1.003409743309021,0.8904579877853394,0.902586042881012
1772709063922139000,3.005138916015625,-1.191158652305603,0.8306127190589905,0.5359335541725159
1772709063932163800,3.015163818359375,-1.1469476222991943,0.47464022040367126,-0.003079845570027828
1772709063942189000,3.02518896484375,-0.8130071759223938,-0.09369166940450668,-0.6130192875862122
1772709063952214000,3.035214111328125,-0.1390226036310196,-0.8623345494270325,-1.2211265563964844
1772709063962238200,3.04523828125,0.56167072057724,-1.6300784349441528,-1.7655718326568604
1772709063972263400,3.055263427734375,0.9524520635604858,-2.0662481784820557,-2.126207113265991
1772709063982288400,3.065288330078125,1.0548235177993774,-1.9332674741744995,-2.1929731369018555
1772709063992313300,3.075313232421875,0.8712052702903748,-1.3218491077423096,-1.8325061798095703
1772709064002339300,3.08533935546875,0.1541653424501419,-1.1055737733840942,-1.050865888595581
1772709064012364300,3.0953642578125,-0.9084686636924744,-1.466176986694336,-0.29791709780693054
1772709064022389200,3.10538916015625,-1.9128972291946411,-1.7133153676986694,-0.07720724493265152
1772709064032414200,3.115414306640625,-2.4492671489715576,-1.4553879499435425,-0.1907404661178589
1772709064042439200,3.125439208984375,-2.4823691844940186,-0.9046518802642822,-0.23151221871376038
1772709064052464000,3.135464111328125,-2.074859619140625,-0.3619294762611389,0.05537573620676994
1772709064062489300,3.1454892578125,-1.3396637439727783,-0.030893798917531967,0.6191968321800232
1772709064072515300,3.155515380859375,-0.4842979609966278,-0.11405233293771744,0.9118233919143677
1772709064082540300,3.165540283203125,0.26094940304756165,-0.27078869938850403,1.0273079872131348
1772709064092565200,3.175565185546875,0.8691498637199402,-0.706812858581543,1.149811029434204
1772709064102590200,3.185590087890625,1.2925468683242798,-1.3872389793395996,1.2201266288757324
1772709064112615400,3.195615478515625,1.453604817390442,-1.8554821014404297,1.205414056777954
1772709064122640400,3.205640380859375,1.3489409685134888,-1.988295555114746,1.0784412622451782
1772709064132665300,3.215665283203125,1.006004810333252,-1.8666926622390747,0.8043830394744873
1772709064142690300,3.225690185546875,0.624154806137085,-1.4933799505233765,0.37712088227272034
1772709064152716300,3.23571630859375,0.41617822647094727,-1.1603745222091675,-0.13371871411800385
1772709064162741200,3.2457412109375,0.3074282109737396,-0.8923859000205994,-0.6707654595375061
1772709064172766200,3.25576611328125,0.3733710050582886,-0.5217329859733582,-1.193268060684204
1772709064182791200,3.265791259765625,0.6385924220085144,0.023595549166202545,-1.7324410676956177
1772709064192816400,3.27581640625,0.9703378677368164,0.547553539276123,-2.1657655239105225
1772709064202841300,3.28584130859375,1.145658016204834,0.91815584897995,-2.3733108043670654
1772709064212866300,3.2958662109375,1.175925374031067,1.2628123760223389,-2.2373831272125244
1772709064222891300,3.305891357421875,1.0649508237838745,1.2866336107254028,-2.0132267475128174
1772709064232917200,3.315917236328125,0.8469141125679016,1.086630940437317,-1.825684666633606
1772709064242942200,3.325942138671875,0.5475725531578064,0.834831953048706,-1.6764575242996216
1772709064252967400,3.335967529296875,0.23539072275161743,0.5552127957344055,-1.6110068559646606
1772709064262992400,3.345992431640625,0.028891775757074356,0.2293492555618286,-1.5858192443847656
1772709064273017300,3.356017333984375,0.017217274755239487,-0.04063002020120621,-1.4869427680969238
1772709064283042300,3.366042236328125,0.12193135917186737,-0.14822092652320862,-1.2199665307998657
1772709064293067300,3.3760673828125,0.22035567462444305,-0.14752477407455444,-0.8044866323471069
1772709064303092200,3.38609228515625,0.24826037883758545,-0.0517716258764267,-0.2611675560474396
1772709064313117200,3.3961171875,0.225021630525589,0.01224437728524208,0.28682658076286316
1772709064323143200,3.40614306640625,0.1363464891910553,-0.02653656154870987,0.7044797539710999
1772709064333168400,3.41616845703125,0.011053811758756638,-0.16775786876678467,1.0202999114990234
1772709064343193300,3.426193359375,-0.09819744527339935,-0.39582356810569763,1.3029143810272217
1772709064353218300,3.43621826171875,-0.2087620347738266,-0.6571073532104492,1.602189540863037
1772709064363243300,3.4462431640625,-0.3101120889186859,-0.9328801035881042,1.9254512786865234
1772709064373268500,3.4562685546875,-0.34024256467819214,-1.2129780054092407,2.260864496231079
1772709064383293400,3.46629345703125,-0.2669915556907654,-1.4580415487289429,2.538442611694336
1772709064393319400,3.4763193359375,-0.1219552606344223,-1.6232036352157593,2.660609006881714
1772709064403344400,3.486344482421875,0.055672787129879,-1.7438242435455322,2.603435516357422
1772709064413369000,3.496369140625,0.24209459125995636,-1.8498071432113647,2.4152276515960693
1772709064423394300,3.506394287109375,0.4212377667427063,-1.8830114603042603,2.1707546710968018
1772709064433419300,3.516419189453125,0.5573245286941528,-1.8039262294769287,1.9245473146438599
1772709064443444200,3.5264443359375,0.6126194596290588,-1.6248390674591064,1.6767820119857788
1772709064453469200,3.53646923828125,0.584200918674469,-1.3778681755065918,1.3941692113876343
1772709064463494400,3.546494384765625,0.4242098927497864,-1.0702911615371704,1.0423434972763062
1772709064473520400,3.556520263671875,0.14163148403167725,-0.7371792793273926,0.6131466031074524
1772709064483545300,3.56654541015625,-0.21239300072193146,-0.3988131880760193,0.12703527510166168
1772709064493570300,3.5765703125,-0.592939019203186,-0.03853435814380646,-0.3396592140197754
1772709064503595300,3.58659521484375,-0.9191373586654663,0.2452898472547531,-0.6991400122642517
1772709064513620500,3.596620361328125,-1.069488525390625,0.39704981446266174,-0.9016994833946228
1772709064523645400,3.6066455078125,-1.042055606842041,0.45494675636291504,-0.9575060606002808
1772709064533670100,3.616670166015625,-0.9626293182373047,0.39175793528556824,-0.9811676740646362
1772709064543695000,3.626695068359375,-0.939183235168457,0.07752513885498047,-0.8362459540367126
1772709064553721000,3.63672119140625,-0.8827604651451111,-0.28495797514915466,-0.09050843119621277
1772709064563746300,3.646746337890625,-0.5959877371788025,-1.3144394159317017,0.6812156438827515
1772709064573771300,3.656771240234375,-0.3530704379081726,-1.9607893228530884,0.7094666957855225
1772709064583796200,3.666796142578125,-0.3736228942871094,-1.969325065612793,-0.143699511885643
1772709064593821200,3.6768212890625,-0.7455583810806274,-1.3804551362991333,-1.6432424783706665
1772709064603846400,3.686846435546875,-1.2073523998260498,-0.036913562566041946,-3.0118346214294434
1772709064613871400,3.696871337890625,-1.3626154661178589,1.5612965822219849,-3.654384136199951
1772709064623896300,3.706896240234375,-1.3029526472091675,2.999751329421997,-3.4519596099853516
1772709064633922300,3.71692236328125,-1.0675764083862305,3.5755927562713623,-2.7048377990722656
1772709064643947300,3.726947265625,-0.6306483149528503,2.7175817489624023,-1.980858325958252
1772709064653972500,3.736972412109375,0.0034730040933936834,0.9195151925086975,-1.8189131021499634
1772709064663997200,3.7469970703125,0.7703545093536377,-1.054172396659851,-2.1494596004486084
1772709064674022100,3.757022216796875,1.458242416381836,-2.4599521160125732,-2.4718148708343506
1772709064684047000,3.767047119140625,2.019399642944336,-2.9505515098571777,-2.4743425846099854
1772709064694072300,3.777072265625,2.409548759460449,-2.5521433353424072,-2.186317205429077
1772709064704097300,3.78709716796875,2.5367789268493652,-1.459306240081787,-1.58220374584198
1772709064714123300,3.797123291015625,2.4011197090148926,-0.2758001983165741,-0.8895030617713928
1772709064724148200,3.807148193359375,1.902723789215088,0.5486276745796204,-0.46044978499412537
1772709064734173200,3.817173095703125,1.2375867366790771,0.9678643345832825,-0.35681021213531494
1772709064744198400,3.827198486328125,0.6341410279273987,1.1821998357772827,-0.43122342228889465
1772709064754223400,3.837223388671875,0.24103502929210663,1.3240035772323608,-0.535464882850647
1772709064764248300,3.847248291015625,0.11400534957647324,1.300527572631836,-0.6095995903015137
1772709064774273300,3.857273193359375,0.1808546930551529,1.059879183769226,-0.5762959718704224
1772709064784298200,3.86729833984375,0.37121403217315674,0.7187901735305786,-0.41040340065956116
1772709064794323200,3.8773232421875,0.6135978698730469,0.37906157970428467,-0.17909827828407288
1772709064804349200,3.88734912109375,0.8357610702514648,0.18672506511211395,0.003371741157025099
1772709064814374100,3.8973740234375,0.9705617427825928,0.16798493266105652,0.09902236610651016
1772709064824399400,3.9073994140625,0.977550745010376,0.281594455242157,0.15156179666519165
1772709064834424300,3.91742431640625,0.8975331783294678,0.43382391333580017,0.2547827363014221
1772709064844449300,3.92744921875,0.7522332072257996,0.5581388473510742,0.47341978549957275
1772709064854474200,3.93747412109375,0.5918272733688354,0.6366349458694458,0.787819504737854
1772709064864499500,3.94749951171875,0.4858320653438568,0.6147135496139526,1.1113592386245728
1772709064874524400,3.9575244140625,0.4775499105453491,0.5162631273269653,1.3717186450958252
1772709064884550400,3.96755029296875,0.5585267543792725,0.36531588435173035,1.5262986421585083
1772709064894575400,3.977575439453125,0.6892653107643127,0.1849045604467392,1.6079397201538086
1772709064904600300,3.987600341796875,0.8288586735725403,-0.04906683787703514,1.7005778551101685
1772709064914625300,3.997625244140625,0.9304220676422119,-0.2880572974681854,1.8304585218429565
1772709064924650200,4.007650146484375,0.9087929725646973,-0.48463356494903564,1.9594640731811523
1772709064934675200,4.01767529296875,0.7435446977615356,-0.6375746130943298,2.065789222717285
1772709064944700200,4.0277001953125,0.46506914496421814,-0.7558889985084534,2.1453216075897217
1772709064954725400,4.037725341796875,0.09957185387611389,-0.8795267939567566,2.160520076751709
1772709064964750800,4.047750732421875,-0.32328885793685913,-0.9726213216781616,2.0774478912353516
1772709064974776800,4.05777685546875,-0.721773624420166,-1.001278281211853,1.9002608060836792
1772709064984801800,4.0678017578125,-1.0585153102874756,-0.8880142569541931,1.6720858812332153
1772709064994826800,4.07782666015625,-1.3364806175231934,-0.662910521030426,1.4301457405090332
1772709065004851700,4.087851806640625,-1.5198638439178467,-0.3769558072090149,1.1402692794799805
1772709065014877000,4.097876953125,-1.628191351890564,-0.13002832233905792,0.7972885966300964
1772709065024902000,4.10790185546875,-1.7121970653533936,-0.03508875519037247,0.4428248107433319
1772709065034926800,4.1179267578125,-1.7265559434890747,-0.07029201090335846,0.1094614639878273
1772709065044951600,4.12795166015625,-1.719454050064087,-0.16228611767292023,-0.20857521891593933
1772709065054977800,4.137977783203125,-1.6957284212112427,-0.28787654638290405,-0.5076742768287659
1772709065065002800,4.148002685546875,-1.6081687211990356,-0.3345969617366791,-0.7889368534088135
1772709065075027700,4.15802783203125,-1.4102191925048828,-0.09558171778917313,-1.0589966773986816
1772709065085052700,4.168052734375,-1.105672001838684,0.7046521902084351,-1.2175654172897339
1772709065095077600,4.17807763671875,-0.8628203868865967,2.0083389282226562,-1.2688381671905518
1772709065105102800,4.188102783203125,-0.7919471859931946,2.93245792388916,-1.2440621852874756
1772709065115127800,4.1981279296875,-0.7145251035690308,1.9887334108352661,-1.3776363134384155
1772709065125152800,4.20815283203125,-1.4540717601776123,0.8628005385398865,-1.5235012769699097
1772709065135178800,4.2181787109375,-3.132659912109375,0.577875554561615,-1.410711646080017
1772709065145203700,4.22820361328125,-4.660574436187744,0.5423364043235779,-0.8484639525413513
1772709065155229000,4.23822900390625,-5.346220016479492,0.041859518736600876,0.07807856053113937
1772709065165254000,4.24825390625,-4.93393611907959,-0.6950283050537109,1.0071163177490234
1772709065175278800,4.25827880859375,-3.4630632400512695,-1.6042588949203491,1.5464080572128296
1772709065185303800,4.2683037109375,-1.7954939603805542,-2.967982530593872,1.6269952058792114
1772709065195328800,4.278328857421875,-0.47146186232566833,-4.323636531829834,1.33527410030365
1772709065205353700,4.288353759765625,0.22949348390102386,-5.152302265167236,0.7727779746055603
1772709065215379700,4.298379638671875,0.34204667806625366,-5.478126525878906,-0.06434834003448486
1772709065225404700,4.30840478515625,0.08175386488437653,-5.251774787902832,-1.1949477195739746
1772709065235430000,4.318429931640625,-0.31829047203063965,-4.59059476852417,-2.348968267440796
1772709065245454800,4.328454833984375,-0.8385117053985596,-3.5724844932556152,-3.146912097930908
1772709065255479800,4.338479736328125,-1.4278620481491089,-2.8176145553588867,-3.229672431945801
1772709065265504800,4.3485048828125,-1.9034868478775024,-2.5566394329071045,-2.4663808345794678
1772709065275530000,4.358530029296875,-2.1702396869659424,-2.6728155612945557,-1.1583068370819092
1772709065285555000,4.368554931640625,-2.2593021392822266,-3.0658652782440186,0.2047581970691681
1772709065295581000,4.378580810546875,-2.211158514022827,-3.5474274158477783,1.234099268913269
1772709065305606000,4.38860595703125,-2.01784086227417,-3.8777694702148438,1.8571213483810425
1772709065315630600,4.398630615234375,-1.6838172674179077,-3.871263265609741,2.1440088748931885
1772709065325655800,4.40865576171875,-1.3257633447647095,-3.5323429107666016,2.1418144702911377
1772709065335680800,4.4186806640625,-1.0247864723205566,-3.0055553913116455,1.9192512035369873
1772709065345705700,4.428705810546875,-0.7695289254188538,-2.2845942974090576,1.528253436088562
1772709065355730700,4.438730712890625,-0.5640034675598145,-1.3147608041763306,1.0202817916870117
1772709065365756000,4.448755859375,-0.39724501967430115,-0.12845812737941742,0.474276602268219
1772709065375782000,4.458781982421875,-0.26566994190216064,1.1217799186706543,-0.00617122882977128
1772709065385806800,4.468806884765625,-0.13430343568325043,2.2397289276123047,-0.3281705379486084
1772709065395831800,4.478831787109375,0.0006554373539984226,3.1227755546569824,-0.45647817850112915
1772709065405856800,4.488856689453125,0.10905221849679947,3.74058198928833,-0.4054059386253357
1772709065415882000,4.498882080078125,0.2044362723827362,4.071759223937988,-0.20606566965579987
1772709065425907000,4.508906982421875,0.2719404697418213,4.118134021759033,0.06647877395153046
1772709065435931600,4.518931640625,0.27895602583885193,3.892730712890625,0.3524058759212494
1772709065445956600,4.52895654296875,0.19437851011753082,3.409191370010376,0.6042279601097107
1772709065455982600,4.538982666015625,-0.020493580028414726,2.7369937896728516,0.7906239032745361
1772709065466007800,4.5490078125,-0.30803975462913513,2.01403546333313,0.8777309656143188
1772709065476032800,4.55903271484375,-0.5436218976974487,1.4878755807876587,0.8653837442398071
1772709065486057700,4.5690576171875,-0.6428535580635071,1.2473567724227905,0.8292329907417297
1772709065496082700,4.579082763671875,-0.6154616475105286,1.18674898147583,0.7490156888961792
1772709065506108000,4.58910791015625,-0.5606372356414795,1.1979079246520996,0.5320149064064026
1772709065516132900,4.5991328125,-0.5042490363121033,1.2057796716690063,0.2200457751750946
1772709065526157800,4.60915771484375,-0.4306619465351105,1.2275129556655884,-0.11504869163036346
1772709065536183800,4.619183837890625,-0.35459592938423157,1.165207028388977,-0.4263061583042145
1772709065546208800,4.629208740234375,-0.23323388397693634,1.0578805208206177,-0.6971152424812317
1772709065556234000,4.63923388671875,-0.021797528490424156,1.0634909868240356,-0.9232231974601746
1772709065566259000,4.649259033203125,0.264254093170166,1.2375855445861816,-1.0427135229110718
1772709065576283600,4.65928369140625,0.5868196487426758,1.5525331497192383,-1.0052790641784668
1772709065586308600,4.66930859375,0.9096371531486511,1.9304783344268799,-0.7781490087509155
1772709065596333800,4.679333740234375,1.2110586166381836,2.2362101078033447,-0.3598092496395111
1772709065606358800,4.68935888671875,1.4671850204467773,2.295393466949463,0.16204707324504852
1772709065616383700,4.6993837890625,1.7458480596542358,1.8568158149719238,0.6736017465591431
1772709065626409700,4.70940966796875,1.9341046810150146,1.0766308307647705,1.1119061708450317
1772709065636434700,4.7194345703125,1.8789048194885254,0.4878045618534088,1.4673904180526733
1772709065646460000,4.7294599609375,1.630555510520935,0.08335878700017929,1.8802005052566528
1772709065656484900,4.73948486328125,1.1911280155181885,-0.7836971879005432,2.3500003814697266
1772709065666509800,4.749509765625,0.5749202370643616,-2.1199378967285156,2.254533529281616
1772709065676534800,4.75953466796875,-0.0920087918639183,-3.1250438690185547,1.2021862268447876
1772709065686559700,4.769559814453125,-0.5657883882522583,-3.385119915008545,-0.4515097737312317
1772709065696586000,4.7795859375,-0.6485370397567749,-2.8512039184570312,-1.6779377460479736
1772709065706610700,4.789610595703125,-0.30761387944221497,-1.4351210594177246,-1.6813764572143555
1772709065716635600,4.7996357421875,0.5508087277412415,0.2800425589084625,-0.5220901370048523
1772709065726660600,4.80966064453125,1.3700687885284424,1.1802271604537964,0.9576254487037659
1772709065736685800,4.819685791015625,1.7624802589416504,0.24066825211048126,2.012969732284546
1772709065746710800,4.829710693359375,1.9699482917785645,-1.5722256898880005,2.6890368461608887
1772709065756735700,4.83973583984375,2.0144670009613037,-3.2218806743621826,2.9660491943359375
1772709065766760700,4.8497607421875,1.8064661026000977,-3.9489214420318604,2.738474130630493
1772709065776786700,4.85978662109375,1.511886715888977,-3.364649772644043,1.9898076057434082
1772709065786812000,4.86981201171875,1.417280673980713,-1.6242278814315796,0.7023674249649048
1772709065796836900,4.8798369140625,1.5903548002243042,0.9297880530357361,-1.0318641662597656
1772709065806861800,4.88986181640625,1.7325905561447144,3.791231632232666,-3.0243337154388428
1772709065816886800,4.89988671875,1.6851527690887451,5.700626373291016,-4.885085105895996
1772709065826911700,4.909911865234375,1.6671782732009888,5.331392765045166,-5.884914398193359
1772709065836936700,4.919936767578125,1.8278448581695557,2.719869613647461,-5.716464042663574
1772709065846961700,4.929961669921875,1.9785311222076416,0.18938159942626953,-4.078726768493652
1772709065856987000,4.93998681640625,1.8481837511062622,-1.5456055402755737,-1.9113813638687134
1772709065867012900,4.950012939453125,1.425372838973999,-2.0230228900909424,0.09801801294088364
1772709065877037800,4.960037841796875,0.8911597728729248,-1.6698461771011353,1.7963956594467163
1772709065887062800,4.970062744140625,0.45006489753723145,-0.9247179627418518,3.066854238510132
1772709065897087700,4.980087646484375,0.1949194073677063,-0.16626222431659698,3.5995192527770996
1772709065907113000,4.990113037109375,0.018069947138428688,0.6110838651657104,3.4785497188568115
1772709065917138000,5.000137939453125,-0.11160549521446228,1.3526338338851929,2.913593292236328
1772709065927163000,5.010162841796875,-0.21213938295841217,1.9200258255004883,2.1169373989105225
1772709065937188900,5.02018896484375,-0.32698023319244385,2.2241299152374268,1.2503740787506104
1772709065947213800,5.0302138671875,-0.47690480947494507,2.505518913269043,0.5161271095275879
1772709065957238800,5.04023876953125,-0.5932425856590271,2.7386984825134277,-0.0446283221244812
1772709065967263700,5.050263671875,-0.7060456275939941,2.764157295227051,-0.4622955322265625
1772709065977288700,5.060288818359375,-0.7620487213134766,2.508316993713379,-0.6582221984863281
1772709065987313700,5.070313720703125,-0.68202143907547,2.1146280765533447,-0.5478047132492065
1772709065997339000,5.0803388671875,-0.4017746150493622,1.459378719329834,-0.20458611845970154
1772709066007363800,5.09036376953125,-0.08635401725769043,0.9782193303108215,0.24205848574638367
1772709066017389800,5.100389892578125,0.03831467777490616,0.5829612016677856,0.6044619679450989
1772709066027414800,5.110414794921875,-0.05788077041506767,0.26829108595848083,0.822786808013916
1772709066037439700,5.120439697265625,-0.28477516770362854,0.02665211260318756,0.9419872760772705
1772709066047465000,5.13046484375,-0.5712399482727051,-0.11662406474351883,0.9660781025886536
1772709066057490000,5.140489990234375,-0.8062577843666077,0.032201893627643585,0.9390374422073364
1772709066067515000,5.150514892578125,-0.8990890383720398,0.4394383430480957,0.9325762391090393
1772709066077539600,5.16053955078125,-0.8436116576194763,0.8556531071662903,0.9371158480644226
1772709066087564800,5.170564697265625,-0.7778260707855225,1.0386109352111816,0.8639350533485413
1772709066097589800,5.18058984375,-0.7237508296966553,0.9730958342552185,0.7500223517417908
1772709066107615700,5.19061572265625,-0.6001297235488892,0.8230037689208984,0.6894721984863281
1772709066117640700,5.200640625,-0.42997241020202637,0.6764875650405884,0.6913244128227234
1772709066127665700,5.210665771484375,-0.28520143032073975,0.5620771646499634,0.7145393490791321
1772709066137691000,5.22069091796875,-0.17691491544246674,0.46537908911705017,0.7249727845191956
1772709066147715800,5.2307158203125,-0.14082862436771393,0.38997727632522583,0.7075169682502747
1772709066157740800,5.24074072265625,-0.1981435865163803,0.4724396765232086,0.7010878324508667
1772709066167765800,5.250765869140625,-0.28054139018058777,0.7230476140975952,0.7354423403739929
1772709066177791700,5.260791748046875,-0.3031787872314453,1.0633724927902222,0.8008378744125366
1772709066187817000,5.27081689453125,-0.27435171604156494,1.2774871587753296,0.7759707570075989
1772709066197842000,5.280842041015625,-0.15633215010166168,1.173378586769104,0.6909812688827515
1772709066207867000,5.290866943359375,0.014456010423600674,0.5299139022827148,0.6072289943695068
1772709066217891600,5.3008916015625,0.17917118966579437,-0.23535658419132233,0.515998125076294
1772709066227916800,5.310916748046875,0.13098005950450897,-0.5661869645118713,0.20555654168128967
1772709066237941800,5.320941650390625,-0.17964118719100952,-0.33100804686546326,-0.4012377858161926
1772709066257364700,5.34036474609375,-0.9417946338653564,1.0543330907821655,-1.4220350980758667
1772709066267389700,5.3503896484375,-1.0974557399749756,1.3208109140396118,-1.455195665359497
1772709066277415000,5.360414794921875,-1.0563719272613525,1.358293056488037,-0.9571254849433899
1772709066287440000,5.37043994140625,-0.9697438478469849,1.0425916910171509,-0.4894167184829712
1772709066297465900,5.3804658203125,-0.8701078295707703,0.18585047125816345,-0.5007809400558472
1772709066307490800,5.39049072265625,-0.6767939925193787,-0.8881192803382874,-0.9485459327697754
1772709066317515800,5.400515869140625,-0.3904828727245331,-1.6293418407440186,-1.5000762939453125
1772709066327541000,5.410541015625,-0.14630557596683502,-1.7713102102279663,-1.8633111715316772
1772709066337566000,5.42056591796875,-0.024743985384702682,-1.631811261177063,-2.0362935066223145
1772709066347590700,5.430590576171875,0.03202322870492935,-1.2998743057250977,-2.0976197719573975
1772709066357615600,5.44061572265625,0.15500587224960327,-0.775391697883606,-2.099079132080078
1772709066367640800,5.450640869140625,0.3057214617729187,-0.1858801543712616,-1.9392664432525635
1772709066377666800,5.460666748046875,0.5034744739532471,0.2769868075847626,-1.602176308631897
1772709066387691800,5.47069189453125,0.6965572237968445,0.5974642038345337,-1.1850162744522095
1772709066397716700,5.480716796875,0.8459538817405701,0.7544490098953247,-0.7236659526824951
1772709066407741700,5.49074169921875,0.9077250957489014,0.7080479860305786,-0.22689880430698395
1772709066417767000,5.500766845703125,0.9411482810974121,0.49564775824546814,0.26351433992385864
1772709066427792000,5.5107919921875,0.9716464877128601,0.20723974704742432,0.6521984338760376
1772709066437816800,5.52081689453125,0.9238185286521912,-0.060875054448843,0.8123276233673096
1772709066447841800,5.530841796875,0.8059346079826355,-0.2778420150279999,0.7418529391288757
1772709066457867800,5.54086767578125,0.6578444838523865,-0.4145985245704651,0.5262120366096497
1772709066467893000,5.55089306640625,0.4924130439758301,-0.41158974170684814,0.21070921421051025
1772709066477917700,5.560917724609375,0.29763689637184143,-0.27292001247406006,-0.14776797592639923
1772709066487942700,5.570942626953125,0.14195118844509125,0.006244813557714224,-0.3925850987434387
1772709066497967600,5.580967529296875,0.10552632808685303,0.26097455620765686,-0.4371722638607025
1772709066507992800,5.590992919921875,0.16872361302375793,0.41569244861602783,-0.3159259259700775
1772709066518017800,5.601017822265625,0.2775225043296814,0.4166184365749359,-0.044264595955610275
1772709066528042800,5.611042724609375,0.38103723526000977,0.177312433719635,0.3050592839717865
1772709066538068700,5.62106884765625,0.45387816429138184,-0.22662943601608276,0.6305478811264038
1772709066548093700,5.63109375,0.5070258378982544,-0.6373245716094971,0.8894144296646118
1772709066558119000,5.641118896484375,0.49465760588645935,-0.9551222324371338,1.0332714319229126
1772709066568144000,5.651143798828125,0.38301196694374084,-1.0873322486877441,1.0601614713668823
1772709066578168800,5.6611689453125,0.21902012825012207,-0.9946827292442322,1.0029969215393066
1772709066588193800,5.67119384765625,0.08228113502264023,-0.6677504181861877,0.8809829950332642
1772709066598846700,5.6818466796875,0.02833028882741928,-0.18444262444972992,0.75099116563797
1772709066608871700,5.69187158203125,0.05021677166223526,0.2520367205142975,0.648202121257782
1772709066618896600,5.701896728515625,0.10443872958421707,0.5265213251113892,0.5953868627548218
1772709066628921900,5.711921875,0.16997481882572174,0.5446333885192871,0.593521237373352
1772709066638946800,5.72194677734375,0.26670533418655396,0.3478766977787018,0.6455492377281189
1772709066648972800,5.731972900390625,0.3198291063308716,0.06949381530284882,0.7009909749031067
1772709066658997800,5.741997802734375,0.30891653895378113,-0.17746271193027496,0.7267618775367737
1772709066669022700,5.752022705078125,0.287197083234787,-0.27371522784233093,0.7016983032226562
1772709066679048000,5.7620478515625,0.289507657289505,-0.21603918075561523,0.6393709778785706
1772709066689073000,5.772072998046875,0.36395084857940674,-0.17521105706691742,0.4892697036266327
1772709066699097900,5.782097900390625,0.5063639283180237,-0.2105882167816162,0.20193618535995483
1772709066709122800,5.792122802734375,0.7473095655441284,-0.3621708154678345,-0.327176958322525
1772709066719148800,5.802148681640625,1.0572749376296997,-0.5315126776695251,-1.0725982189178467
1772709066729174000,5.812174072265625,1.3990769386291504,-0.8043695092201233,-1.7711315155029297
1772709066739198700,5.82219873046875,1.695277214050293,-1.0453414916992188,-2.1730234622955322
1772709066749223700,5.8322236328125,1.8146021366119385,-0.8999327421188354,-2.1906723976135254
1772709066759248600,5.84224853515625,1.709317684173584,-0.4468800723552704,-1.9927146434783936
1772709066769273900,5.85227392578125,1.436006784439087,0.3494865596294403,-1.5566513538360596
1772709066779298800,5.862298828125,1.070383071899414,0.7989895343780518,-0.7507824301719666
1772709066789323800,5.87232373046875,0.8365956544876099,0.14430490136146545,0.573350727558136
1772709066799349800,5.882349853515625,0.7608859539031982,-1.0942436456680298,1.961166501045227
1772709066809374700,5.892374755859375,0.6893256902694702,-2.0379576683044434,2.937652587890625
1772709066819400000,5.90239990234375,0.5660106539726257,-2.7156789302825928,3.174509048461914
1772709066829425000,5.9124248046875,0.4051966965198517,-3.2282116413116455,2.370885133743286
1772709066839449900,5.922449951171875,0.46059978008270264,-2.867372512817383,0.8529385924339294
1772709066849474800,5.932474853515625,0.6470551490783691,-1.8018954992294312,-0.8729141354560852
1772709066859499800,5.942499755859375,0.816295862197876,-0.4094237983226776,-2.431987762451172
1772709066869526000,5.952526123046875,0.9314950108528137,1.0519073009490967,-3.669574499130249
1772709066879550700,5.96255078125,0.9531888961791992,2.295466184616089,-4.532299041748047
1772709066889575700,5.97257568359375,0.882160484790802,2.9468119144439697,-4.904265403747559
1772709066899600600,5.9826005859375,0.822451114654541,2.791808605194092,-4.503457069396973
1772709066909625900,5.9926259765625,0.79756760597229,1.9800878763198853,-3.3544514179229736
1772709066919650800,6.00265087890625,0.6314347982406616,0.9723679423332214,-1.9013715982437134
1772709066929675800,6.01267578125,0.2651926577091217,0.07419905066490173,-0.43355792760849
1772709066939700700,6.02270068359375,-0.1387619972229004,-0.6600589752197266,0.8001797199249268
1772709066949726700,6.032726806640625,-0.4986717104911804,-1.2282651662826538,1.6935951709747314
1772709066959752000,6.042751953125,-0.806002676486969,-1.558256983757019,2.188955783843994
1772709066969776600,6.052776611328125,-1.0045136213302612,-1.554741621017456,2.3123130798339844
1772709066979801600,6.062801513671875,-1.052115797996521,-1.1403180360794067,2.126330852508545
1772709066989826600,6.07282666015625,-0.9463045597076416,-0.4027915596961975,1.6929033994674683
1772709066999851500,6.0828515625,-0.7009919881820679,0.41938191652297974,1.1454161405563354
1772709067009876500,6.09287646484375,-0.4117792844772339,1.0632814168930054,0.634036123752594
1772709067019902500,6.10290234375,-0.15559467673301697,1.1958134174346924,0.28482937812805176
1772709067029927400,6.112927490234375,0.021483592689037323,0.7766264081001282,0.0790514126420021
1772709067039952600,6.12295263671875,0.124889075756073,0.09270960092544556,0.059620458632707596
1772709067049977600,6.1329775390625,0.20320163667201996,-0.579643726348877,0.28200116753578186
1772709067060002600,6.14300244140625,0.18472568690776825,-1.1965771913528442,0.5271939039230347
1772709067070027500,6.153027587890625,0.06755868345499039,-1.393373966217041,0.7349340915679932
1772709067080052700,6.163052734375,-0.10558167099952698,-1.2696912288665771,0.7785681486129761
1772709067090077700,6.17307763671875,-0.2774430811405182,-0.8739606142044067,0.7089992165565491
1772709067100103700,6.183103759765625,-0.39824193716049194,-0.311623215675354,0.6300511360168457
1772709067110128600,6.193128662109375,-0.45286259055137634,0.26898908615112305,0.5468583703041077
1772709067120153300,6.2031533203125,-0.46608197689056396,0.7623106837272644,0.4338988661766052
1772709067130178600,6.213178466796875,-0.4589892327785492,1.006484866142273,0.27539998292922974
1772709067140203500,6.22320361328125,-0.46119222044944763,0.8233161568641663,0.15064501762390137
1772709067150228500,6.233228515625,-0.5343301892280579,0.19577981531620026,0.09432227909564972
1772709067160253400,6.24325341796875,-0.6635550260543823,-0.5258750319480896,0.09424372017383575
1772709067170278700,6.253278564453125,-0.7801306843757629,-0.9510912895202637,0.20853692293167114
1772709067180304600,6.2633046875,-0.8126590847969055,-0.928962767124176,0.40946337580680847
1772709067190329600,6.27332958984375,-0.765880286693573,-0.5478096008300781,0.6069991588592529
1772709067200354600,6.2833544921875,-0.6800908446311951,0.001043954398483038,0.6736985445022583
1772709067210379500,6.293379638671875,-0.5906190276145935,0.679733157157898,0.5615204572677612
1772709067220404700,6.30340478515625,-0.47638729214668274,1.4033393859863281,0.29935139417648315
1772709067230429700,6.3134296875,-0.295711874961853,1.9571701288223267,0.03165062516927719
1772709067240454400,6.323454345703125,-0.18635982275009155,2.0158472061157227,-0.1534888744354248
1772709067250480600,6.333480712890625,-0.19546954333782196,1.5626894235610962,-0.05392613634467125
1772709067260505300,6.34350537109375,-0.16241438686847687,0.8555912971496582,0.5205554962158203
1772709067270530600,6.353530517578125,0.14221733808517456,-0.00580653315410018,1.3750112056732178
1772709067280555500,6.363555419921875,0.6737605929374695,-0.8413021564483643,1.9835885763168335
1772709067290580500,6.37358056640625,1.0908573865890503,-1.1997535228729248,1.957999348640442
1772709067300605400,6.38360546875,1.0704485177993774,-1.0905940532684326,1.2046669721603394
1772709067310630700,6.393630615234375,0.5743027925491333,-0.5239969491958618,0.27191072702407837
1772709067320655600,6.403655517578125,0.03473224490880966,0.28915536403656006,-0.10372521728277206
1772709067330681600,6.413681640625,-0.1769281029701233,0.9354291558265686,0.21866366267204285
1772709067340706600,6.42370654296875,-0.08001779764890671,1.3827366828918457,0.8164333701133728
1772709067350731500,6.4337314453125,0.0501081645488739,1.4797751903533936,1.0925548076629639
1772709067360756700,6.4437568359375,0.09007129818201065,1.1155048608779907,0.7342543005943298
1772709067370781400,6.453781494140625,0.20140871405601501,0.7197876572608948,0.05924597382545471
1772709067380806400,6.463806396484375,0.30396732687950134,0.3796399235725403,-0.4331466853618622
1772709067390831400,6.473831298828125,0.21479816734790802,0.12491445988416672,-0.6501858830451965
1772709067400857300,6.483857421875,-0.06300228089094162,0.1341494917869568,-0.8155570030212402
1772709067410882600,6.493882568359375,-0.3902372419834137,0.39237430691719055,-1.049513578414917
1772709067420907500,6.503907470703125,-0.5453152060508728,0.7941744923591614,-1.2806980609893799
1772709067430932500,6.513932373046875,-0.4375142455101013,1.2257264852523804,-1.344257116317749
1772709067440957400,6.52395751953125,-0.14744913578033447,1.4952194690704346,-1.2758870124816895
1772709067450982700,6.533982666015625,0.22263625264167786,1.5637481212615967,-1.1078535318374634
1772709067461007600,6.544007568359375,0.6249626278877258,1.563335657119751,-0.7851629853248596
1772709067471032600,6.554032470703125,0.934343695640564,1.5529592037200928,-0.371222585439682
1772709067481058600,6.56405859375,1.1026453971862793,1.4775537252426147,0.04896485432982445
1772709067491083500,6.57408349609375,1.0797611474990845,1.3011722564697266,0.42508822679519653
1772709067501108700,6.584108642578125,0.881282389163971,1.0772584676742554,0.7141463756561279
1772709067511133400,6.594133544921875,0.5537807941436768,0.8446124792098999,0.8767551779747009
1772709067521158400,6.604158447265625,0.14027047157287598,0.6341614723205566,0.8722240924835205
1772709067531183400,6.614183349609375,-0.26574328541755676,0.5087963342666626,0.7346097826957703
1772709067541208600,6.62420849609375,-0.5937513113021851,0.493078351020813,0.5179293751716614
1772709067551234600,6.634234619140625,-0.7942342758178711,0.49150311946868896,0.25259989500045776
1772709067561259500,6.644259521484375,-0.8509220480918884,0.4754493236541748,0.023211710155010223
1772709067571284500,6.654284423828125,-0.7992902398109436,0.3923815190792084,-0.14680778980255127
1772709067581309400,6.664309326171875,-0.6859948635101318,0.1531260460615158,-0.23647882044315338
1772709067591334700,6.674334716796875,-0.5397271513938904,-0.16262492537498474,-0.27376240491867065
1772709067601359600,6.684359619140625,-0.3626421093940735,-0.44024670124053955,-0.33394238352775574
1772709067611384600,6.694384521484375,-0.1896880567073822,-0.5470559597015381,-0.40485748648643494
1772709067621409500,6.704409423828125,-0.0809360146522522,-0.5560933947563171,-0.46949639916419983
1772709067631435500,6.714435546875,-0.07995488494634628,-0.39938077330589294,-0.535635769367218
1772709067641460700,6.724460693359375,-0.17471574246883392,-0.12256543338298798,-0.6209223866462708
1772709067651485400,6.7344853515625,-0.28562888503074646,0.2901904881000519,-0.7651416063308716
1772709067661510400,6.744510498046875,-0.399644672870636,0.8642071485519409,-0.8984956741333008
1772709067671535600,6.75453564453125,-0.5267581343650818,1.4546986818313599,-0.9786148071289062
1772709067681560600,6.764560546875,-0.661604642868042,1.735229730606079,-0.9550516605377197
1772709067691585500,6.77458544921875,-0.760057270526886,1.518691062927246,-0.7856645584106445
1772709067701611500,6.784611572265625,-0.7415509819984436,0.8630015254020691,-0.49965035915374756
1772709067711636500,6.794636474609375,-0.6328730583190918,0.09493867307901382,-0.18595023453235626
1772709067721661400,6.804661376953125,-0.5381409525871277,-0.4950926601886749,0.13577613234519958
1772709067731686700,6.814686767578125,-0.4439678490161896,-0.8293012380599976,0.45403096079826355
1772709067741711600,6.824711669921875,-0.3490149676799774,-0.910930871963501,0.7063883543014526
1772709067751736600,6.834736572265625,-0.2742636799812317,-0.758957028388977,0.8608421087265015
1772709067761761500,6.844761474609375,-0.12756533920764923,-0.3386060893535614,0.9342026114463806
1772709067771786500,6.854786376953125,0.12566298246383667,0.2924940884113312,0.9815798997879028
1772709067781812500,6.8648125,0.3881271183490753,0.9049298167228699,1.0515936613082886
1772709067791837400,6.87483740234375,0.6185852289199829,1.0586858987808228,1.1985914707183838
1772709067801862400,6.8848623046875,0.8808756470680237,0.4405302405357361,1.4792826175689697
1772709067811887600,6.8948876953125,1.1491966247558594,-0.5834155678749084,1.7129546403884888
1772709067821912600,6.90491259765625,1.3578494787216187,-1.4339418411254883,1.519189476966858
1772709067831937500,6.9149375,1.434037685394287,-1.7493393421173096,0.6754716634750366
1772709067841962500,6.92496240234375,1.3246216773986816,-1.5313278436660767,-0.5510830879211426
1772709067851988500,6.934988525390625,1.2259975671768188,-1.123052716255188,-1.412371277809143
1772709067862013700,6.945013671875,1.4081504344940186,-0.6569195985794067,-1.292239785194397
1772709067872038700,6.95503857421875,1.7837958335876465,-0.14540298283100128,-0.3794962763786316
1772709067882063600,6.965063720703125,2.1341259479522705,0.007482167799025774,0.5727574229240417
1772709067892088600,6.975088623046875,2.204958200454712,-0.423189640045166,0.9499627947807312
1772709067902113500,6.985113525390625,2.0750980377197266,-1.1976464986801147,0.7547749280929565
1772709067912138500,6.995138427734375,1.895957112312317,-2.0316550731658936,0.35405394434928894
1772709067922164500,7.00516455078125,1.4807580709457397,-2.8430113792419434,0.07566467672586441
1772709067932189400,7.015189453125,0.825069010257721,-3.2257983684539795,-0.08873891830444336
1772709067942214400,7.02521435546875,0.09419561177492142,-2.865896463394165,-0.34849271178245544
1772709067952239600,7.035239501953125,-0.5534395575523376,-1.9801422357559204,-0.7991011738777161
1772709067962264800,7.045264892578125,-1.0115909576416016,-0.8720998167991638,-1.3822519779205322
1772709067972289800,7.055289794921875,-1.2288293838500977,0.21317215263843536,-1.9451040029525757
1772709067982314800,7.065314697265625,-1.1787006855010986,1.0059406757354736,-2.326472520828247
1772709067992340000,7.075340087890625,-0.8333820700645447,1.3579601049423218,-2.4393279552459717
1772709068002366000,7.085365966796875,-0.13592949509620667,1.4547170400619507,-2.1907379627227783
1772709068012391000,7.095390869140625,0.6286240220069885,1.1769770383834839,-1.5748109817504883
1772709068022416000,7.105415771484375,1.14619779586792,0.6253503561019897,-0.8262187838554382
1772709068032440800,7.11544091796875,1.314456582069397,0.029178354889154434,-0.09053023904561996
1772709068042465800,7.1254658203125,1.2089120149612427,-0.5502077341079712,0.455534428358078
1772709068052490800,7.13549072265625,0.8543105721473694,-0.9824971556663513,0.6880078911781311
1772709068062515700,7.145515625,0.3127261996269226,-1.1640996932983398,0.6704885959625244
1772709068072540700,7.155540771484375,-0.210841104388237,-1.078926682472229,0.5079559087753296
1772709068082566700,7.165566650390625,-0.572631299495697,-0.7723734378814697,0.2961067259311676
1772709068092591900,7.175591796875,-0.7570810317993164,-0.36374199390411377,0.12648677825927734
1772709068102616800,7.185616943359375,-0.7805892825126648,0.00041838735342025757,0.08029291778802872
1772709068112641800,7.195641845703125,-0.6584454774856567,0.24871975183486938,0.20727010071277618
1772709068122666800,7.205666748046875,-0.4607054889202118,0.38526296615600586,0.44124236702919006
1772709068132692000,7.21569189453125,-0.30633801221847534,0.3857048451900482,0.6456884145736694
1772709068142717000,7.225717041015625,-0.2996034026145935,0.26491689682006836,0.7448109984397888
1772709068152742000,7.235741943359375,-0.4146422743797302,0.11487037688493729,0.7554113864898682
1772709068162768000,7.245767822265625,-0.5973292589187622,-0.07480927556753159,0.6980221271514893
1772709068172792600,7.25579248046875,-0.83059161901474,-0.2462063878774643,0.5497749447822571
1772709068182817800,7.26581787109375,-1.0411046743392944,-0.2872869670391083,0.337199330329895
1772709068192842800,7.2758427734375,-1.1990082263946533,-0.19932563602924347,0.09658975899219513
1772709068202867700,7.28586767578125,-1.289466142654419,-0.026246532797813416,-0.09102008491754532
1772709068212892700,7.295892578125,-1.2790324687957764,0.25648632645606995,-0.19868575036525726
1772709068222918000,7.30591796875,-1.2154614925384521,0.5231952667236328,-0.24513660371303558
1772709068232942800,7.31594287109375,-1.206741452217102,0.5954252481460571,-0.23572538793087006
1772709068242968800,7.32596875,-1.2558165788650513,0.43024134635925293,-0.2002406269311905
1772709068252993800,7.335993896484375,-1.3304919004440308,0.13011908531188965,-0.1751672923564911
1772709068263018800,7.346018798828125,-1.3789631128311157,-0.2628364562988281,-0.16818155348300934
1772709068273044000,7.3560439453125,-1.3653852939605713,-0.5822733044624329,-0.2092621773481369
1772709068283069000,7.36606884765625,-1.2473989725112915,-0.7275699973106384,-0.33314764499664307
1772709068293093600,7.37609375,-1.0130870342254639,-0.48383721709251404,-0.5218174457550049
1772709068303118600,7.38611865234375,-0.7658652067184448,0.0929270088672638,-0.6834585070610046
1772709068313144600,7.39614453125,-0.5698308944702148,0.6953601241111755,-0.7140684127807617
1772709068323169800,7.406169677734375,-0.31218257546424866,1.258531093597412,-0.42426249384880066
1772709068333194800,7.41619482421875,0.02238723263144493,1.4667596817016602,0.17647142708301544
1772709068343219700,7.4262197265625,0.16038718819618225,1.1434301137924194,0.6178719997406006
1772709068353244700,7.43624462890625,-0.15181279182434082,0.4039578139781952,0.5546078085899353
1772709068363270000,7.446269775390625,-0.8177961111068726,-0.7289844155311584,0.047777898609638214
1772709068373294800,7.456294921875,-1.274072527885437,-1.7862929105758667,-0.28349119424819946
1772709068383319800,7.46631982421875,-1.139066457748413,-2.344184160232544,-0.1885279268026352
1772709068393345800,7.476345703125,-0.5111815333366394,-2.159122943878174,0.20461532473564148
1772709068403370800,7.486370849609375,0.2949197590351105,-1.277060627937317,0.397421270608902
1772709068413396000,7.49639599609375,0.8658434152603149,-0.06799879670143127,0.03169547766447067
1772709068423421000,7.5064208984375,1.150550365447998,0.8657568693161011,-0.5807071924209595
1772709068433445600,7.516445556640625,1.202314853668213,0.964699387550354,-0.9254258275032043
1772709068443470600,7.526470703125,0.9219492673873901,0.6375012993812561,-0.9008895754814148
1772709068453495800,7.536495849609375,0.38260599970817566,0.2422904074192047,-0.5475865006446838
1772709068463520800,7.546520751953125,-0.12420553714036942,-0.13757357001304626,-0.04801372066140175
1772709068473546800,7.556546630859375,-0.3438486158847809,-0.48278799653053284,0.28891855478286743
1772709068483571700,7.56657177734375,-0.27393877506256104,-0.6652193665504456,0.3699936866760254
1772709068493596700,7.5765966796875,0.04789423570036888,-0.6706505417823792,0.19886313378810883
1772709068503622000,7.586621826171875,0.5918030738830566,-0.6098556518554688,-0.14426466822624207
1772709068513646800,7.596646728515625,1.1308841705322266,-0.43038415908813477,-0.5235925912857056
1772709068523671800,7.606671875,1.5137790441513062,0.07211066037416458,-0.8427194356918335
1772709068533696800,7.61669677734375,1.655998945236206,0.7866050601005554,-1.0559173822402954
1772709068543721700,7.6267216796875,1.4768900871276855,1.4925289154052734,-1.1599063873291016
1772709068553748000,7.636748046875,1.0604572296142578,2.020092248916626,-1.0973035097122192
1772709068563772700,7.646772705078125,0.5528883337974548,2.1564524173736572,-0.8281928896903992
1772709068573797600,7.656797607421875,0.04494307190179825,1.7536417245864868,-0.4408175051212311
1772709068583822800,7.66682275390625,-0.3999286890029907,0.9494733810424805,-0.08615528047084808
1772709068593847800,7.676847900390625,-0.7087234854698181,0.09147638082504272,0.14720192551612854
1772709068603872800,7.686872802734375,-0.7741717100143433,-0.5032253265380859,0.2931000292301178
1772709068613897700,7.696897705078125,-0.6606550216674805,-0.683039128780365,0.39096522331237793
1772709068623923000,7.7069228515625,-0.47143957018852234,-0.549298882484436,0.5143399238586426
1772709068633949000,7.716948974609375,-0.27739566564559937,-0.27139395475387573,0.6849437952041626
1772709068643974000,7.726973876953125,-0.14276568591594696,0.006987850647419691,0.8387730121612549
1772709068653998800,7.736998779296875,-0.09736171364784241,0.11430518329143524,0.9052516222000122
1772709068664023800,7.74702392578125,-0.1153324544429779,0.009127898141741753,0.9005934596061707
1772709068674049000,7.757049072265625,-0.15654796361923218,-0.21439333260059357,0.8402528762817383
1772709068684073700,7.76707373046875,-0.21312999725341797,-0.41964662075042725,0.7279101014137268
1772709068694098700,7.7770986328125,-0.25749173760414124,-0.5897892117500305,0.5996161103248596
1772709068704123600,7.78712353515625,-0.2963733375072479,-0.7677253484725952,0.5023255348205566
1772709068714149600,7.797149658203125,-0.3262489140033722,-0.8768897652626038,0.42710068821907043
1772709068724174800,7.8071748046875,-0.33586931228637695,-0.8521798849105835,0.3886664807796478
1772709068734199800,7.81719970703125,-0.31892314553260803,-0.731412410736084,0.40715086460113525
1772709068744224800,7.827224853515625,-0.2812010645866394,-0.6103358268737793,0.4792034924030304
1772709068754249700,7.837249755859375,-0.25550222396850586,-0.5336072444915771,0.5292195081710815
1772709068764275000,7.84727490234375,-0.26204028725624084,-0.4157778024673462,0.523730993270874
1772709068774300000,7.8572998046875,-0.30458852648735046,-0.3589259684085846,0.5113805532455444
1772709068784324900,7.867324951171875,-0.37101200222969055,-0.5162221789360046,0.5008237957954407
1772709068794350800,7.877350830078125,-0.4591516852378845,-0.7770683169364929,0.45975640416145325
1772709068804375800,7.887375732421875,-0.5817779898643494,-1.0095106363296509,0.39171102643013
1772709068814400800,7.89740087890625,-0.7175285816192627,-1.003595232963562,0.27108490467071533
1772709068824425700,7.90742578125,-0.8081693053245544,-0.6758538484573364,0.0952848345041275
1772709068834450700,7.91745068359375,-0.8047574758529663,-0.16712139546871185,-0.10419498383998871
1772709068844475600,7.9274755859375,-0.6727944016456604,0.3070078194141388,-0.37379342317581177
1772709068854500900,7.9375009765625,-0.46135860681533813,0.4950866401195526,-0.7153851389884949
1772709068864525800,7.94752587890625,-0.279697984457016,0.43069249391555786,-0.8317671418190002
1772709068874551800,7.9575517578125,-0.0952550545334816,-0.12976044416427612,-0.4650002419948578
1772709068884576800,7.96757666015625,0.18967175483703613,-0.8824734091758728,0.2920221984386444
1772709068894601700,7.977601806640625,0.44539207220077515,-1.0651060342788696,1.0520318746566772
1772709068904627000,7.987626953125,0.41301417350769043,-0.7392802238464355,1.038086175918579
1772709068914652000,7.99765185546875,-0.18166911602020264,0.044876616448163986,-0.009526858106255531
1772709068924676900,8.0076767578125,-0.9696550369262695,0.9880611896514893,-1.3916501998901367
1772709068934701600,8.01770166015625,-1.2436134815216064,1.29807448387146,-2.2485456466674805
1772709068944726800,8.027726806640626,-1.0270912647247314,0.9885006546974182,-2.371058225631714
1772709068954752800,8.037752685546875,-0.7020940184593201,0.49995970726013184,-2.0150063037872314
1772709068964777500,8.047777587890625,-0.3264034688472748,-0.344916969537735,-1.9288979768753052
1772709068974802400,8.057802490234375,0.1711723357439041,-1.2423402070999146,-2.1887943744659424
1772709068984827400,8.067827392578126,0.46722131967544556,-1.7440367937088013,-2.317418336868286
1772709068994852400,8.077852294921875,0.27233028411865234,-1.8345965147018433,-1.965765118598938
1772709069004877300,8.087877197265625,-0.2828109562397003,-1.618674874305725,-1.3205277919769287
1772709069014902300,8.09790234375,-0.8770564794540405,-1.1574732065200806,-0.8620650768280029
1772709069024927500,8.107927490234376,-1.211079478263855,-0.7032281756401062,-0.7398675084114075
1772709069034953500,8.117953369140626,-1.2146719694137573,-0.42227646708488464,-0.7731804251670837
1772709069044978400,8.127978515625,-0.9697801470756531,-0.4567776918411255,-0.7622111439704895
1772709069055003400,8.13800341796875,-0.5654112696647644,-0.7811123728752136,-0.7013132572174072
1772709069065028400,8.1480283203125,-0.2647031545639038,-1.0542666912078857,-0.6862272620201111
1772709069075053600,8.158053466796876,-0.09112332761287689,-1.0364477634429932,-0.6518965363502502
1772709069085078500,8.16807861328125,0.021207479760050774,-0.6667439937591553,-0.5825150609016418
1772709069095103500,8.178103515625,-0.008223369717597961,0.01705644652247429,-0.505519449710846
1772709069105129500,8.18812939453125,-0.06963959336280823,0.6985588669776917,-0.2625965476036072
1772709069115154400,8.198154541015626,-0.07934856414794922,0.8283492922782898,0.2090139389038086
1772709069125179600,8.2081796875,-0.0642859935760498,0.3766777217388153,0.618442714214325
1772709069135204400,8.218204345703125,-0.021901851519942284,-0.23076266050338745,0.8643848896026611
1772709069145229300,8.228229248046874,0.07457275688648224,-0.5161139965057373,0.891886830329895
1772709069155254300,8.238254150390626,0.18724124133586884,-0.45150354504585266,0.7547473311424255
1772709069165279500,8.248279541015625,0.2456454336643219,-0.2572283446788788,0.5369237065315247
1772709069175304400,8.258304443359375,0.199775829911232,-0.004046170972287655,0.2888893783092499
1772709069185330400,8.268330322265625,0.036337099969387054,0.29450029134750366,0.05164913088083267
1772709069195355400,8.27835546875,-0.2260884791612625,0.5159189701080322,-0.05456789955496788
1772709069205380400,8.28838037109375,-0.4961894452571869,0.5119596123695374,0.0047265831381082535
1772709069215405600,8.298405517578125,-0.6631984710693359,0.3326980173587799,0.16046398878097534
1772709069225430500,8.308430419921875,-0.7381605505943298,0.13703636825084686,0.33491992950439453
1772709069235455500,8.31845556640625,-0.7632300853729248,0.04065558314323425,0.46938157081604004
1772709069245480200,8.328480224609375,-0.7597722411155701,0.06898895651102066,0.5182018280029297
1772709069255505400,8.33850537109375,-0.7518635392189026,0.1506427377462387,0.48841825127601624
1772709069265531400,8.348531494140625,-0.7583177089691162,0.2186734527349472,0.39894455671310425
1772709069275556400,8.358556396484374,-0.8065056800842285,0.2899785339832306,0.27387094497680664
1772709069285581300,8.368581298828126,-0.8404796123504639,0.4542931914329529,0.191233828663826
1772709069295606300,8.378606201171875,-0.8638120293617249,0.6539586186408997,0.13183896243572235
1772709069305631500,8.388631591796875,-0.9036763310432434,0.8044416308403015,0.08124316483736038
1772709069315656400,8.398656494140624,-0.9541192650794983,0.9126948118209839,0.09071025997400284
1772709069325681400,8.408681396484376,-1.025963544845581,0.9451014995574951,0.17794103920459747
1772709069335706400,8.418706298828125,-1.1153564453125,0.857837438583374,0.3304620087146759
1772709069345732400,8.428732421875,-1.2010291814804077,0.6652030348777771,0.5401287078857422
1772709069355757600,8.438757568359375,-1.2222096920013428,0.4082050621509552,0.7824580073356628
1772709069365782500,8.448782470703126,-1.19490647315979,0.14100052416324615,1.0548287630081177
1772709069375807500,8.458807373046875,-1.117514729499817,-0.03451620042324066,1.330590844154358
1772709069385832200,8.468832275390625,-0.9117918014526367,0.042372189462184906,1.6045079231262207
1772709069395857400,8.478857421875,-0.675821840763092,0.24103817343711853,1.8058956861495972
1772709069405882400,8.48888232421875,-0.4782496690750122,0.23711027204990387,1.8753538131713867
1772709069415907300,8.4989072265625,-0.301082044839859,-0.11412603408098221,1.8375053405761719
1772709069425933300,8.508933349609375,-0.08953437954187393,-0.4406338632106781,1.806038498878479
1772709069435958300,8.518958251953125,0.14854057133197784,-0.7003905773162842,1.6711763143539429
1772709069445983500,8.5289833984375,0.2503231167793274,-1.1224122047424316,1.1131449937820435
1772709069456008400,8.539008544921876,-0.022682735696434975,-1.3929557800292969,0.06494110822677612
1772709069466033400,8.549033447265625,-0.5207833051681519,-1.227970838546753,-1.2165673971176147
1772709069476058400,8.559058349609375,-0.864989697933197,-0.5502679347991943,-2.0429935455322266
1772709069486083600,8.56908349609375,-0.8954810500144958,0.5049055218696594,-2.030963897705078
1772709069496108500,8.579108642578126,-0.6523516774177551,1.2879198789596558,-1.3235540390014648
1772709069506134500,8.589134521484375,-0.299894243478775,1.3123024702072144,-0.5945238471031189
1772709069516159500,8.599159423828125,-0.13033939898014069,0.7733718156814575,-0.38634878396987915
1772709069526184400,8.609184326171874,-0.13080358505249023,-0.03625653311610222,-0.6229668855667114
1772709069536209400,8.61920947265625,-0.17846226692199707,-0.7865699529647827,-0.9357340335845947
1772709069546234400,8.629234375,-0.2402806282043457,-1.2164840698242188,-1.1355265378952026
1772709069556259300,8.63925927734375,-0.26105207204818726,-1.4257310628890991,-1.194328784942627
1772709069566284500,8.649284423828124,-0.23315997421741486,-1.5207480192184448,-1.1642094850540161
1772709069576309500,8.6593095703125,-0.20651039481163025,-1.4642666578292847,-1.0710629224777222
1772709069586335500,8.66933544921875,-0.20874850451946259,-1.2555257081985474,-0.8348081111907959
1772709069596360400,8.6793603515625,-0.2268887460231781,-0.890625536441803,-0.5526946783065796
1772709069606385400,8.689385498046875,-0.30672818422317505,-0.5356552004814148,-0.383163720369339
1772709069616410400,8.699410400390626,-0.3802878260612488,-0.2205299586057663,-0.3222638964653015
1772709069626435600,8.709435546875,-0.311082124710083,-0.014685185626149178,-0.29988375306129456
1772709069636460300,8.719460205078125,-0.1911085844039917,0.05665949359536171,-0.2463608980178833
1772709069646485200,8.7294853515625,-0.06420602649450302,-0.09814020246267319,-0.1338988095521927
1772709069656510500,8.739510498046876,0.04242969676852226,-0.35579541325569153,0.04835963994264603
1772709069666536400,8.749536376953126,0.09727004915475845,-0.4295620322227478,0.24768686294555664
1772709069676561400,8.7595615234375,0.15128733217716217,-0.21053113043308258,0.4233185946941376
1772709069686586400,8.76958642578125,0.20250363647937775,0.08198860287666321,0.4723287522792816
1772709069696611300,8.779611328125,0.21300645172595978,0.29508405923843384,0.40171414613723755
1772709069706636500,8.789636474609376,0.2850276529788971,0.45552194118499756,0.3422982096672058
1772709069716661500,8.79966162109375,0.4370914399623871,0.5924747586250305,0.4058398902416229
1772709069726686500,8.8096865234375,0.5576279759407043,0.6588252782821655,0.5173022150993347
1772709069736711400,8.81971142578125,0.6087599396705627,0.739179790019989,0.5981447696685791
1772709069746737400,8.8297373046875,0.5737723708152771,0.6530057787895203,0.608687162399292
1772709069756762600,8.8397626953125,0.42968976497650146,0.3633534014225006,0.4954470098018646
1772709069766787600,8.84978759765625,0.2620165944099426,-0.04826423525810242,0.3211846649646759
1772709069776812300,8.859812255859374,0.13455776870250702,-0.3067961633205414,0.12277688831090927
1772709069786837200,8.869837158203126,0.09267342835664749,-0.3097461462020874,-0.11169260740280151
1772709069796862500,8.879862548828125,0.08951092511415482,-0.1344747394323349,-0.2914828956127167
1772709069806887400,8.889887451171875,0.10674024373292923,0.06502000242471695,-0.32048845291137695
1772709069816912400,8.899912353515624,0.1270330250263214,0.17931458353996277,-0.20242968201637268
1772709069826938400,8.9099384765625,0.09564820677042007,0.17503435909748077,-0.030529815703630447
1772709069836963300,8.91996337890625,0.029647471383213997,0.14252862334251404,0.11683298647403717
1772709069846988500,8.929988525390625,-0.05940170958638191,0.11192783713340759,0.2573637366294861
1772709069857013500,8.940013427734375,-0.17949950695037842,0.1629558801651001,0.3871384859085083
1772709069867038500,8.95003857421875,-0.30479300022125244,0.19451408088207245,0.48398274183273315
1772709069877063400,8.9600634765625,-0.33960866928100586,0.2077057659626007,0.5599602460861206
1772709069887088400,8.97008837890625,-0.34989193081855774,0.0846344381570816,0.5818117260932922
1772709069897113300,8.98011328125,-0.3011374771595001,-0.047968946397304535,0.576744019985199
1772709069907139300,8.990139404296874,-0.178813174366951,0.016851065680384636,0.5256419777870178
1772709069917164300,9.000164306640626,-0.05077072232961655,0.2141735553741455,0.488821417093277
1772709069927189200,9.010189208984375,0.0580068901181221,0.2613426744937897,0.49508437514305115
1772709069937214500,9.02021435546875,0.09539501368999481,0.17222951352596283,0.5955229997634888
1772709069947239400,9.030239501953124,0.04700563848018646,-0.05395142734050751,0.9785276651382446
1772709069957264400,9.040264404296876,-0.005547378212213516,-0.9796429872512817,1.8621573448181152
1772709069967289900,9.050289794921875,0.26261192560195923,-2.4691872596740723,2.4200329780578613
1772709069977315000,9.060315185546875,0.3838026821613312,-3.5364091396331787,2.0266382694244385
1772709069987340800,9.0703408203125,0.33248063921928406,-3.096891403198242,0.9133275151252747
1772709069997366000,9.080365966796874,0.17369017004966736,-1.0746198892593384,-0.2594384253025055
1772709070007391000,9.090390869140625,0.06868891417980194,1.1535907983779907,-0.8545691967010498
1772709070017416000,9.100416015625,0.02448580041527748,2.045515298843384,-0.9646587371826172
1772709070027441200,9.110441162109375,-0.011205618269741535,1.7122186422348022,-0.9960209131240845
1772709070037466000,9.120466064453124,-0.02022845670580864,0.4574384093284607,-1.2265182733535767
