time,seconds_elapsed,z,y,x
1772708497648413200,0.0614130859375,-0.10667407582402229,-0.4111716941669583,0.09848364550787955
1772708497658439200,0.071439208984375,0.047637949487566944,-0.3528115673959255,-0.03789429838005453
1772708497668465200,0.081465087890625,0.24668928023576736,-0.23891776945143936,-0.22110888531003145
1772708497678490000,0.091489990234375,0.41615328197181223,-0.10449205560982226,-0.3701121001563966
1772708497688516000,0.10151611328125,0.48029696058034893,-0.10669015017598867,-0.37490634869560596
1772708497698542000,0.1115419921875,0.43163317517638206,-0.20987609162330625,-0.46437104064133017
1772708497708568000,0.121568115234375,0.042590602970123285,-0.39153438902199267,-1.017503776058182
1772708497718594300,0.13159423828125,-0.8373556640267371,-0.3912356983363628,-1.8734373723700641
1772708497728620300,0.141620361328125,-1.8584750732988118,0.17943039221614598,-2.568395320762694
1772708497738646300,0.151646240234375,-2.2226462390989066,-0.24380291114449498,-1.912981154990196
1772708497748672300,0.16167236328125,-1.3656559002757072,-0.8049427561998367,-0.13520992302186785
1772708497758698200,0.1716982421875,-0.4625947151511907,-1.1149129607349633,0.12174151577018201
1772708497768724200,0.18172412109375,0.8055190947830676,-0.5666060015067458,-0.4937884564466774
1772708497778750200,0.191750244140625,1.458731074336171,0.0037467853128910064,-0.5781809231620282
1772708497788776200,0.201776123046875,2.012514711409807,0.2633352946102619,-0.12680208709537982
1772708497798802200,0.21180224609375,2.3509768509358167,0.24800386996567247,0.19191767947599292
1772708497808828200,0.221828125,2.6709096465587616,0.15968991895765064,-0.05154080214500427
1772708497818854400,0.2318544921875,2.7965567184001205,-0.17326807019412516,-0.41585327611193057
1772708497828879000,0.241879150390625,2.6002707607120272,-0.9045195672392845,-1.1796639575868844
1772708497838905000,0.251905029296875,2.509996031025052,-1.5561033610686659,-2.0219509405359624
1772708497848931300,0.261931396484375,2.2634207325577735,-1.3962018451869487,-1.768245936319232
1772708497858957300,0.271957275390625,2.36764449262023,-0.7997191763326525,-0.7182903086632489
1772708497868983300,0.2819833984375,2.9874498771339653,-0.2606079154729843,-0.19198796823322772
1772708497879009300,0.29200927734375,2.120334450137615,0.1145969777777791,-3.9066625711143015
1772708497889035300,0.30203515625,0.40091596535146234,-0.6419032345533371,-5.553598003491759
1772708497899061200,0.312061279296875,-0.6991255894660949,-1.9128586976543067,-2.8523285822436213
1772708497909087200,0.322087158203125,-1.7960972353190183,-2.4015578681379557,-1.7641404006965458
1772708497919113200,0.33211328125,-2.178483272245526,-2.1295017991945144,-1.2531117633745072
1772708497929139200,0.34213916015625,-2.113958485364914,-1.4467735100388526,-0.9315916985601186
1772708497939165200,0.352165283203125,-2.138836906033754,-0.7768409895703197,-0.8449456807643174
1772708497949191400,0.36219140625,-2.1008535045981405,-0.42184097221940753,-1.0922364340245723
1772708497959217400,0.372217529296875,-1.790556552326679,-0.23449469231218098,-1.654694668202102
1772708497969243400,0.382243408203125,-1.5632541096061467,-0.18486206187605858,-1.5506184999167918
1772708497979268400,0.392268310546875,-0.7882873894751071,0.13661796318888664,-1.4982885932207106
1772708497989294300,0.40229443359375,0.06131809979379177,0.505189117513597,-1.5530378360182047
1772708497999320300,0.4123203125,0.44058103626370426,0.5386468582183123,-1.2494199231192469
1772708498009346300,0.42234619140625,0.6945224795848131,0.4582476258575916,-0.8726999491304158
1772708498019372300,0.432372314453125,1.145721940496564,0.5482639968693256,-0.34416385829895735
1772708498029398300,0.442398193359375,1.738430059248209,0.9316346609190106,0.06782558199167252
1772708498039424300,0.45242431640625,2.25149064078927,1.3849451226353644,0.07904080348908901
1772708498049450200,0.4624501953125,2.469447163015604,1.6314572927385567,0.07060439905524253
1772708498059476200,0.472476318359375,2.3719956735670564,1.679754875178635,0.08144435749948024
1772708498069502200,0.482502197265625,2.0967524990200994,1.6952219089016318,0.05254384170770645
1772708498079528400,0.492528564453125,1.9828549016833303,1.6555840182572603,-0.35162264987230296
1772708498089554400,0.502554443359375,2.221947150918841,1.6093126809477805,-1.0284317781120538
1772708498099580200,0.512580078125,2.748556365340948,1.4950444967329501,-1.7129390596389769
1772708498109606100,0.522606201171875,3.196650261452794,1.2014397360652684,-2.041364958319068
1772708498119632100,0.532632080078125,3.3534424131423233,0.9019012014344334,-1.9607719569519162
1772708498129657300,0.5426572265625,3.320225203195214,0.6392953901425004,-1.661929295630753
1772708498139683300,0.552683349609375,3.524659980547428,0.7704623944491148,-1.41396341958791
1772708498149709300,0.562709228515625,4.388459414863586,1.6991525263488292,-1.576877561289072
1772708498159735300,0.5727353515625,3.145886288899183,2.2935271170079705,-1.469342776982486
1772708498169761300,0.58276123046875,2.0960604251027104,2.3199843313008546,-0.47112990378439423
1772708498179787300,0.592787353515625,3.338522491908073,2.3917104278624057,-0.011392770021408795
1772708498189813200,0.602813232421875,2.2582342698305844,1.9532816011965273,0.648454117501527
1772708498199839200,0.612839111328125,1.5126900435388086,1.819552345186472,0.5164749200291932
1772708498209865200,0.622865234375,0.2964922988027334,1.394638249132037,0.033259441653639074
1772708498219891200,0.63289111328125,-0.05135784679353237,0.9679366851389407,-0.41390053460896015
1772708498229917200,0.642917236328125,0.8939373829483985,0.49310208161771296,-0.8592214588761329
1772708498239943200,0.652943115234375,1.2769523654282093,-0.32924773645699024,-0.6717287562355398
1772708498249969200,0.66296923828125,-0.015827683728933332,-1.500292918780446,0.35190292811840773
1772708498259995100,0.6729951171875,-3.3191596197903155,-2.732171632251143,1.1374357581883667
1772708498270020400,0.683020263671875,-9.067422701770067,-2.9763609123647212,1.3514686772301792
1772708498280046300,0.69304638671875,-13.096577680087089,-2.083620045724511,1.8442109856247901
1772708498290072300,0.703072265625,-14.10222187232971,-0.8470914606213569,2.726931393510103
1772708498300098300,0.713098388671875,-14.047702346634864,-0.9526520222455263,2.606353295496106
1772708498310124000,0.7231240234375,-13.989275876629351,-1.0647603980779647,2.5183652154415843
1772708498320150000,0.73314990234375,-13.92320152221918,-1.183251168423891,2.492266897588968
1772708498330176000,0.743176025390625,-13.859663992810248,-1.29062140981853,2.5219334293171762
1772708498340202200,0.7532021484375,-13.813643415391445,-1.3639604945346713,2.580681386362016
1772708498350228200,0.763228271484375,-13.791108927500247,-1.3945572928503156,2.646933727687597
1772708498360254200,0.773254150390625,-13.78858613102436,-1.389521052248776,2.7101342802271247
1772708498370280200,0.7832802734375,-13.795628450751304,-1.3672127743288873,2.7766344588339327
1772708498380306200,0.79330615234375,-13.800660015177726,-1.347462948720157,2.862172807648778
1772708498390332200,0.803332275390625,-9.49444633732438,-3.290284530700743,2.5642124821200967
1772708498400357600,0.813357666015625,-8.465107381239532,-3.4617964048773047,2.7256661958798762
1772708498410384000,0.8233837890625,-7.337973236835002,-3.147139796091616,2.7254388168647883
1772708498420408800,0.833408935546875,-6.204273742565512,-2.7291405939921733,2.130607130087912
1772708498430434800,0.843434814453125,-5.309852375492453,-2.819355702446401,0.9560565699920057
1772708498440460800,0.853460693359375,-4.020720327448845,-3.096715138494968,-0.21812994256447998
1772708498450486800,0.86348681640625,-3.103718295255303,-3.1132927638083694,-0.8452921561144292
1772708498460512800,0.8735126953125,-0.906862915495038,-2.357789453560114,-0.8564734022770076
1772708498470538800,0.883538818359375,1.0387193633705376,-1.561400006172061,-1.3029695808686315
1772708498480564700,0.893564697265625,1.920741852119565,-0.852292828656733,-1.9316206812694667
1772708498490590700,0.9035908203125,3.0565754358083006,0.19076982461512088,-2.554353351406753
1772708498500616700,0.91361669921875,3.518367017883062,0.9015855596140027,-3.1721359979212282
1772708498510642700,0.923642578125,3.683049046039581,1.2695701462224125,-3.2658257967486977
1772708498520668700,0.933668701171875,3.966992828914523,1.5007269262835383,-2.9638626653194424
1772708498530694700,0.943694580078125,4.822611879384517,1.7878008238777516,-2.4222363528989255
1772708498540721000,0.953720947265625,6.162471075102687,2.05950734873116,-1.753474775905907
1772708498550747000,0.963746826171875,7.5574156137049195,2.28193750924021,-1.1136077964205293
1772708498560771800,0.973771728515625,8.92606601962149,2.5122481938660144,-0.7862572718869895
1772708498570797800,0.9837978515625,10.190891309404373,2.6485721425443884,-0.8703998554944992
1772708498580823800,0.99382373046875,10.92081886436939,3.0627374655693766,-1.1329885695211588
1772708498590849800,1.003849853515625,11.160918244820833,4.262280135841667,-1.2032690703842788
1772708498600875800,1.013875732421875,11.113075128149985,5.24626223911345,-1.2489439761705696
1772708498610901800,1.02390185546875,10.87013029513955,5.434853550645709,-0.9432637969795614
1772708498620927700,1.033927734375,10.512639045494794,5.253694434940814,-0.3599249795977026
1772708498630953700,1.04395361328125,9.893905089604853,5.0677907550573345,0.18742246868228538
1772708498640979700,1.053979736328125,8.365643967446685,4.478651142442226,0.9275907923556864
1772708498651005700,1.064005615234375,7.930236534428596,3.9420252686575052,1.1929308509171008
1772708498661031700,1.07403173828125,8.340749180164932,3.9140252088367937,0.6675362729817629
1772708498671058000,1.084057861328125,8.5790447260648,3.3333547338813543,0.28072387098036705
1772708498681084000,1.094083984375,8.542228030321002,2.94758606877923,0.2631151855861768
1772708498691108900,1.10410888671875,8.641349498808383,2.8435604616373777,0.5136258872736245
1772708498701134800,1.114134765625,8.897256104722619,2.846967347471416,1.0586226259753106
1772708498711160800,1.124160888671875,9.391906584826112,2.831692621450126,1.5918410294041037
1772708498721186800,1.134186767578125,9.691181207823753,2.809084776061773,1.5032231270134448
1772708498731212800,1.144212890625,9.772887431129814,2.521311205765605,1.6126133299283683
1772708498741238800,1.15423876953125,9.890479791331291,2.470812313888967,1.1342018908336757
1772708498751264800,1.1642646484375,8.773619788181781,2.8873467041328547,0.5061204070143401
1772708498761290800,1.174290771484375,6.880923296329379,3.0631834557712074,0.6567999210424721
1772708498771316700,1.184316650390625,5.5832361859083175,3.336307738468051,0.5028525643248111
1772708498781342700,1.1943427734375,4.869767598313093,3.5568247588321564,0.19842928985971955
1772708498791368700,1.20436865234375,4.150355007621646,3.974805548492074,0.4205127923555672
1772708498801395000,1.21439501953125,3.691811029165983,4.469724031881988,0.7436569512404501
1772708498811421000,1.2244208984375,3.099161947125196,4.932994162076711,0.6014382454350591
1772708498821447000,1.234447021484375,2.5266864690631627,4.99049591845274,0.35492311618980016
1772708498831471900,1.244471923828125,2.1065303811907765,4.640834924042225,-0.15463922970565036
1772708498841497900,1.254497802734375,1.3081295939803124,4.158545620600879,-1.0444377410173415
1772708498851523800,1.26452392578125,-0.06527355942130088,3.404618473628163,-1.5835102773018181
1772708498861549800,1.2745498046875,-1.8901608358949422,2.1537416296988723,-1.263759706377983
1772708498871575800,1.284575927734375,-3.9952579694122075,0.3910904446467757,0.2769376487062313
1772708498881601800,1.294601806640625,-6.177510823324322,-2.2938743230104444,3.4906580499634146
1772708498891627800,1.304627685546875,-6.622934038922191,-4.79050087711364,6.1401242187380785
1772708498901653800,1.31465380859375,-4.984930685541033,-5.458533116918802,5.5333893281996245
1772708498911679700,1.3246796875,-5.102964944291115,-6.751646343553066,4.014113476529717
1772708498921705700,1.334705810546875,-8.314242866033315,-9.72003554638624,3.2762939992710947
1772708498931732000,1.34473193359375,-11.46833233513236,-9.122659435823559,1.078395978590101
1772708498941758000,1.354758056640625,-14.953821165764332,-7.758311111015081,-0.4357429120501503
1772708498951784000,1.364783935546875,-14.867583144247531,-7.970490218883753,-0.3937914472337812
1772708498961809000,1.374808837890625,-14.771111313486099,-8.21534877656102,-0.4056514694407582
1772708498971835000,1.3848349609375,-14.67638369604349,-8.468065646523236,-0.4654471819728613
1772708498981860900,1.39486083984375,-14.59266379482746,-8.710728739982843,-0.5313509655890986
1772708498991886800,1.404886962890625,-14.524948102951049,-8.928041119086743,-0.5709865912111476
1772708499001912800,1.414912841796875,-14.472841483616827,-9.112287094891071,-0.5852978790277615
1772708499011938800,1.424938720703125,-14.431331077098845,-9.273029445511103,-0.5809107499847188
1772708499021964800,1.43496484375,-14.397164603602885,-9.418974039971827,-0.5559693105496466
1772708499031990800,1.44499072265625,-14.370851766216754,-9.539892914247512,-0.5321209270482883
1772708499042016800,1.455016845703125,-14.352019639974833,-9.625496144992113,-0.538192757775262
1772708499052042800,1.465042724609375,-8.49730284692347,-4.799795651942492,-4.411147924272716
1772708499062069000,1.475069091796875,-3.875191912573576,-3.2806580396994947,-3.445076448483765
1772708499072095000,1.485094970703125,-0.1269996554940939,-1.5357618531771002,-2.9246552750468253
1772708499082120000,1.495119873046875,2.562952545186877,0.4812605449154973,-2.3531851746350525
1772708499092146000,1.50514599609375,4.662713578373194,1.944759272044897,-1.542442938376218
1772708499102172000,1.515171875,6.160458566236495,2.9871324817478655,-0.6526069993972778
1772708499112198000,1.525197998046875,7.148211712479591,3.7265515031576153,0.22902371355518697
1772708499122223900,1.535223876953125,7.534895738860964,4.000319928976893,0.8270644255064428
1772708499132249900,1.545249755859375,7.373231597220897,3.9580812081843613,0.7809444063011557
1772708499142275800,1.55527587890625,7.302080670198798,3.7990497531354426,0.16315790559547022
1772708499152301800,1.5653017578125,8.061794291618465,3.6384932804763315,-0.08220741429384798
1772708499162327800,1.575327880859375,9.33875425583124,3.7295933550715445,-0.2800884226210415
1772708499172353800,1.585353759765625,10.42588781375885,3.7418537017077207,-0.49716483754459767
1772708499182379800,1.5953798828125,11.022774679499864,3.557170503529906,-0.35367008392140264
1772708499192406000,1.605406005859375,11.32649809859991,3.595489128269255,0.2295253794670105
1772708499202432000,1.615431884765625,11.452338647186755,3.5351690996021032,1.250963207038492
1772708499212457000,1.62545703125,11.332460221874713,3.8272012041255827,1.9072768058687448
1772708499222483000,1.63548291015625,10.459231280434132,4.027253528609871,2.4197283156007527
1772708499232509000,1.645509033203125,8.881030946108698,3.5775948673993345,2.7939287079840898
1772708499242535000,1.655534912109375,8.341740529289842,3.1493527959659695,2.594401576417684
1772708499252561000,1.665560791015625,8.222428505688905,2.7769053847298024,2.1463776768021283
1772708499262587000,1.6755869140625,8.453618603497743,2.216222051270306,1.3656722668886183
1772708499272612900,1.68561279296875,8.714095586067437,1.5568711305707692,0.6208414495632052
1772708499282638800,1.695638916015625,8.360743335923551,1.113458670273423,0.2586662798859179
1772708499292664800,1.705664794921875,7.714321747162938,0.7408855868309736,0.7101113861218095
1772708499302690800,1.71569091796875,7.564207173541188,0.3818944540172815,1.1762604327537118
1772708499312716800,1.725716796875,7.838518035674094,0.33027328011244533,1.1882502918854354
1772708499322743000,1.735742919921875,8.146313234257697,0.6773039260193705,0.9710586165517568
1772708499332769000,1.74576904296875,8.219867715290189,1.379522805325687,0.5390000555701554
1772708499342794000,1.7557939453125,7.817780952593684,2.108050138103962,-0.08128997065536678
1772708499352820000,1.765820068359375,7.082929385229945,2.6543223766341804,-0.7932015380669385
1772708499362846000,1.775845947265625,6.553487577730417,3.2914705256149173,-1.4499872113883494
1772708499372872000,1.785871826171875,6.468611492216587,3.9766991071537134,-1.8655366822481154
1772708499382898000,1.79589794921875,6.408054439923167,4.4889992257162925,-1.8923647756800055
1772708499392924000,1.805923828125,6.339041109451651,4.841266895493865,-1.8026684304028748
1772708499402949600,1.81594970703125,6.387322033017873,5.212240142524242,-1.7001535200849174
1772708499412975600,1.8259755859375,6.44687721479237,5.49811226311326,-1.2506287143871186
1772708499423001600,1.836001708984375,6.605427023804188,5.911329491633176,-0.9857762201469391
1772708499433027600,1.846027587890625,6.274676481568813,6.63751844459176,-1.6350295982673764
1772708499443053600,1.856053466796875,4.8066111771762365,7.188625555932521,-2.860971615165472
1772708499453079600,1.86607958984375,2.410367782059312,6.609135815194249,-3.442368066307902
1772708499463104500,1.8761044921875,0.17802140220105647,5.773862802660465,-3.2853838991776105
1772708499473130500,1.886130615234375,-1.0473299553275108,6.003455986666679,-2.396437456384301
1772708499483156500,1.896156494140625,-1.4766934320062397,4.368612850882113,1.1354597819402814
1772708499493182500,1.906182373046875,-2.351129411149025,-0.995695045158267,6.883749459666014
1772708499503208400,1.91620849609375,-3.2547757026851176,-9.212284177169202,13.528040174871682
1772708499513234400,1.926234375,-0.3144055566340685,-10.448448020613194,12.723128982853888
1772708499523260400,1.936260498046875,2.4153981774419546,-9.633833180704713,6.672915921187401
1772708499533286700,1.94628662109375,-0.5622755710870028,-11.270524282443523,-0.32082273019999263
1772708499543312600,1.956312744140625,-7.9776231395035975,-3.8286382511913772,-8.264432833203673
1772708499553338600,1.966338623046875,-18.63965487408638,2.762435837611556,-6.219774094036221
1772708499563364600,1.976364501953125,-18.45584027543664,2.3163059350490567,-6.279727919739485
1772708499573390600,1.986390625,-18.346306718528268,2.0053934812277556,-6.336892991507053
1772708499583416600,1.99641650390625,-18.269996216785906,1.8319985697835683,-6.265816883286833
1772708499593441500,2.006441650390625,-18.188697405236958,1.732821863977611,-5.999664193168282
1772708499603467500,2.016467529296875,-18.104141637718676,1.6610855382829903,-5.559820823529362
1772708499613493500,2.026493408203125,-18.050213648176193,1.6311185623034834,-5.047213246452808
1772708499623519500,2.03651953125,-18.041925127780438,1.6547896530091761,-4.568024539375305
1772708499633545500,2.04654541015625,-18.063996674335,1.7083938174247741,-4.193908902665973
1772708499643571500,2.056571533203125,-9.791232066115736,-5.403726006454229,-0.774083799816668
1772708499653597400,2.066597412109375,-2.9712521910488605,-4.584847663882375,0.1522987127278
1772708499663623700,2.076623779296875,3.0775995191365477,-2.7945240435287353,0.6314474531210958
1772708499673649700,2.086649658203125,7.089571891984343,0.25372838509231804,2.4490401886723934
1772708499683675600,2.096675537109375,8.536732355514168,3.213411426639557,2.9280267973065373
1772708499693701600,2.10670166015625,8.19103266595006,4.793523732066154,3.681851945209503
1772708499703727400,2.116727294921875,7.255509473159909,6.142675656786561,4.202547551673651
1772708499713752600,2.126752685546875,6.089954120424389,6.817067202490568,3.860383050498366
1772708499723778600,2.136778564453125,4.979114108216762,6.28551819357872,3.0006597795799372
1772708499733804500,2.146804443359375,4.876857264313101,5.2599657702952625,2.0950798896327614
1772708499743830500,2.15683056640625,6.019988603794574,4.676742103725672,1.6087667375028132
1772708499753856500,2.1668564453125,7.676994763809442,4.531907516333461,1.4867027848452328
1772708499763882500,2.176882568359375,9.198701642018555,4.043822386094927,1.6253687666051089
1772708499773908500,2.186908447265625,9.977508086442947,3.2591321443289516,1.5689382927224038
1772708499783934500,2.1969345703125,9.776884391811489,2.6453257079690693,1.480671103465557
1772708499793960400,2.20696044921875,8.872070225539803,2.126118294236064,1.6225006638228892
1772708499803986400,2.216986328125,7.652077764695882,1.5605466042131184,1.6126573152005672
1772708499814012400,2.227012451171875,6.445429354071616,1.0571822179086505,1.6677023260742425
1772708499824038400,2.237038330078125,5.335794626000523,0.4987520702034235,1.9894591222539544
1772708499834063600,2.247063720703125,4.518699659714103,-0.04658617541231215,2.35242471165657
1772708499844089600,2.257089599609375,4.20400301117897,-0.6735893624756485,2.432055589993298
1772708499854115600,2.267115478515625,4.973285255932808,-1.4600855576850473,2.286887532863021
1772708499864141600,2.2771416015625,6.460355705046654,-2.126136414414644,1.8941379228323696
1772708499874167600,2.28716748046875,7.464642052939534,-2.8078660479217765,1.9607149660676717
1772708499884193500,2.297193603515625,7.932582805293798,-3.2424381991595026,2.3998992872759697
1772708499894219500,2.307219482421875,8.07110923245251,-3.217672591215372,2.587518831166625
1772708499904245500,2.31724560546875,7.980688372293114,-2.894479917013645,2.415622926108539
1772708499914271200,2.327271240234375,7.636041406652331,-2.3044212898574767,1.721719455204904
1772708499924297500,2.33729736328125,6.702079471829533,-1.6075369034469127,0.9710836779277772
1772708499934323500,2.347323486328125,5.509643126431107,-0.8734224912513047,0.3718544137790799
1772708499944349400,2.357349365234375,4.646693002420664,-0.30913784536421296,-0.22634660330042242
1772708499954374700,2.367374755859375,4.153730621534586,0.06357727689743041,-1.0787395313307642
1772708499964400600,2.377400634765625,3.9687878956377505,0.42031456636972725,-1.7198539535939692
1772708499974426600,2.387426513671875,4.048510251650214,1.011990127203241,-2.4490146158397197
1772708499984452600,2.39745263671875,3.9501679508417844,1.55101363671422,-3.3864936188727617
1772708499994478600,2.407478515625,3.3405490292996167,2.3041101780816913,-3.8562735693529246
1772708500004504300,2.41750439453125,2.3329729922115803,2.9278455955207345,-3.2484681269735094
1772708500014530300,2.4275302734375,1.414543557563424,3.798079739059508,-3.217597480152547
1772708500024556300,2.437556396484375,-0.15481179152727126,4.869216101910173,-4.04997155637443
1772708500034582300,2.447582275390625,-3.021026568043232,5.543166041326523,-4.43015394577682
1772708500044608300,2.457608154296875,-5.644889216744899,6.323765214386582,-4.5624370946317905
1772708500054634500,2.467634521484375,-7.198385902446508,7.4540937709182495,-4.863269176204502
1772708500064660500,2.477660400390625,-8.080489055216312,7.417944014650582,-4.4840322509586805
1772708500074685700,2.487685791015625,-8.575176360198855,5.631798849025368,-3.0896929847732184
1772708500084711400,2.49771142578125,-9.543625086513162,1.6186185616925357,0.21049246995598075
1772708500094737400,2.5077373046875,-8.289461475998163,-2.4279247737988827,3.7810979168593883
1772708500104763400,2.517763427734375,-4.35753119263649,-5.330257450139523,4.30297951823771
1772708500114789400,2.527789306640625,-2.9276065260678528,-10.88755138553977,4.471028684739768
1772708500124815400,2.5378154296875,-4.376698249921202,-12.705361855494976,2.9671453402519226
1772708500134841300,2.54784130859375,-7.3691919664412735,-9.560414893272519,1.4215718487650155
1772708500144867300,2.557867431640625,-11.548410664975643,-8.959286152178048,-0.3276182355590164
1772708500154893300,2.567893310546875,-14.735235697984695,-8.642365982374548,-2.3785930260054764
1772708500164919300,2.577919189453125,-14.664620777535438,-8.802427364993095,-2.230883906090259
1772708500174945300,2.5879453125,-14.603103355777263,-8.954277968627213,-2.083416924367845
1772708500184971500,2.597971435546875,-14.56235984197855,-9.070351156437397,-1.8960697676777838
1772708500194996500,2.60799658203125,-14.537447519040107,-9.169007930022477,-1.6499578489385545
1772708500205022500,2.6180224609375,-14.528323132342098,-9.261690889894961,-1.3435732478052378
1772708500215048400,2.62804833984375,-14.54572201091051,-9.333108943420648,-0.9813514625072479
1772708500225074400,2.638074462890625,-8.934972964176534,-5.334614476305246,-1.9235395200140772
1772708500235100400,2.648100341796875,-8.755185721346736,-2.5126205343097445,-1.655653576362133
1772708500245126400,2.65812646484375,-8.160160557824373,-0.21266192294955252,-1.3982617003262041
1772708500255152400,2.66815234375,-5.933866902133822,1.79127288390249,-0.7873623835846781
1772708500265178400,2.678178466796875,-2.8980110137492416,3.3556858081549406,-0.1306277828633785
1772708500275204400,2.688204345703125,0.4318886112421751,4.549555985748768,0.4175298310220241
1772708500285230300,2.698230224609375,3.1831472212791443,5.548782712164521,0.7097972056061029
1772708500295256300,2.70825634765625,5.070661926579475,6.2002399570047855,1.2895274771019816
1772708500305282300,2.7182822265625,6.316852073997259,6.669564272671938,1.925676678173244
1772708500315307300,2.728307373046875,7.316490303823351,6.92243604093492,2.6363956747993824
1772708500325333200,2.738333251953125,7.873639033415913,7.218017654633521,3.680378950047493
1772708500335359500,2.748359375,8.473270229429007,7.873130499371886,4.202282763257623
1772708500345385500,2.758385498046875,9.199939659380913,8.429459729275107,4.730995671960711
1772708500355411500,2.768411376953125,9.636778586506843,8.588467803448438,5.280086767303943
1772708500365437400,2.7784375,9.59204045011401,8.440481474027036,5.662603737133741
1772708500375463400,2.78846337890625,9.124538673698902,7.935034290099144,5.808731871467828
1772708500385489400,2.798489501953125,8.187183004784584,6.934646703210473,5.731972456914186
1772708500395515400,2.808515380859375,7.215442835709452,5.705735022851824,5.527292764890194
1772708500405541400,2.818541259765625,6.791276927673816,4.891532855397463,5.425781186395883
1772708500415567400,2.8285673828125,6.898050956740975,4.308008744576573,5.5415469156920905
1772708500425592300,2.83859228515625,7.336872582116722,3.6120793208032844,6.033198798501491
1772708500435618300,2.848618408203125,7.845155866253376,3.016374942845106,6.635623424625396
1772708500445644500,2.85864453125,8.125075800439715,2.656529239028692,7.1404504308283325
1772708500455670500,2.86867041015625,8.156886066198348,2.3508704679518937,7.354509945616126
1772708500465696500,2.878696533203125,8.193689902460575,2.1934394338369367,7.062147293964028
1772708500475722500,2.888722412109375,8.146877882403135,2.074324978634715,6.252592075532674
1772708500485748500,2.89874853515625,7.968951172748207,2.1588258010953663,5.078087692666053
1772708500495774500,2.9087744140625,7.495119024267792,2.412325345867872,3.858070681902766
1772708500505800400,2.918800537109375,6.876921074950695,2.689261880329251,2.8264450761854647
1772708500515826400,2.928826416015625,6.398434378662705,2.954372367918491,2.089981689710915
1772708500525852400,2.938852294921875,6.081802378150821,3.10502996237576,1.2955518519580362
1772708500535878400,2.94887841796875,5.974869359129667,3.445129932236671,0.24753625245392322
1772708500545903400,2.9589033203125,6.034910863116383,3.6663439949542282,-0.24337036494612693
1772708500555929300,2.968929443359375,6.149006028851867,3.488124439832568,-0.42013533734530206
1772708500565955300,2.978955322265625,6.045623980310559,3.4456118705347176,-0.534283110050857
1772708500575981600,2.988981689453125,5.414534985238314,3.6315585127770897,-0.5856400800615549
1772708500586007600,2.999007568359375,4.213593261823058,3.731947809243202,-0.6249488848820328
1772708500596033500,3.009033447265625,2.594781515645981,3.9009652362555265,-0.4576861925825476
1772708500606059500,3.0190595703125,1.1603238818228243,4.055201565982401,-0.18668533178046345
1772708500616085500,3.02908544921875,0.5124877500891685,4.224672289720178,-0.6307119784533977
1772708500626111500,3.039111572265625,-0.07320142981112003,4.241154345704615,-1.7316507743716238
1772708500636137500,3.049137451171875,-1.4073516002327202,3.9815734351918097,-2.8581302542597053
1772708500646163500,3.05916357421875,-3.616242870223522,3.4227728467389937,-3.537306403891742
1772708500656188400,3.0691884765625,-7.043332118856907,2.417904022783041,-3.250203572463989
1772708500666214400,3.07921435546875,-11.716259632730484,-0.21130817025303839,-0.9555551963411271
1772708500676240400,3.089240478515625,-14.22229202082157,-3.8966581867113708,2.422437136168033
1772708500686266400,3.099266357421875,-14.28027659227848,-3.7355478795617816,2.2305931064501405
1772708500696292400,3.109292236328125,-14.314697917318343,-3.6379037901505824,2.159208662933111
1772708500706318600,3.119318603515625,-14.32068809764385,-3.598670680914819,2.2246412123084065
1772708500716344600,3.129344482421875,-14.31300748001337,-3.5781159686639903,2.414125819418579
1772708500726370600,3.13937060546875,-14.312518819713592,-3.5337767684608696,2.709784151615202
1772708500736396500,3.149396484375,-14.324686227369307,-3.479770745246112,3.0481925151273606
1772708500746422500,3.159422607421875,-14.334778582316636,-3.473341881242394,3.3958407084107396
1772708500756448500,3.169448486328125,-14.3388386713624,-3.541113394959271,3.79301105749309
1772708500766474500,3.179474609375,-14.357202011048793,-3.6530402767449615,4.26667807853967
1772708500776499500,3.18949951171875,-14.403877252984046,-3.797594293630123,4.803441314968467
1772708500786525400,3.199525390625,-9.698473702919483,-12.739362324774264,-1.1496114952810108
1772708500796551400,3.209551513671875,-6.468907844814658,-9.882173735278844,-6.452059001344442
1772708500806577400,3.219577392578125,-5.026360428038239,-6.922929961931705,-9.131730631029605
1772708500816603400,3.229603271484375,-3.2336060734063383,-3.744553608316183,-7.530986456462741
1772708500826629400,3.23962939453125,-2.432131870099902,-0.5117718569047749,-3.664979428602755
1772708500836655600,3.249655517578125,-3.0570220105320214,1.950315152606368,-0.696335374225676
1772708500846681600,3.259681640625,-4.673546522554755,3.0940435811981555,1.3611921988651157
1772708500856707600,3.26970751953125,-5.593056153655052,3.653023033349216,2.746916489179432
1772708500866733600,3.279733642578125,-4.773384030357003,3.8338369888782498,3.4275080585673448
1772708500876759600,3.289759521484375,-2.093579129680991,3.483990116506815,3.8036411725789305
1772708500886784500,3.299784423828125,1.3704548249900341,3.02477802953124,3.3283477193742987
1772708500896810500,3.309810546875,4.276506521853804,2.636667477478087,2.6423408469393848
1772708500906836500,3.31983642578125,6.88895988779068,2.7275197147920727,1.998274735263735
1772708500916862500,3.329862548828125,8.591005797493457,2.8298262430563565,1.7866588142357767
1772708500926888400,3.339888427734375,9.703664841821789,2.7549510348141193,1.6178648207157849
1772708500936914400,3.34991455078125,10.321922412371634,2.5601138146296143,1.2380344596214592
1772708500946940400,3.3599404296875,10.509527050954103,2.0902792113527653,1.2503225710473953
1772708500956966400,3.36996630859375,10.520194575440883,1.8010288465023039,1.4846039128698407
1772708500966992600,3.37999267578125,10.354073454391957,1.4877873652115463,1.7232728221267462
1772708500977018600,3.3900185546875,10.080643466746807,0.982836878759414,1.9423256151571868
1772708500987044600,3.400044677734375,9.638880527222156,0.4813908202316612,1.8222789936713872
1772708500997070600,3.410070556640625,9.216014011347294,0.11892799271941185,1.629664564102888
1772708501007095600,3.420095458984375,8.901431344580649,-0.2125577319227159,1.47567665617913
1772708501017121500,3.43012158203125,8.21165927439332,-0.767838914077729,1.7230914742104708
1772708501027147500,3.4401474609375,7.336343005284666,-1.1269202093929052,2.270928039447963
1772708501037173500,3.450173583984375,7.0129118461519475,-1.1133102017134426,2.8234897335112095
1772708501047199500,3.460199462890625,7.915825147238373,-0.8909766334466636,2.9573741800829767
1772708501057225500,3.4702255859375,9.226391028454898,-0.7937221278749406,2.3616955210879444
1772708501067251500,3.48025146484375,10.292077893728017,-1.0294079296678305,1.6531626363292335
1772708501077277400,3.49027734375,10.926945822817087,-0.8308329842597245,0.9455110644496977
1772708501087303400,3.500303466796875,10.840223817175627,0.02866583025306463,-0.40073710165321824
1772708501097329700,3.51032958984375,10.175033230537176,0.783468591016531,-2.1310855612546202
1772708501107355600,3.520355712890625,9.054633947345614,1.378992936232686,-3.5491169609338042
1772708501117380600,3.530380615234375,8.007745306044816,2.2974644564568996,-4.295228757980466
1772708501127406600,3.540406494140625,7.1906947634220115,3.7154876728296276,-4.372485016140342
1772708501137432600,3.5504326171875,6.345938467749953,5.075190802180766,-4.005507853008806
1772708501147458600,3.56045849609375,5.751038976433873,5.757482745745778,-3.223800426445901
1772708501157484500,3.570484619140625,5.807621864399313,5.83187367760241,-2.5031226381242275
1772708501167510500,3.580510498046875,7.176234276393055,5.1323699024736875,-2.3678654418945313
1772708501177536500,3.59053662109375,9.543256837722659,3.5885932312756776,-2.255205423528701
1772708501187562500,3.6005625,11.708458603590726,2.421654022966325,-1.370026808836311
1772708501197588500,3.61058837890625,12.424243066912888,2.6878514290094375,-0.35022706732805814
1772708501207614500,3.620614501953125,11.282731437587737,4.405877874915301,1.0498580125004053
1772708501217640400,3.630640380859375,9.618904491642118,5.654693402400612,3.0464763588592407
1772708501227665400,3.64066552734375,8.431619537657498,6.26436902256608,3.6356200631275772
1772708501237691400,3.65069140625,6.779018919125199,6.665280311742425,2.355778405998647
1772708501247717600,3.660717529296875,3.470876952433586,5.660947202098369,0.019568623822927473
1772708501257743600,3.67074365234375,-0.38447628720402716,3.1976153070926663,-2.926923804500699
1772708501267769600,3.68076953125,-5.19396565016508,0.5716656229838729,-5.651791251218318
1772708501277795600,3.690795654296875,-9.639290277066825,-1.7905930849447846,-7.6101710523366926
1772708501287821600,3.700821533203125,-13.263266956412792,-2.6061887525841594,-10.2724917342484
1772708501297847600,3.71084765625,-13.21130997468233,-2.798084658619761,-10.219278030455111
1772708501307873500,3.72087353515625,-13.193344109880924,-2.8997046659246086,-10.147502249532938
1772708501317899500,3.7308994140625,-13.20601537540555,-2.924681870792806,-10.039356347590685
1772708501327925500,3.740925537109375,-13.23262631895542,-2.9418142073795197,-9.881120426833629
1772708501337950500,3.750950439453125,-13.25014093285799,-3.024470571017265,-9.69275357170701
1772708501347976400,3.7609765625,-13.242710490596293,-3.2129213050350547,-9.509021975165606
1772708501358002400,3.77100244140625,-13.217226505249737,-3.4674849719077345,-9.36212344098091
1772708501368028400,3.7810283203125,-13.189144904625415,-3.714683662970364,-9.26398689187765
1772708501378054700,3.7910546875,-13.171316986989973,-3.9025276632666586,-9.195232504603267
1772708501388080600,3.80108056640625,-13.167248714637756,-4.009244409188628,-9.141722448211908
1772708501398106600,3.811106689453125,-13.169660451954602,-4.054154395017028,-9.10656345654726
1772708501408133000,3.821133056640625,-13.177660218536854,-4.064031353648007,-9.073490038985014
1772708501418159000,3.8311591796875,-9.619283261826634,-3.3357205862298605,-1.043185695129633
1772708501428185000,3.84118505859375,-4.157615354013442,-1.5764342014357446,1.444881997203827
1772708501438211000,3.851211181640625,0.24551672932505605,0.17951164075881243,2.5835925976336003
1772708501448236000,3.861236083984375,3.5769817039370535,1.978389154446125,3.1253567110896108
1772708501458262000,3.871261962890625,5.484131668555737,3.475766478040814,3.4027319292291995
1772708501468288000,3.8812880859375,6.13810761821866,4.629041610395908,3.1367899592518804
1772708501478314000,3.89131396484375,6.081406656831502,5.014260240399837,3.188429253335297
1772708501488340000,3.901340087890625,6.229649006840586,4.522868469831347,3.468253033670783
1772708501498366000,3.911365966796875,7.1569374552488325,4.298904816144705,3.7438290934339165
1772708501508392000,3.921391845703125,8.783066246441006,4.578211586868763,3.889361892223358
1772708501518418200,3.931418212890625,10.552552538210152,4.655045820224285,4.077462497629225
1772708501528444200,3.941444091796875,12.028663201892375,4.442902368190884,4.583408863250911
1772708501538470100,3.95147021484375,12.847479000622034,4.3800048902511595,4.9565901417195795
1772708501548496100,3.96149609375,12.83497140122652,4.527757118655741,5.099820801046491
1772708501558521000,3.97152099609375,12.222495336687563,4.589639574334025,5.414547260197997
1772708501568547000,3.981547119140625,11.497082628798484,4.770832884569466,5.776161142730713
1772708501578573000,3.991572998046875,10.82790911000371,4.868688570904731,6.08943038881123
1772708501588599000,4.00159912109375,8.955896509739755,4.301442810189724,6.725967127895355
1772708501598625000,4.011625,7.893018856668472,3.580900630946457,7.135984683591127
1772708501608651000,4.021651123046875,7.377682146888971,3.20619638069421,7.020407170343399
1772708501618677000,4.031677001953125,7.121496139511466,2.4051439099311827,7.331848616474867
1772708501628703000,4.041702880859375,7.206149522185325,1.477241129016876,7.376354113155603
1772708501638729000,4.05172900390625,7.352213359111547,1.2619672700032591,6.99824853002727
1772708501648755200,4.061755126953125,7.72864136441648,1.6391753197699783,6.162353586202859
1772708501658780000,4.07177978515625,8.336119766798616,2.088594034744799,4.794750351251661
1772708501668806100,4.08180615234375,8.643180805888772,2.286958260011673,3.2078339187681673
1772708501678832000,4.09183203125,8.390278642487525,2.745396732266247,1.566832844875753
1772708501688858000,4.101858154296875,7.530321855074167,3.4922058639273046,0.37998306743800636
1772708501698884000,4.111884033203125,6.561303804439306,4.078227636782825,-0.0928551015689969
1772708501708910000,4.12191015625,5.921905830705166,4.986081024619937,-0.8575733994081616
1772708501718936000,4.13193603515625,5.514948247101903,5.820607018178701,-1.4331725624486804
1772708501728962000,4.141962158203125,5.214809700751304,6.2005900856167075,-1.6320533589355646
1772708501738988000,4.151988037109375,5.056669057062268,6.316150063207745,-1.8280552389852702
1772708501749014000,4.162013916015625,5.10364415872693,6.3996367401897905,-1.9329737033136187
1772708501759040000,4.1720400390625,5.409527970731258,6.673449005150794,-1.8917979355774819
1772708501769065000,4.18206494140625,5.750500047251582,7.139343346369266,-1.8062315297119318
1772708501779091000,4.192091064453125,5.875526941367983,7.5330422199487685,-1.6595527757577597
1772708501789117000,4.202116943359375,5.744048679155111,7.9943533250302075,-1.5808203075654803
1772708501799143200,4.21214306640625,5.582855662158131,8.387731880614162,-1.368480017785728
1772708501809169200,4.222169189453125,5.677811827659607,8.68415695939958,-1.0929713241703807
1772708501819195100,4.232195068359375,5.662692584460974,8.936831159263848,-0.8524690620064735
1772708501829221000,4.24222119140625,5.414696897801757,8.582318633168935,-0.2874670250976458
1772708501839247000,4.2522470703125,4.711432308834791,7.510726927766203,0.010745690589793957
1772708501849273000,4.262273193359375,3.201546216800809,5.208623121070861,0.3469123167568818
1772708501859299000,4.272299072265625,1.501214125278592,0.6870996361076831,2.3619886588156223
1772708501869324800,4.28232470703125,0.8884726878017186,-4.886804657831788,4.514531141857803
1772708501879350000,4.29235009765625,1.1889403199762105,-11.49632742651701,5.35012418012619
1772708501889376000,4.3023759765625,0.2858054850935936,-18.633223964256047,4.306750853469968
1772708501899402000,4.312402099609375,-4.8259494993746275,-18.211006267678737,-0.46717250792812554
1772708501909428000,4.322427978515625,-4.4309062254488465,-18.81389851131439,-0.15820589094497262
1772708501919454000,4.332453857421875,-4.088255402061343,-19.45244542117715,0.0012062887835316359
1772708501929480200,4.342480224609375,-3.8381642044275996,-20.017487534368037,-0.13786202669953926
1772708501939506200,4.352506103515625,-3.673410864600539,-20.491293963885305,-0.4875093761771917
1772708501949532200,4.3625322265625,-3.5747266184866424,-20.893875232100484,-0.8849385223262012
1772708501959558000,4.372557861328125,-3.5131647730648514,-21.2382825437665,-1.1889498184569178
1772708501969583900,4.382583984375,-3.4595834050029515,-21.513131750559804,-1.2964740813694893
1772708501979609000,4.392609130859375,-3.3960739326447245,-21.722049226284025,-1.1755610523127018
1772708501989635000,4.402635009765625,-3.3225182825684545,-21.89548856139183,-0.83908950208202
1772708501999661000,4.4126611328125,-7.37699416462481,-8.25031955217719,1.5658378424890338
1772708502009687000,4.42268701171875,-6.309506971931457,-5.139147433784604,0.16938668044982477
1772708502019713000,4.432713134765625,-8.547429690617323,-1.982224348694831,-1.9678652762137352
1772708502029739000,4.442739013671875,-9.440447620633243,0.797045865470171,-2.6590558348968623
1772708502039765000,4.452764892578125,-8.642016438284516,2.514025724932551,-1.574073463653773
1772708502049791000,4.462791015625,-6.91633713953793,3.2549878841310735,-0.5090875862568617
1772708502059817000,4.47281689453125,-4.339509798255563,3.4379560950845476,0.2332527294270694
1772708502069843000,4.482843017578125,-0.8609832078516483,2.7955957644134757,0.7083684879772365
1772708502079869000,4.492868896484375,2.3845839369833466,1.834220337486267,1.1021205530487
1772708502089894100,4.50289404296875,5.085542100325227,1.6523142028063535,1.9962017283819615
1772708502099920100,4.512920166015625,7.20578711861372,1.2029768094394355,2.77740368964076
1772708502109946000,4.522946044921875,8.49502671868503,0.31165318918600676,3.364077204403281
1772708502119972000,4.53297216796875,8.931840511369705,-0.08115816096924244,3.2039000864505764
1772708502129998000,4.542998046875,9.160143655565381,-0.19620207879692314,3.8919764586359262
1772708502140024000,4.553024169921875,9.68704571545422,0.9476081828594207,4.296869510924816
1772708502150050000,4.563050048828125,10.348469058513642,3.1237104051873086,3.060419544015825
1772708502160075800,4.57307568359375,10.641623152804375,4.257478580778837,1.332298697336018
1772708502170101800,4.583101806640625,10.614802950417994,4.164253184592724,0.05494206195585429
1772708502180127700,4.593127685546875,10.554867244893313,3.6580870387405153,-0.348099078856036
1772708502190153000,4.603153076171875,9.96832524755597,3.098425449544191,-0.20219481640569864
1772708502200179000,4.613178955078125,9.887838921433687,2.4562463206589222,0.7255019936077296
1772708502210205200,4.623205078125,10.38047280101776,2.123107714243233,0.96900109950006
1772708502220231200,4.633231201171875,10.619709427160023,1.7274894169084727,1.1719745721280574
1772708502230257200,4.643257080078125,10.758920329451561,1.461429811900854,1.5352182478196919
1772708502240283100,4.653283203125,10.671922429478167,1.4154150797009468,1.6088022472076118
1772708502250308900,4.663308837890625,10.48187565844059,1.2470818355605005,1.5082063222534954
1772708502260334800,4.6733349609375,10.265408497989178,1.063523549759388,1.6108355066008866
1772708502270360800,4.68336083984375,10.26626189994812,0.6731172879844903,0.9746341369509697
1772708502280386800,4.69338671875,10.4849525816679,0.2546165661036968,0.36871421605721116
1772708502290412000,4.703412109375,10.935796653270721,0.33615941554158923,0.2151460679154843
1772708502300438000,4.71343798828125,11.326998449337482,1.006233974829316,-0.38382987905927
1772708502310464000,4.723464111328125,11.630208658218383,2.0981196957200763,-0.8641747704345732
1772708502320490000,4.733489990234375,11.559916393852234,2.522764034922421,-0.6761147893000393
1772708502330516000,4.743515869140625,10.757806230729818,2.411280512990057,-0.416715701627545
1772708502340542000,4.7535419921875,9.863575417792797,2.1422566513493657,-0.041993331196717915
1772708502350568000,4.76356787109375,9.315412543210387,1.6719073765486479,0.6654642890132964
1772708502360594000,4.773593994140625,8.895158840182424,1.3309072429776192,1.4660668240517376
1772708502370620000,4.783619873046875,8.571858029431104,1.1426833034530282,2.1626061964169145
1772708502380646000,4.79364599609375,8.30774298262,1.2833408974215388,2.3566689250975847
1772708502390672000,4.803671875,7.981753955698013,2.166627999278903,1.4472209615454077
1772708502400696300,4.8136962890625,7.367801388865709,3.3237697439342737,-0.06751242438927292
1772708502410722300,4.823722412109375,6.506549300944805,4.136660536529123,-1.4773688470497726
1772708502420748300,4.833748291015625,4.847552259373664,4.347071465681493,-2.5905390557706354
1772708502430774500,4.8437744140625,3.852522400125861,4.275353844687342,-3.5972654902920125
1772708502440800500,4.853800537109375,3.655527417385578,5.095365575203299,-4.295848058922589
1772708502450826500,4.863826416015625,3.2878760082542895,5.37239212603569,-3.8490971018522977
1772708502460852500,4.8738525390625,2.255621456983685,4.352988873031735,-2.572911336882412
1772708502470878500,4.88387841796875,0.012765958070755003,1.3633385632440447,0.030268223948404192
1772708502480904400,4.893904541015625,-2.747879488992691,-3.915384222230315,3.955653981037438
1772708502490930400,4.903930419921875,-5.348995468357205,-9.048498221069574,6.906542306232452
1772708502500955400,4.913955322265625,-8.216333695945144,-11.468773064637183,4.980998606789112
1772708502510981400,4.9239814453125,-14.71426305258274,-12.199874339556693,-1.3077417637065052
1772708502521007400,4.93400732421875,-25.589891360616683,-3.9416351002961396,-12.709172938215731
1772708502531033300,4.944033447265625,-25.503905852556226,-4.350280783116817,-12.492793456047773
1772708502541059300,4.954059326171875,-25.450097105479237,-4.650092581731081,-12.49609951185584
1772708502551085300,4.964085205078125,-25.421848331594465,-4.8164942732870575,-12.659821755069494
1772708502561111600,4.974111572265625,-25.416363178181648,-4.853786185327172,-12.77756433739662
1772708502571137500,4.984137451171875,-25.428338862657544,-4.770976092432439,-12.7207932333827
1772708502581163500,4.99416357421875,-25.457441038501262,-4.610924938946962,-12.46239831778407
1772708502591189500,5.004189453125,-25.507116046774385,-4.446691823601722,-12.043153499537706
1772708502601214500,5.01421435546875,-25.570623181045054,-4.3433366630673405,-11.585027454233169
1772708502611240400,5.024240478515625,-9.269702931436896,-10.019756159585715,-5.024309925249218
1772708502621266400,5.034266357421875,-6.698332101994753,-7.019241049173474,-5.701404300171136
1772708502631292400,5.04429248046875,-3.473625958880782,-4.456064924363791,-4.657083463531732
1772708502641318400,5.054318359375,0.1524701968371868,-1.450044932924956,-1.5214669319733976
1772708502651344400,5.064344482421875,2.2780402095407246,1.0807589083291589,1.674937538024783
1772708502661370400,5.074370361328125,4.261739745354652,3.3203397694855927,4.025000781247019
1772708502671396400,5.084396240234375,6.198107621151209,5.05888497954607,4.937177000719308
1772708502681422300,5.09442236328125,7.702668718770146,5.134449046835303,4.902751291765273
1772708502691448600,5.104448486328125,9.278525120317935,4.675741986772418,4.521073695369065
1772708502701473300,5.114473388671875,11.451928312820195,4.138893994669616,4.343481624495983
1772708502711499500,5.12449951171875,13.87064599007368,3.6882717491239307,4.492215849675238
1772708502721525500,5.134525390625,15.798443605923651,3.5572801013842223,5.036306067991257
1772708502731551500,5.144551513671875,17.052260594958067,3.453439203159511,5.9372191351711745
1772708502741577500,5.154577392578125,17.755801662778854,4.045424560594559,5.082041398727894
1772708502751603500,5.164603515625,17.915460309815405,4.612064172109961,4.046029540750384
1772708502761629400,5.17462939453125,17.09667841335535,5.296088638556003,3.5286513882711525
1772708502771655400,5.184655517578125,15.523138472056388,5.416916911938786,3.4218580699816346
1772708502781681400,5.194681396484375,12.025006432950496,4.231671939349174,4.275324034070969
1772708502791707400,5.204707275390625,7.017721876782178,1.618562155330181,6.283780994522571
1772708502801732400,5.214732421875,6.5016825716912745,1.6325748985916375,5.463643591800332
1772708502811758300,5.22475830078125,6.788015295529365,1.5981231784135101,4.664371282452344
1772708502821784300,5.234784423828125,6.514484185597301,0.519905917391181,3.4291391669005153
1772708502831810300,5.244810302734375,4.2148429696232075,-0.37608752130419015,2.501584761032462
1772708502841836500,5.25483642578125,1.1618851397901773,-1.2184449391409755,1.947554747982323
1772708502851862500,5.264862548828125,-1.1059259366810321,-1.5897732832193374,1.5450854157090186
1772708502861888500,5.274888427734375,-1.1005191092014313,-1.2309294499218464,1.06978611728549
1772708502871914500,5.28491455078125,0.7832675154864788,-0.44299218905866145,0.5955200343672186
1772708502881940500,5.2949404296875,2.9715152258992195,0.49171734926104543,0.656825201614201
1772708502891966500,5.304966552734375,4.711712879341841,1.469361481682956,1.1044907893113791
1772708502906376400,5.31937646484375,5.974224631485343,2.6016183759287,1.4652135682232676
1772708502916402400,5.32940234375,7.150231235608458,3.7712688890233634,1.388662974114716
1772708502926428400,5.339428466796875,8.214107252067327,4.91712439277172,0.7532350730553269
1772708502936454400,5.349454345703125,9.077368926244974,5.744590530946851,-0.057685003988444804
1772708502946480400,5.35948046875,9.516219777715206,6.523042170584201,-0.683667177440971
1772708502956506400,5.36950634765625,9.213601104986667,7.812956308916211,-0.8349212034214287
1772708502966532400,5.379532470703125,8.253283662679792,8.59055454659462,-0.35597061594873664
1772708502976558300,5.389558349609375,7.44696786456108,8.69245658571124,0.5097846286103129
1772708502986584300,5.399584228515625,7.046401443299651,8.743580623748898,1.437065185973048
1772708502996610300,5.4096103515625,6.578245586889982,8.595766143763065,1.7340569587305188
1772708503006635500,5.419635498046875,5.927038517418503,7.725290300422906,1.3116840715914964
1772708503016661500,5.42966162109375,5.438796150791645,6.620607641801238,0.5440584714708849
1772708503026687500,5.4396875,5.359962852573394,5.816181602951884,-0.5640517139140516
1772708503036713500,5.44971337890625,5.040967630061507,5.156642758464813,-2.0196756890803576
1772708503046739500,5.459739501953125,4.131908665826916,4.453229700937867,-3.3506106968477365
1772708503056765400,5.469765380859375,2.771382529655099,3.801779178099334,-3.869788592225313
1772708503066791400,5.47979150390625,0.46170916448831556,2.6562656196564434,-2.984583966308832
1772708503076817200,5.489817138671875,-2.779537194538116,0.23618629866093396,-0.47642421080023045
1772708503086843100,5.499843017578125,-5.680329947960376,-3.658361764028668,3.2599569047152994
1772708503096868400,5.509868408203125,-5.476829821109772,-6.7217661690741775,5.03601965226531
1772708503106894300,5.519894287109375,-2.4710049138516186,-6.521689586931466,1.2546492020748554
1772708503116920300,5.52992041015625,-1.2118085698664187,-9.73906114937365,-2.11933667127192
1772708503126946600,5.539946533203125,-3.3534576107114553,-12.190573427248001,-4.2956282786920665
1772708503136972500,5.54997265625,-9.7664553522557,-9.175871386051178,-5.853087146022916
1772708503146998500,5.55999853515625,-17.388607349765298,-7.624024805644154,-4.581507705804706
1772708503157024300,5.570024169921875,-21.368946566987038,-8.909062277850508,-1.294886373786628
1772708503167050200,5.58005029296875,-20.81503491961956,-10.669799445974826,2.694192906990647
1772708503177076200,5.590076171875,-19.034431606030463,-13.649458230841159,6.334084948348998
1772708503187102200,5.600102294921875,-17.96418605453968,-16.581104387688637,6.067899525004625
1772708503197127400,5.61012744140625,-17.31604129524827,-16.549936511486766,2.021962923234701
1772708503207153400,5.6201533203125,-16.375874076044557,-14.89276200916767,-0.6996785471737385
1772708503217179400,5.630179443359375,-15.42988618786335,-12.861428030997514,-1.1372346826583146
1772708503227205400,5.640205322265625,-12.623522945719957,-10.446890854299069,-0.15047558895386753
1772708503237231400,5.6502314453125,-8.805655094867944,-8.590687817585469,0.7339272190604359
1772708503256658400,5.669658447265625,-3.218396229314804,-6.383865170562267,0.8511708388894796
1772708503266683400,5.679683349609375,-0.9856395150899887,-4.944294139248132,0.8733575362563133
1772708503276709400,5.68970947265625,-0.011148001480102539,-3.0556454614818094,0.4851721654012799
1772708503286735400,5.6997353515625,0.9664894089400767,-1.429316179281473,-0.6313045375190675
1772708503296761300,5.70976123046875,1.971729112035036,-0.2799330859288573,-1.1505289023868739
1772708503306787300,5.719787353515625,3.100560708007216,0.6959010744616388,-1.4731182038679718
1772708503316813300,5.729813232421875,3.8726299531310793,1.4983368162766098,-1.6013991313442586
1772708503326839600,5.739839599609375,4.747934531801938,1.9568726114258168,-1.1164650855477898
1772708503336865500,5.749865478515625,5.630182061478496,2.696971724054217,-0.40291612619273365
1772708503346891500,5.7598916015625,6.248364228704571,3.234773071359098,-0.22933628663569688
1772708503356917500,5.76991748046875,6.628141544437408,3.3149557383596897,-0.12172577021177858
1772708503366942500,5.7799423828125,6.923735433095693,3.541675997278094,-0.09848817555252462
1772708503376968400,5.789968505859375,7.184508183741569,4.083154864051938,-0.05340075079798698
1772708503386994400,5.799994384765625,7.209550270539522,4.670280798757076,0.15778125405842439
1772708503397020400,5.8100205078125,6.761259975072741,4.935296009278297,-0.14523455562838353
1772708503407047200,5.820047119140625,5.828620813286304,4.608432829870283,-0.5990694704771041
1772708503417073200,5.8300732421875,4.818628947228193,4.082340625059604,-0.9081688835270703
1772708503427099100,5.84009912109375,4.251778323310614,3.712684013585746,-0.6863086318604648
1772708503437125400,5.85012548828125,4.24490317684412,3.585962298250198,-0.31848698072880505
1772708503447151400,5.8601513671875,5.091160524728894,3.608145196224749,-0.2895404338382184
1772708503457177300,5.87017724609375,4.379885647785663,3.594977671615779,-0.784898916080594
1772708503467203300,5.880203369140625,3.511585979440808,3.816570504517853,-1.084385136002302
1772708503477228300,5.890228271484375,2.8356156401127577,4.085973428604007,-1.4936349221959708
1772708503487254300,5.900254150390625,2.732386736306548,4.567862042289972,-1.7031769595593214
1772708503497280300,5.9102802734375,2.4801550195127726,4.867892159830033,-1.544954190544784
1772708503507306200,5.92030615234375,2.0392507426440716,4.755008415710925,-1.582268168286234
1772708503517332200,5.930332275390625,1.6129793867617845,4.4572234467491505,-1.7501828947536646
1772708503527358200,5.940358154296875,1.2451508674979208,4.172195668029785,-1.7512921711698173
1772708503537384200,5.95038427734375,0.9055939184725285,4.0548879699885845,-1.3685188884913921
1772708503547410200,5.96041015625,0.5768804350227117,3.521002627083659,-0.44120245609767733
1772708503557436200,5.970436279296875,0.1527361542969942,2.1625369305729865,0.7477431976407766
1772708503567462400,5.98046240234375,-0.5428793812215328,0.6819049900740385,1.0760133943025023
1772708503577487000,5.990487060546875,-0.9805039057672024,0.39194530791044235,-0.05216865171976387
1772708503587513300,6.000513427734375,-1.4837299065142868,0.7338830145925282,-1.6009078406959771
1772708503597539300,6.010539306640625,-2.6182494849950073,-0.36634149557650086,-1.1755107103649527
1772708503607565300,6.0205654296875,-2.4825527283042668,-2.024792593702674,-0.19697357462607323
1772708503617591300,6.03059130859375,0.25623978339135645,-1.3555541929781436,-0.9561988280069083
1772708503627617300,6.0406171875,3.0836615956544873,-0.5675479585319757,-2.1543220599353314
1772708503637643300,6.050643310546875,4.428669844698906,-1.1702993323922157,-2.066112884476036
1772708503647669200,6.060669189453125,3.6821067967534065,-2.4993185696661473,-0.58857383195851
1772708503657695200,6.0706953125,-0.17450667207837103,-3.1269764212459323,3.0333900827929376
1772708503667721200,6.08072119140625,-4.193981383380294,-1.4034306273967028,5.930490703698992
1772708503677746200,6.09074609375,-6.517690288162231,1.48972943919003,5.7926154339253895
1772708503687772200,6.100772216796875,-8.033134598845242,3.028777328300476,4.264784812138974
1772708503697798100,6.110798095703125,-8.65429782770872,2.1372271327495573,2.6870643702849746
1772708503707824000,6.12082421875,-7.8114651935756205,-0.22310557555258273,0.8358236321538687
1772708503717850400,6.130850341796875,-6.01498042024374,-2.2055647559165954,-1.4367001520529388
1772708503727876400,6.14087646484375,-4.133715422987938,-2.9759049852907657,-2.9169112367913126
1772708503737902300,6.15090234375,-2.23483702763021,-2.5588953787505626,-2.4967045877754686
1772708503747928300,6.16092822265625,-0.46806642456054687,-1.3253022625774145,-1.0413570183977483
1772708503757954300,6.170954345703125,0.5421598347753286,-0.4310293640643358,0.6095453083166852
1772708503767980300,6.180980224609375,0.9361030385047197,0.16259703857600688,1.4120716144919394
1772708503778005200,6.191005126953125,1.3611153342366218,0.8948463144868611,1.1308841445878148
1772708503788031200,6.20103125,1.4893395630896091,1.4154665176272392,0.4963454839857295
1772708503798057200,6.21105712890625,1.3474065423578023,1.653119089448452,0.245076913135685
1772708503808083200,6.221083251953125,1.3808639908015727,1.969479871803522,-0.06404105848427862
1772708503818109200,6.231109130859375,1.3440730140209196,1.7456395522356032,-0.6260263048551976
1772708503828135200,6.24113525390625,1.1641858179479836,0.9747457806318998,-0.927865152317658
1772708503838161200,6.2511611328125,0.9839759657919406,0.322452084967494,-1.32329618345201
1772708503848187400,6.2611875,0.8699415903329849,-0.09872399360239505,-1.437220084273815
1772708503858213400,6.27121337890625,1.0901917764544486,-0.13262567868232727,-1.2642555270709097
1772708503868239400,6.2812392578125,1.5973463488221167,-0.03123743430674076,-0.7658335656046867
1772708503878264300,6.291264404296875,2.2248750210642814,-0.08065817555785179,-0.16978855751529334
1772708503888290300,6.301290283203125,2.556896898409724,-0.2833475705474615,0.5578813547160476
1772708503898316300,6.31131640625,2.6405507486522195,-0.3118973732054233,1.05221290506348
1772708503908342300,6.32134228515625,2.542989953610301,-0.4178109860509634,0.9811801245283335
1772708503918368300,6.3313681640625,2.3570476952821013,-0.6077554657578468,0.4811359686877578
1772708503928394200,6.341394287109375,2.13399589574337,-0.7064724450975656,-0.08671601429209112
1772708503938420200,6.351420166015625,1.6878496265679597,-0.7760743891119957,-0.5385300269056111
1772708503948446200,6.3614462890625,0.9966635979294777,-0.8374860124081372,-0.895794482057169
1772708503958472200,6.37147216796875,0.4619686922073364,-0.6864701060324907,-1.1107091523695736
1772708503968498200,6.381498291015625,0.23158757269382477,-0.599043751513958,-1.0063859505206345
1772708503978523100,6.391523193359375,0.07742226237654685,-0.7528799760073422,-0.6203172795586288
1772708503988549000,6.401549072265625,0.30852818903326984,-0.6139157419532537,-0.3766616313977167
1772708503998575400,6.411575439453125,0.605892009973526,-0.4056143523007631,-0.18866974706333128
1772708504008601300,6.421601318359375,0.5065998610943555,-0.3893015154033899,0.11089224150832742
1772708504018627300,6.43162744140625,0.15927520067691803,-0.2265355500012636,0.28413532339166847
1772708504028653300,6.4416533203125,-0.058979427713155744,-0.027872341787815093,0.1890268899379298
1772708504038679300,6.45167919921875,-0.08850421288311482,-0.1327238783597946,0.07874722736999393
1772708504048705300,6.461705322265625,0.05910568444132804,-0.27097090405523777,0.14968052958603947
1772708504058731300,6.471731201171875,0.32664252239465713,-0.42422962092161176,0.2820413102544844
1772708504068757200,6.48175732421875,0.43618601617515085,-0.5763748235881329,0.3050836380699649
1772708504078782200,6.4917822265625,0.42129181390404696,-0.6929080301254987,0.0892224806876853
1772708504088808200,6.50180810546875,0.054338323909044264,-0.8204577207177877,-0.05823094743341207
1772708504098834200,6.511834228515625,-0.2511924368739128,-0.6779355019211769,0.03067932549994439
1772708504108860200,6.521860107421875,-0.2769248440235853,-0.4074783926069736,0.13816460810899733
1772708504118886100,6.53188623046875,-0.20957623189389704,-0.2691770063757896,0.22087456509750336
1772708504128912400,6.541912353515625,-0.027928455889225004,-0.1497872413635254,0.30563268678747113
1772708504138938400,6.5519384765625,0.374260013616085,-0.06542611963450909,0.3933393195521086
1772708504148964400,6.56196435546875,0.8514215987801551,-0.00464636450111866,0.6127418393356725
1772708504158990300,6.571990234375,1.3312322371482848,-0.004914075526595115,0.7693610090784728
1772708504169016300,6.582016357421875,1.7048843479990958,-0.1498299114614725,0.6866264656379818
1772708504179041300,6.592041259765625,1.7430267393887042,-0.31284079153537747,0.4450321339210495
1772708504189067300,6.6020673828125,1.441520996338129,-0.37457214830517765,0.12070497579667716
1772708504199093200,6.61209326171875,0.9578127660095691,-0.36703473853766916,-0.05873995640147477
1772708504209119200,6.622119140625,0.4491700009107589,-0.2992641016036272,-0.11819708462897688
1772708504219145200,6.632145263671875,-0.06382745226621628,-0.1617991661965847,-0.14240820049550384
1772708504229171200,6.642171142578125,-0.32875849163532256,0.01535246743261814,-0.19220416826717554
1772708504239197200,6.652197265625,-0.26338205636143686,0.09843173265755176,-0.19576397964060305
1772708504249223200,6.66222314453125,0.021228665989637373,0.033628128835558886,-0.22172212183754889
1772708504259249400,6.67224951171875,0.3903092311412096,-0.08822539594173431,-0.2768749769998714
1772708504269275400,6.682275390625,0.6556529429644345,-0.21514964811205864,-0.3029268618948757
1772708504279300400,6.69230029296875,0.691986239105463,-0.2835609210371971,-0.3288337488286197
1772708504289326300,6.702326416015625,0.743324212154746,-0.25551614529192446,-0.3192518276214599
1772708504299352300,6.712352294921875,0.674358227956295,-0.2995686375081539,-0.27308946711178866
1772708504309378300,6.72237841796875,0.7698287727206945,-0.24750410374999046,-0.19421707899216561
1772708504319404300,6.732404296875,0.7312099959909916,-0.15673369950056076,-0.08646412189025432
1772708504329430300,6.74243017578125,0.15866262173652648,0.19738953501582143,0.13149835515283048
1772708504339456300,6.752456298828125,-0.05178513229489326,0.32373978669047354,0.41326135992258783
1772708504349482200,6.762482177734375,-1.0401637169599534,0.48730187090635296,0.44306459670774634
1772708504359508200,6.77250830078125,-1.0571499230742454,0.9393319374233484,-0.19268219757508484
1772708504369534200,6.7825341796875,-0.4023386916309595,0.46291678671240805,-0.3570941400859505
1772708504379559200,6.79255908203125,0.2374199321091175,-0.022931378254294393,-0.6460559703186154
1772708504389585200,6.802585205078125,0.6559475419968366,-0.1677332324206829,-0.8767623762637377
