time,seconds_elapsed,z,y,x
1772708497643400200,0.056400146484375,0.08951017260551453,-0.06639047712087631,-0.14183169603347778
1772708497653426200,0.06642626953125,0.10908893495798111,-0.014946458861231804,-0.09276775270700455
1772708497663452200,0.0764521484375,0.09668606519699097,0.059213787317276,-0.06222103163599968
1772708497673478100,0.08647802734375,0.05663930997252464,0.10051941871643066,-0.05806436762213707
1772708497683503000,0.096503173828125,0.015428490936756134,0.11455534398555756,-0.06788131594657898
1772708497693529000,0.106529052734375,-0.029809294268488884,0.1181868240237236,-0.07073595374822617
1772708497703555000,0.11655517578125,-0.12831003963947296,0.10828465968370438,-0.03353079408407211
1772708497713581300,0.126581298828125,-0.28297337889671326,0.14447516202926636,0.06967894732952118
1772708497723607300,0.136607177734375,-0.39076563715934753,0.2991001605987549,0.22400566935539246
1772708497733633300,0.14663330078125,-0.44404536485671997,0.9697778820991516,0.499330997467041
1772708497743659300,0.1566591796875,-0.32509979605674744,1.2512092590332031,0.7443066239356995
1772708497753685200,0.166685302734375,-0.18177779018878937,1.29313325881958,0.8171702027320862
1772708497763711200,0.176711181640625,-0.09998465329408646,1.3642953634262085,0.7078085541725159
1772708497773737200,0.1867373046875,-0.04471394047141075,1.5326894521713257,0.49269333481788635
1772708497783763200,0.19676318359375,0.05206187069416046,1.6295560598373413,0.19943347573280334
1772708497793789200,0.2067890625,0.15137887001037598,1.6468561887741089,-0.10458952933549881
1772708497803815200,0.216815185546875,0.2494676113128662,1.5602490901947021,-0.337721586227417
1772708497813841200,0.226841064453125,0.3070414364337921,1.3938958644866943,-0.501276433467865
1772708497823867400,0.236867431640625,0.2505113184452057,1.234703540802002,-0.5933775901794434
1772708497833892000,0.24689208984375,0.11222587525844574,1.1128168106079102,-0.6232699751853943
1772708497843918300,0.25691845703125,0.03500352427363396,1.2066564559936523,-0.6092146039009094
1772708497853944300,0.2669443359375,0.03447621688246727,1.4339358806610107,-0.6332578659057617
1772708497863970300,0.27697021484375,0.031181886792182922,1.488762378692627,-0.810308039188385
1772708497873996300,0.286996337890625,-0.48001188039779663,0.06108305975794792,-1.160356044769287
1772708497884022300,0.297022216796875,-1.0716373920440674,-0.5393468141555786,-1.3320457935333252
1772708497894048300,0.30704833984375,-1.3224674463272095,-0.1114298552274704,-1.2681679725646973
1772708497904074200,0.31707421875,-1.3217142820358276,0.7642068266868591,-1.013098955154419
1772708497914100200,0.327100341796875,-1.221317172050476,1.4403575658798218,-0.668268620967865
1772708497924126200,0.337126220703125,-1.0996218919754028,1.6493669748306274,-0.32992517948150635
1772708497934152200,0.347152099609375,-1.0454574823379517,1.4128026962280273,-0.024033164605498314
1772708497944178200,0.35717822265625,-1.0489290952682495,1.1283185482025146,0.2870892882347107
1772708497954204400,0.367204345703125,-1.0489459037780762,0.9921132326126099,0.6120873689651489
1772708497964230400,0.37723046875,-1.1220619678497314,1.0491480827331543,0.9130299091339111
1772708497974256400,0.38725634765625,-1.2577850818634033,1.0767815113067627,1.1031672954559326
1772708497984281300,0.39728125,-1.3574573993682861,0.9185524582862854,1.1988389492034912
1772708497994307300,0.407307373046875,-1.3865588903427124,0.7607569694519043,1.2434154748916626
1772708498004333300,0.417333251953125,-1.3771637678146362,0.6776639819145203,1.2417793273925781
1772708498014359300,0.427359375,-1.3118391036987305,0.6835005283355713,1.18159019947052
1772708498024385300,0.43738525390625,-1.215145230293274,0.672836184501648,1.0619312524795532
1772708498034411300,0.447411376953125,-1.098039984703064,0.6116684675216675,0.9175234436988831
1772708498044437200,0.457437255859375,-0.9725608825683594,0.5309411287307739,0.7843917608261108
1772708498054463200,0.467463134765625,-0.8385289907455444,0.3937017619609833,0.7057477831840515
1772708498064489200,0.4774892578125,-0.6759616732597351,0.23558881878852844,0.7077968120574951
1772708498074515200,0.48751513671875,-0.5138646364212036,0.030229806900024414,0.7878423929214478
1772708498084541400,0.49754150390625,-0.40141454339027405,-0.2505035996437073,0.9341804385185242
1772708498094567400,0.5075673828125,-0.3604452610015869,-0.6288996338844299,1.1149022579193115
1772708498104593200,0.51759326171875,-0.40463003516197205,-1.2224133014678955,1.3127903938293457
1772708498114619100,0.527619140625,-0.542080283164978,-2.0674474239349365,1.514224886894226
1772708498124644400,0.537644287109375,-0.7483466863632202,-3.0718297958374023,1.7279752492904663
1772708498134670300,0.54767041015625,-0.9356931447982788,-4.196102142333984,1.9411402940750122
1772708498144696300,0.5576962890625,-1.1308122873306274,-5.363857746124268,2.052729845046997
1772708498154722300,0.567722412109375,-1.3503667116165161,-5.159626483917236,2.0567283630371094
1772708498164748300,0.577748291015625,-1.4076344966888428,-5.085479736328125,2.1318788528442383
1772708498174774300,0.587774169921875,-1.3324562311172485,-5.1620683670043945,2.011899709701538
1772708498184800300,0.59780029296875,-1.162889003753662,-5.096225738525391,1.7045572996139526
1772708498194826200,0.607826171875,-1.0136291980743408,-4.765592098236084,1.428431749343872
1772708498204852200,0.617852294921875,-0.9741342663764954,-4.058187961578369,1.281108021736145
1772708498214878200,0.627878173828125,-1.0511629581451416,-3.256741762161255,1.039465308189392
1772708498224904200,0.637904296875,-1.2126482725143433,-2.6362814903259277,0.5369337797164917
1772708498234930200,0.64793017578125,-1.3694010972976685,-2.3902790546417236,-0.11441285908222198
1772708498244956200,0.6579560546875,-1.4196771383285522,-2.6119303703308105,-0.7545523643493652
1772708498254982100,0.667982177734375,-1.4682321548461914,-2.38739275932312,-1.494714617729187
1772708498265008000,0.678008056640625,-1.2079358100891113,-1.0110137462615967,-1.7485756874084473
1772708498275033300,0.688033447265625,-0.6047077178955078,0.361480712890625,-1.4216164350509644
1772708498285059300,0.698059326171875,-0.0007379619055427611,1.380631685256958,-1.2371890544891357
1772708498295085300,0.708085205078125,0.6003170013427734,1.851803183555603,-1.3180474042892456
1772708498305111300,0.718111328125,1.220596194267273,1.8057329654693604,-1.4524494409561157
1772708498315137000,0.728136962890625,1.594470739364624,1.2321239709854126,-1.5870200395584106
1772708498325163000,0.7381630859375,1.6453336477279663,0.5597037672996521,-1.4518108367919922
1772708498335189000,0.74818896484375,1.5141732692718506,0.13693761825561523,-1.0113111734390259
1772708498345215200,0.75821533203125,1.2927165031433105,-0.07267287373542786,-0.4677746593952179
1772708498355241200,0.7682412109375,1.124129295349121,-0.11747735738754272,-0.023572970181703568
1772708498365267200,0.77826708984375,1.113681435585022,-0.14790424704551697,0.18664231896400452
1772708498375293200,0.788293212890625,1.1688216924667358,-0.35329946875572205,0.155227929353714
1772708498385319200,0.798319091796875,1.2042816877365112,-0.5617173910140991,0.0020269318483769894
1772708498395345200,0.80834521484375,1.2361712455749512,-0.5670669078826904,-0.1887882947921753
1772708498405371000,0.818370849609375,1.3075335025787354,-0.47222480177879333,-0.4109465181827545
1772708498415395800,0.828395751953125,1.3400784730911255,-0.3927195966243744,-0.6505524516105652
1772708498425422000,0.838422119140625,1.203031063079834,-0.22753888368606567,-0.8715540766716003
1772708498435447800,0.84844775390625,0.8920433521270752,-0.0345904678106308,-1.0909011363983154
1772708498445473800,0.858473876953125,0.5143110156059265,0.3921182453632355,-1.3365225791931152
1772708498455499800,0.868499755859375,0.26894649863243103,0.3007798194885254,-1.5945429801940918
1772708498465525800,0.87852587890625,0.16380278766155243,0.12545938789844513,-1.7162890434265137
1772708498475551700,0.8885517578125,0.14000371098518372,-0.10076416283845901,-1.7278282642364502
1772708498485577700,0.89857763671875,0.11478810012340546,-0.2863191068172455,-1.6667695045471191
1772708498495603700,0.908603759765625,0.06830022484064102,-0.35164111852645874,-1.502406120300293
1772708498505629700,0.918629638671875,-0.025667013600468636,-0.2747543454170227,-1.1850906610488892
1772708498515655700,0.92865576171875,-0.14381921291351318,-0.03165885806083679,-0.7024329900741577
1772708498525681700,0.938681640625,-0.23002654314041138,0.20864801108837128,-0.15539811551570892
1772708498535708000,0.9487080078125,-0.2659560441970825,0.3172570466995239,0.3532094657421112
1772708498545734000,0.95873388671875,-0.26538532972335815,0.3353652060031891,0.7595250010490417
1772708498555758800,0.9687587890625,-0.23943442106246948,0.2369595468044281,1.045964002609253
1772708498565784800,0.978784912109375,-0.21952277421951294,0.0070829433389008045,1.1740609407424927
1772708498575810800,0.988810791015625,-0.26757603883743286,-0.24056094884872437,1.1516536474227905
1772708498585836800,0.9988369140625,-0.3354189991950989,-0.3120492398738861,0.9904085397720337
1772708498595862800,1.00886279296875,-0.42928746342658997,-0.23018047213554382,0.7189033031463623
1772708498605888800,1.018888671875,-0.5216671824455261,-0.08072920143604279,0.3961433470249176
1772708498615914800,1.028914794921875,-0.5464563965797424,0.07647506892681122,0.11262188851833344
1772708498625940700,1.038940673828125,-0.49286189675331116,0.18858349323272705,-0.060681987553834915
1772708498635966700,1.048966796875,-0.3696496784687042,0.304289847612381,-0.01936757192015648
1772708498645992700,1.05899267578125,-0.2198639214038849,0.5490481853485107,0.17063485085964203
1772708498656018700,1.069018798828125,-0.1508752703666687,0.5560376644134521,0.3059846758842468
1772708498666045000,1.079044921875,-0.19365601241588593,0.4134184718132019,0.3304942846298218
1772708498676071000,1.08907080078125,-0.28434303402900696,0.25365009903907776,0.36488234996795654
1772708498686097000,1.099096923828125,-0.3481217622756958,0.10846894979476929,0.40732622146606445
1772708498696121900,1.109121826171875,-0.333760142326355,-0.03616119921207428,0.3981391191482544
1772708498706147800,1.11914794921875,-0.24806733429431915,-0.25090280175209045,0.30040404200553894
1772708498716173800,1.129173828125,-0.17849011719226837,-0.5201252102851868,0.09143271297216415
1772708498726199800,1.13919970703125,-0.1597108393907547,-0.8020392060279846,-0.20390252768993378
1772708498736225800,1.149225830078125,-0.23504634201526642,-1.2203259468078613,-0.5757589340209961
1772708498746251800,1.159251708984375,-0.32194235920906067,-1.453925371170044,-0.9265819191932678
1772708498756277800,1.16927783203125,-0.3214781582355499,-1.3341182470321655,-1.1617728471755981
1772708498766303700,1.1793037109375,-0.26648440957069397,-1.0822557210922241,-1.220216989517212
1772708498776329700,1.189329833984375,-0.2325323075056076,-0.7624220252037048,-1.1636508703231812
1772708498786355700,1.199355712890625,-0.18926073610782623,-0.42924216389656067,-1.1003105640411377
1772708498796382000,1.2093818359375,-0.1195911094546318,-0.21716001629829407,-1.0526986122131348
1772708498806408000,1.219407958984375,-0.008204666897654533,-0.019651731476187706,-0.9549903869628906
1772708498816434000,1.229433837890625,0.1168038472533226,0.1708660125732422,-0.7803131341934204
1772708498826459000,1.239458984375,0.1578543484210968,0.2774933874607086,-0.5528154969215393
1772708498836484900,1.24948486328125,0.07195115834474564,0.20421038568019867,-0.26010507345199585
1772708498846510800,1.2595107421875,-0.11636202782392502,0.019875969737768173,0.1210489273071289
1772708498856536800,1.269536865234375,-0.31768181920051575,-0.22076299786567688,0.621566891670227
1772708498866562800,1.279562744140625,-0.411019504070282,-0.3798522651195526,1.2335994243621826
1772708498876588800,1.2895888671875,-0.31696704030036926,-0.18250030279159546,1.8699976205825806
1772708498886614800,1.29961474609375,-0.05516445264220238,-0.04207368567585945,2.1721885204315186
1772708498896640800,1.309640869140625,0.22178326547145844,-0.2732299268245697,1.88826322555542
1772708498906666800,1.319666748046875,0.36234331130981445,-0.7325592041015625,1.150117039680481
1772708498916692700,1.329692626953125,0.27481693029403687,-0.8674384355545044,0.17611031234264374
1772708498926719000,1.339718994140625,0.08533167839050293,-0.7883007526397705,-0.8787035942077637
1772708498936745000,1.349744873046875,0.10504865646362305,-0.6917230486869812,-1.7337032556533813
1772708498946771000,1.35977099609375,0.26387372612953186,-0.3751014471054077,-2.348154306411743
1772708498956796000,1.3697958984375,0.7245950102806091,0.42658329010009766,-2.649732828140259
1772708498966822000,1.37982177734375,1.5350934267044067,1.2409459352493286,-2.650367498397827
1772708498976848000,1.389847900390625,2.3392269611358643,1.5064820051193237,-2.482442855834961
1772708498986873900,1.399873779296875,2.6227598190307617,1.21126127243042,-2.18978214263916
1772708498996899800,1.40989990234375,2.168895959854126,0.7535134553909302,-1.8390741348266602
1772708499006925800,1.41992578125,1.180760145187378,0.2718733251094818,-1.6306087970733643
1772708499016951800,1.429951904296875,0.29482871294021606,-0.20338508486747742,-1.5272523164749146
1772708499026977800,1.439977783203125,-0.20293766260147095,-0.3098553419113159,-1.2828545570373535
1772708499037003800,1.450003662109375,-0.5180959105491638,-0.04264573007822037,-0.9190483689308167
1772708499047029800,1.46002978515625,-0.7501927614212036,0.2618553042411804,-0.5942609310150146
1772708499057056000,1.470055908203125,-0.9575262665748596,0.3111584186553955,-0.4102029800415039
1772708499067082000,1.48008203125,-1.1524145603179932,0.16580520570278168,-0.3429722785949707
1772708499077108000,1.49010791015625,-1.277087688446045,0.044440168887376785,-0.3332253694534302
1772708499087134000,1.500134033203125,-1.304200530052185,0.042994871735572815,-0.37417519092559814
1772708499097159000,1.510158935546875,-1.2506015300750732,0.13857358694076538,-0.4272823631763458
1772708499107185000,1.520184814453125,-1.1065037250518799,0.29557040333747864,-0.4183213412761688
1772708499117211000,1.5302109375,-0.8926500678062439,0.50755774974823,-0.29566439986228943
1772708499127236900,1.54023681640625,-0.6707205772399902,0.8082621693611145,-0.03815297782421112
1772708499137262800,1.550262939453125,-0.5516261458396912,1.2287262678146362,0.3352144658565521
1772708499147288800,1.560288818359375,-0.4953801929950714,1.5414927005767822,0.7370540499687195
1772708499157314800,1.570314697265625,-0.48152029514312744,1.639761209487915,1.0596033334732056
1772708499167340800,1.5803408203125,-0.5131325721740723,1.5684913396835327,1.26040780544281
1772708499177366800,1.59036669921875,-0.5985345244407654,1.4006376266479492,1.3496090173721313
1772708499187393000,1.60039306640625,-0.6517988443374634,1.1748346090316772,1.3408997058868408
1772708499197419000,1.6104189453125,-0.5554307103157043,0.9948112964630127,1.2733463048934937
1772708499207445000,1.620445068359375,-0.3862837851047516,0.8764516115188599,1.145419716835022
1772708499217470000,1.630469970703125,-0.19262084364891052,0.7778387665748596,0.9909166693687439
1772708499227496000,1.640495849609375,0.06419709324836731,0.7697763442993164,0.9886817932128906
1772708499237522000,1.65052197265625,0.32843273878097534,0.8873248100280762,1.1299123764038086
1772708499247548000,1.6605478515625,0.5481035709381104,0.9177418351173401,1.2707645893096924
1772708499257574000,1.670573974609375,0.6610144376754761,0.9196092486381531,1.3151826858520508
1772708499267600000,1.680599853515625,0.6303364038467407,0.8525897264480591,1.2584480047225952
1772708499277625900,1.6906259765625,0.46937042474746704,0.6534510254859924,1.1804053783416748
1772708499287651800,1.70065185546875,0.3481989800930023,0.39768531918525696,1.2077347040176392
1772708499297677800,1.710677734375,0.30603423714637756,0.09785812348127365,1.3214309215545654
1772708499307703800,1.720703857421875,0.268575519323349,-0.2920238673686981,1.385419487953186
1772708499317730000,1.73072998046875,0.212961807847023,-0.7041206359863281,1.3279080390930176
1772708499327756000,1.740756103515625,0.16632293164730072,-1.063965082168579,1.1797683238983154
1772708499337782000,1.750781982421875,0.1323593705892563,-1.2912235260009766,1.0004268884658813
1772708499347807000,1.760806884765625,0.06107187643647194,-1.2709448337554932,0.8215748071670532
1772708499357833000,1.7708330078125,-0.05934561416506767,-1.0148886442184448,0.6586655378341675
1772708499367859000,1.78085888671875,-0.16517430543899536,-0.6449305415153503,0.49503079056739807
1772708499377885000,1.790885009765625,-0.22364374995231628,-0.2841252088546753,0.3523423373699188
1772708499387911000,1.800910888671875,-0.24548645317554474,0.02226056531071663,0.2604323923587799
1772708499397936600,1.8109365234375,-0.24056360125541687,0.2640036940574646,0.21177217364311218
1772708499407962600,1.820962646484375,-0.18439726531505585,0.42814549803733826,0.20003588497638702
1772708499417988600,1.830988525390625,-0.07400605082511902,0.49792855978012085,0.20634731650352478
1772708499428014600,1.8410146484375,-0.03465358540415764,0.43023207783699036,0.22888565063476562
1772708499438040600,1.85104052734375,-0.1623375117778778,0.31494781374931335,0.3723013997077942
1772708499448066600,1.861066650390625,-0.48276984691619873,0.2819962799549103,0.7356851696968079
1772708499458092500,1.871092529296875,-0.8160098791122437,0.3996294140815735,1.238526463508606
1772708499468117500,1.881117431640625,-0.9556042551994324,0.8879175782203674,1.7063674926757812
1772708499478143500,1.8911435546875,-0.7599055767059326,1.5840588808059692,1.9729669094085693
1772708499488169500,1.90116943359375,-0.35129010677337646,2.0875768661499023,1.939353585243225
1772708499498195500,1.911195556640625,0.20059701800346375,2.3491430282592773,1.7061280012130737
1772708499508221400,1.921221435546875,0.7220674157142639,1.922034502029419,1.0544533729553223
1772708499518247400,1.931247314453125,0.8211860060691833,0.3286772072315216,-0.42679446935653687
1772708499528273700,1.941273681640625,0.12993083894252777,-1.3445290327072144,-2.532222032546997
1772708499538299600,1.951299560546875,-0.8899056315422058,-1.902398705482483,-4.4975409507751465
1772708499548325600,1.96132568359375,-1.0687878131866455,-0.8531830906867981,-5.445882320404053
1772708499558351600,1.9713515625,0.2854674160480499,0.8836738467216492,-5.1715617179870605
1772708499568377600,1.981377685546875,2.6482889652252197,1.7683732509613037,-3.9793386459350586
1772708499578403600,1.991403564453125,3.926945447921753,0.6719592213630676,-2.648589849472046
1772708499588428500,2.001428466796875,3.1568310260772705,-1.8348641395568848,-1.613969326019287
1772708499598454500,2.01145458984375,1.0693854093551636,-4.475634574890137,-0.9393594861030579
1772708499608480500,2.02148046875,-0.7809035181999207,-5.806467533111572,-0.2618611752986908
1772708499618506500,2.031506591796875,-1.520051121711731,-5.646240234375,0.3172605037689209
1772708499628532500,2.041532470703125,-1.3945804834365845,-4.446423530578613,0.5786742568016052
1772708499638558500,2.051558349609375,-0.8822181820869446,-3.040754795074463,0.43743273615837097
1772708499648584400,2.06158447265625,-0.7484004497528076,-1.9210883378982544,-0.08265706151723862
1772708499658610700,2.071610595703125,-0.8648663759231567,-1.393769383430481,-0.8525457978248596
1772708499668636700,2.08163671875,-0.7365502119064331,-1.2568724155426025,-1.7045594453811646
1772708499678662700,2.09166259765625,-0.5738704800605774,-1.064713478088379,-2.4545679092407227
1772708499688688600,2.101688720703125,-0.29157406091690063,-0.767784833908081,-2.963459014892578
1772708499698714400,2.11171435546875,0.08597296476364136,-0.3742726743221283,-3.176079273223877
1772708499708740400,2.121740234375,0.47843849658966064,0.07455066591501236,-3.061631679534912
1772708499718765600,2.131765625,0.7326869964599609,0.6079456210136414,-2.655662775039673
1772708499728791600,2.14179150390625,0.7969205975532532,1.0548570156097412,-2.0859107971191406
1772708499738817500,2.151817626953125,0.757033109664917,1.2527389526367188,-1.5058727264404297
1772708499748843500,2.161843505859375,0.7306411862373352,1.066303014755249,-1.0152561664581299
1772708499758869500,2.171869384765625,0.736495316028595,0.5357670187950134,-0.6676270365715027
1772708499768895500,2.1818955078125,0.6984760165214539,-0.1461513489484787,-0.46221664547920227
1772708499778921500,2.19192138671875,0.6628285646438599,-0.7603660225868225,-0.341195672750473
1772708499788947500,2.201947509765625,0.6869064569473267,-1.115443468093872,-0.25125566124916077
1772708499798973400,2.211973388671875,0.7308654189109802,-1.167555332183838,-0.14867310225963593
1772708499808999400,2.22199951171875,0.7966942191123962,-0.9423206448554993,-0.015672169625759125
1772708499819025400,2.232025390625,0.8779501914978027,-0.5821126699447632,0.16419079899787903
1772708499829051400,2.242051513671875,0.9808076024055481,-0.19428026676177979,0.43093141913414
1772708499839076600,2.25207666015625,1.0600494146347046,0.1336672455072403,0.7789711356163025
1772708499849102600,2.2621025390625,1.0767139196395874,0.27769047021865845,1.053665280342102
1772708499859128600,2.272128662109375,0.9709081053733826,0.24125389754772186,1.1277416944503784
1772708499869154600,2.282154541015625,0.8170474171638489,0.19141097366809845,1.0248494148254395
1772708499879180500,2.2921806640625,0.6790136694908142,0.19746167957782745,0.8043819665908813
1772708499889206500,2.30220654296875,0.5870048999786377,0.2427455335855484,0.4967501163482666
1772708499899232500,2.312232421875,0.5368240475654602,0.308803915977478,0.12547536194324493
1772708499909258200,2.32225830078125,0.457719624042511,0.35421666502952576,-0.2700485289096832
1772708499919284500,2.332284423828125,0.36246901750564575,0.46690380573272705,-0.5871108770370483
1772708499929310500,2.342310546875,0.28293874859809875,0.6853786110877991,-0.720654308795929
1772708499939336400,2.35233642578125,0.20794813334941864,0.8790660500526428,-0.6996771097183228
1772708499949362400,2.362362548828125,0.0816676989197731,1.0310982465744019,-0.5607160329818726
1772708499959387600,2.3723876953125,-0.07702367752790451,1.1330556869506836,-0.34658724069595337
1772708499969413600,2.38241357421875,-0.3015787601470947,1.1241458654403687,-0.10238416492938995
1772708499979439600,2.392439697265625,-0.6442439556121826,0.923285722732544,0.16069647669792175
1772708499989465600,2.402465576171875,-1.0109745264053345,0.5541878342628479,0.47384026646614075
1772708499999491300,2.4124912109375,-1.1848952770233154,0.24818237125873566,0.8240190744400024
1772708500009517300,2.422517333984375,-1.2502936124801636,0.012198342941701412,1.0939850807189941
1772708500019543300,2.432543212890625,-1.3482402563095093,-0.08844517916440964,1.3324711322784424
1772708500029569300,2.4425693359375,-1.3885729312896729,0.05399239435791969,1.7409638166427612
1772708500039595300,2.45259521484375,-1.2400026321411133,0.42475181818008423,2.3313119411468506
1772708500049621500,2.46262158203125,-0.988814651966095,1.1490583419799805,2.9078104496002197
1772708500059647500,2.4726474609375,-0.7205405831336975,1.9544215202331543,3.4330191612243652
1772708500069672400,2.48267236328125,-0.5008649826049805,2.307758331298828,3.9244439601898193
1772708500079698700,2.49269873046875,-0.22983160614967346,2.4987053871154785,4.384964942932129
1772708500089724400,2.502724365234375,0.16192711889743805,2.407829761505127,4.410139560699463
1772708500099750400,2.51275048828125,0.39043885469436646,1.5588246583938599,3.67045521736145
1772708500109776400,2.5227763671875,0.0934963971376419,0.15613873302936554,2.3358561992645264
1772708500119802400,2.53280224609375,-0.5383936762809753,-1.1934690475463867,0.9058971405029297
1772708500129828400,2.542828369140625,-0.5821456909179688,-2.37496018409729,-0.05813520774245262
1772708500139854300,2.552854248046875,-0.48391208052635193,-2.938399314880371,-0.7166843414306641
1772708500149880300,2.56288037109375,-0.545734167098999,-2.4905130863189697,-1.3885293006896973
1772708500159906300,2.57290625,-0.12913188338279724,-1.6526376008987427,-1.8156827688217163
1772708500169932300,2.582932373046875,0.7882133722305298,-1.2655037641525269,-1.6910585165023804
1772708500179958500,2.59295849609375,1.4757627248764038,-1.4399919509887695,-1.2105753421783447
1772708500189984500,2.602984619140625,1.3421649932861328,-2.1665570735931396,-0.9998388290405273
1772708500200009500,2.613009521484375,0.6676123738288879,-3.087085723876953,-0.9701583981513977
1772708500210035500,2.623035400390625,0.10427527129650116,-3.9070098400115967,-0.7800478935241699
1772708500220061400,2.6330615234375,-0.22680439054965973,-4.538834095001221,-0.3962083160877228
1772708500230087400,2.64308740234375,-0.4401419758796692,-4.637853622436523,0.24095721542835236
1772708500240113400,2.653113525390625,-0.5731967091560364,-4.3791728019714355,1.0494804382324219
1772708500250139400,2.663139404296875,-0.6695594191551208,-4.119739055633545,1.8141953945159912
1772708500260165400,2.673165283203125,-0.7765210270881653,-3.9465999603271484,2.399725914001465
1772708500270191400,2.68319140625,-0.9033780694007874,-3.8425955772399902,2.744288682937622
1772708500280217300,2.69321728515625,-1.0559468269348145,-3.70597243309021,2.8676867485046387
1772708500290243300,2.703243408203125,-1.1750372648239136,-3.423186779022217,2.8352742195129395
1772708500300269300,2.713269287109375,-1.2530596256256104,-3.0243027210235596,2.6898374557495117
1772708500310294300,2.723294189453125,-1.2374294996261597,-2.438832998275757,2.4095916748046875
1772708500320320300,2.7333203125,-1.1473912000656128,-1.6116985082626343,2.0277163982391357
1772708500330346200,2.74334619140625,-1.0506559610366821,-0.6388497352600098,1.5224021673202515
1772708500340372500,2.75337255859375,-0.8851947784423828,0.27601826190948486,0.9046568870544434
1772708500350398500,2.7633984375,-0.6541067361831665,1.0439794063568115,0.28547143936157227
1772708500360424400,2.773424560546875,-0.41727474331855774,1.6269506216049194,-0.25359979271888733
1772708500370450400,2.783450439453125,-0.2176993042230606,2.024367332458496,-0.622024416923523
1772708500380476400,2.793476318359375,-0.07714538276195526,2.334376573562622,-0.752487063407898
1772708500390502400,2.80350244140625,-0.05818074941635132,2.4632833003997803,-0.631217896938324
1772708500400528400,2.8135283203125,-0.08668189495801926,2.357919454574585,-0.3439427316188812
1772708500410554400,2.823554443359375,-0.12100232392549515,2.044321060180664,-0.04068910703063011
1772708500420580600,2.83358056640625,-0.11866060644388199,1.5880322456359863,0.16081391274929047
1772708500430605300,2.843605224609375,-0.06783150881528854,1.1097214221954346,0.23781734704971313
1772708500440631300,2.85363134765625,0.06283515691757202,0.6597504615783691,0.2031105011701584
1772708500450657500,2.863657470703125,0.2789088785648346,0.31499814987182617,0.09458296746015549
1772708500460683500,2.87368359375,0.5052008628845215,0.03356461971998215,-0.08924758434295654
1772708500470709500,2.88370947265625,0.6778261661529541,-0.18510673940181732,-0.3435072898864746
1772708500480735500,2.893735595703125,0.7880882024765015,-0.3905746638774872,-0.6504049301147461
1772708500490761500,2.903761474609375,0.8384131789207458,-0.5352029800415039,-0.9229360222816467
1772708500500787500,2.913787353515625,0.8433847427368164,-0.5645267367362976,-1.1207841634750366
1772708500510813400,2.9238134765625,0.8600353598594666,-0.49974191188812256,-1.2834275960922241
1772708500520839400,2.93383935546875,0.8863290548324585,-0.25144660472869873,-1.4668835401535034
1772708500530865400,2.943865478515625,0.8273429274559021,0.2388826161623001,-1.6971838474273682
1772708500540891400,2.953891357421875,0.7829917073249817,0.799247682094574,-1.978289008140564
1772708500550916400,2.963916259765625,0.7581771612167358,1.4005987644195557,-2.2856884002685547
1772708500560942300,2.9739423828125,0.700316309928894,1.9935717582702637,-2.609119415283203
1772708500570968300,2.98396826171875,0.6211625933647156,2.533048152923584,-2.8930134773254395
1772708500580994600,2.99399462890625,0.6139103174209595,3.1515514850616455,-3.0502877235412598
1772708500591020500,3.0040205078125,0.7584671974182129,3.893920660018921,-2.9752328395843506
1772708500601046500,3.014046630859375,1.0365121364593506,4.616950988769531,-2.67506742477417
1772708500611072500,3.024072509765625,1.3510158061981201,5.071346759796143,-2.3092002868652344
1772708500621098500,3.034098388671875,1.523935317993164,5.1028337478637695,-1.9930282831192017
1772708500631124500,3.04412451171875,1.4933782815933228,4.740728378295898,-1.6356000900268555
1772708500641150500,3.054150390625,1.315792202949524,4.165904521942139,-1.1153289079666138
1772708500651176400,3.064176513671875,1.0963419675827026,3.4882335662841797,-0.28884032368659973
1772708500661201400,3.074201416015625,1.0610949993133545,3.0511481761932373,0.8773664236068726
1772708500671227400,3.084227294921875,1.1669572591781616,2.8307747840881348,1.7395139932632446
1772708500681253400,3.09425341796875,0.9398061037063599,2.358555793762207,1.6760843992233276
1772708500691279400,3.104279296875,0.26745113730430603,0.8503339886665344,1.003017544746399
1772708500701305300,3.114305419921875,-0.7350053191184998,-0.923722505569458,0.45415765047073364
1772708500711331600,3.12433154296875,-1.537231206893921,-2.4786300659179688,0.2972862720489502
1772708500721357600,3.134357666015625,-1.5708000659942627,-3.6673362255096436,0.5548344254493713
1772708500731383600,3.144383544921875,-1.3996860980987549,-4.061823844909668,0.6347863078117371
1772708500741409500,3.154409423828125,-1.0377452373504639,-3.98207950592041,0.06226177513599396
1772708500751435500,3.164435546875,-0.2606595456600189,-4.29641056060791,-0.7764573693275452
1772708500761461500,3.17446142578125,0.6712662577629089,-4.856467247009277,-1.1358081102371216
1772708500771486500,3.184486572265625,1.2009391784667969,-5.430424213409424,-1.3332312107086182
1772708500781512400,3.194512451171875,1.1553187370300293,-5.67586088180542,-1.9037209749221802
1772708500791538400,3.204538330078125,0.7415550947189331,-4.908275604248047,-2.677447557449341
1772708500801564400,3.214564453125,0.20878836512565613,-3.066291332244873,-3.5268845558166504
1772708500811590400,3.22459033203125,-0.1747981756925583,-1.0441678762435913,-4.390077590942383
1772708500821616400,3.234616455078125,-0.23963841795921326,0.5272928476333618,-4.995806694030762
1772708500831642400,3.244642333984375,-0.19087088108062744,1.5262895822525024,-5.035787105560303
1772708500841668600,3.254668701171875,-0.11590316891670227,2.015350818634033,-4.391931533813477
1772708500851694600,3.264694580078125,0.05243204906582832,2.042898654937744,-3.1856093406677246
1772708500861720600,3.274720458984375,0.28681686520576477,1.7575204372406006,-1.7291680574417114
1772708500871746600,3.28474658203125,0.5699119567871094,1.3015142679214478,-0.406651109457016
1772708500881772500,3.2947724609375,0.726554811000824,0.9292320013046265,0.5342961549758911
1772708500891797500,3.304797607421875,0.7276504635810852,0.7586485743522644,1.0991408824920654
1772708500901823500,3.314823486328125,0.7055475115776062,0.8099802136421204,1.3976689577102661
1772708500911849500,3.324849365234375,0.7193655967712402,1.005685567855835,1.5353429317474365
1772708500921875500,3.33487548828125,0.769820511341095,1.3072952032089233,1.5744946002960205
1772708500931901400,3.3449013671875,0.81621253490448,1.7532473802566528,1.5419447422027588
1772708500941927400,3.354927490234375,0.8695529699325562,2.0885355472564697,1.4836055040359497
1772708500951953400,3.364953369140625,0.9336829781532288,2.1657555103302,1.4874316453933716
1772708500961979400,3.3749794921875,1.0061683654785156,2.0370845794677734,1.5791280269622803
1772708500972005600,3.385005615234375,1.0454456806182861,1.7964390516281128,1.7113978862762451
1772708500982031600,3.395031494140625,1.0442925691604614,1.5789554119110107,1.8313953876495361
1772708500992057600,3.4050576171875,1.027866244316101,1.4460560083389282,1.9618812799453735
1772708501002082600,3.41508251953125,1.0090304613113403,1.3702062368392944,2.051539659500122
1772708501012108500,3.425108642578125,0.9971365332603455,1.3886115550994873,2.1072070598602295
1772708501022134500,3.435134521484375,1.074066400527954,1.5644630193710327,2.210855722427368
1772708501032160500,3.445160400390625,1.2969828844070435,1.862851619720459,2.3203604221343994
1772708501042186500,3.4551865234375,1.5887335538864136,2.169978141784668,2.233820915222168
1772708501052212500,3.46521240234375,1.8197952508926392,2.3778703212738037,1.8726238012313843
1772708501062238500,3.475238525390625,1.9377477169036865,2.2809481620788574,1.2937146425247192
1772708501072264400,3.485264404296875,1.9687327146530151,1.919554591178894,0.6281939148902893
1772708501082290400,3.49529052734375,1.8621141910552979,1.5039317607879639,0.028295287862420082
1772708501092316400,3.50531640625,1.58169686794281,1.0894640684127808,-0.4258596897125244
1772708501102342700,3.5153427734375,1.139749526977539,0.6397435069084167,-0.6547070145606995
1772708501112367400,3.525367431640625,0.6503084897994995,0.18862797319889069,-0.6610881686210632
1772708501122393600,3.5353935546875,0.22696763277053833,-0.11551567912101746,-0.5366834402084351
1772708501132419600,3.545419677734375,-0.06962115317583084,-0.21088214218616486,-0.2892885208129883
1772708501142445600,3.555445556640625,-0.21540232002735138,-0.14460937678813934,0.09306442737579346
1772708501152471600,3.565471435546875,-0.3075447678565979,-0.025249430909752846,0.5779411196708679
1772708501162497500,3.57549755859375,-0.4966380000114441,-0.22335052490234375,1.0838223695755005
1772708501172523500,3.5855234375,-0.8821843266487122,-1.0354876518249512,1.5399670600891113
1772708501182549500,3.595549560546875,-1.3750097751617432,-2.3289859294891357,1.845434546470642
1772708501192575500,3.605575439453125,-1.829158902168274,-3.624445915222168,1.898130178451538
1772708501202601500,3.6156015625,-1.9831212759017944,-4.258059024810791,1.8512012958526611
1772708501212627500,3.62562744140625,-1.701148509979248,-4.2180914878845215,1.7952840328216553
1772708501222652400,3.63565234375,-1.1574678421020508,-3.890894651412964,1.5441396236419678
1772708501232678400,3.645678466796875,-0.5730882883071899,-3.359306812286377,0.9703344702720642
1772708501242704400,3.655704345703125,-0.09175042808055878,-2.359571695327759,0.21247072517871857
1772708501252730600,3.665730712890625,0.1702180653810501,-1.272718071937561,-0.6097009181976318
1772708501262756600,3.675756591796875,0.2505722939968109,-0.2831760346889496,-1.3417484760284424
1772708501272782600,3.685782470703125,0.30481821298599243,0.2260805368423462,-1.9008421897888184
1772708501282808600,3.69580859375,0.2593543231487274,-0.10869398713111877,-2.3658127784729004
1772708501292834600,3.70583447265625,0.16832590103149414,-0.5377313494682312,-2.1028852462768555
1772708501302860500,3.715860595703125,-0.39071983098983765,-0.8629928231239319,-1.1505903005599976
1772708501312886500,3.725886474609375,-1.3070017099380493,-1.530137062072754,-0.4622485935688019
1772708501322912500,3.73591259765625,-1.5126677751541138,-2.1597049236297607,-0.4401174485683441
1772708501332937500,3.7459375,-0.9630736112594604,-2.331646203994751,-1.073529601097107
1772708501342963500,3.75596337890625,-0.15574193000793457,-2.050635576248169,-2.1155922412872314
1772708501352989400,3.765989501953125,0.376390665769577,-1.4952949285507202,-2.7132890224456787
1772708501363015400,3.776015380859375,0.2942609190940857,-0.9581931233406067,-2.6183714866638184
1772708501373041400,3.78604150390625,-0.14175499975681305,-0.7490489482879639,-2.0806801319122314
1772708501383067600,3.796067626953125,-0.4047248363494873,-0.6498451232910156,-1.2477895021438599
1772708501393093600,3.80609375,-0.7480308413505554,-0.4853139817714691,-0.6821511387825012
1772708501403120000,3.8161201171875,-1.084520936012268,-0.5110094547271729,-0.41983509063720703
1772708501413146000,3.82614599609375,-1.2103393077850342,-0.8207878470420837,-0.24320067465305328
1772708501423172000,3.836172119140625,-1.1757842302322388,-1.2132391929626465,-0.1916293501853943
1772708501433198000,3.846197998046875,-1.0776574611663818,-1.4742716550827026,-0.25569167733192444
1772708501443224000,3.85622412109375,-0.8983833193778992,-1.4887638092041016,-0.3846060037612915
1772708501453249000,3.8662490234375,-0.6659412980079651,-1.2327852249145508,-0.4588163197040558
1772708501463275000,3.87627490234375,-0.47504881024360657,-0.6896561980247498,-0.3445853590965271
1772708501473301000,3.886301025390625,-0.35332557559013367,0.05644543096423149,-0.009317602030932903
1772708501483327000,3.896326904296875,-0.34239861369132996,0.7876613140106201,0.5046187043190002
1772708501493353000,3.90635302734375,-0.411883145570755,1.274019479751587,1.09378182888031
1772708501503379000,3.91637890625,-0.535426914691925,1.4182411432266235,1.6559377908706665
1772708501513405000,3.926405029296875,-0.7000699639320374,1.1313196420669556,2.10150408744812
1772708501523431200,3.93643115234375,-0.8665984869003296,0.5032991170883179,2.4156625270843506
1772708501533457200,3.94645703125,-1.0063563585281372,-0.28176963329315186,2.600146532058716
1772708501543483100,3.956483154296875,-1.1150916814804077,-0.9713888168334961,2.6777710914611816
1772708501553508000,3.966508056640625,-1.1611549854278564,-1.3677390813827515,2.6364328861236572
1772708501563534000,3.9765341796875,-1.1537684202194214,-1.3941706418991089,2.506073474884033
1772708501573560000,3.98656005859375,-1.0790135860443115,-1.1973897218704224,2.2605814933776855
1772708501583586000,3.9965859375,-0.9425773620605469,-0.8764415383338928,2.0388219356536865
1772708501593612000,4.006612060546875,-0.7135300636291504,-0.3278985023498535,1.8512873649597168
1772708501603638000,4.016637939453125,-0.4240255653858185,0.31866347789764404,1.6699687242507935
1772708501613664000,4.0266640625,-0.1416330337524414,0.8053324222564697,1.3967680931091309
1772708501623690000,4.03668994140625,0.13041952252388,1.0580978393554688,1.0764027833938599
1772708501633716000,4.046716064453125,0.4149433970451355,1.116951823234558,0.7573854327201843
1772708501643742000,4.056741943359375,0.712059736251831,1.1373306512832642,0.3983793258666992
1772708501653768000,4.066767822265625,0.9556034207344055,1.101645827293396,-0.03538035973906517
1772708501663793000,4.07679296875,1.0711143016815186,1.0209954977035522,-0.5248124003410339
1772708501673819100,4.086819091796875,1.0742579698562622,0.9788104891777039,-0.9795319437980652
1772708501683845000,4.09684521484375,1.0456808805465698,1.0691603422164917,-1.311643362045288
1772708501693871000,4.10687109375,1.0543867349624634,1.2752333879470825,-1.4293454885482788
1772708501703897000,4.11689697265625,1.047073483467102,1.5073981285095215,-1.3403657674789429
1772708501713923000,4.126923095703125,1.043297290802002,1.653669834136963,-1.0773909091949463
1772708501723949000,4.136948974609375,1.0442088842391968,1.7688630819320679,-0.6836782097816467
1772708501733975000,4.14697509765625,1.0009839534759521,1.8388745784759521,-0.20921899378299713
1772708501744001000,4.1570009765625,0.910280704498291,1.8830759525299072,0.30585846304893494
1772708501754027000,4.167027099609375,0.8036067485809326,1.933745265007019,0.8195710182189941
1772708501764053000,4.177052978515625,0.6567810773849487,2.0031697750091553,1.2983027696609497
1772708501774078000,4.187077880859375,0.48691773414611816,2.120779037475586,1.7438524961471558
1772708501784104000,4.19710400390625,0.3033910393714905,2.3132641315460205,2.17535400390625
1772708501794130000,4.2071298828125,0.1741936355829239,2.532090425491333,2.571208953857422
1772708501804156200,4.21715625,0.07330004870891571,2.71622371673584,2.8891000747680664
1772708501814182100,4.22718212890625,-0.01314989011734724,2.885551691055298,3.1190006732940674
1772708501824208100,4.2372080078125,-0.010041715577244759,3.035745143890381,3.2753303050994873
1772708501834234000,4.247234130859375,-0.0063002402894198895,3.179138660430908,3.3335583209991455
1772708501844260000,4.257260009765625,-0.09405459463596344,3.367875576019287,3.3014333248138428
1772708501854286000,4.2672861328125,-0.12222391366958618,3.3876354694366455,3.0922884941101074
1772708501864311800,4.277311767578125,-0.1258908212184906,2.798635244369507,2.3425755500793457
1772708501874337000,4.2873369140625,-0.4477817714214325,1.209668517112732,0.6218188405036926
1772708501884363000,4.297363037109375,-1.2867920398712158,-1.5527433156967163,-2.1009883880615234
1772708501894389000,4.307388916015625,-2.5001115798950195,-4.652131080627441,-5.130671501159668
1772708501904415000,4.3174150390625,-3.1626827716827393,-5.924341201782227,-7.241209983825684
1772708501914441000,4.32744091796875,-2.6515605449676514,-3.345823287963867,-7.3987579345703125
1772708501924467000,4.337467041015625,-0.9082628488540649,1.2402658462524414,-6.285389423370361
1772708501934493200,4.3474931640625,1.3966591358184814,4.47003698348999,-5.1926493644714355
1772708501944519200,4.357519287109375,2.807725191116333,5.276851654052734,-4.544717311859131
1772708501954545000,4.367544921875,2.564502239227295,4.046586513519287,-3.997915744781494
1772708501964571000,4.37757080078125,1.5005428791046143,1.5343413352966309,-3.126647710800171
1772708501974596900,4.387596923828125,0.4492904543876648,-1.1861517429351807,-2.2420029640197754
1772708501984622000,4.3976220703125,-0.23742054402828217,-3.578803777694702,-1.7625924348831177
1772708501994648000,4.40764794921875,-0.5484647154808044,-5.5511040687561035,-1.7084609270095825
1772708502004674000,4.417674072265625,-0.7225283980369568,-6.685775279998779,-1.7907921075820923
1772708502014700000,4.427699951171875,-0.8258166909217834,-6.479408264160156,-1.6290780305862427
1772708502024726000,4.43772607421875,-0.8210943937301636,-5.491357326507568,-1.273193120956421
1772708502034752000,4.447751953125,-0.6201987862586975,-4.193731307983398,-0.9243661761283875
1772708502044778000,4.457778076171875,-0.39226019382476807,-2.6456363201141357,-0.6049114465713501
1772708502054804000,4.467803955078125,-0.17189213633537292,-1.4067375659942627,-0.2480873018503189
1772708502064830000,4.477829833984375,0.009437976405024529,-0.6334051489830017,0.05965587496757507
1772708502074856000,4.48785595703125,0.09675184637308121,0.025466211140155792,0.23662346601486206
1772708502084881200,4.497881103515625,0.1767348200082779,0.5736579298973083,0.33189353346824646
1772708502094907100,4.5079072265625,0.27938103675842285,0.9322283267974854,0.35441985726356506
1772708502104933000,4.51793310546875,0.38168132305145264,1.2279993295669556,0.328086793422699
1772708502114959000,4.527958984375,0.4027429223060608,1.4686177968978882,0.37629640102386475
1772708502124985000,4.537985107421875,0.519357442855835,1.5279425382614136,0.5687745213508606
1772708502135011000,4.548010986328125,0.7622531652450562,1.4733973741531372,0.8734270930290222
1772708502145037000,4.558037109375,0.9717629551887512,1.3611881732940674,1.1367497444152832
1772708502155063000,4.56806298828125,0.998146653175354,1.4201111793518066,1.2611311674118042
1772708502165088800,4.5780888671875,0.8737075328826904,1.5520761013031006,1.3246893882751465
1772708502175114800,4.58811474609375,0.701437771320343,1.6327462196350098,1.3888334035873413
1772708502185140000,4.598139892578125,0.5438249707221985,1.6281278133392334,1.5142453908920288
1772708502195166000,4.608166015625,0.47791144251823425,1.6098145246505737,1.6695060729980469
1772708502205192000,4.61819189453125,0.4182944595813751,1.5679714679718018,1.790663480758667
1772708502215218200,4.62821826171875,0.3527985215187073,1.3118414878845215,1.819671630859375
1772708502225244200,4.638244140625,0.33465760946273804,1.0064793825149536,1.7928563356399536
1772708502235270100,4.648270263671875,0.3424273729324341,0.766221284866333,1.737618327140808
1772708502245296000,4.658296142578125,0.354902446269989,0.6756695508956909,1.650736927986145
1772708502255321900,4.66832177734375,0.3790053725242615,0.7102775573730469,1.5758099555969238
1772708502265347800,4.678347900390625,0.34742826223373413,0.7305463552474976,1.5044548511505127
1772708502275373800,4.688373779296875,0.2814292907714844,0.6559607982635498,1.4183378219604492
1772708502285399800,4.69839990234375,0.2502790689468384,0.5264531373977661,1.245316505432129
1772708502295425000,4.708425048828125,0.11552979052066803,0.5121729969978333,0.8906620144844055
1772708502305451000,4.718450927734375,-0.13301238417625427,0.4897947311401367,0.33210498094558716
1772708502315477000,4.72847705078125,-0.31118690967559814,0.42035335302352905,-0.29240816831588745
1772708502325503000,4.7385029296875,-0.433173269033432,0.5660415887832642,-0.7709289193153381
1772708502335529000,4.748529052734375,-0.5099402070045471,0.812183678150177,-1.0531432628631592
1772708502345555000,4.758554931640625,-0.4962843358516693,0.9664851427078247,-1.2532953023910522
1772708502355581000,4.768580810546875,-0.38829395174980164,0.9769729375839233,-1.380250334739685
1772708502365607000,4.77860693359375,-0.17826427519321442,0.8598819971084595,-1.4249354600906372
1772708502375633000,4.7886328125,0.1313638836145401,0.6284176111221313,-1.4021929502487183
1772708502385659000,4.798658935546875,0.4352201819419861,0.34727779030799866,-1.3247109651565552
1772708502395684000,4.80868408203125,0.6560097932815552,0.13242168724536896,-1.1736726760864258
1772708502405709300,4.818709228515625,0.7420269846916199,0.04908924922347069,-0.9268380999565125
1772708502415735300,4.8287353515625,0.6709240674972534,0.08191190659999847,-0.49260571599006653
1772708502425761300,4.83876123046875,0.4893435835838318,0.2902454137802124,0.1015348806977272
1772708502435787500,4.84878759765625,0.25063008069992065,0.38234391808509827,0.671040952205658
1772708502445813500,4.8588134765625,0.039862461388111115,0.4772786796092987,1.079160213470459
1772708502455839500,4.868839599609375,-0.05682599917054176,0.647943377494812,1.3366538286209106
1772708502465865500,4.878865478515625,0.08527867496013641,0.8631882667541504,1.4886846542358398
1772708502475891500,4.888891357421875,0.40807458758354187,0.7873177528381348,1.351494312286377
1772708502485917400,4.89891748046875,0.5828285217285156,-0.09653239697217941,0.49761536717414856
1772708502495942400,4.9089423828125,0.3644472062587738,-1.714909553527832,-1.1655303239822388
1772708502505968400,4.918968505859375,-0.33746644854545593,-3.4788506031036377,-3.102057933807373
1772708502515994400,4.928994384765625,-1.4053205251693726,-4.083465099334717,-4.520639896392822
1772708502526020400,4.939020263671875,-1.999664306640625,-2.743910312652588,-4.347158432006836
1772708502536046300,4.94904638671875,-1.92471444606781,-0.2628888785839081,-3.1667816638946533
1772708502546072300,4.959072265625,-1.1854254007339478,1.6777288913726807,-1.7260340452194214
1772708502556098300,4.969098388671875,0.1983857899904251,1.3192954063415527,-0.38420331478118896
1772708502566124500,4.97912451171875,1.1376105546951294,-0.39929279685020447,0.8701024055480957
1772708502576150500,4.989150634765625,0.9191197156906128,-2.534255266189575,1.706601858139038
1772708502586176500,4.999176513671875,0.0478476844727993,-4.403260707855225,1.7445420026779175
1772708502596201500,5.009201416015625,-0.6057719588279724,-4.975620269775391,1.02936851978302
1772708502606227500,5.0192275390625,-0.9014486074447632,-3.8867294788360596,0.06559525430202484
1772708502616253400,5.02925341796875,-1.1269688606262207,-1.7638033628463745,-0.7907907962799072
1772708502626279400,5.039279541015625,-1.435986876487732,0.08345334976911545,-1.4105134010314941
1772708502636305400,5.049305419921875,-1.6307523250579834,0.9325764179229736,-1.6268547773361206
1772708502646331400,5.059331298828125,-1.6225990056991577,1.0952905416488647,-1.3815762996673584
1772708502656357400,5.069357421875,-1.3854835033416748,0.8388320803642273,-0.8475483655929565
1772708502666383400,5.07938330078125,-1.0598595142364502,0.3557352125644684,-0.09501226246356964
1772708502676409300,5.089409423828125,-0.7634377479553223,-0.10390802472829819,0.805896520614624
1772708502686435300,5.099435302734375,-0.5598760843276978,-0.3876579701900482,1.7129758596420288
1772708502696460300,5.109460205078125,-0.47288551926612854,-0.5774529576301575,2.4360790252685547
1772708502706486300,5.119486328125,-0.43975499272346497,-0.7494516372680664,2.8569281101226807
1772708502716512500,5.129512451171875,-0.3699389100074768,-0.8680461645126343,2.9433252811431885
1772708502726538500,5.13953857421875,-0.20245909690856934,-0.8882814049720764,2.7026267051696777
1772708502736564500,5.149564453125,-0.09108144044876099,-0.8553428649902344,2.1416547298431396
1772708502746590500,5.159590576171875,-0.020136160776019096,-0.6499492526054382,1.3087903261184692
1772708502756616400,5.169616455078125,0.02538631670176983,-0.16723905503749847,0.35792112350463867
1772708502766642400,5.179642333984375,0.10871609300374985,0.35127201676368713,-0.5223100781440735
1772708502776668400,5.18966845703125,0.3398419916629791,0.6762234568595886,-0.9700308442115784
1772708502786694400,5.1996943359375,0.8071226477622986,1.4599395990371704,-0.8425570726394653
1772708502796719400,5.20971923828125,1.277216911315918,2.210904359817505,-0.6122040152549744
1772708502806745300,5.219745361328125,1.5230234861373901,2.3218324184417725,-0.6539890170097351
1772708502816771300,5.229771240234375,1.4991652965545654,2.0676167011260986,-0.7578110098838806
1772708502826797300,5.23979736328125,1.2025772333145142,1.3709540367126465,-0.5984221696853638
1772708502836823300,5.2498232421875,0.8131746649742126,0.45391663908958435,-0.022184398025274277
1772708502846849500,5.259849609375,0.3770921528339386,-0.317552387714386,0.8477606177330017
1772708502856875500,5.26987548828125,-0.07198631018400192,-0.9284024238586426,1.6287692785263062
1772708502866901500,5.279901611328125,-0.48956331610679626,-1.3469070196151733,2.0385682582855225
1772708502876927500,5.289927490234375,-0.8059777617454529,-1.5046260356903076,2.0548818111419678
1772708502886953500,5.299953369140625,-0.967139720916748,-1.376822829246521,1.7886165380477905
1772708502896978400,5.309978515625,-0.9840539693832397,-1.0357272624969482,1.3848083019256592
1772708502907630300,5.32063037109375,-0.9198755621910095,-0.523923933506012,0.8988935351371765
1772708502917656300,5.33065625,-0.8624580502510071,-0.01091816183179617,0.41923773288726807
1772708502927681500,5.340681640625,-0.8674600124359131,0.5028713941574097,-0.06075895577669144
1772708502937707500,5.35070751953125,-0.9551650881767273,0.9249004125595093,-0.5023725628852844
1772708502947733500,5.3607333984375,-0.9863623976707458,1.2417938709259033,-0.777442216873169
1772708502957759500,5.370759521484375,-0.9020819067955017,1.4703205823898315,-0.7986689805984497
1772708502967785500,5.380785400390625,-0.6909275650978088,1.5036084651947021,-0.6285310387611389
1772708502977811500,5.3908115234375,-0.3329491913318634,1.3261895179748535,-0.385695219039917
1772708502987837400,5.40083740234375,0.09098370373249054,1.001865267753601,-0.062074556946754456
1772708502997863200,5.41086328125,0.46710726618766785,0.6178160905838013,0.3627707362174988
1772708503007889200,5.42088916015625,0.7244974970817566,0.17466475069522858,0.8326548933982849
1772708503017915100,5.4309150390625,0.8132263422012329,-0.3570076525211334,1.2515021562576294
1772708503027940400,5.4409404296875,0.6904383301734924,-0.823691725730896,1.5970110893249512
1772708503037966300,5.45096630859375,0.41790908575057983,-1.1267735958099365,1.9110939502716064
1772708503047992300,5.460992431640625,0.18355624377727509,-1.1482948064804077,2.1743242740631104
1772708503058018600,5.4710185546875,0.10174393653869629,-0.6778383851051331,2.457577705383301
1772708503068044500,5.48104443359375,0.26149046421051025,0.26641756296157837,2.8274919986724854
1772708503078070500,5.491070556640625,0.6949129700660706,1.5017743110656738,3.141892671585083
1772708503088096300,5.50109619140625,1.2232141494750977,2.389289617538452,2.9997007846832275
1772708503098122200,5.511122314453125,1.337962031364441,2.3272054195404053,2.111652135848999
1772708503108148200,5.521148193359375,0.7699435949325562,1.118299961090088,0.640023410320282
1772708503118174200,5.53117431640625,-0.22592687606811523,-0.7387810945510864,-0.6653308868408203
1772708503128199400,5.541199462890625,-1.017047643661499,-2.014697313308716,-1.1167116165161133
1772708503138225400,5.551225341796875,-1.1802102327346802,-1.9182517528533936,-0.9248524308204651
1772708503148251400,5.56125146484375,-0.8617805242538452,-0.8010849952697754,-0.8409088253974915
1772708503158277400,5.57127734375,-0.20947013795375824,0.5137938261032104,-1.1262925863265991
1772708503168303400,5.581303466796875,0.6949654817581177,1.0998458862304688,-1.5284725427627563
1772708503178329300,5.591329345703125,1.288353443145752,0.849835991859436,-1.839240550994873
1772708503188355300,5.601355224609375,1.2600741386413574,0.45624688267707825,-2.00559401512146
1772708503198381300,5.61138134765625,0.8986887335777283,0.08408504724502563,-2.0103132724761963
1772708503208407300,5.6214072265625,0.5353875160217285,-0.0005826996639370918,-1.8755860328674316
1772708503218433300,5.631433349609375,0.3264460265636444,0.15002357959747314,-1.7333519458770752
1772708503228458500,5.64145849609375,0.18953610956668854,0.23067955672740936,-1.648208498954773
1772708503238484500,5.651484375,0.0501696951687336,0.1881973296403885,-1.5080024003982544
1772708503257911600,5.67091162109375,-0.2106509804725647,-0.37382152676582336,-1.0407353639602661
1772708503267936300,5.680936279296875,-0.2062261402606964,-0.5525315999984741,-0.7970289587974548
1772708503277962500,5.69096240234375,-0.20599843561649323,-0.6460219025611877,-0.5864049196243286
1772708503287988500,5.700988525390625,-0.24676556885242462,-0.6135523915290833,-0.4696894586086273
1772708503298014500,5.711014404296875,-0.3068195879459381,-0.41478654742240906,-0.40818217396736145
1772708503308040400,5.72104052734375,-0.4069232940673828,-0.0804828554391861,-0.22815434634685516
1772708503318066400,5.73106640625,-0.39459073543548584,0.18057963252067566,0.00395585922524333
1772708503328092400,5.741092529296875,-0.26634833216667175,0.4733337461948395,0.23854945600032806
1772708503338118400,5.751118408203125,-0.06332597881555557,0.7291601896286011,0.44983986020088196
1772708503348144400,5.761144287109375,0.15631291270256042,0.9736828207969666,0.5910968780517578
1772708503358170400,5.77117041015625,0.36392948031425476,1.2413408756256104,0.662373423576355
1772708503368195300,5.7811953125,0.594228208065033,1.5555342435836792,0.6676925420761108
1772708503378221300,5.79122119140625,0.8642253279685974,1.8824087381362915,0.6335945129394531
1772708503388247300,5.801247314453125,1.067205548286438,2.1864240169525146,0.5797560214996338
1772708503398273300,5.811273193359375,1.158955454826355,2.4793670177459717,0.5617762804031372
1772708503408300300,5.82130029296875,1.1681429147720337,2.9489195346832275,0.6314855813980103
1772708503418326300,5.831326171875,1.215564489364624,3.264723062515259,0.7667179703712463
1772708503428352300,5.841352294921875,1.3629238605499268,2.694589614868164,0.7838902473449707
1772708503438378200,5.851378173828125,1.5223156213760376,0.7975882291793823,0.38744866847991943
1772708503448404200,5.861404296875,1.5528138875961304,-0.3962844908237457,0.2744930684566498
1772708503458430200,5.87143017578125,1.4678750038146973,-1.0124059915542603,0.48151975870132446
1772708503468456200,5.881456298828125,1.3099710941314697,-1.3644803762435913,0.8518711924552917
1772708503478481400,5.8914814453125,1.1200584173202515,-1.7176369428634644,1.2840969562530518
1772708503488507400,5.90150732421875,0.8889671564102173,-1.9346363544464111,1.7031469345092773
1772708503498533400,5.911533447265625,0.6102609634399414,-1.9019473791122437,2.0788662433624268
1772708503508559000,5.92155908203125,0.3121456503868103,-1.5217483043670654,2.374281644821167
1772708503518585300,5.93158544921875,0.03939640894532204,-0.8726369142532349,2.575500726699829
1772708503528611300,5.941611328125,-0.11020320653915405,-0.22385253012180328,2.6590075492858887
1772708503538637300,5.95163720703125,-0.06464051455259323,0.05901698023080826,2.583824872970581
1772708503548663300,5.961663330078125,0.1236303299665451,-0.10125524550676346,2.361417531967163
1772708503558689300,5.971689208984375,0.2543768882751465,-0.5173667073249817,2.1389734745025635
1772708503568715300,5.98171533203125,0.1394931823015213,-0.8809007406234741,1.9672768115997314
1772708503578740500,5.991740478515625,-0.23861949145793915,-0.974539577960968,1.8172370195388794
1772708503588766500,6.001766357421875,-0.614989161491394,-0.4188680946826935,1.73739755153656
1772708503598792200,6.011792236328125,-0.7249465584754944,0.7037781476974487,1.702150583267212
1772708503608818200,6.021818115234375,-0.7077928185462952,1.5682159662246704,1.3437930345535278
1772708503618844200,6.03184423828125,-0.8044530749320984,1.7983168363571167,0.5040647387504578
1772708503628870100,6.0418701171875,-1.1727062463760376,1.2858697175979614,-0.7966734766960144
1772708503638896000,6.051896240234375,-1.8270009756088257,0.3716539740562439,-2.314027786254883
1772708503648922400,6.06192236328125,-2.0018441677093506,-0.07864021509885788,-3.3053321838378906
1772708503658948400,6.0719482421875,-1.3367489576339722,-0.030525151640176773,-3.6025233268737793
1772708503668974300,6.081974365234375,-0.29726311564445496,0.41653117537498474,-3.4082350730895996
1772708503678999300,6.091999267578125,0.6095868945121765,1.0935271978378296,-2.6420886516571045
1772708503689025300,6.102025390625,1.1878199577331543,1.5987235307693481,-1.4370789527893066
1772708503699051300,6.11205126953125,1.373244047164917,1.5098456144332886,-0.18761037290096283
1772708503709077200,6.1220771484375,1.079825520515442,0.8978917002677917,0.832658052444458
1772708503719103200,6.132103271484375,0.39927735924720764,0.05534661188721657,1.6272931098937988
1772708503729129200,6.142129150390625,-0.21139320731163025,-0.6645865440368652,2.1389713287353516
1772708503739155200,6.1521552734375,-0.5715063810348511,-1.118519902229309,2.3425893783569336
1772708503749181200,6.16218115234375,-0.5938316583633423,-1.189667820930481,2.221808433532715
1772708503759207200,6.172207275390625,-0.37705832719802856,-0.7173951268196106,1.7925204038619995
1772708503769233200,6.182233154296875,-0.07432616502046585,0.09696809202432632,1.1905088424682617
1772708503779258400,6.19225830078125,0.2309245616197586,0.9867373704910278,0.5992051362991333
1772708503789284400,6.202284423828125,0.5275980234146118,1.7206406593322754,0.13687555491924286
1772708503799310300,6.212310302734375,0.7986084818840027,2.154304027557373,-0.09073229879140854
1772708503809336300,6.22233642578125,0.9114394187927246,2.0969440937042236,-0.13543133437633514
1772708503819362300,6.2323623046875,0.8853386044502258,1.697947382926941,0.01380795706063509
1772708503829388300,6.24238818359375,0.707054615020752,1.1603916883468628,0.25695323944091797
1772708503839414300,6.252414306640625,0.46780553460121155,0.6854944825172424,0.52638179063797
1772708503849440300,6.262440185546875,0.26245877146720886,0.3970871567726135,0.7262493371963501
1772708503859466200,6.27246630859375,0.16503795981407166,0.30545926094055176,0.7982699871063232
1772708503869492200,6.2824921875,0.16331195831298828,0.22342243790626526,0.729997992515564
1772708503879517400,6.292517333984375,0.23977237939834595,0.048708152025938034,0.5970863103866577
1772708503889543200,6.302543212890625,0.3630775511264801,-0.1658632755279541,0.48094186186790466
1772708503899569200,6.312569091796875,0.458280473947525,-0.3415472209453583,0.36371004581451416
1772708503909595100,6.32259521484375,0.4968204200267792,-0.3795185685157776,0.2169240564107895
1772708503919621000,6.33262109375,0.4763108789920807,-0.2984463572502136,0.03376435488462448
1772708503929647400,6.3426474609375,0.4082082509994507,-0.15050402283668518,-0.16076704859733582
1772708503939673300,6.35267333984375,0.32555651664733887,0.0775832086801529,-0.2919658124446869
1772708503949699300,6.36269921875,0.2231561243534088,0.288860559463501,-0.3322109580039978
1772708503959725300,6.372725341796875,0.10813472419977188,0.3015553057193756,-0.2707827687263489
1772708503969751300,6.382751220703125,0.016620788723230362,0.1722596436738968,-0.12767380475997925
1772708503979776300,6.3927763671875,-0.05084959790110588,-0.017060741782188416,-0.013036706484854221
1772708503989802200,6.40280224609375,-0.0903320237994194,-0.2417742758989334,0.032704949378967285
1772708503999828200,6.412828125,-0.09160394966602325,-0.4171261191368103,0.03831649571657181
1772708504009854200,6.422854248046875,-0.04392298310995102,-0.44162002205848694,0.0426100455224514
1772708504019880200,6.432880126953125,0.03543495759367943,-0.29252347350120544,0.04336558282375336
1772708504029906200,6.44290625,0.11609251797199249,-0.07026324421167374,0.02527552843093872
1772708504039932200,6.45293212890625,0.18878217041492462,0.12177969515323639,0.0019659455865621567
1772708504049958100,6.462958251953125,0.24344541132450104,0.21915392577648163,-0.012389292009174824
1772708504059984400,6.472984375,0.27649205923080444,0.2239721119403839,-0.003885552054271102
1772708504070010400,6.48301025390625,0.2584938704967499,0.13684174418449402,0.03139147907495499
1772708504080035300,6.493035400390625,0.17911143600940704,-0.019753465428948402,0.11111506819725037
1772708504090061300,6.503061279296875,0.09335391223430634,-0.19012174010276794,0.26204466819763184
1772708504100087300,6.51308740234375,0.03344877064228058,-0.33230629563331604,0.43322041630744934
1772708504110113300,6.52311328125,-0.011565043590962887,-0.4148520529270172,0.574211061000824
1772708504120139300,6.53313916015625,-0.034034665673971176,-0.395108163356781,0.6580377817153931
1772708504130165200,6.543165283203125,-0.02660311572253704,-0.2794031500816345,0.6601017713546753
1772708504140191200,6.553191162109375,0.03910452499985695,-0.10310667753219604,0.5760462880134583
1772708504150217200,6.56321728515625,0.1372784972190857,0.08494605123996735,0.4080846905708313
1772708504160243200,6.5732431640625,0.2248847782611847,0.2310105860233307,0.17220452427864075
1772708504170269200,6.583269287109375,0.26832225918769836,0.3247770071029663,-0.07344599068164825
1772708504180294400,6.59329443359375,0.266143798828125,0.36987364292144775,-0.2733106315135956
1772708504190320000,6.603320068359375,0.22952133417129517,0.3751150369644165,-0.3725506663322449
1772708504200346000,6.61334619140625,0.17891356348991394,0.3392166793346405,-0.3700576722621918
1772708504210372400,6.623372314453125,0.13825348019599915,0.29623326659202576,-0.2706807553768158
1772708504220398300,6.6333984375,0.10723431408405304,0.24364355206489563,-0.12627777457237244
1772708504230424300,6.64342431640625,0.09117944538593292,0.17551802098751068,0.020840566605329514
1772708504240450300,6.6534501953125,0.08956583589315414,0.11030440032482147,0.12697605788707733
1772708504250476300,6.663476318359375,0.08425069600343704,0.07754059880971909,0.13419748842716217
1772708504260502300,6.673502197265625,0.06953833252191544,0.07212479412555695,0.055687230080366135
1772708504270528300,6.6835283203125,0.043778106570243835,0.1035144105553627,-0.0584915392100811
1772708504280553200,6.69355322265625,0.00714792450889945,0.097086600959301,-0.17097626626491547
1772708504290579200,6.7035791015625,-0.021102888509631157,0.09136879444122314,-0.2184242159128189
1772708504300605200,6.713605224609375,-0.05769072845578194,0.023874172940850258,-0.22695884108543396
1772708504310631200,6.723631103515625,-0.10107149183750153,-0.11214358359575272,-0.19589146971702576
1772708504320657200,6.7336572265625,-0.1449553221464157,-0.23899607360363007,0.11466612666845322
1772708504330683100,6.74368310546875,-0.060089170932769775,-0.6708739995956421,0.11385545879602432
1772708504340709400,6.75370947265625,0.11214970797300339,-0.6002815365791321,0.2235659807920456
1772708504350735400,6.7637353515625,0.21662871539592743,-0.4041229784488678,0.36191532015800476
1772708504360761300,6.77376123046875,0.305891215801239,-0.19411061704158783,0.35714268684387207
1772708504370787300,6.783787353515625,0.33783823251724243,0.008945824578404427,0.19248954951763153
1772708504380812300,6.793812255859375,0.3057849407196045,0.22745072841644287,0.024196682497859
1772708504390838300,6.80383837890625,0.2721281945705414,0.4098634123802185,-0.11527599394321442
