time,seconds_elapsed,z,y,x
1772708470034452200,0.0514521484375,-0.890167236328125,-0.4557342529296875,-0.064910888671875
1772708470044478200,0.061478271484375,-0.885162353515625,-0.464263916015625,-0.0745697021484375
1772708470054504200,0.071504150390625,-0.8773345947265625,-0.4767608642578125,-0.0789642333984375
1772708470064530200,0.0815302734375,-0.8662109375,-0.477935791015625,-0.0745849609375
1772708470074556200,0.09155615234375,-0.857513427734375,-0.475372314453125,-0.07073974609375
1772708470084582100,0.10158203125,-0.8525390625,-0.4701995849609375,-0.0534515380859375
1772708470094608400,0.1116083984375,-0.8474884033203125,-0.4640960693359375,-0.03375244140625
1772708470104634400,0.12163427734375,-0.84423828125,-0.4571990966796875,-0.0209808349609375
1772708470114660400,0.131660400390625,-0.84344482421875,-0.4496307373046875,-0.01153564453125
1772708470124687000,0.14168701171875,-0.84246826171875,-0.44610595703125,-0.00341796875
1772708470134713000,0.151713134765625,-0.828369140625,-0.446563720703125,0.00128173828125
1772708470144739000,0.161739013671875,-0.8101043701171875,-0.4507598876953125,0.0040130615234375
1772708470154765000,0.17176513671875,-0.7995758056640625,-0.4611968994140625,0.0064239501953125
1772708470164791000,0.181791015625,-0.792694091796875,-0.4690399169921875,0.0064697265625
1772708470174817000,0.191817138671875,-0.7909393310546875,-0.4735565185546875,0.003936767578125
1772708470184843300,0.20184326171875,-0.794921875,-0.4735107421875,0.0069732666015625
1772708470194869200,0.211869140625,-0.8031768798828125,-0.4746856689453125,0.010498046875
1772708470204895200,0.221895263671875,-0.8148956298828125,-0.4720458984375,0.0105133056640625
1772708470214921200,0.231921142578125,-0.821441650390625,-0.466888427734375,0.012237548828125
1772708470224947200,0.241947265625,-0.8270721435546875,-0.462371826171875,0.0186004638671875
1772708470234973200,0.25197314453125,-0.8303375244140625,-0.4594268798828125,0.016357421875
1772708470244999200,0.261999267578125,-0.8345184326171875,-0.45989990234375,0.0151824951171875
1772708470255025200,0.272025146484375,-0.8487701416015625,-0.45672607421875,0.0100250244140625
1772708470265051100,0.282051025390625,-0.8670501708984375,-0.453704833984375,0.0035247802734375
1772708470275077000,0.2920771484375,-0.8867034912109375,-0.451171875,-0.006195068359375
1772708470285103000,0.30210302734375,-0.9044952392578125,-0.4445953369140625,-0.0123291015625
1772708470295129300,0.31212939453125,-0.918548583984375,-0.4342193603515625,-0.00994873046875
1772708470305155300,0.3221552734375,-0.9331512451171875,-0.4267425537109375,-0.0021209716796875
1772708470315181300,0.332181396484375,-0.9413604736328125,-0.417938232421875,0.0029449462890625
1772708470325207300,0.342207275390625,-0.94049072265625,-0.4108123779296875,0.0102081298828125
1772708470335233300,0.3522333984375,-0.930084228515625,-0.410980224609375,0.0161285400390625
1772708470345259300,0.36225927734375,-0.9109039306640625,-0.4122467041015625,0.02685546875
1772708470355285200,0.37228515625,-0.8818206787109375,-0.416595458984375,0.037994384765625
1772708470365311200,0.382311279296875,-0.8579864501953125,-0.425811767578125,0.043975830078125
1772708470375337200,0.392337158203125,-0.839019775390625,-0.433685302734375,0.04498291015625
1772708470385363200,0.40236328125,-0.822052001953125,-0.4371490478515625,0.04296875
1772708470395390200,0.41239013671875,-0.8102569580078125,-0.439056396484375,0.040069580078125
1772708470405416200,0.422416259765625,-0.8063201904296875,-0.4438934326171875,0.041595458984375
1772708470415442200,0.432442138671875,-0.8065643310546875,-0.4473419189453125,0.043548583984375
1772708470425468200,0.44246826171875,-0.8073883056640625,-0.4435882568359375,0.0501708984375
1772708470435494100,0.452494140625,-0.8133392333984375,-0.4411468505859375,0.0535736083984375
1772708470445520100,0.46252001953125,-0.8299713134765625,-0.438323974609375,0.05401611328125
1772708470455546000,0.472546142578125,-0.8428802490234375,-0.431793212890625,0.0544891357421875
1772708470465572000,0.482572021484375,-0.8612060546875,-0.4223175048828125,0.05426025390625
1772708470475598000,0.49259814453125,-0.88140869140625,-0.422882080078125,0.0512542724609375
1772708470485624300,0.502624267578125,-0.902923583984375,-0.4208526611328125,0.047088623046875
1772708470495650300,0.512650390625,-0.916046142578125,-0.4181365966796875,0.03936767578125
1772708470505676300,0.52267626953125,-0.91796875,-0.417999267578125,0.032501220703125
1772708470515702300,0.532702392578125,-0.9140472412109375,-0.41680908203125,0.0283203125
1772708470525728300,0.542728271484375,-0.9116668701171875,-0.417144775390625,0.0256195068359375
1772708470535754200,0.552754150390625,-0.913116455078125,-0.41888427734375,0.0254974365234375
1772708470545780200,0.5627802734375,-0.91986083984375,-0.414093017578125,0.0233154296875
1772708470555806200,0.57280615234375,-0.913909912109375,-0.401763916015625,0.015655517578125
1772708470565832200,0.582832275390625,-0.901275634765625,-0.387664794921875,0.01092529296875
1772708470575858200,0.592858154296875,-0.8903045654296875,-0.3761138916015625,0.0115966796875
1772708470585884200,0.60288427734375,-0.8774871826171875,-0.3669891357421875,0.016204833984375
1772708470595910400,0.612910400390625,-0.864044189453125,-0.3576202392578125,0.0190887451171875
1772708470605936400,0.622936279296875,-0.845489501953125,-0.341461181640625,0.0178680419921875
1772708470615962400,0.63296240234375,-0.82159423828125,-0.326080322265625,0.0170745849609375
1772708470625988400,0.64298828125,-0.7939300537109375,-0.3085479736328125,0.018402099609375
1772708470636014300,0.653014404296875,-0.77325439453125,-0.2902069091796875,0.024017333984375
1772708470646040300,0.663040283203125,-0.754638671875,-0.267669677734375,0.029693603515625
1772708470656066300,0.67306640625,-0.74029541015625,-0.2433319091796875,0.0318450927734375
1772708470666092000,0.683092041015625,-0.7337188720703125,-0.2214508056640625,0.030059814453125
1772708470676119000,0.693119140625,-0.7346343994140625,-0.2035369873046875,0.017578125
1772708470686145300,0.703145263671875,-0.7230377197265625,-0.1891937255859375,0.017669677734375
1772708470696171300,0.713171142578125,-0.7101898193359375,-0.1774749755859375,0.024200439453125
1772708470706197200,0.723197265625,-0.69439697265625,-0.169830322265625,0.0276336669921875
1772708470716223200,0.73322314453125,-0.6704559326171875,-0.160552978515625,0.0306396484375
1772708470726249200,0.743249267578125,-0.6441192626953125,-0.1582183837890625,0.03399658203125
1772708470736275200,0.753275146484375,-0.62249755859375,-0.1668548583984375,0.0352325439453125
1772708470746301200,0.76330126953125,-0.610321044921875,-0.18316650390625,0.0327606201171875
1772708470756327200,0.7733271484375,-0.6106719970703125,-0.2047271728515625,0.0299835205078125
1772708470766353200,0.783353271484375,-0.642791748046875,-0.241455078125,0.0230255126953125
1772708470776379100,0.793379150390625,-0.68499755859375,-0.2818603515625,-0.0040130615234375
1772708470786405000,0.803405029296875,-0.71575927734375,-0.3312530517578125,-0.0316009521484375
1772708470796431400,0.813431396484375,-0.76190185546875,-0.395294189453125,-0.0543975830078125
1772708470806457300,0.823457275390625,-0.810455322265625,-0.457244873046875,-0.061309814453125
1772708470816483300,0.8334833984375,-0.8639984130859375,-0.513763427734375,-0.0457916259765625
1772708470826509300,0.84350927734375,-0.9156646728515625,-0.5808563232421875,-0.029815673828125
1772708470836535300,0.853535400390625,-0.9975738525390625,-0.6641387939453125,-0.0088043212890625
1772708470846561300,0.863561279296875,-1.169342041015625,-0.7507781982421875,0.01458740234375
1772708470856587300,0.873587158203125,-1.4097442626953125,-0.8001556396484375,-0.0130157470703125
1772708470866613200,0.88361328125,-1.6349639892578125,-0.7810516357421875,-0.091400146484375
1772708470876639200,0.89363916015625,-1.8276519775390625,-0.7706451416015625,-0.1574859619140625
1772708470886665200,0.903665283203125,-1.8736114501953125,-0.777557373046875,-0.1715850830078125
1772708470896691200,0.913691162109375,-1.7749481201171875,-0.80181884765625,-0.0998687744140625
1772708470906717200,0.92371728515625,-1.6915283203125,-0.849151611328125,0.0298614501953125
1772708470916743200,0.9337431640625,-1.7178802490234375,-0.90081787109375,0.156494140625
1772708470926769200,0.94376904296875,-1.8463897705078125,-0.930938720703125,0.175445556640625
1772708470936795100,0.953795166015625,-2.0001983642578125,-0.915679931640625,0.1182403564453125
1772708470955593200,0.97259326171875,-2.1863555908203125,-0.8934478759765625,0.0204315185546875
1772708470965619200,0.982619140625,-2.2405853271484375,-0.8721160888671875,-0.077545166015625
1772708470975646200,0.992646240234375,-2.2462158203125,-0.8243408203125,-0.173248291015625
1772708470985672200,1.002672119140625,-2.160552978515625,-0.745697021484375,-0.217498779296875
1772708470995698200,1.0126982421875,-1.961761474609375,-0.6552734375,-0.192047119140625
1772708471005724200,1.02272412109375,-1.686309814453125,-0.5852813720703125,-0.15496826171875
1772708471015750100,1.032750244140625,-1.4144439697265625,-0.5576934814453125,-0.1151275634765625
1772708471025776000,1.042776123046875,-1.2115478515625,-0.5782470703125,-0.0295257568359375
1772708471035802000,1.052802001953125,-1.097808837890625,-0.613922119140625,0.0109710693359375
1772708471045828000,1.062828125,-1.0590362548828125,-0.6409454345703125,-0.0057220458984375
1772708471055854000,1.07285400390625,-1.062652587890625,-0.660491943359375,-0.032379150390625
1772708471065880300,1.08288037109375,-1.1193084716796875,-0.6659393310546875,-0.0779266357421875
1772708471075906300,1.09290625,-1.1551666259765625,-0.682098388671875,-0.09844970703125
1772708471085932300,1.102932373046875,-1.124755859375,-0.62200927734375,-0.1160888671875
1772708471095958300,1.112958251953125,-1.045989990234375,-0.5182037353515625,-0.133697509765625
1772708471105984300,1.122984375,-0.9324188232421875,-0.430633544921875,-0.1292572021484375
1772708471116010200,1.13301025390625,-0.774871826171875,-0.3726348876953125,-0.1439971923828125
1772708471126036200,1.1430361328125,-0.5664215087890625,-0.3485260009765625,-0.136566162109375
1772708471136062200,1.153062255859375,-0.38763427734375,-0.271636962890625,-0.0365142822265625
1772708471146088200,1.163088134765625,-0.2582550048828125,-0.228851318359375,0.0487518310546875
1772708471156114200,1.1731142578125,-0.1598968505859375,-0.2633514404296875,0.0862579345703125
1772708471166140200,1.18314013671875,-0.0874786376953125,-0.2572174072265625,0.099395751953125
1772708471176166400,1.19316650390625,-0.0396881103515625,-0.2276763916015625,0.084320068359375
1772708471186192400,1.2031923828125,-0.0363616943359375,-0.1944427490234375,0.0755157470703125
1772708471196218400,1.21321826171875,-0.069305419921875,-0.244140625,0.08856201171875
1772708471206244400,1.223244384765625,-0.122222900390625,-0.283233642578125,0.0764007568359375
1772708471216270300,1.233270263671875,-0.2052154541015625,-0.3233795166015625,0.0563201904296875
1772708471226296000,1.243296142578125,-0.3188629150390625,-0.4215850830078125,0.1790008544921875
1772708471236322000,1.253322021484375,-0.3943023681640625,-0.4210968017578125,0.262725830078125
1772708471246348000,1.26334814453125,-0.418182373046875,-0.36602783203125,0.241485595703125
1772708471256374000,1.2733740234375,-0.4136505126953125,-0.3081817626953125,0.205963134765625
1772708471266400000,1.28339990234375,-0.38116455078125,-0.234954833984375,0.1505889892578125
1772708471276427300,1.29342724609375,-0.341217041015625,-0.170806884765625,0.1063995361328125
1772708471286453200,1.303453369140625,-0.2659759521484375,-0.1231536865234375,0.0625762939453125
1772708471296479200,1.313479248046875,-0.2589874267578125,-0.1107330322265625,0.06817626953125
1772708471306505200,1.323505126953125,-0.5030059814453125,-0.123687744140625,0.1692962646484375
1772708471316531200,1.33353125,-0.2696533203125,-0.075897216796875,0.1054840087890625
1772708471326557200,1.34355712890625,-0.21026611328125,-0.07196044921875,0.0499420166015625
1772708471336583200,1.353583251953125,-0.18707275390625,-0.06689453125,0.0291900634765625
1772708471346609200,1.363609130859375,-0.0963287353515625,-0.0560760498046875,-0.006103515625
1772708471356635100,1.37363525390625,-0.0727081298828125,-0.079315185546875,0.0662689208984375
1772708471366661400,1.383661376953125,-0.0584869384765625,-0.1534271240234375,0.31365966796875
1772708471376687400,1.393687255859375,-0.0676422119140625,-0.1534423828125,0.4367828369140625
1772708471386713600,1.403713623046875,-0.2285308837890625,-0.0638885498046875,0.29095458984375
1772708471396739600,1.413739501953125,-0.3480682373046875,-0.00225830078125,0.0633392333984375
1772708471406765600,1.423765625,-0.30877685546875,0.044830322265625,-0.01702880859375
1772708471416791600,1.43379150390625,-0.32366943359375,0.0827178955078125,-0.05731201171875
1772708471426817500,1.443817626953125,-0.34130859375,0.0933380126953125,-0.120208740234375
1772708471436843500,1.453843505859375,-0.3554534912109375,0.102081298828125,-0.1329498291015625
1772708471446869200,1.463869140625,-0.365203857421875,0.0872955322265625,-0.1481475830078125
1772708471456895200,1.473895263671875,-0.40765380859375,0.037841796875,-0.1144256591796875
1772708471466921200,1.483921142578125,-0.500091552734375,-0.0802459716796875,0.020294189453125
1772708471476947200,1.493947265625,-0.59246826171875,-0.30596923828125,0.2595367431640625
1772708471486973400,1.503973388671875,-0.6253204345703125,-0.6097412109375,0.4748382568359375
1772708471496999400,1.51399951171875,-0.6730499267578125,-0.891387939453125,0.4684295654296875
1772708471507025400,1.524025390625,-0.701751708984375,-0.9501495361328125,0.1481781005859375
1772708471517051400,1.534051513671875,-0.7026519775390625,-1.025177001953125,-0.04248046875
1772708471527077400,1.544077392578125,-0.691253662109375,-1.434295654296875,0.208221435546875
1772708471537103400,1.554103271484375,-0.5951385498046875,-1.5399322509765625,0.1846160888671875
1772708471547129300,1.56412939453125,-0.7517547607421875,-1.3961029052734375,0.0781097412109375
1772708471557155300,1.5741552734375,-1.28326416015625,-1.4896697998046875,0.2013397216796875
1772708471567181300,1.584181396484375,-1.8551788330078125,-1.4542388916015625,0.1304779052734375
1772708471577207300,1.594207275390625,-2.3244476318359375,-1.28228759765625,-0.024169921875
1772708471587233300,1.6042333984375,-2.7105255126953125,-1.1538543701171875,-0.0748748779296875
1772708471597259500,1.614259521484375,-3.019287109375,-1.024444580078125,-0.0566864013671875
1772708471607286500,1.62428662109375,-3.2120361328125,-0.9011993408203125,-0.04144287109375
1772708471617312500,1.6343125,-3.2540435791015625,-0.808441162109375,-0.0221710205078125
1772708471627338500,1.64433837890625,-3.1482696533203125,-0.7401885986328125,0.0370635986328125
1772708471637364500,1.654364501953125,-2.9171905517578125,-0.7302093505859375,0.1615447998046875
1772708471647390500,1.664390380859375,-2.5452880859375,-0.7322845458984375,0.2501068115234375
1772708471657416400,1.67441650390625,-2.1284027099609375,-0.7046661376953125,0.2730560302734375
1772708471667442400,1.6844423828125,-1.7603607177734375,-0.703887939453125,0.2159576416015625
1772708471677468400,1.694468505859375,-1.4788665771484375,-0.735198974609375,0.1094207763671875
1772708471687494400,1.704494384765625,-1.265899658203125,-0.7140350341796875,0.028228759765625
1772708471697520400,1.714520263671875,-1.099853515625,-0.5754241943359375,-0.04852294921875
1772708471707546400,1.72454638671875,-1.0209503173828125,-0.3934478759765625,-0.0999603271484375
1772708471717572400,1.734572265625,-1.014862060546875,-0.2229766845703125,-0.145538330078125
1772708471727598300,1.744598388671875,-1.0472869873046875,-0.0868988037109375,-0.19134521484375
1772708471737624300,1.754624267578125,-1.042449951171875,-0.0198974609375,-0.198974609375
1772708471747650300,1.764650390625,-0.92034912109375,0.020538330078125,-0.185333251953125
1772708471757676300,1.77467626953125,-0.688629150390625,0.03515625,-0.209930419921875
1772708471767702300,1.784702392578125,-0.4720001220703125,0.01715087890625,-0.2188568115234375
1772708471777728300,1.794728271484375,-0.3072967529296875,-0.017913818359375,-0.1552276611328125
1772708471787754200,1.804754150390625,-0.1568450927734375,-0.0416412353515625,-0.0386810302734375
1772708471797780500,1.814780517578125,-0.0116119384765625,-0.055206298828125,0.0516357421875
1772708471807806500,1.824806396484375,0.111297607421875,-0.058349609375,0.1064605712890625
1772708471817832400,1.83483251953125,0.1667633056640625,-0.0568389892578125,0.1275177001953125
1772708471827858400,1.8448583984375,0.1312255859375,-0.0216064453125,0.1828155517578125
1772708471837884400,1.854884521484375,0.046142578125,-0.0317230224609375,0.1887664794921875
1772708471847910400,1.864910400390625,-0.03839111328125,-0.086212158203125,0.122283935546875
1772708471857936400,1.874936279296875,-0.13018798828125,-0.1257781982421875,0.054351806640625
1772708471867962400,1.88496240234375,-0.187896728515625,-0.13592529296875,-0.002899169921875
1772708471877988400,1.89498828125,-0.21246337890625,-0.1415557861328125,-0.0191650390625
1772708471888014300,1.905014404296875,-0.2111663818359375,-0.1663360595703125,-0.0135040283203125
1772708471898040300,1.915040283203125,-0.189849853515625,-0.207183837890625,-0.031494140625
1772708471908066600,1.925066650390625,-0.1588287353515625,-0.2531585693359375,-0.0239715576171875
1772708471918092500,1.935092529296875,-0.1257171630859375,-0.2909088134765625,0.0139007568359375
1772708471928119300,1.945119384765625,-0.11700439453125,-0.3135223388671875,0.0635223388671875
1772708471938145300,1.955145263671875,-0.1416473388671875,-0.3144378662109375,0.1139678955078125
1772708471948171300,1.965171142578125,-0.1751251220703125,-0.2880859375,0.1182403564453125
1772708471958197200,1.975197265625,-0.230438232421875,-0.264404296875,0.093780517578125
1772708471968223200,1.98522314453125,-0.2893218994140625,-0.2661285400390625,0.0446014404296875
1772708471978249200,1.995249267578125,-0.35565185546875,-0.2498321533203125,-0.0673065185546875
1772708471988275200,2.005275146484375,-0.4647216796875,-0.209228515625,-0.18896484375
1772708471998301400,2.015301513671875,-0.6094512939453125,-0.16461181640625,-0.2773895263671875
1772708472008327400,2.025327392578125,-0.7418365478515625,-0.1179351806640625,-0.3279876708984375
1772708472018353400,2.035353515625,-0.8236236572265625,-0.0782318115234375,-0.33221435546875
1772708472028379400,2.04537939453125,-0.813751220703125,-0.0511474609375,-0.285003662109375
1772708472038405400,2.0554052734375,-0.7215423583984375,-0.0160369873046875,-0.2188873291015625
1772708472048431400,2.065431396484375,-0.6103363037109375,0.0288543701171875,-0.162353515625
1772708472058457300,2.075457275390625,-0.51220703125,0.071990966796875,-0.1109619140625
1772708472068483300,2.0854833984375,-0.4673309326171875,0.09478759765625,-0.086395263671875
1772708472078509300,2.09550927734375,-0.498199462890625,0.106781005859375,-0.1241607666015625
1772708472088535300,2.105535400390625,-0.5877532958984375,0.1231231689453125,-0.1993865966796875
1772708472098561500,2.1155615234375,-0.7029876708984375,0.1238250732421875,-0.2882080078125
1772708472108587500,2.12558740234375,-0.899658203125,0.0750579833984375,-0.3252410888671875
1772708472118613500,2.135613525390625,-1.112274169921875,-0.0698394775390625,-0.2587432861328125
1772708472128639500,2.145639404296875,-1.2118072509765625,-0.3001708984375,-0.188812255859375
1772708472138665500,2.15566552734375,-1.2023468017578125,-0.710113525390625,-0.057464599609375
1772708472148691500,2.16569140625,-1.1682281494140625,-1.31671142578125,0.2613525390625
1772708472158717400,2.175717529296875,-0.9933929443359375,-1.760040283203125,0.431915283203125
1772708472168743400,2.185743408203125,-0.7395477294921875,-2.0692291259765625,0.438751220703125
1772708472178769400,2.195769287109375,-0.507293701171875,-2.495269775390625,0.55511474609375
1772708472188795400,2.20579541015625,-0.4417572021484375,-2.3079833984375,0.3224945068359375
1772708472198821400,2.2158212890625,-0.785675048828125,-1.8732147216796875,0.021484375
1772708472208847600,2.22584765625,-1.3444366455078125,-1.6323699951171875,-0.1463775634765625
1772708472218873600,2.23587353515625,-2.0360260009765625,-1.301177978515625,-0.18902587890625
1772708472228900400,2.245900390625,-2.8549652099609375,-1.208892822265625,0.1555023193359375
1772708472238926300,2.25592626953125,-3.3205718994140625,-1.37811279296875,0.565185546875
1772708472248952300,2.265952392578125,-3.2557220458984375,-1.6231536865234375,0.69793701171875
1772708472258978300,2.275978271484375,-2.9440765380859375,-1.7905731201171875,0.5220794677734375
1772708472269004300,2.28600439453125,-2.680694580078125,-1.74603271484375,0.2714691162109375
1772708472279030300,2.2960302734375,-2.4546966552734375,-1.5010223388671875,0.0919036865234375
1772708472289056300,2.30605615234375,-2.2303314208984375,-1.24713134765625,0.016326904296875
1772708472299082500,2.31608251953125,-1.839935302734375,-0.990234375,0.0346832275390625
1772708472309108500,2.3261083984375,-1.4468994140625,-0.7403106689453125,-0.0749969482421875
1772708472319134500,2.336134521484375,-1.2672271728515625,-0.5465087890625,-0.3533782958984375
1772708472329160400,2.346160400390625,-1.2259368896484375,-0.426177978515625,-0.557708740234375
1772708472339186400,2.3561865234375,-1.083831787109375,-0.290008544921875,-0.6680908203125
1772708472349212400,2.36621240234375,-0.8740081787109375,-0.1760406494140625,-0.71630859375
1772708472359238400,2.37623828125,-0.6322174072265625,-0.107177734375,-0.63201904296875
1772708472369264400,2.386264404296875,-0.390594482421875,0.0160064697265625,-0.451385498046875
1772708472379289600,2.39628955078125,-0.184356689453125,0.1177825927734375,-0.1303253173828125
1772708472389315600,2.406315673828125,-0.009307861328125,0.18487548828125,0.1817626953125
1772708472399341600,2.416341552734375,0.122406005859375,0.24029541015625,0.3721923828125
1772708472409367600,2.426367431640625,0.1952667236328125,0.2633514404296875,0.4495697021484375
1772708472419393500,2.4363935546875,0.2158966064453125,0.24615478515625,0.420623779296875
1772708472429419500,2.44641943359375,0.1929473876953125,0.2017669677734375,0.2977752685546875
1772708472439445500,2.456445556640625,0.159027099609375,0.1570587158203125,0.1625213623046875
1772708472449471500,2.466471435546875,0.114288330078125,0.1097412109375,0.0308685302734375
1772708472459497700,2.476497802734375,0.039642333984375,0.04241943359375,-0.0454254150390625
1772708472469523700,2.486523681640625,-0.0220489501953125,-0.03204345703125,-0.0402374267578125
1772708472479549700,2.4965498046875,-0.0573272705078125,-0.0806427001953125,-0.0125885009765625
1772708472489575700,2.50657568359375,-0.05889892578125,-0.1200103759765625,0.0488433837890625
1772708472499601700,2.5166015625,-0.0161285400390625,-0.142242431640625,0.1231689453125
1772708472509628400,2.52662841796875,0.0538482666015625,-0.133270263671875,0.21038818359375
1772708472519654400,2.536654296875,0.095611572265625,-0.1294403076171875,0.2713623046875
1772708472529680400,2.546680419921875,-0.1107635498046875,-0.1756134033203125,0.3142242431640625
1772708472539706400,2.556706298828125,-0.2263336181640625,-0.309326171875,0.2392578125
1772708472549732600,2.566732666015625,-0.2324676513671875,-0.29803466796875,0.02203369140625
1772708472559758600,2.576758544921875,-0.16705322265625,-0.2981414794921875,-0.07672119140625
1772708472569784600,2.58678466796875,-0.1044464111328125,-0.337738037109375,-0.12286376953125
1772708472579810600,2.596810546875,-0.0644989013671875,-0.2987060546875,-0.1964111328125
1772708472589836500,2.60683642578125,-0.073455810546875,-0.2649993896484375,-0.2207489013671875
1772708472599862500,2.616862548828125,-0.112396240234375,-0.2304229736328125,-0.2375030517578125
1772708472609888500,2.626888427734375,-0.1475067138671875,-0.1711883544921875,-0.2347869873046875
1772708472619914500,2.63691455078125,-0.2387542724609375,-0.0820465087890625,-0.220245361328125
1772708472629940500,2.6469404296875,-0.3455352783203125,0.0030975341796875,-0.2044219970703125
1772708472639966500,2.656966552734375,-0.478546142578125,0.0570526123046875,-0.20965576171875
1772708472649992400,2.666992431640625,-0.6758575439453125,0.0703277587890625,-0.2336578369140625
1772708472660018700,2.677018798828125,-0.52215576171875,0.0584869384765625,-0.242523193359375
1772708472670044700,2.687044677734375,-0.5465087890625,0.0169219970703125,-0.29296875
1772708472680070700,2.697070556640625,-0.569061279296875,0.0226593017578125,-0.2997283935546875
1772708472690096600,2.7070966796875,-0.561004638671875,0.0438385009765625,-0.31256103515625
1772708472700122600,2.71712255859375,-0.576416015625,0.05615234375,-0.3663330078125
1772708472710148600,2.727148681640625,-0.5922088623046875,0.053009033203125,-0.46087646484375
1772708472720174600,2.737174560546875,-0.68817138671875,0.0440826416015625,-0.5436553955078125
1772708472730200600,2.74720068359375,-0.8421630859375,0.003173828125,-0.599456787109375
1772708472740226600,2.7572265625,-1.032379150390625,-0.2183074951171875,-0.6142578125
1772708472750252500,2.76725244140625,-1.2854156494140625,-0.6949920654296875,-0.517852783203125
1772708472760278500,2.777278564453125,-1.47467041015625,-1.2608489990234375,-0.369873046875
1772708472770304800,2.7873046875,-1.417449951171875,-1.6432952880859375,-0.4697723388671875
1772708472780330800,2.797330810546875,-1.3571624755859375,-1.789642333984375,-0.7651519775390625
1772708472790356700,2.807356689453125,-1.6627960205078125,-1.8231964111328125,-0.9430389404296875
1772708472800383500,2.817383544921875,-2.0927276611328125,-1.076507568359375,-1.4097900390625
1772708472810409500,2.827409423828125,-2.6785736083984375,-0.4660797119140625,-1.4339752197265625
1772708472820435500,2.837435546875,-3.20855712890625,-0.226593017578125,-1.1454925537109375
1772708472830461400,2.84746142578125,-3.6988677978515625,-0.1641845703125,-0.6878814697265625
1772708472840487400,2.8574873046875,-4.1672210693359375,-0.44293212890625,-0.0782470703125
1772708472850513400,2.867513427734375,-4.3246307373046875,-0.7549591064453125,0.0971221923828125
1772708472860539600,2.87753955078125,-4.0780792236328125,-0.9169769287109375,-0.314056396484375
1772708472870565600,2.887565673828125,-3.586883544921875,-0.8975830078125,-0.8518218994140625
1772708472880591600,2.897591552734375,-3.0599517822265625,-0.8264312744140625,-1.088897705078125
1772708472890617600,2.90761767578125,-2.554534912109375,-0.776031494140625,-0.926849365234375
1772708472900643600,2.9176435546875,-2.072998046875,-0.6921234130859375,-0.511871337890625
1772708472910669600,2.927669677734375,-1.6255950927734375,-0.5469512939453125,-0.0903778076171875
1772708472920695600,2.937695556640625,-1.238525390625,-0.40325927734375,0.115753173828125
1772708472930721500,2.947721435546875,-0.9556732177734375,-0.2529754638671875,0.1375885009765625
1772708472940747500,2.95774755859375,-0.8318023681640625,-0.097198486328125,0.1685943603515625
1772708472950773500,2.9677734375,-0.847625732421875,0.0733795166015625,0.2061004638671875
1772708472960799500,2.977799560546875,-0.8644256591796875,0.2092742919921875,0.2585906982421875
1772708472970825700,2.98782568359375,-0.74102783203125,0.302490234375,0.2781829833984375
1772708472980851700,2.997851806640625,-0.5391845703125,0.339569091796875,0.28521728515625
1772708472990877700,3.007877685546875,-0.2846527099609375,0.3162078857421875,0.29205322265625
1772708473000903700,3.017903564453125,-0.0265960693359375,0.2382354736328125,0.3115386962890625
1772708473010929700,3.0279296875,0.164459228515625,0.1193084716796875,0.3433380126953125
1772708473020955600,3.03795556640625,0.2855224609375,0.05389404296875,0.3268585205078125
1772708473030981600,3.047981689453125,0.2772064208984375,0.03875732421875,0.240875244140625
1772708473041007600,3.058007568359375,0.2236175537109375,0.055908203125,0.1217803955078125
1772708473051033600,3.06803369140625,0.20489501953125,0.0491943359375,-0.0068511962890625
1772708473061059600,3.0780595703125,0.2061920166015625,0.0457000732421875,-0.0859222412109375
1772708473071085600,3.08808544921875,0.1139373779296875,0.0665740966796875,-0.10955810546875
1772708473081112600,3.098112548828125,-0.1094818115234375,0.0756683349609375,-0.06634521484375
1772708473091138600,3.108138671875,-0.3700714111328125,0.109100341796875,0.0405120849609375
1772708473101164500,3.11816455078125,-0.5724334716796875,0.127410888671875,0.1904144287109375
1772708473111190500,3.1281904296875,-0.667144775390625,0.11920166015625,0.3027801513671875
1772708473121216500,3.138216552734375,-0.65606689453125,0.08770751953125,0.339141845703125
1772708473131242500,3.148242431640625,-0.58892822265625,0.032806396484375,0.3183441162109375
1772708473141268500,3.1582685546875,-0.479461669921875,-0.0256195068359375,0.27740478515625
1772708473151294500,3.16829443359375,-0.3708343505859375,-0.0558624267578125,0.22943115234375
1772708473161320700,3.17832080078125,-0.306549072265625,-0.0724945068359375,0.2033843994140625
1772708473171346700,3.1883466796875,-0.246368408203125,-0.0648193359375,0.1769866943359375
1772708473181372700,3.19837255859375,-0.17431640625,-0.0353851318359375,0.15313720703125
1772708473191398700,3.208398681640625,-0.114501953125,0.0097808837890625,0.115570068359375
1772708473201424600,3.218424560546875,-0.0872344970703125,0.0462493896484375,0.08514404296875
1772708473211450600,3.22845068359375,-0.1234588623046875,0.0877685546875,0.065216064453125
1772708473221476600,3.2384765625,-0.2108612060546875,0.1379241943359375,0.0458221435546875
1772708473231502600,3.248502685546875,-0.3007965087890625,0.183197021484375,0.0256805419921875
1772708473241528600,3.258528564453125,-0.3444976806640625,0.2064056396484375,-0.01068115234375
1772708473251554600,3.268554443359375,-0.3107147216796875,0.2029571533203125,-0.059417724609375
1772708473261580500,3.27858056640625,-0.2429351806640625,0.171112060546875,-0.102020263671875
1772708473271606800,3.288606689453125,-0.181488037109375,0.115264892578125,-0.15496826171875
1772708473281632800,3.2986328125,-0.1454010009765625,0.04656982421875,-0.204803466796875
1772708473291658800,3.30865869140625,-0.118804931640625,-0.0272216796875,-0.26922607421875
1772708473301684700,3.318684814453125,-0.06585693359375,0.048431396484375,-0.338134765625
1772708473311710700,3.328710693359375,-0.05010986328125,0.05078125,-0.3825531005859375
1772708473321736400,3.338736328125,-0.0748291015625,-0.0018768310546875,-0.44012451171875
1772708473331762400,3.348762451171875,-0.2098541259765625,-0.061279296875,-0.4847259521484375
1772708473341788400,3.358788330078125,-0.3912811279296875,-0.0822906494140625,-0.513031005859375
1772708473351814400,3.368814453125,-0.530426025390625,-0.133331298828125,-0.5280303955078125
1772708473361841700,3.378841552734375,-0.7482757568359375,-0.3541717529296875,-0.46173095703125
1772708473371867600,3.38886767578125,-1.1131744384765625,-0.813812255859375,-0.266387939453125
1772708473381894700,3.398894775390625,-1.4947509765625,-1.4423370361328125,0.1202545166015625
1772708473391920600,3.408920654296875,-1.5470428466796875,-1.9384002685546875,0.4208831787109375
1772708473401946600,3.418946533203125,-1.13958740234375,-2.23974609375,0.526123046875
1772708473411972600,3.42897265625,-0.61505126953125,-2.3014373779296875,0.355621337890625
1772708473421998600,3.43899853515625,-0.4105377197265625,-1.9253692626953125,0.129302978515625
1772708473432024600,3.449024658203125,-0.9493560791015625,-1.2957916259765625,0.14898681640625
1772708473442050600,3.459050537109375,-2.0605926513671875,-0.649261474609375,0.4487152099609375
1772708473452076500,3.46907666015625,-3.15545654296875,-0.4248809814453125,1.0771636962890625
1772708473462102500,3.4791025390625,-3.687408447265625,-0.51947021484375,1.3372650146484375
1772708473472128500,3.48912841796875,-3.9306488037109375,-0.5989837646484375,0.9619598388671875
1772708473482154500,3.499154541015625,-3.921051025390625,-0.4520263671875,0.386871337890625
1772708473492180500,3.509180419921875,-3.7810516357421875,-0.295623779296875,0.0493621826171875
1772708473502206500,3.51920654296875,-3.611328125,-0.160400390625,0.1383209228515625
1772708473512232400,3.529232421875,-3.086090087890625,-0.1177520751953125,0.34014892578125
1772708473522258400,3.539258544921875,-2.3587799072265625,-0.2165679931640625,0.365478515625
1772708473532284400,3.549284423828125,-1.5932464599609375,-0.2677001953125,0.277374267578125
1772708473542310400,3.559310302734375,-0.924468994140625,-0.1774444580078125,0.1782684326171875
1772708473552336400,3.56933642578125,-0.4781036376953125,0.0010223388671875,0.0315704345703125
1772708473562362400,3.5793623046875,-0.3360443115234375,0.234405517578125,-0.0637054443359375
1772708473572388600,3.589388671875,-0.568389892578125,0.430908203125,-0.017364501953125
1772708473582414600,3.59941455078125,-0.83990478515625,0.5612945556640625,0.140045166015625
1772708473592440600,3.609440673828125,-0.9435577392578125,0.5625152587890625,0.30218505859375
1772708473602466600,3.619466552734375,-0.915557861328125,0.41668701171875,0.38671875
1772708473612492500,3.629492431640625,-0.7171478271484375,0.31195068359375,0.34814453125
1772708473622518500,3.6395185546875,-0.4475555419921875,0.230133056640625,0.259429931640625
1772708473632544500,3.64954443359375,-0.1990509033203125,0.1890106201171875,0.187530517578125
1772708473642570500,3.659570556640625,-0.033538818359375,0.2039947509765625,0.16790771484375
1772708473652596500,3.669596435546875,0.0202789306640625,0.2228851318359375,0.190826416015625
1772708473662623700,3.679623779296875,0.0364532470703125,0.2244720458984375,0.17041015625
1772708473672649700,3.689649658203125,-0.0081024169921875,0.205352783203125,0.163909912109375
1772708473682675700,3.69967578125,-0.1298675537109375,0.1802215576171875,0.181854248046875
1772708473692701700,3.70970166015625,-0.2841644287109375,0.133941650390625,0.156494140625
1772708473702727700,3.719727783203125,-0.404205322265625,0.0805816650390625,0.1092071533203125
1772708473712753400,3.72975341796875,-0.4693603515625,0.040435791015625,0.1112213134765625
1772708473722779400,3.739779296875,-0.5272216796875,-0.0135955810546875,0.109161376953125
1772708473732805400,3.749805419921875,-0.5372161865234375,-0.0866851806640625,0.099700927734375
1772708473742831400,3.759831298828125,-0.445709228515625,-0.149169921875,0.065643310546875
1772708473752857300,3.769857421875,-0.3091278076171875,-0.2323455810546875,0.0029144287109375
1772708473762883300,3.77988330078125,-0.1767730712890625,-0.3216552734375,-0.0155487060546875
1772708473772909600,3.78990966796875,-0.0765533447265625,-0.3617095947265625,0.0080413818359375
1772708473782935600,3.799935546875,-0.028961181640625,-0.3624267578125,0.005584716796875
1772708473792961500,3.80996142578125,-0.010650634765625,-0.3169403076171875,-0.0282745361328125
1772708473802987500,3.819987548828125,-0.0069122314453125,-0.2342376708984375,-0.0153045654296875
1772708473813013500,3.830013427734375,-0.023468017578125,-0.1436004638671875,0.0329132080078125
1772708473823039500,3.84003955078125,-0.0598602294921875,-0.06243896484375,0.0709686279296875
1772708473833065500,3.8500654296875,-0.09027099609375,-0.005706787109375,0.1038818359375
1772708473843091500,3.860091552734375,-0.1168365478515625,0.0308837890625,0.1384735107421875
1772708473853117400,3.870117431640625,-0.174285888671875,0.05181884765625,0.1461639404296875
1772708473863143400,3.880143310546875,-0.25482177734375,0.0698089599609375,0.117523193359375
1772708473873169400,3.89016943359375,-0.3345794677734375,0.1085205078125,0.056060791015625
1772708473883195600,3.900195556640625,-0.429901123046875,0.1414031982421875,-0.03448486328125
1772708473893221600,3.9102216796875,-0.556854248046875,0.1748504638671875,-0.1614532470703125
1772708473903247600,3.92024755859375,-0.660125732421875,0.2063140869140625,-0.258148193359375
1772708473913273600,3.930273681640625,-0.698333740234375,0.242645263671875,-0.338470458984375
1772708473923299600,3.940299560546875,-0.70880126953125,0.2834320068359375,-0.462310791015625
1772708473933325600,3.95032568359375,-0.8157501220703125,0.2987518310546875,-0.570526123046875
1772708473943351600,3.9603515625,-1.009857177734375,0.318023681640625,-0.6108551025390625
1772708473953377500,3.97037744140625,-1.1761627197265625,0.3033294677734375,-0.59716796875
1772708473963403500,3.980403564453125,-1.2715606689453125,0.1903076171875,-0.494781494140625
1772708473973429500,3.990429443359375,-1.468597412109375,0.008819580078125,-0.3143157958984375
1772708473983456500,4.00045654296875,-1.7802581787109375,-0.281524658203125,-0.026153564453125
1772708473993482500,4.010482421875,-1.94329833984375,-0.4592437744140625,0.15771484375
1772708474003508500,4.020508544921875,-2.1016387939453125,-0.5301513671875,0.201446533203125
1772708474013534500,4.030534423828125,-2.4462432861328125,-0.6040191650390625,0.342193603515625
1772708474023560400,4.040560546875,-2.6887054443359375,-0.177734375,0.3442230224609375
1772708474033586400,4.05058642578125,-2.9371337890625,0.1109619140625,0.46307373046875
1772708474043612400,4.0606123046875,-3.1865997314453125,-0.1170501708984375,0.5877532958984375
1772708474053638400,4.070638427734375,-3.2393646240234375,-0.63330078125,0.7149658203125
1772708474063664400,4.080664306640625,-3.1258087158203125,-1.094451904296875,0.8082122802734375
1772708474073690400,4.0906904296875,-3.0514068603515625,-1.2781219482421875,0.6087188720703125
1772708474083716600,4.100716552734375,-2.908355712890625,-1.040130615234375,-0.071014404296875
1772708474093742600,4.11074267578125,-2.5529327392578125,-0.6700897216796875,-0.80999755859375
1772708474103768600,4.1207685546875,-2.5891876220703125,-0.4788970947265625,-1.333160400390625
1772708474113794600,4.130794677734375,-3.217132568359375,-0.1941680908203125,-1.2465057373046875
1772708474123820500,4.140820556640625,-3.4918670654296875,0.1035919189453125,-0.5382080078125
1772708474133846500,4.150846435546875,-3.2769622802734375,0.1452484130859375,0.113433837890625
1772708474143872500,4.16087255859375,-2.7528076171875,0.1707611083984375,0.297027587890625
1772708474153898500,4.1708984375,-2.1366729736328125,0.1967315673828125,0.1173553466796875
1772708474163924500,4.180924560546875,-1.5703582763671875,0.1252593994140625,-0.1374359130859375
1772708474173950500,4.190950439453125,-1.09405517578125,0.0806884765625,-0.3062896728515625
1772708474183976700,4.200976806640625,-0.664398193359375,0.0365142822265625,-0.3560028076171875
1772708474194002700,4.211002685546875,-0.301116943359375,0.02325439453125,-0.3196868896484375
1772708474204028700,4.221028564453125,-0.0420379638671875,0.0522613525390625,-0.1529083251953125
1772708474214054700,4.2310546875,0.180908203125,0.0997314453125,0.0390625
1772708474224080600,4.24108056640625,0.335296630859375,0.169464111328125,0.164093017578125
1772708474234106600,4.251106689453125,0.4220123291015625,0.2593994140625,0.2317962646484375
1772708474244132600,4.261132568359375,0.462310791015625,0.321380615234375,0.2342987060546875
1772708474254158600,4.27115869140625,0.4449462890625,0.3610992431640625,0.19677734375
1772708474264184600,4.2811845703125,0.3892059326171875,0.38250732421875,0.1856231689453125
1772708474274210600,4.29121044921875,0.3295135498046875,0.3746795654296875,0.1960296630859375
1772708474284236500,4.301236572265625,0.2687530517578125,0.3382720947265625,0.2108917236328125
1772708474294262500,4.311262451171875,0.215728759765625,0.2689208984375,0.2333221435546875
1772708474304288500,4.32128857421875,0.2044219970703125,0.1738128662109375,0.228240966796875
1772708474314315500,4.3313154296875,0.1831207275390625,0.065704345703125,0.2060546875
1772708474324341500,4.341341552734375,0.1620635986328125,-0.0391693115234375,0.23394775390625
1772708474334367500,4.351367431640625,0.1291351318359375,-0.0948638916015625,0.273712158203125
1772708474344393500,4.3613935546875,0.07781982421875,-0.1585845947265625,0.324310302734375
1772708474354419500,4.37141943359375,0.01995849609375,-0.2265472412109375,0.36602783203125
1772708474364445400,4.381445556640625,-0.0140228271484375,-0.268890380859375,0.36114501953125
1772708474374471400,4.391471435546875,0.010040283203125,-0.3129425048828125,0.3049774169921875
1772708474384497200,4.4014970703125,0.089508056640625,-0.34454345703125,0.19732666015625
1772708474394523400,4.4115234375,0.1967620849609375,-0.339202880859375,0.06121826171875
1772708474404549400,4.42154931640625,0.2432861328125,-0.2893218994140625,-0.0644989013671875
1772708474414575400,4.431575439453125,0.2053070068359375,-0.20367431640625,-0.1495819091796875
1772708474424601300,4.441601318359375,0.1085357666015625,-0.091461181640625,-0.171173095703125
1772708474434627300,4.45162744140625,-0.034454345703125,0.0359039306640625,-0.1414031982421875
1772708474444653300,4.4616533203125,-0.17132568359375,0.1663970947265625,-0.11151123046875
1772708474454679300,4.47167919921875,-0.2608184814453125,0.2901611328125,-0.105621337890625
1772708474464705300,4.481705322265625,-0.331939697265625,0.3423309326171875,-0.08642578125
1772708474474731300,4.491731201171875,-0.38604736328125,0.3414306640625,-0.0633697509765625
1772708474484757200,4.50175732421875,-0.379638671875,0.3444061279296875,-0.0653228759765625
1772708474494783200,4.511783203125,-0.338409423828125,0.335723876953125,-0.0811767578125
1772708474504809500,4.5218095703125,-0.2707061767578125,0.3312530517578125,-0.113555908203125
1772708474514835500,4.53183544921875,-0.1963348388671875,0.3487396240234375,-0.14996337890625
1772708474524861400,4.541861328125,-0.16522216796875,0.3509063720703125,-0.1490631103515625
1772708474534887400,4.551887451171875,-0.1743316650390625,0.316375732421875,-0.124664306640625
1772708474544913400,4.561913330078125,-0.1356964111328125,0.3532562255859375,-0.121490478515625
1772708474554939400,4.571939453125,-0.1093597412109375,0.3363494873046875,-0.0957794189453125
1772708474564965400,4.58196533203125,-0.1509246826171875,0.260040283203125,0.0173797607421875
1772708474574991000,4.5919912109375,-0.3075408935546875,0.057373046875,0.2268218994140625
1772708474585017000,4.60201708984375,-0.6053924560546875,-0.366424560546875,0.41845703125
1772708474595043000,4.61204296875,-0.808807373046875,-0.9117889404296875,0.49822998046875
1772708474605069300,4.6220693359375,-0.74237060546875,-1.31329345703125,0.3543548583984375
1772708474615095300,4.63209521484375,-0.9437408447265625,-1.4698333740234375,0.009368896484375
1772708474625121300,4.642121337890625,-2.099578857421875,-1.192718505859375,-0.6158447265625
1772708474635147300,4.652147216796875,-3.7506866455078125,-0.2950286865234375,-1.4229583740234375
1772708474645173200,4.66217333984375,-5.2811126708984375,0.2376556396484375,-1.6373138427734375
1772708474655200300,4.6722001953125,-6.2231597900390625,0.17242431640625,-0.8504791259765625
1772708474665226200,4.682226318359375,-6.2471160888671875,-0.37432861328125,0.059295654296875
1772708474675252200,4.692252197265625,-5.8107147216796875,-1.215118408203125,0.0262451171875
1772708474685278200,4.7022783203125,-5.388519287109375,-1.7235260009765625,-0.4706573486328125
1772708474695304400,4.712304443359375,-4.64276123046875,-1.81005859375,-0.7566070556640625
1772708474705330400,4.722330322265625,-3.529266357421875,-1.6932830810546875,-0.7738494873046875
1772708474715356400,4.7323564453125,-2.69622802734375,-1.496978759765625,-0.5298309326171875
1772708474725382400,4.74238232421875,-2.0748138427734375,-1.2901153564453125,-0.3998565673828125
1772708474735408400,4.752408447265625,-1.5877227783203125,-1.1732025146484375,-0.3055572509765625
1772708474745434400,4.762434326171875,-1.26275634765625,-0.887451171875,-0.166748046875
1772708474755460400,4.77246044921875,-1.0303192138671875,-0.559295654296875,-0.1761474609375
1772708474765486300,4.782486328125,-0.8286590576171875,-0.2121734619140625,-0.2373504638671875
1772708474775512300,4.79251220703125,-0.6656494140625,0.11773681640625,-0.202972412109375
1772708474785538300,4.802538330078125,-0.559417724609375,0.2776641845703125,-0.1065673828125
1772708474795564300,4.812564208984375,-0.5021514892578125,0.309326171875,-0.0009307861328125
1772708474805590300,4.82259033203125,-0.4124298095703125,0.2814483642578125,0.0522918701171875
1772708474815616300,4.8326162109375,-0.2439727783203125,0.220062255859375,0.0524749755859375
1772708474825642200,4.842642333984375,-0.0573883056640625,0.1415252685546875,0.0592803955078125
1772708474835668200,4.852668212890625,0.1356658935546875,0.1101531982421875,0.1020660400390625
1772708474845694200,4.862694091796875,0.2665252685546875,0.127471923828125,0.1654205322265625
1772708474855720200,4.87272021484375,0.344085693359375,0.172760009765625,0.2313385009765625
1772708474865746200,4.88274609375,0.3932647705078125,0.22509765625,0.28326416015625
1772708474875772200,4.892772216796875,0.44378662109375,0.274505615234375,0.302337646484375
1772708474885798100,4.902798095703125,0.4373779296875,0.32861328125,0.26123046875
1772708474895824100,4.91282421875,0.39825439453125,0.370361328125,0.1686248779296875
1772708474905850000,4.92285009765625,0.3687896728515625,0.3593902587890625,0.0500335693359375
1772708474915876400,4.93287646484375,0.364044189453125,0.2682952880859375,-0.0355682373046875
1772708474925902300,4.94290234375,0.2965850830078125,0.1699676513671875,-0.06378173828125
1772708474935928300,4.95292822265625,0.168670654296875,0.1129302978515625,-0.0186614990234375
1772708474945954300,4.962954345703125,0.018524169921875,0.0580902099609375,0.084625244140625
1772708474955980300,4.972980224609375,-0.0874481201171875,0.0406951904296875,0.2127227783203125
1772708474966006300,4.98300634765625,-0.148162841796875,0.007354736328125,0.3094940185546875
1772708474976032300,4.9930322265625,-0.1729888916015625,-0.059600830078125,0.3294219970703125
1772708474986058200,5.003058349609375,-0.1582183837890625,-0.1226806640625,0.2703857421875
1772708474996085200,5.013085205078125,-0.1114654541015625,-0.1756744384765625,0.1558380126953125
1772708475006111500,5.023111572265625,-0.0682373046875,-0.1952667236328125,0.0313720703125
1772708475016137500,5.033137451171875,-0.1050262451171875,-0.1793060302734375,-0.041168212890625
1772708475026163500,5.04316357421875,-0.2128753662109375,-0.1362762451171875,-0.053741455078125
1772708475036189400,5.053189453125,-0.3195343017578125,-0.0456695556640625,-0.050689697265625
1772708475046215200,5.063215087890625,-0.3814239501953125,0.0346527099609375,-0.015869140625
1772708475056241200,5.0732412109375,-0.401153564453125,0.0806884765625,0.0465240478515625
1772708475066267100,5.08326708984375,-0.3977508544921875,0.1210479736328125,0.0564727783203125
1772708475076293000,5.093293212890625,-0.397216796875,0.1432952880859375,0.01910400390625
1772708475086319000,5.103319091796875,-0.3923187255859375,0.139068603515625,0.027801513671875
1772708475096345000,5.113344970703125,-0.3563690185546875,0.1467437744140625,0.06243896484375
1772708475106371000,5.12337109375,-0.299285888671875,0.1639251708984375,0.092376708984375
1772708475116397300,5.133397216796875,-0.2639312744140625,0.14398193359375,0.0920562744140625
1772708475126423300,5.14342333984375,-0.2288360595703125,0.133270263671875,0.078857421875
1772708475136449300,5.15344921875,-0.19598388671875,0.1295318603515625,0.0537109375
1772708475146475300,5.163475341796875,-0.178741455078125,0.1440277099609375,-0.0383453369140625
1772708475156501200,5.173501220703125,-0.234405517578125,0.182952880859375,-0.19024658203125
1772708475166527200,5.18352734375,-0.345703125,0.1964263916015625,-0.32415771484375
1772708475176553200,5.19355322265625,-0.44921875,0.1374359130859375,-0.2931976318359375
1772708475186579200,5.2035791015625,-0.633697509765625,0.0991668701171875,-0.222259521484375
1772708475196605200,5.213605224609375,-0.951934814453125,-0.005706787109375,-0.0435333251953125
1772708475206631200,5.223631103515625,-1.2570343017578125,-0.2721405029296875,0.2637939453125
1772708475216657400,5.233657470703125,-1.4486236572265625,-0.5981292724609375,0.51336669921875
1772708475226683400,5.243683349609375,-1.378936767578125,-0.8394775390625,0.5505218505859375
1772708475236709400,5.25370947265625,-1.416168212890625,-0.9163970947265625,0.281402587890625
1772708475246735400,5.2637353515625,-2.2091522216796875,-0.8994903564453125,-0.1712188720703125
1772708475256761300,5.27376123046875,-3.1166839599609375,-0.497589111328125,-0.711517333984375
1772708475266787300,5.283787353515625,-3.9958343505859375,-0.18707275390625,-0.8028411865234375
1772708475276813300,5.293813232421875,-4.554107666015625,-0.2686309814453125,-0.1916351318359375
1772708475286839300,5.30383935546875,-4.5222015380859375,-0.87078857421875,0.4796142578125
1772708475296865300,5.313865234375,-4.55938720703125,-1.5516510009765625,0.21990966796875
1772708475306891300,5.323891357421875,-4.3307342529296875,-1.823760986328125,-0.673492431640625
1772708475316917200,5.333917236328125,-3.6625213623046875,-1.5656890869140625,-0.990509033203125
1772708475326944300,5.3439443359375,-2.8541259765625,-1.5633087158203125,-0.4037628173828125
1772708475336970200,5.35397021484375,-1.9806976318359375,-1.477203369140625,0.13226318359375
1772708475346996200,5.363996337890625,-1.7102203369140625,-1.2082977294921875,0.2932586669921875
1772708475357022200,5.374022216796875,-1.6197357177734375,-0.9491729736328125,0.1740875244140625
1772708475367048200,5.384048095703125,-1.465423583984375,-0.674224853515625,0.0130615234375
1772708475377074200,5.39407421875,-1.4187774658203125,-0.30364990234375,-0.03497314453125
1772708475387099600,5.404099609375,-1.372283935546875,-0.02081298828125,-0.13763427734375
1772708475397125600,5.414125732421875,-1.39324951171875,0.1930084228515625,-0.1909027099609375
1772708475407151600,5.424151611328125,-1.3510894775390625,0.3062744140625,-0.142822265625
1772708475417177600,5.434177490234375,-1.2402496337890625,0.3428955078125,-0.11676025390625
1772708475427203600,5.44420361328125,-1.0773773193359375,0.320953369140625,-0.142181396484375
1772708475437229600,5.4542294921875,-0.854705810546875,0.2437744140625,-0.191162109375
1772708475447255600,5.464255615234375,-0.641357421875,0.2044525146484375,-0.1909332275390625
1772708475457281500,5.474281494140625,-0.4081573486328125,0.129791259765625,-0.1307220458984375
1772708475467307500,5.4843076171875,-0.196258544921875,0.0774383544921875,-0.0947723388671875
1772708475477333500,5.49433349609375,-0.0396881103515625,0.06390380859375,-0.0846099853515625
1772708475487359700,5.50435986328125,0.04193115234375,0.0677642822265625,-0.0652008056640625
1772708475497385700,5.5143857421875,0.0381011962890625,0.1310882568359375,-0.03924560546875
1772708475507411700,5.52441162109375,-0.059722900390625,0.20404052734375,0.010284423828125
1772708475517437700,5.534437744140625,-0.160797119140625,0.239532470703125,-0.0019683837890625
1772708475527463700,5.544463623046875,-0.21514892578125,0.2340087890625,-0.02630615234375
1772708475537489700,5.55448974609375,-0.24334716796875,0.19781494140625,-0.0280609130859375
1772708475547515600,5.564515625,-0.2127532958984375,0.1526947021484375,-0.0205078125
1772708475557541600,5.574541748046875,-0.1289825439453125,0.122467041015625,0.0095062255859375
1772708475567567600,5.584567626953125,-0.035491943359375,0.1133270263671875,0.0564117431640625
1772708475577593600,5.594593505859375,0.038543701171875,0.0707550048828125,0.106292724609375
1772708475587619600,5.60461962890625,0.0635528564453125,0.013519287109375,0.1378631591796875
1772708475597645800,5.614645751953125,0.0433807373046875,-0.034515380859375,0.153594970703125
1772708475607671800,5.624671875,0.0148773193359375,-0.0653533935546875,0.1461029052734375
1772708475617697800,5.63469775390625,-0.0086517333984375,-0.0808563232421875,0.1234283447265625
1772708475627723800,5.644723876953125,-0.0481719970703125,-0.0776214599609375,0.0728759765625
1772708475637750500,5.65475048828125,-0.1378021240234375,-0.083648681640625,0.0184783935546875
1772708475647776500,5.664776611328125,-0.2339019775390625,-0.084442138671875,-0.024627685546875
1772708475657802500,5.674802490234375,-0.3180084228515625,-0.0882720947265625,-0.05694580078125
1772708475667828500,5.684828369140625,-0.407318115234375,-0.1076812744140625,-0.1097564697265625
1772708475677854500,5.6948544921875,-0.47021484375,-0.1243743896484375,-0.17279052734375
1772708475687880700,5.704880615234375,-0.467041015625,-0.1323089599609375,-0.1737060546875
1772708475697906700,5.71490673828125,-0.4056854248046875,-0.11126708984375,-0.1264495849609375
1772708475707932700,5.7249326171875,-0.3301849365234375,-0.05755615234375,-0.076568603515625
1772708475717958700,5.734958740234375,-0.294036865234375,-0.03564453125,-0.0615997314453125
1772708475727984600,5.744984619140625,-0.243133544921875,-0.043914794921875,-0.0444183349609375
1772708475738010600,5.7550107421875,-0.1602325439453125,-0.0175628662109375,-0.025054931640625
1772708475748036600,5.76503662109375,-0.104644775390625,0.008514404296875,-0.0296173095703125
1772708475758062600,5.7750625,-0.058746337890625,0.0332489013671875,-0.0452880859375
1772708475768088600,5.785088623046875,-0.0207061767578125,0.0738677978515625,-0.0608367919921875
1772708475778114600,5.795114501953125,0.015167236328125,0.095245361328125,-0.0846710205078125
1772708475788140800,5.805140869140625,0.045867919921875,0.104217529296875,-0.146026611328125
1772708475798166800,5.815166748046875,0.041229248046875,0.1011962890625,-0.2144012451171875
1772708475808192800,5.82519287109375,-0.02423095703125,0.04559326171875,-0.19415283203125
1772708475818218800,5.83521875,-0.1967315673828125,-0.163543701171875,-0.0172119140625
1772708475828244700,5.84524462890625,-0.4091033935546875,-0.5537567138671875,0.208251953125
1772708475838270700,5.855270751953125,-0.5619659423828125,-0.976165771484375,0.3871002197265625
1772708475848296700,5.865296630859375,-0.627166748046875,-1.1605377197265625,0.3675689697265625
1772708475858322700,5.87532275390625,-0.809783935546875,-1.2987518310546875,0.2253570556640625
1772708475868348700,5.8853486328125,-1.5559539794921875,-1.294464111328125,-0.09283447265625
1772708475878374700,5.895374755859375,-2.7906341552734375,-0.40875244140625,-0.8710784912109375
1772708475888400600,5.905400634765625,-4.0908660888671875,0.2533111572265625,-1.1738739013671875
1772708475898427000,5.915427001953125,-4.94976806640625,0.3032989501953125,-0.9015045166015625
1772708475908452900,5.925452880859375,-5.098114013671875,-0.032012939453125,-0.3045806884765625
1772708475918478800,5.935478759765625,-4.618560791015625,-0.558807373046875,0.2779693603515625
1772708475928504800,5.9455048828125,-4.063232421875,-0.998779296875,0.6019744873046875
1772708475938530600,5.955530517578125,-3.708831787109375,-1.2942352294921875,0.4852447509765625
1772708475948556500,5.965556640625,-3.2155609130859375,-1.3301544189453125,0.099029541015625
1772708475958583600,5.97558349609375,-2.7914581298828125,-1.22149658203125,-0.361663818359375
1772708475968609500,5.985609619140625,-2.5547637939453125,-1.218841552734375,-0.6468658447265625
1772708475978635500,5.995635498046875,-2.2364959716796875,-1.0788421630859375,-0.7780303955078125
1772708475988661800,6.005661865234375,-1.8697509765625,-0.978271484375,-0.7100830078125
1772708475998687700,6.015687744140625,-1.4860687255859375,-0.8639068603515625,-0.6407318115234375
1772708476008713700,6.025713623046875,-1.2081756591796875,-0.5426483154296875,-0.6240997314453125
1772708476018739700,6.03573974609375,-0.9384002685546875,-0.3390960693359375,-0.5606231689453125
1772708476028765700,6.045765625,-0.7160186767578125,-0.154327392578125,-0.394439697265625
1772708476038791700,6.055791748046875,-0.4956817626953125,0.060394287109375,-0.1344146728515625
1772708476048817700,6.065817626953125,-0.281097412109375,0.13201904296875,0.11553955078125
1772708476058843600,6.07584375,-0.1361846923828125,0.1302642822265625,0.2635955810546875
1772708476068869600,6.08586962890625,-0.09124755859375,0.06378173828125,0.4063568115234375
1772708476078895600,6.0958955078125,-0.0582427978515625,-0.023193359375,0.4765167236328125
1772708476088921600,6.105921630859375,0.016632080078125,-0.029449462890625,0.410369873046875
1772708476098947800,6.11594775390625,0.1146697998046875,0.029144287109375,0.2559051513671875
1772708476108973800,6.125973876953125,0.1794281005859375,0.076568603515625,0.0836944580078125
1772708476118999800,6.135999755859375,0.2037353515625,0.0853424072265625,-0.06634521484375
1772708476129025800,6.14602587890625,0.2108917236328125,0.09320068359375,-0.1380615234375
1772708476139051800,6.1560517578125,0.1739501953125,0.09716796875,-0.1208648681640625
1772708476149077800,6.166077880859375,0.0759735107421875,0.0610809326171875,-0.0447235107421875
1772708476159103700,6.176103759765625,-0.046234130859375,0.00189208984375,0.07757568359375
1772708476169129700,6.186129638671875,-0.1028289794921875,-0.0045623779296875,0.193603515625
1772708476179155700,6.19615576171875,-0.08489990234375,0.001922607421875,0.258544921875
1772708476189181400,6.206181396484375,-0.0416107177734375,-0.0528106689453125,0.290130615234375
1772708476199207400,6.21620751953125,-0.0415496826171875,-0.12841796875,0.286346435546875
1772708476209233700,6.226233642578125,-0.072235107421875,-0.2054443359375,0.2661590576171875
1772708476219259600,6.236259765625,-0.0914764404296875,-0.2738800048828125,0.2180938720703125
1772708476229285600,6.24628564453125,-0.111053466796875,-0.2945404052734375,0.12744140625
1772708476239311600,6.2563115234375,-0.15802001953125,-0.2608642578125,-0.0009613037109375
1772708476249337600,6.266337646484375,-0.21044921875,-0.2205047607421875,-0.0899658203125
1772708476259363600,6.276363525390625,-0.252197265625,-0.1629791259765625,-0.111419677734375
1772708476269389600,6.2863896484375,-0.28369140625,-0.0830535888671875,-0.08636474609375
1772708476279416600,6.29641650390625,-0.341583251953125,0.0062408447265625,-0.0949554443359375
1772708476289442600,6.306442626953125,-0.4455108642578125,0.09759521484375,-0.16632080078125
1772708476299468800,6.31646875,-0.5506744384765625,0.165557861328125,-0.183685302734375
1772708476309494800,6.326494873046875,-0.6333770751953125,0.21148681640625,-0.1360321044921875
1772708476319520800,6.336520751953125,-0.6570587158203125,0.2601165771484375,-0.08892822265625
1772708476329546800,6.346546630859375,-0.6207275390625,0.2609100341796875,-0.053558349609375
1772708476339572700,6.35657275390625,-0.5387115478515625,0.2261199951171875,-0.0414276123046875
1772708476349598700,6.3665986328125,-0.40216064453125,0.1635589599609375,-0.01983642578125
1772708476359624700,6.376624755859375,-0.2346038818359375,0.0942535400390625,-0.01409912109375
1772708476369650700,6.386650634765625,-0.1154632568359375,0.0420074462890625,-0.0318145751953125
1772708476379677200,6.39667724609375,-0.0066375732421875,0.0007781982421875,-0.0777587890625
1772708476389703000,6.406702880859375,0.1210784912109375,-0.0640411376953125,-0.198760986328125
1772708476399729000,6.41672900390625,0.2298126220703125,-0.0967559814453125,-0.2354278564453125
1772708476409755000,6.4267548828125,0.308929443359375,-0.0382080078125,-0.392486572265625
1772708476419780900,6.43678076171875,0.3401641845703125,0.0314788818359375,-0.5634002685546875
1772708476429806800,6.446806884765625,0.2891693115234375,0.015380859375,-0.5494842529296875
1772708476439832800,6.456832763671875,0.080596923828125,-0.005889892578125,-0.425628662109375
1772708476449859000,6.466859130859375,-0.5814666748046875,-0.0230560302734375,-0.452423095703125
1772708476459885000,6.476885009765625,-2.0237274169921875,-0.55224609375,-0.1852569580078125
1772708476469911000,6.4869111328125,-2.607391357421875,-0.4439849853515625,-0.4769134521484375
1772708476479937000,6.49693701171875,-3.0585784912109375,0.1038360595703125,-0.9373931884765625
1772708476489963000,6.506962890625,-3.9205322265625,0.450469970703125,-1.2902984619140625
1772708476499989000,6.516989013671875,-4.603485107421875,1.1777496337890625,-1.66796875
1772708476510015000,6.527014892578125,-4.975250244140625,1.2580413818359375,-1.49365234375
1772708476520041000,6.537041015625,-5.3530120849609375,1.0145416259765625,-0.636993408203125
1772708476530067000,6.54706689453125,-5.5048065185546875,0.4127960205078125,0.17041015625
1772708476540093000,6.557093017578125,-5.1829833984375,-0.1072540283203125,0.0348052978515625
1772708476550119000,6.567118896484375,-4.58935546875,-0.3927001953125,-0.5290679931640625
1772708476560145200,6.577145263671875,-3.9553985595703125,-0.6113433837890625,-0.89208984375
1772708476570171100,6.587171142578125,-3.3283843994140625,-0.9105224609375,-0.9448089599609375
1772708476580197000,6.597197021484375,-2.6444091796875,-1.013885498046875,-0.79278564453125
1772708476590223000,6.60722314453125,-2.0809478759765625,-0.9373016357421875,-0.6691131591796875
1772708476600250000,6.61725,-1.62249755859375,-0.8282470703125,-0.5846710205078125
1772708476610276000,6.627276123046875,-1.1661529541015625,-0.607757568359375,-0.39337158203125
1772708476620302000,6.637302001953125,-0.8203582763671875,-0.3529815673828125,-0.2080841064453125
1772708476630328000,6.647328125,-0.5511016845703125,-0.1619415283203125,-0.0352783203125
1772708476640353800,6.657353759765625,-0.3390655517578125,0.0045928955078125,0.1138916015625
1772708476650380000,6.667380126953125,-0.142852783203125,0.173431396484375,0.173431396484375
1772708476660406000,6.677406005859375,-0.0670013427734375,0.30914306640625,0.17791748046875
1772708476670432000,6.687431884765625,-0.12469482421875,0.3394012451171875,0.208953857421875
1772708476680458000,6.6974580078125,-0.15435791015625,0.298980712890625,0.2231597900390625
1772708476690484000,6.70748388671875,-0.083038330078125,0.2101287841796875,0.2291717529296875
1772708476700510000,6.717510009765625,0.0646209716796875,0.1376190185546875,0.2298126220703125
1772708476710536000,6.727535888671875,0.2836151123046875,0.0865020751953125,0.1995849609375
1772708476720562000,6.73756201171875,0.4567718505859375,0.066864013671875,0.1325531005859375
1772708476730588000,6.747587890625,0.5208282470703125,0.0784912109375,0.0601348876953125
1772708476740614000,6.75761376953125,0.442596435546875,0.1448974609375,0.012725830078125
1772708476750639900,6.767639892578125,0.3333740234375,0.17950439453125,0.03594970703125
1772708476760666000,6.777666015625,0.22515869140625,0.201385498046875,0.06103515625
1772708476770692000,6.787692138671875,0.095062255859375,0.222869873046875,0.077301025390625
1772708476780718000,6.797718017578125,0.05560302734375,0.2173614501953125,0.068572998046875
1772708476790744000,6.807744140625,0.095001220703125,0.157684326171875,-0.0287322998046875
1772708476800770000,6.81777001953125,0.048675537109375,0.0902557373046875,-0.0760345458984375
1772708476810796000,6.827796142578125,-0.1197052001953125,0.0573577880859375,-0.0185699462890625
1772708476820822000,6.837822021484375,-0.3446807861328125,0.03741455078125,0.066131591796875
1772708476830848000,6.847847900390625,-0.50885009765625,0.0126190185546875,0.142730712890625
1772708476840874000,6.8578740234375,-0.5451507568359375,-0.01959228515625,0.2156524658203125
1772708476850900000,6.86789990234375,-0.494903564453125,-0.0433349609375,0.2774505615234375
1772708476860926000,6.877926025390625,-0.39447021484375,-0.0553436279296875,0.3164520263671875
1772708476870952200,6.8879521484375,-0.2635040283203125,-0.06805419921875,0.3000640869140625
1772708476880978200,6.897978271484375,-0.1250152587890625,-0.0746917724609375,0.247955322265625
1772708476891004200,6.908004150390625,-0.03411865234375,-0.05792236328125,0.155303955078125
1772708476901030100,6.918030029296875,-0.0147247314453125,-0.035888671875,0.0253753662109375
1772708476911057000,6.928056884765625,-0.101165771484375,-0.028076171875,-0.083343505859375
1772708476921083000,6.938082763671875,-0.2752685546875,-0.0169525146484375,-0.1484527587890625
1772708476931108900,6.94810888671875,-0.4691619873046875,0.0185546875,-0.162384033203125
1772708476941134800,6.958134765625,-0.591156005859375,0.0439453125,-0.13824462890625
1772708476951161000,6.9681611328125,-0.58197021484375,0.03662109375,-0.0905303955078125
1772708476961187000,6.97818701171875,-0.4943695068359375,0.0326080322265625,-0.016754150390625
1772708476971213000,6.988213134765625,-0.3615875244140625,0.030609130859375,0.064727783203125
1772708476981239000,6.998239013671875,-0.183563232421875,0.000152587890625,0.1336822509765625
1772708476991265000,7.00826513671875,0.0382080078125,-0.1468658447265625,0.213623046875
1772708477001291000,7.018291015625,0.156585693359375,-0.3291168212890625,0.2351837158203125
1772708477011317000,7.02831689453125,0.144775390625,-0.38177490234375,0.0604095458984375
1772708477021343000,7.038343017578125,-0.045684814453125,-0.4857330322265625,-0.042236328125
1772708477031369000,7.048368896484375,-0.3500823974609375,-0.61871337890625,-0.06597900390625
1772708477041395000,7.05839501953125,-0.722259521484375,-0.7100982666015625,-0.152374267578125
1772708477051421000,7.0684208984375,-1.1400604248046875,-0.8085784912109375,-0.218048095703125
1772708477061447200,7.078447265625,-1.6068267822265625,-1.204254150390625,0.02191162109375
1772708477071473200,7.08847314453125,-1.844329833984375,-2.2823486328125,0.6689605712890625
1772708477081499100,7.0984990234375,-1.1270904541015625,-2.1125030517578125,0.3406219482421875
1772708477091525000,7.108525146484375,-0.61602783203125,-1.2598876953125,-0.4093170166015625
1772708477101551000,7.118551025390625,-1.0353240966796875,-1.342620849609375,-0.714385986328125
1772708477111577000,7.1285771484375,-2.1356048583984375,-1.076629638671875,-0.8475189208984375
1772708477121603000,7.13860302734375,-3.03106689453125,-0.450897216796875,-0.7305755615234375
1772708477131629000,7.148629150390625,-3.58367919921875,0.057098388671875,-0.463592529296875
1772708477141655000,7.158655029296875,-3.745849609375,0.206390380859375,-0.299835205078125
1772708477151681000,7.168680908203125,-3.58599853515625,0.03851318359375,-0.2760772705078125
1772708477161707000,7.17870703125,-3.1118927001953125,-0.0657501220703125,-0.3560638427734375
1772708477171733200,7.188733154296875,-2.359588623046875,-0.0322265625,-0.44659423828125
1772708477181759200,7.19875927734375,-1.7154083251953125,-0.0700225830078125,-0.578125
1772708477191785200,7.20878515625,-1.3941192626953125,-0.21319580078125,-0.78564453125
1772708477201811200,7.218811279296875,-1.3363494873046875,-0.3757171630859375,-0.9720001220703125
1772708477211837000,7.2288369140625,-1.37481689453125,-0.359832763671875,-1.05572509765625
1772708477221863000,7.23886279296875,-1.28399658203125,-0.1715545654296875,-1.0301666259765625
1772708477231890000,7.248889892578125,-1.25238037109375,-0.27679443359375,-0.762237548828125
1772708477241916000,7.258916015625,-0.915435791015625,-0.546661376953125,-0.124786376953125
1772708477251942000,7.26894189453125,-0.7805328369140625,-0.7242279052734375,0.375457763671875
1772708477261968100,7.278968017578125,-0.9480133056640625,-0.571929931640625,0.191253662109375
1772708477271994000,7.288994140625,-0.8999176025390625,-0.4233245849609375,-0.0741119384765625
1772708477282020000,7.29902001953125,-0.804779052734375,-0.4468231201171875,-0.2052001953125
1772708477292046000,7.309046142578125,-0.7858734130859375,-0.5602569580078125,-0.2566070556640625
1772708477302072000,7.319072021484375,-0.8270416259765625,-0.5885009765625,-0.2432098388671875
1772708477312098000,7.32909814453125,-0.8593292236328125,-0.49224853515625,-0.173492431640625
1772708477322124000,7.3391240234375,-0.9545135498046875,-0.3684539794921875,-0.0991058349609375
1772708477332150000,7.34914990234375,-1.00750732421875,-0.2807769775390625,0.029693603515625
1772708477342176000,7.359176025390625,-1.044830322265625,-0.2393798828125,0.1055755615234375
1772708477352202000,7.369201904296875,-0.9910736083984375,-0.1155548095703125,0.0497894287109375
1772708477362228000,7.37922802734375,-0.9431304931640625,-0.030059814453125,0.0517425537109375
1772708477372254200,7.389254150390625,-0.9061737060546875,0.0092315673828125,0.0952911376953125
1772708477382280400,7.399280517578125,-0.860015869140625,0.008575439453125,0.1222076416015625
1772708477392306400,7.409306396484375,-0.78741455078125,-0.0383148193359375,0.132598876953125
1772708477402332400,7.41933251953125,-0.6768951416015625,-0.107208251953125,0.1093597412109375
1772708477412358400,7.4293583984375,-0.5978240966796875,-0.1756591796875,0.09063720703125
1772708477422384400,7.43938427734375,-0.5521697998046875,-0.2204132080078125,0.08514404296875
1772708477432410400,7.449410400390625,-0.518035888671875,-0.2286376953125,0.093994140625
1772708477442436000,7.45943603515625,-0.494903564453125,-0.1920013427734375,0.0962982177734375
1772708477452462300,7.46946240234375,-0.52728271484375,-0.1619110107421875,0.077362060546875
1772708477462488300,7.47948828125,-0.5716705322265625,-0.1469268798828125,0.062042236328125
1772708477472514300,7.489514404296875,-0.6037445068359375,-0.163909912109375,0.0609283447265625
1772708477482540300,7.499540283203125,-0.6080474853515625,-0.17449951171875,0.086944580078125
1772708477492566300,7.509566162109375,-0.6223907470703125,-0.1618804931640625,0.15777587890625
1772708477502592300,7.51959228515625,-0.665679931640625,-0.1456451416015625,0.265167236328125
1772708477512618200,7.5296181640625,-0.7006378173828125,-0.1198883056640625,0.36865234375
1772708477522644200,7.539644287109375,-0.68768310546875,-0.110748291015625,0.3888092041015625
1772708477532670200,7.549670166015625,-0.6304779052734375,-0.17181396484375,0.3379058837890625
1772708477542697500,7.559697509765625,-0.593170166015625,-0.30584716796875,0.3041839599609375
1772708477552723500,7.569723388671875,-0.5445098876953125,-0.3860626220703125,0.27618408203125
1772708477562749400,7.57974951171875,-0.5675506591796875,-0.38812255859375,0.21270751953125
1772708477572775400,7.589775390625,-0.6919708251953125,-0.372833251953125,0.1415863037109375
1772708477583427300,7.60042724609375,-0.8042449951171875,-0.4347686767578125,0.1017303466796875
1772708477593453300,7.610453369140625,-0.8447418212890625,-0.5040740966796875,0.1251220703125
1772708477603479300,7.620479248046875,-0.85650634765625,-0.5559844970703125,0.1995697021484375
1772708477613505300,7.63050537109375,-0.902557373046875,-0.5704345703125,0.2734527587890625
1772708477623531300,7.64053125,-0.96954345703125,-0.530792236328125,0.3267364501953125
1772708477633557200,7.65055712890625,-1.0424041748046875,-0.4873199462890625,0.358062744140625
1772708477643583200,7.660583251953125,-1.0985107421875,-0.44903564453125,0.36370849609375
1772708477653609200,7.670609130859375,-1.105987548828125,-0.44720458984375,0.347259521484375
1772708477663635200,7.68063525390625,-1.078338623046875,-0.467864990234375,0.29730224609375
1772708477673661200,7.6906611328125,-1.006805419921875,-0.49658203125,0.2437286376953125
1772708477683687200,7.700687255859375,-0.9012451171875,-0.5177764892578125,0.21075439453125
1772708477693713400,7.71071337890625,-0.804779052734375,-0.528900146484375,0.2012481689453125
1772708477703739400,7.720739501953125,-0.7392730712890625,-0.565643310546875,0.18853759765625
1772708477713765400,7.730765380859375,-0.716400146484375,-0.611114501953125,0.14935302734375
1772708477723791400,7.740791259765625,-0.7114715576171875,-0.6356658935546875,0.101348876953125
1772708477733817300,7.7508173828125,-0.7097320556640625,-0.65631103515625,0.0962677001953125
1772708477743843300,7.76084326171875,-0.7348785400390625,-0.6488494873046875,0.124481201171875
1772708477753869300,7.770869384765625,-0.76995849609375,-0.6198577880859375,0.1601715087890625
1772708477763895300,7.780895263671875,-0.788177490234375,-0.59381103515625,0.1886138916015625
1772708477773921300,7.79092138671875,-0.798919677734375,-0.57818603515625,0.2089080810546875
1772708477783947300,7.800947265625,-0.8025360107421875,-0.572174072265625,0.2210693359375
1772708477793973200,7.81097314453125,-0.7694854736328125,-0.5627899169921875,0.2209014892578125
1772708477803999500,7.82099951171875,-0.6533660888671875,-0.5532379150390625,0.232025146484375
1772708477814025500,7.831025390625,-0.5941162109375,-0.56866455078125,0.2315521240234375
1772708477824051500,7.841051513671875,-0.692901611328125,-0.597412109375,0.198486328125
1772708477834077400,7.851077392578125,-0.7677154541015625,-0.61724853515625,0.097930908203125
1772708477844103400,7.861103515625,-0.821197509765625,-0.6383514404296875,-0.0004425048828125
1772708477854130200,7.871130126953125,-0.8556671142578125,-0.6248321533203125,-0.014068603515625
1772708477864156200,7.88115625,-0.880218505859375,-0.6107177734375,0.02923583984375
1772708477874182100,7.89118212890625,-0.8847198486328125,-0.5816650390625,0.05657958984375
1772708477884208400,7.90120849609375,-0.8698577880859375,-0.5548858642578125,0.087615966796875
1772708477894861300,7.911861328125,-0.8743896484375,-0.5709075927734375,0.1392059326171875
1772708477904887600,7.921887451171875,-0.922027587890625,-0.5739288330078125,0.156524658203125
1772708477914913500,7.93191357421875,-0.9804229736328125,-0.5527496337890625,0.1534423828125
1772708477924939500,7.941939453125,-1.008514404296875,-0.532196044921875,0.1406707763671875
1772708477934965200,7.95196533203125,-0.9848175048828125,-0.532073974609375,0.1255645751953125
1772708477944991200,7.9619912109375,-0.9315032958984375,-0.542236328125,0.119110107421875
1772708477955017200,7.972017333984375,-0.8563079833984375,-0.5502777099609375,0.118316650390625
1772708477965043200,7.982043212890625,-0.8002777099609375,-0.55340576171875,0.1440582275390625
1772708477975069200,7.992069091796875,-0.76873779296875,-0.5376434326171875,0.16290283203125
1772708477985096200,8.00209619140625,-0.758056640625,-0.5368499755859375,0.1930389404296875
1772708477995122400,8.012122314453125,-0.739990234375,-0.5422821044921875,0.1911468505859375
1772708478005148400,8.0221484375,-0.7010650634765625,-0.534149169921875,0.167022705078125
1772708478015174400,8.03217431640625,-0.6625213623046875,-0.550750732421875,0.1459503173828125
1772708478025200400,8.042200439453126,-0.6359710693359375,-0.5607452392578125,0.1381072998046875
1772708478035226400,8.052226318359375,-0.63739013671875,-0.5362091064453125,0.1428985595703125
1772708478045252400,8.06225244140625,-0.6761627197265625,-0.487396240234375,0.125579833984375
1772708478055278300,8.0722783203125,-0.740753173828125,-0.4390411376953125,0.0992584228515625
1772708478065304300,8.08230419921875,-0.80584716796875,-0.4306640625,0.0999755859375
1772708478075330300,8.092330322265624,-0.8949127197265625,-0.4380950927734375,0.0955047607421875
1772708478085356300,8.102356201171874,-0.9659881591796875,-0.44805908203125,0.0949249267578125
1772708478095382300,8.11238232421875,-0.9631805419921875,-0.4863433837890625,0.1033172607421875
1772708478105408500,8.122408447265625,-0.921661376953125,-0.5004119873046875,0.073638916015625
1772708478115434500,8.1324345703125,-0.8448028564453125,-0.502105712890625,0.0371246337890625
1772708478125460500,8.14246044921875,-0.781982421875,-0.504608154296875,0.040069580078125
1772708478135486500,8.152486572265625,-0.8009185791015625,-0.516265869140625,0.0543975830078125
1772708478145512400,8.162512451171875,-0.849700927734375,-0.531280517578125,0.05718994140625
1772708478155538400,8.172538330078124,-0.8890228271484375,-0.5400390625,0.0532684326171875
1772708478165564400,8.182564453125,-0.9117584228515625,-0.5264434814453125,0.06622314453125
1772708478175590400,8.19259033203125,-0.9152374267578125,-0.5099945068359375,0.0858306884765625
1772708478185616100,8.2026162109375,-0.898101806640625,-0.50433349609375,0.1105194091796875
1772708478195642000,8.21264208984375,-0.882781982421875,-0.508148193359375,0.1398773193359375
1772708478205668000,8.222668212890625,-0.8717803955078125,-0.5137939453125,0.1491546630859375
1772708478215694300,8.2326943359375,-0.8492431640625,-0.5110931396484375,0.1338653564453125
1772708478225720300,8.24272021484375,-0.82879638671875,-0.506378173828125,0.1163177490234375
1772708478235746300,8.252746337890626,-0.8145751953125,-0.5093536376953125,0.1040191650390625
1772708478245772300,8.262772216796876,-0.8130340576171875,-0.507720947265625,0.0961151123046875
1772708478255798300,8.27279833984375,-0.8262176513671875,-0.4964447021484375,0.099578857421875
1772708478265824300,8.28282421875,-0.8476409912109375,-0.479827880859375,0.104095458984375
1772708478275851300,8.292851318359375,-0.876434326171875,-0.4705810546875,0.10980224609375
1772708478285877200,8.302877197265625,-0.8906402587890625,-0.4656524658203125,0.1045684814453125
1772708478295903200,8.3129033203125,-0.9030609130859375,-0.47039794921875,0.0953521728515625
1772708478305929500,8.322929443359374,-0.9097747802734375,-0.4806365966796875,0.0862884521484375
1772708478315955500,8.33295556640625,-0.9056854248046875,-0.479461669921875,0.090850830078125
1772708478325981400,8.3429814453125,-0.8919525146484375,-0.4547271728515625,0.1117095947265625
1772708478336007400,8.35300732421875,-0.8730621337890625,-0.4179534912109375,0.128753662109375
1772708478346033400,8.363033447265625,-0.8468170166015625,-0.3902435302734375,0.145965576171875
1772708478356059400,8.373059326171875,-0.832061767578125,-0.3740692138671875,0.16455078125
1772708478366085400,8.38308544921875,-0.8231658935546875,-0.3820953369140625,0.1733856201171875
1772708478376111400,8.393111328125,-0.812744140625,-0.408782958984375,0.1569061279296875
1772708478386137600,8.4031376953125,-0.7845916748046875,-0.429840087890625,0.1206207275390625
1772708478396163600,8.41316357421875,-0.7568817138671875,-0.44439697265625,0.102203369140625
1772708478406189600,8.423189453125,-0.727264404296875,-0.454620361328125,0.1186370849609375
1772708478416215600,8.433215576171875,-0.831512451171875,-0.502105712890625,0.1751556396484375
1772708478426241500,8.443241455078125,-0.9708709716796875,-0.54473876953125,0.2446746826171875
1772708478436267500,8.453267578125,-1.0091400146484375,-0.43939208984375,0.18536376953125
1772708478446293500,8.46329345703125,-1.03839111328125,-0.381439208984375,0.121551513671875
1772708478456319500,8.473319580078124,-1.0374603271484375,-0.39666748046875,0.09002685546875
1772708478466345500,8.483345458984376,-1.0005645751953125,-0.400787353515625,0.0957183837890625
