time,seconds_elapsed,z,y,x
1772708470034452200,0.0514521484375,0.3286231458187103,0.03614814952015877,-0.010126936249434948
1772708470044478200,0.061478271484375,0.2829134464263916,0.1291326880455017,-0.019119897857308388
1772708470054504200,0.071504150390625,0.22510768473148346,0.1836467981338501,-0.034027475863695145
1772708470064530200,0.0815302734375,0.16477669775485992,0.19636552035808563,-0.047029558569192886
1772708470074556200,0.09155615234375,0.10733497887849808,0.1932608038187027,-0.053641390055418015
1772708470084582100,0.10158203125,0.06913486123085022,0.18345557153224945,-0.05682013928890228
1772708470094608400,0.1116083984375,0.053151100873947144,0.16678978502750397,-0.06503492593765259
1772708470104634400,0.12163427734375,0.05517483875155449,0.16761057078838348,-0.07384493201971054
1772708470114660400,0.131660400390625,0.07038628309965134,0.1883416771888733,-0.06912447512149811
1772708470124687000,0.14168701171875,0.09018981456756592,0.2218855321407318,-0.056350622326135635
1772708470134713000,0.151713134765625,0.10355089604854584,0.24453836679458618,-0.05222032591700554
1772708470144739000,0.161739013671875,0.10958721488714218,0.23798459768295288,-0.06022791936993599
1772708470154765000,0.17176513671875,0.10936803370714188,0.20714706182479858,-0.06526529043912888
1772708470164791000,0.181791015625,0.0927504450082779,0.14821982383728027,-0.07267899811267853
1772708470174817000,0.191817138671875,0.06780834496021271,0.0794314444065094,-0.078118234872818
1772708470184843300,0.20184326171875,0.04065395146608353,0.022792397066950798,-0.08757378906011581
1772708470194869200,0.211869140625,0.016873788088560104,-0.004930043593049049,-0.10315488278865814
1772708470204895200,0.221895263671875,0.0010269149206578732,-0.01828526332974434,-0.12031815201044083
1772708470214921200,0.231921142578125,-0.006232862360775471,-0.020710870623588562,-0.13915576040744781
1772708470224947200,0.241947265625,-0.013657488860189915,-0.02142992429435253,-0.1628246009349823
1772708470234973200,0.25197314453125,-0.02094176784157753,-0.036868803203105927,-0.19432634115219116
1772708470244999200,0.261999267578125,-0.02961568348109722,-0.07551712542772293,-0.2344159632921219
1772708470255025200,0.272025146484375,-0.037992656230926514,-0.108460433781147,-0.27490881085395813
1772708470265051100,0.282051025390625,-0.05197185277938843,-0.11992081254720688,-0.30893945693969727
1772708470275077000,0.2920771484375,-0.07173676788806915,-0.11631275713443756,-0.3314184248447418
1772708470285103000,0.30210302734375,-0.09290517121553421,-0.11468663811683655,-0.34439465403556824
1772708470295129300,0.31212939453125,-0.10474851727485657,-0.10312291979789734,-0.3483547866344452
1772708470305155300,0.3221552734375,-0.09969144314527512,-0.07820052653551102,-0.33439263701438904
1772708470315181300,0.332181396484375,-0.08852028101682663,-0.04647349193692207,-0.29465481638908386
1772708470325207300,0.342207275390625,-0.07715018093585968,-0.0049311090260744095,-0.24709661304950714
1772708470335233300,0.3522333984375,-0.06220611557364464,0.03445917367935181,-0.19936875998973846
1772708470345259300,0.36225927734375,-0.04061666876077652,0.059835370630025864,-0.164694145321846
1772708470355285200,0.37228515625,-0.017250891774892807,0.0692610964179039,-0.14461976289749146
1772708470365311200,0.382311279296875,-0.0052229915745556355,0.06690046936273575,-0.138246551156044
1772708470375337200,0.392337158203125,-0.003397927153855562,0.04706205055117607,-0.14095818996429443
1772708470385363200,0.40236328125,-0.015241803601384163,0.02912566065788269,-0.1582338511943817
1772708470395390200,0.41239013671875,-0.024229971691966057,0.02273700386285782,-0.1843826323747635
1772708470405416200,0.422416259765625,-0.03928136080503464,0.021743910387158394,-0.21445131301879883
1772708470415442200,0.432442138671875,-0.058750931173563004,0.0007843009079806507,-0.2406725287437439
1772708470425468200,0.44246826171875,-0.07726789265871048,-0.04506015405058861,-0.2760225236415863
1772708470435494100,0.452494140625,-0.09135600924491882,-0.10292372107505798,-0.30631890892982483
1772708470445520100,0.46252001953125,-0.10903514176607132,-0.1587986946105957,-0.3248891532421112
1772708470455546000,0.472546142578125,-0.12429505586624146,-0.2179379165172577,-0.3358970582485199
1772708470465572000,0.482572021484375,-0.12823466956615448,-0.2640465497970581,-0.3407740890979767
1772708470475598000,0.49259814453125,-0.12767992913722992,-0.2904587388038635,-0.33915382623672485
1772708470485624300,0.502624267578125,-0.13194844126701355,-0.30949926376342773,-0.3275325894355774
1772708470495650300,0.512650390625,-0.14152251183986664,-0.3101402819156647,-0.3089945912361145
1772708470505676300,0.52267626953125,-0.15743570029735565,-0.3134426176548004,-0.29257169365882874
1772708470515702300,0.532702392578125,-0.17688582837581635,-0.32606786489486694,-0.2810295522212982
1772708470525728300,0.542728271484375,-0.20299199223518372,-0.33972373604774475,-0.27211886644363403
1772708470535754200,0.552754150390625,-0.2298363894224167,-0.34758564829826355,-0.2627038061618805
1772708470545780200,0.5627802734375,-0.26202869415283203,-0.35192716121673584,-0.25399819016456604
1772708470555806200,0.57280615234375,-0.2860730290412903,-0.3292441964149475,-0.25473347306251526
1772708470565832200,0.582832275390625,-0.30950644612312317,-0.30158060789108276,-0.26412007212638855
1772708470575858200,0.592858154296875,-0.32079797983169556,-0.2762877941131592,-0.2775959372520447
1772708470585884200,0.60288427734375,-0.32763779163360596,-0.248398095369339,-0.28755322098731995
1772708470595910400,0.612910400390625,-0.34215015172958374,-0.22642168402671814,-0.29360926151275635
1772708470605936400,0.622936279296875,-0.36204397678375244,-0.2048247903585434,-0.2956963777542114
1772708470615962400,0.63296240234375,-0.38700070977211,-0.17687676846981049,-0.30916184186935425
1772708470625988400,0.64298828125,-0.40559622645378113,-0.13950969278812408,-0.3262398838996887
1772708470636014300,0.653014404296875,-0.41134172677993774,-0.10678476840257645,-0.34320396184921265
1772708470646040300,0.663040283203125,-0.4042185842990875,-0.07882184535264969,-0.34639522433280945
1772708470656066300,0.67306640625,-0.3886532187461853,-0.05034546181559563,-0.32200759649276733
1772708470666092000,0.683092041015625,-0.369176983833313,-0.023681094869971275,-0.25977805256843567
1772708470676119000,0.693119140625,-0.350424587726593,0.04009575396776199,-0.1497892290353775
1772708470686145300,0.703145263671875,-0.3350272476673126,0.10134472697973251,0.0009725864510983229
1772708470696171300,0.713171142578125,-0.32507583498954773,0.11091240495443344,0.17725521326065063
1772708470706197200,0.723197265625,-0.3006439805030823,0.0832458883523941,0.3620900511741638
1772708470716223200,0.73322314453125,-0.2530874013900757,0.0640769898891449,0.5373678207397461
1772708470726249200,0.743249267578125,-0.18507850170135498,0.06778757274150848,0.6962448358535767
1772708470736275200,0.753275146484375,-0.11751571297645569,0.07350191473960876,0.8375359177589417
1772708470746301200,0.76330126953125,-0.05116758123040199,0.07878269255161285,0.9558607339859009
1772708470756327200,0.7733271484375,0.020542560145258904,0.13359667360782623,1.0540053844451904
1772708470766353200,0.783353271484375,0.08273828774690628,0.298941433429718,1.1428343057632446
1772708470776379100,0.793379150390625,0.12163694947957993,0.5539993047714233,1.2075365781784058
1772708470786405000,0.803405029296875,0.11084821820259094,0.8596619963645935,1.2417789697647095
1772708470796431400,0.813431396484375,0.060324594378471375,1.1753326654434204,1.2631229162216187
1772708470806457300,0.823457275390625,0.0008617989369668067,1.3605003356933594,1.2644180059432983
1772708470816483300,0.8334833984375,-0.08639907091856003,1.265580177307129,1.218185305595398
1772708470826509300,0.84350927734375,-0.24585451185703278,0.8339028358459473,1.073382019996643
1772708470836535300,0.853535400390625,-0.43227100372314453,0.20671989023685455,0.8675574660301208
1772708470846561300,0.863561279296875,-0.5877825617790222,-0.32424837350845337,0.7213579416275024
1772708470856587300,0.873587158203125,-0.7091420292854309,-0.5964215993881226,0.7162870168685913
1772708470866613200,0.88361328125,-0.8557924032211304,-0.6877298951148987,0.825633704662323
1772708470876639200,0.89363916015625,-1.0458004474639893,-0.6044549942016602,0.9677935242652893
1772708470886665200,0.903665283203125,-1.2085869312286377,-0.23088620603084564,0.9639971852302551
1772708470896691200,0.913691162109375,-1.2275340557098389,0.059959206730127335,0.6468937993049622
1772708470906717200,0.92371728515625,-1.0243103504180908,0.24597807228565216,0.07497970014810562
1772708470916743200,0.9337431640625,-0.6989548802375793,0.38779592514038086,-0.5093508362770081
1772708470926769200,0.94376904296875,-0.4333394467830658,0.46025946736335754,-0.8893618583679199
1772708470936795100,0.953795166015625,-0.2374194711446762,0.3647010028362274,-0.9840076565742493
1772708470946821000,0.963821044921875,-0.061054032295942307,-0.027842815965414047,-0.846329391002655
1772708470956847000,0.97384716796875,0.048168595880270004,-0.6411355137825012,-0.5765224695205688
1772708470966873000,0.983873046875,0.06034136936068535,-1.1700619459152222,-0.2658274173736572
1772708470976900000,0.993900146484375,0.01967010833323002,-1.3809131383895874,0.002981142606586218
1772708470986926300,1.00392626953125,0.03387594223022461,-1.2027090787887573,0.13856905698776245
1772708470996952300,1.013952392578125,0.17747464776039124,-0.8861207962036133,0.07921493053436279
1772708471006978300,1.023978271484375,0.3776184022426605,-0.5816823244094849,-0.1636081039905548
1772708471017004300,1.03400439453125,0.6036099791526794,-0.42089343070983887,-0.5159555077552795
1772708471027030300,1.0440302734375,0.789395809173584,-0.5235583186149597,-0.8761525750160217
1772708471037056300,1.05405615234375,0.85513836145401,-0.8319265246391296,-1.1661252975463867
1772708471047082200,1.064082275390625,0.7826439142227173,-1.2271217107772827,-1.3363620042800903
1772708471057108200,1.074108154296875,0.5782987475395203,-1.6803233623504639,-1.3737388849258423
1772708471067134200,1.08413427734375,0.31289932131767273,-1.978724718093872,-1.2721166610717773
1772708471077160200,1.09416015625,0.09793668240308762,-1.986498236656189,-1.0713162422180176
1772708471087186200,1.104186279296875,-0.0532565638422966,-1.8044884204864502,-0.8378176689147949
1772708471097212400,1.11421240234375,-0.15181775391101837,-1.4406180381774902,-0.5832186937332153
1772708471107238400,1.12423828125,-0.2667504549026489,-0.9067845344543457,-0.3059791028499603
1772708471117264400,1.134264404296875,-0.4181378483772278,-0.3021808862686157,-0.01464871782809496
1772708471127290400,1.144290283203125,-0.47909921407699585,0.3257027268409729,0.22682835161685944
1772708471137316400,1.15431640625,-0.33007723093032837,1.052843451499939,0.3851950764656067
1772708471147342000,1.164342041015625,-0.101476289331913,1.630036473274231,0.4442967474460602
1772708471157368000,1.1743681640625,0.13897359371185303,1.8624497652053833,0.4258809983730316
1772708471167394000,1.18439404296875,0.2536671459674835,1.8351728916168213,0.33250871300697327
1772708471177420000,1.194419921875,0.21768279373645782,1.5996218919754028,0.18115700781345367
1772708471187446000,1.204446044921875,0.17725680768489838,1.250900387763977,0.023203056305646896
1772708471197472000,1.214471923828125,0.13202035427093506,0.9528611898422241,-0.09176800400018692
1772708471207498200,1.224498291015625,-0.017977667972445488,0.8866164088249207,-0.12942270934581757
1772708471217524200,1.234524169921875,-0.2181594967842102,0.9859461784362793,-0.048415202647447586
1772708471227550200,1.24455029296875,-0.301554799079895,0.7758083939552307,0.18112850189208984
1772708471237576200,1.254576171875,-0.31060928106307983,0.2629584074020386,0.4617375433444977
1772708471247602200,1.264602294921875,-0.35730913281440735,-0.3490844964981079,0.768238365650177
1772708471257628200,1.274628173828125,-0.4296565651893616,-0.848787248134613,1.103355050086975
1772708471267654100,1.284654052734375,-0.5777368545532227,-1.2010438442230225,1.4300799369812012
1772708471277681200,1.29468115234375,-0.746269941329956,-1.5711385011672974,1.7334682941436768
1772708471287707100,1.30470703125,-0.7780526280403137,-2.214247465133667,2.0172040462493896
1772708471297733400,1.3147333984375,-0.7978116869926453,-1.845292568206787,2.2509708404541016
1772708471307759400,1.32475927734375,-0.902593195438385,-1.2635093927383423,2.4131853580474854
1772708471317785300,1.334785400390625,-1.1015931367874146,-1.1101146936416626,2.364468574523926
1772708471327811300,1.344811279296875,-1.3564472198486328,-0.6894540786743164,2.1145288944244385
1772708471337837300,1.35483740234375,-1.556802749633789,-0.4511871635913849,1.7800248861312866
1772708471347863300,1.36486328125,-1.6346895694732666,-0.380981981754303,1.436575174331665
1772708471357889300,1.37488916015625,-1.5239366292953491,-0.8085300922393799,1.0679385662078857
1772708471367915300,1.384915283203125,-1.184566617012024,-1.503310203552246,0.6884266138076782
1772708471377941200,1.394941162109375,-0.7584749460220337,-1.865907907485962,0.3669082224369049
1772708471387967200,1.40496728515625,-0.5358847379684448,-1.1074135303497314,-0.03315342590212822
1772708471397993200,1.4149931640625,-0.47526052594184875,-0.39272651076316833,-0.3555503785610199
1772708471408019200,1.425019287109375,-0.20573770999908447,0.26199406385421753,-0.4978790283203125
1772708471418045400,1.43504541015625,0.07012102752923965,0.7691768407821655,-0.5674751400947571
1772708471428071400,1.445071533203125,0.29639652371406555,1.1626194715499878,-0.5461557507514954
1772708471438097400,1.455097412109375,0.31043535470962524,1.5799809694290161,-0.43575015664100647
1772708471448123400,1.465123291015625,0.0727948471903801,1.8075196743011475,-0.280789852142334
1772708471458149400,1.4751494140625,-0.24752217531204224,1.646631121635437,-0.09143910557031631
1772708471468175400,1.48517529296875,-0.35321664810180664,1.2730612754821777,0.2005927562713623
1772708471478201300,1.495201416015625,-0.08715194463729858,1.0503568649291992,0.5924617052078247
1772708471488227300,1.505227294921875,0.2700860798358917,0.9354515671730042,1.0161253213882446
1772708471498253300,1.51525341796875,0.369407057762146,1.0317738056182861,1.3525800704956055
1772708471508279300,1.525279296875,0.1850590705871582,1.3988327980041504,1.4171808958053589
1772708471518305300,1.53530517578125,-0.020205402746796608,1.6788727045059204,1.060836911201477
1772708471528331500,1.54533154296875,-0.2879532277584076,1.4581960439682007,0.11012464016675949
1772708471538357500,1.555357421875,-0.6261001229286194,0.633978009223938,-1.343850016593933
1772708471548383500,1.565383544921875,-0.6670467257499695,-0.11276037245988846,-2.5945205688476562
1772708471558409500,1.575409423828125,-0.5710568428039551,-0.4578106999397278,-3.2826642990112305
1772708471568435500,1.585435546875,-0.5448800921440125,-0.4821069836616516,-3.610779285430908
1772708471578461400,1.59546142578125,-0.5105820298194885,-0.25781822204589844,-3.7129552364349365
1772708471588487400,1.6054873046875,-0.37693876028060913,0.03136058524250984,-3.635274887084961
1772708471598513400,1.615513427734375,-0.11117126047611237,0.3824443221092224,-3.349943161010742
1772708471608540400,1.62554052734375,0.1531200408935547,0.6921473145484924,-2.854275941848755
1772708471618566400,1.63556640625,0.3263533413410187,0.7874213457107544,-2.1740593910217285
1772708471628592400,1.64559228515625,0.442854642868042,0.6519919037818909,-1.3724493980407715
1772708471638618400,1.655618408203125,0.5280374884605408,0.2799168825149536,-0.5980700850486755
1772708471648644400,1.665644287109375,0.6043136119842529,-0.26932546496391296,-0.0483265183866024
1772708471658670300,1.67567041015625,0.6628628969192505,-0.8483667373657227,0.21848919987678528
1772708471668696300,1.6856962890625,0.6075479984283447,-1.3713383674621582,0.2635080814361572
1772708471678722300,1.695722412109375,0.42558857798576355,-1.787778377532959,0.14870505034923553
1772708471688748300,1.705748291015625,0.20742003619670868,-2.169732093811035,-0.051474910229444504
1772708471698774300,1.715774169921875,0.0815739557147026,-2.4287171363830566,-0.24893711507320404
1772708471708800300,1.72580029296875,0.06952634453773499,-2.3864505290985107,-0.3893248438835144
1772708471718826200,1.735826171875,0.17738410830497742,-1.9811079502105713,-0.4085470139980316
1772708471728852500,1.7458525390625,0.3323664963245392,-1.2985552549362183,-0.25500911474227905
1772708471738878500,1.75587841796875,0.46532827615737915,-0.6074404120445251,0.05149621516466141
1772708471748904400,1.765904541015625,0.5379617214202881,-0.1820227950811386,0.3951316177845001
1772708471758930400,1.775930419921875,0.4490997791290283,-0.08082294464111328,0.6722534894943237
1772708471768956400,1.785956298828125,0.262669175863266,-0.11895275115966797,0.9067965149879456
1772708471778982400,1.795982421875,0.11039814352989197,-0.1800030618906021,1.1150932312011719
1772708471789008400,1.80600830078125,0.05408240854740143,-0.2654615044593811,1.2557408809661865
1772708471799034400,1.816034423828125,0.04415121674537659,-0.3524826765060425,1.258611798286438
1772708471809060400,1.826060302734375,0.04837924987077713,-0.44962814450263977,1.10409414768219
1772708471819086300,1.83608642578125,0.0820557177066803,-0.5061614513397217,0.8826559782028198
1772708471829112300,1.8461123046875,0.17320533096790314,-0.4549850821495056,0.6783404350280762
1772708471839138600,1.856138671875,0.2569050192832947,-0.3276178240776062,0.5359883308410645
1772708471849164500,1.86616455078125,0.2617780864238739,-0.20678380131721497,0.4960755407810211
1772708471859190500,1.8761904296875,0.18223585188388824,-0.14558009803295135,0.5587894916534424
1772708471869216500,1.886216552734375,0.057908572256565094,-0.15807192027568817,0.6851706504821777
1772708471879242500,1.896242431640625,-0.04023903235793114,-0.21786122024059296,0.8291264772415161
1772708471889268500,1.9062685546875,-0.14508076012134552,-0.3022940754890442,0.9150014519691467
1772708471899294500,1.91629443359375,-0.27722468972206116,-0.34268465638160706,0.8879098892211914
1772708471909320400,1.926320556640625,-0.39014163613319397,-0.3826445937156677,0.7379835247993469
1772708471919347500,1.936347412109375,-0.44849124550819397,-0.4562431573867798,0.503739058971405
1772708471929373400,1.94637353515625,-0.4293351173400879,-0.49292421340942383,0.20421119034290314
1772708471939399400,1.9563994140625,-0.32984021306037903,-0.45753374695777893,-0.15531794726848602
1772708471949425400,1.96642529296875,-0.2073582410812378,-0.40439915657043457,-0.5430079102516174
1772708471959451400,1.976451416015625,-0.0811140239238739,-0.35491254925727844,-0.8983292579650879
1772708471969477400,1.986477294921875,-0.022364161908626556,-0.32712140679359436,-1.1784682273864746
1772708471979503400,1.99650341796875,-0.08085117489099503,-0.32092955708503723,-1.3716429471969604
1772708471989529300,2.006529296875,-0.23259063065052032,-0.3006541132926941,-1.434503197669983
1772708471999555300,2.016555419921875,-0.43371787667274475,-0.20615236461162567,-1.3181904554367065
1772708472009581300,2.026581298828125,-0.6351934671401978,0.011489675380289555,-1.0223758220672607
1772708472019607300,2.036607177734375,-0.8018948435783386,0.34376856684684753,-0.6103581786155701
1772708472029633500,2.046633544921875,-0.9077685475349426,0.6584036946296692,-0.1964973509311676
1772708472039659500,2.056659423828125,-0.9521600008010864,0.8886534571647644,0.1536843627691269
1772708472049685500,2.066685546875,-0.935464084148407,1.0185108184814453,0.425249308347702
1772708472059711500,2.07671142578125,-0.8764620423316956,0.976027250289917,0.620529055595398
1772708472069737500,2.086737548828125,-0.8282337784767151,0.7177586555480957,0.7934203743934631
1772708472079763500,2.096763427734375,-0.803064227104187,0.3646586537361145,1.002028465270996
1772708472089789400,2.10678955078125,-0.745376706123352,0.06474464386701584,1.2271982431411743
1772708472099815400,2.1168154296875,-0.7228652834892273,-0.14451883733272552,1.4694494009017944
1772708472109841400,2.12684130859375,-0.6620213389396667,-0.07440126687288284,1.829828143119812
1772708472119867400,2.136867431640625,-0.46871528029441833,0.3642626404762268,2.304253339767456
1772708472129893400,2.146893310546875,-0.23705115914344788,1.0065361261367798,2.741213798522949
1772708472139919600,2.156919677734375,-0.09873723238706589,1.5790457725524902,3.0616674423217773
1772708472149945600,2.166945556640625,-0.035589952021837234,1.694430947303772,3.1585631370544434
1772708472159971600,2.1769716796875,-0.055147942155599594,1.2529150247573853,2.8376264572143555
1772708472169997600,2.18699755859375,-0.24402731657028198,0.5153557658195496,1.9530673027038574
1772708472180023600,2.1970234375,-0.6437829732894897,-0.5418403744697571,0.29512032866477966
1772708472190049500,2.207049560546875,-0.8188535571098328,-1.2014273405075073,-1.5414624214172363
1772708472200075300,2.2170751953125,-0.8240898847579956,-1.27737295627594,-3.098227024078369
1772708472210101200,2.227101318359375,-0.8350426554679871,-0.8301634788513184,-4.271977424621582
1772708472220127200,2.237127197265625,-0.5576313138008118,0.3134891986846924,-4.676384449005127
1772708472230153200,2.2471533203125,0.11950083076953888,1.6931488513946533,-4.103524208068848
1772708472240180500,2.257180419921875,0.8459704518318176,2.1329243183135986,-3.0152323246002197
1772708472250206500,2.26720654296875,1.1586207151412964,1.0177810192108154,-2.0550429821014404
1772708472260232400,2.277232421875,0.927025318145752,-1.150497317314148,-1.3622809648513794
1772708472270258400,2.287258544921875,0.668117880821228,-3.2949905395507812,-0.9485210180282593
1772708472280284400,2.297284423828125,0.6795154213905334,-4.422837734222412,-0.8281522989273071
1772708472290310400,2.307310302734375,1.0539169311523438,-4.601144313812256,-0.9600037932395935
1772708472300336400,2.31733642578125,1.6278481483459473,-4.284897327423096,-1.2958731651306152
1772708472310362400,2.3273623046875,2.039285659790039,-3.663184642791748,-1.6503726243972778
1772708472320388400,2.337388427734375,2.1057310104370117,-2.7070562839508057,-1.7581243515014648
1772708472330414300,2.347414306640625,1.8413300514221191,-1.6506352424621582,-1.608654499053955
1772708472340440600,2.357440673828125,1.3385649919509888,-0.8536677360534668,-1.3279415369033813
1772708472350466600,2.367466552734375,0.7142449021339417,-0.25431695580482483,-1.0317155122756958
1772708472360492500,2.377492431640625,0.08813198655843735,0.24236363172531128,-0.7668449878692627
1772708472370518500,2.3875185546875,-0.33059176802635193,0.6200739145278931,-0.5271919369697571
1772708472380543500,2.39754345703125,-0.33600544929504395,0.8503968715667725,-0.2941477298736572
1772708472390569700,2.40756982421875,-0.06713749468326569,1.009711742401123,-0.08428318798542023
1772708472400595700,2.417595703125,0.31845200061798096,1.0507442951202393,0.07727454602718353
1772708472410621700,2.42762158203125,0.7509930729866028,0.997848391532898,0.211750328540802
1772708472420647700,2.437647705078125,1.0767256021499634,0.9101464748382568,0.32996219396591187
1772708472430673700,2.447673583984375,1.2275660037994385,0.9191807508468628,0.4270181655883789
1772708472440699600,2.45769970703125,1.2191953659057617,0.9690044522285461,0.49075108766555786
1772708472450725600,2.4677255859375,1.0353680849075317,0.9974150657653809,0.562549352645874
1772708472460751600,2.477751708984375,0.8057218194007874,1.00762140750885,0.7191190123558044
1772708472470777600,2.487777587890625,0.6275848150253296,0.9488536715507507,0.9602993726730347
1772708472480803600,2.497803466796875,0.5135581493377686,0.810014545917511,1.220582365989685
1772708472490829600,2.50782958984375,0.4605388343334198,0.6484794616699219,1.4132388830184937
1772708472500855800,2.517855712890625,0.503449559211731,0.4055400490760803,1.4221831560134888
1772708472510881500,2.527881591796875,0.6241695880889893,0.02201901562511921,1.1985846757888794
1772708472520908500,2.537908447265625,0.7638505101203918,-0.6136569976806641,0.8843215703964233
1772708472530934500,2.5479345703125,0.9554843902587891,-0.943534791469574,0.753827691078186
1772708472540960500,2.55796044921875,1.033800482749939,-0.6184163689613342,0.673354983329773
1772708472550986500,2.567986572265625,0.907965362071991,-0.24265818297863007,0.47823500633239746
1772708472561012500,2.578012451171875,0.7207387089729309,0.027087543159723282,0.17278322577476501
1772708472571038500,2.58803857421875,0.5265543460845947,0.10950864851474762,-0.1981639564037323
1772708472581064400,2.598064453125,0.26687511801719666,0.16918982565402985,-0.6108703017234802
1772708472591090700,2.608090576171875,0.03500458970665932,0.2620675563812256,-0.9310943484306335
1772708472601116700,2.61811669921875,-0.25101038813591003,0.22227302193641663,-1.22572922706604
1772708472611142700,2.628142578125,-0.5074318051338196,0.08952987939119339,-1.4091442823410034
1772708472621168600,2.638168701171875,-0.6794144511222839,-0.03169507905840874,-1.411643147468567
1772708472631194600,2.648194580078125,-0.792456328868866,-0.12978330254554749,-1.2590837478637695
1772708472641220600,2.658220703125,-0.8498844504356384,0.26126542687416077,-1.011824607849121
1772708472651246600,2.66824658203125,-0.9100077152252197,0.22807151079177856,-0.7303063869476318
1772708472661272600,2.6782724609375,-1.0675632953643799,0.06028970703482628,-0.4210401773452759
1772708472671298600,2.688298583984375,-1.266144037246704,-0.08144665509462357,-0.13236789405345917
1772708472681324500,2.698324462890625,-1.4405605792999268,-0.21152690052986145,0.14205460250377655
1772708472691350500,2.7083505859375,-1.6069327592849731,-0.42885175347328186,0.4273132383823395
1772708472701376800,2.718376708984375,-1.7896865606307983,-0.8839172720909119,0.6582029461860657
1772708472711402800,2.72840283203125,-1.9878233671188354,-1.6747314929962158,0.8157387375831604
1772708472721428700,2.7384287109375,-2.1264915466308594,-2.568103790283203,0.9763537049293518
1772708472731454700,2.748454833984375,-2.122727632522583,-3.2329654693603516,1.1236529350280762
1772708472741480700,2.758480712890625,-2.044182538986206,-3.230966567993164,1.2009410858154297
1772708472751506700,2.768506591796875,-1.845900058746338,-2.2479381561279297,1.138758659362793
1772708472761532700,2.77853271484375,-1.546863317489624,-0.9489324688911438,0.5927466750144958
1772708472771558400,2.788558349609375,-1.66306734085083,-0.18309977650642395,-0.7442200779914856
1772708472781584400,2.79858447265625,-2.0215842723846436,-0.16929368674755096,-2.286560535430908
1772708472791611600,2.808611572265625,-2.659200429916382,-0.7340702414512634,-3.6228184700012207
1772708472801637600,2.8186376953125,-3.126042366027832,-1.2649236917495728,-4.305703639984131
1772708472811663600,2.82866357421875,-3.047145128250122,-1.5557385683059692,-4.235152721405029
1772708472821689600,2.838689697265625,-2.566751480102539,-1.3853579759597778,-3.8459742069244385
1772708472831715600,2.848715576171875,-1.675912618637085,-0.9930490851402283,-3.1023755073547363
1772708472841741600,2.858741455078125,-0.4742959439754486,-0.9579656720161438,-1.9919893741607666
1772708472851767600,2.868767578125,0.4079959988594055,-1.2429982423782349,-0.8701090216636658
1772708472861793500,2.87879345703125,0.5226650834083557,-1.7456624507904053,-0.11709386855363846
1772708472871819500,2.888819580078125,0.06858731806278229,-1.9974368810653687,0.1364973932504654
1772708472881845500,2.898845458984375,-0.4958829879760742,-1.742939829826355,-0.004157194402068853
1772708472891871700,2.908871826171875,-0.8533170223236084,-1.2098897695541382,-0.4005892276763916
1772708472901897700,2.918897705078125,-0.7866828441619873,-0.5911905765533447,-0.9549376368522644
1772708472911923700,2.928923828125,-0.40106672048568726,0.10649687796831131,-1.5611681938171387
1772708472921949700,2.93894970703125,-0.07071171700954437,0.8457096815109253,-2.161404848098755
1772708472931975700,2.9489755859375,0.046058837324380875,1.4268282651901245,-2.592254638671875
1772708472942001700,2.959001708984375,0.014772554859519005,1.6943798065185547,-2.584578275680542
1772708472952027600,2.969027587890625,-0.06082926318049431,1.620164394378662,-1.9871309995651245
1772708472962053600,2.9790537109375,-0.10285740345716476,1.3274009227752686,-0.9496062994003296
1772708472972079600,2.98907958984375,-0.09903896600008011,0.9590908288955688,0.20949304103851318
1772708472982105600,2.999105712890625,-0.06305593252182007,0.715870201587677,1.2390364408493042
1772708472992131600,3.009131591796875,-0.023784691467881203,0.5972974896430969,1.9604079723358154
1772708473002157600,3.019157470703125,0.0706869512796402,0.6644086241722107,2.3605949878692627
1772708473012183600,3.02918359375,0.2672753632068634,0.8993580341339111,2.4041645526885986
1772708473022209500,3.03920947265625,0.44598546624183655,1.4304695129394531,2.078518867492676
1772708473032235500,3.049235595703125,0.595041811466217,2.263988733291626,1.5397672653198242
1772708473042261500,3.059261474609375,0.7036281824111938,3.1847517490386963,0.9422380924224854
1772708473052287500,3.06928759765625,0.6623465418815613,3.6877048015594482,0.3431752026081085
1772708473062313500,3.0793134765625,0.4967930018901825,3.7033495903015137,-0.2434414178133011
1772708473072340500,3.089340576171875,0.2944580018520355,3.4005329608917236,-0.624108612537384
1772708473082366500,3.099366455078125,0.12938515841960907,2.895949363708496,-0.6683756709098816
1772708473092392700,3.109392822265625,0.1146879643201828,2.4666457176208496,-0.35800740122795105
1772708473102418700,3.119418701171875,0.2663201093673706,2.133777618408203,0.19737379252910614
1772708473112444700,3.129444580078125,0.4677712023258209,1.774078607559204,0.8223007917404175
1772708473122470700,3.139470703125,0.6258846521377563,1.4119054079055786,1.3702930212020874
1772708473132496600,3.14949658203125,0.6942602396011353,1.0775136947631836,1.7661924362182617
1772708473142522600,3.159522705078125,0.6559134125709534,0.7450195550918579,1.9585038423538208
1772708473152548600,3.169548583984375,0.5631176829338074,0.48929059505462646,1.9798469543457031
1772708473162574600,3.17957470703125,0.46511736512184143,0.3888380229473114,1.8998935222625732
1772708473172600600,3.1896005859375,0.37988021969795227,0.35433250665664673,1.7230868339538574
1772708473182626600,3.19962646484375,0.32504865527153015,0.34209129214286804,1.4199810028076172
1772708473192652500,3.209652587890625,0.2937706410884857,0.3252936601638794,1.0504915714263916
1772708473202678800,3.2196787109375,0.2709111273288727,0.2894589900970459,0.682989239692688
1772708473212704800,3.229704833984375,0.27331677079200745,0.27988386154174805,0.43703165650367737
1772708473222730800,3.239730712890625,0.3001646101474762,0.322778582572937,0.3991931974887848
1772708473232756700,3.2497568359375,0.3670709431171417,0.3472173511981964,0.5755549073219299
1772708473242782700,3.25978271484375,0.46641218662261963,0.3907501697540283,0.8523673415184021
1772708473252808400,3.269808349609375,0.5536363124847412,0.39172887802124023,1.087594747543335
1772708473262834400,3.27983447265625,0.606996476650238,0.2450409084558487,1.2389438152313232
1772708473272860400,3.2898603515625,0.6394470930099487,0.07975022494792938,1.342306137084961
1772708473282886400,3.299886474609375,0.6708984971046448,0.03783819079399109,1.487850546836853
1772708473292912400,3.309912353515625,0.6387642621994019,0.018195781856775284,1.5422155857086182
1772708473302938400,3.3199384765625,0.6535820960998535,0.01877155713737011,1.460641622543335
1772708473312964600,3.329964599609375,0.6759012341499329,0.18545454740524292,1.1854790449142456
1772708473322990600,3.339990478515625,0.6135310530662537,0.516743004322052,0.7820702791213989
1772708473333016600,3.3500166015625,0.5530067086219788,0.8222706913948059,0.49378547072410583
1772708473343042600,3.36004248046875,0.5361337661743164,1.033347249031067,0.2989209294319153
1772708473353068500,3.370068603515625,0.49711495637893677,1.0489983558654785,0.2659744322299957
1772708473363095600,3.380095458984375,0.3932282626628876,0.8141406178474426,0.39840462803840637
1772708473373122600,3.39012255859375,0.2013283222913742,0.6119965314865112,0.8819774389266968
1772708473383148500,3.4001484375,0.05716661736369133,0.48933881521224976,1.5978626012802124
1772708473393174500,3.410174560546875,-0.08859271556138992,0.2223997861146927,1.9033929109573364
1772708473403200500,3.420200439453125,-0.4803501069545746,-0.6378957629203796,1.0215781927108765
1772708473413226500,3.4302265625,-1.2541563510894775,-1.9413096904754639,-1.2049623727798462
1772708473423252500,3.44025244140625,-1.6976605653762817,-2.8150036334991455,-4.127774715423584
1772708473433278500,3.450278564453125,-1.5626795291900635,-2.3820834159851074,-6.5803542137146
1772708473443304400,3.460304443359375,-0.6632304191589355,-0.3975553512573242,-7.703190326690674
1772708473453330400,3.470330322265625,0.7560413479804993,1.5032103061676025,-7.7152180671691895
1772708473463356400,3.4803564453125,1.6494556665420532,1.9927411079406738,-7.267857074737549
1772708473473382400,3.49038232421875,1.6183336973190308,1.7960152626037598,-6.355452060699463
1772708473483408400,3.500408447265625,0.8745211362838745,0.9507879018783569,-5.284303188323975
1772708473493434400,3.510434326171875,0.08966117352247238,0.24813337624073029,-3.9839425086975098
1772708473503460600,3.520460693359375,-0.1562386006116867,0.02154151163995266,-2.6514787673950195
1772708473513486600,3.530486572265625,-0.011965849436819553,0.07063502073287964,-1.7843818664550781
1772708473523512600,3.5405126953125,0.2223861962556839,0.6596261262893677,-1.6066893339157104
1772708473533538600,3.55053857421875,0.5258768200874329,1.7622523307800293,-2.207803726196289
1772708473543564500,3.560564453125,0.7968923449516296,3.1508028507232666,-3.3367202281951904
1772708473553590500,3.570590576171875,0.8281410932540894,4.3673272132873535,-4.5917510986328125
1772708473563616500,3.580616455078125,0.6410313844680786,4.990717887878418,-5.40618371963501
1772708473573642500,3.590642578125,0.488690048456192,4.986016273498535,-5.197662830352783
1772708473583668500,3.60066845703125,0.47511592507362366,4.145565509796143,-4.053898811340332
1772708473593694500,3.610694580078125,0.5488298535346985,2.5546112060546875,-2.3668272495269775
1772708473603720400,3.620720458984375,0.6315034031867981,0.7264951467514038,-0.5755106806755066
1772708473613746700,3.63074658203125,0.6458503603935242,-0.9425821900367737,0.8956096172332764
1772708473623772700,3.640772705078125,0.5984551906585693,-2.1257801055908203,1.876542329788208
1772708473633798700,3.650798583984375,0.5715218186378479,-2.847820281982422,2.3137378692626953
1772708473643824600,3.66082470703125,0.6709751486778259,-3.0255215167999268,2.300380229949951
1772708473653850600,3.6708505859375,0.8569165468215942,-2.6850595474243164,1.9721626043319702
1772708473663877400,3.68087744140625,1.0255465507507324,-2.0695667266845703,1.4281861782073975
1772708473673903400,3.6909033203125,1.1839548349380493,-1.3656260967254639,0.8919792175292969
1772708473683929300,3.700929443359375,1.3601202964782715,-0.6979881525039673,0.5843896865844727
1772708473693955300,3.710955322265625,1.4208563566207886,-0.22561527788639069,0.5313147306442261
1772708473703981600,3.720981689453125,1.3781334161758423,-0.07444334030151367,0.6621979475021362
1772708473714007600,3.731007568359375,1.3183525800704956,-0.16864228248596191,0.9252713918685913
1772708473724033500,3.741033447265625,1.2554093599319458,-0.2431950718164444,1.2792938947677612
1772708473734059500,3.7510595703125,1.17194664478302,-0.25941240787506104,1.5877009630203247
1772708473744085500,3.76108544921875,1.0385020971298218,-0.2566421627998352,1.7569867372512817
1772708473754111500,3.771111572265625,0.8282985091209412,-0.21644681692123413,1.7774498462677002
1772708473764137500,3.781137451171875,0.6137275695800781,-0.18352028727531433,1.6138044595718384
1772708473774163500,3.79116357421875,0.46352770924568176,-0.18550407886505127,1.3295538425445557
1772708473784189400,3.801189453125,0.285572350025177,-0.06666877865791321,0.9663229584693909
1772708473794215400,3.81121533203125,0.06216084212064743,0.14808081090450287,0.5386053919792175
1772708473804241400,3.821241455078125,-0.0891495794057846,0.332416832447052,0.11112944781780243
1772708473814267600,3.831267578125,-0.16447336971759796,0.4536484479904175,-0.24484197795391083
1772708473824293600,3.841293701171875,-0.2120206505060196,0.49884361028671265,-0.49478283524513245
1772708473834319600,3.851319580078125,-0.22034834325313568,0.41876184940338135,-0.6248654723167419
1772708473844345600,3.861345703125,-0.1478579044342041,0.17716945707798004,-0.6365969777107239
1772708473854371600,3.87137158203125,-0.0426475964486599,-0.10310987383127213,-0.5317887663841248
1772708473864397600,3.8813974609375,0.06371133774518967,-0.38921061158180237,-0.33451780676841736
1772708473874423600,3.891423583984375,0.17857347428798676,-0.6797324419021606,-0.07883062958717346
1772708473884449500,3.901449462890625,0.2626718282699585,-0.8689258098602295,0.24721752107143402
1772708473894475500,3.9114755859375,0.31533902883529663,-0.8914433717727661,0.6565523147583008
1772708473904501500,3.92150146484375,0.4071030616760254,-0.7663711905479431,1.0625461339950562
1772708473914527500,3.931527587890625,0.4990209937095642,-0.6059498190879822,1.3386411666870117
1772708473924553700,3.9415537109375,0.43522655963897705,-0.5631184577941895,1.4662765264511108
1772708473934579700,3.951579833984375,0.2841406464576721,-0.523476779460907,1.6208312511444092
1772708473944605700,3.961605712890625,0.18690064549446106,-0.3658978343009949,1.896246314048767
1772708473954631700,3.971631591796875,0.13704679906368256,-0.01938328519463539,2.101797103881836
1772708473964657700,3.98165771484375,0.06850555539131165,0.19195665419101715,2.080409288406372
1772708473974683600,3.99168359375,0.010027067735791206,0.3509233891963959,2.0277535915374756
1772708473984710400,4.00171044921875,-0.13233406841754913,0.17918440699577332,1.8820500373840332
1772708473994736400,4.011736328125,-0.5702775716781616,-0.7601085305213928,1.442964792251587
1772708474004762600,4.0217626953125,-1.144753098487854,-2.006235122680664,0.9452032446861267
1772708474014788600,4.03178857421875,-1.6207451820373535,-2.982818841934204,0.4012606143951416
1772708474024814600,4.041814697265625,-1.4473379850387573,-3.9421133995056152,-0.02648140862584114
1772708474034840600,4.051840576171875,-0.7868631482124329,-4.414958953857422,-0.21527555584907532
1772708474044866600,4.061866455078125,0.012427907437086105,-3.953202724456787,-0.40785592794418335
1772708474054892500,4.071892578125,0.7443873286247253,-3.322627305984497,-1.015403389930725
1772708474064918500,4.08191845703125,1.392278790473938,-3.219940662384033,-1.8807706832885742
1772708474074944500,4.091944580078125,1.713429570198059,-3.278687000274658,-2.597493886947632
1772708474084970500,4.101970458984375,1.4301915168762207,-2.931262731552124,-3.3656556606292725
1772708474094996500,4.11199658203125,0.4902850091457367,-2.356520414352417,-4.536046028137207
1772708474105022500,4.1220224609375,-0.9464043378829956,-0.9633537530899048,-5.3658318519592285
1772708474115048700,4.132048583984375,-1.688301920890808,0.9607055187225342,-4.929937839508057
1772708474125074700,4.14207470703125,-1.6301523447036743,2.309671401977539,-3.6501331329345703
1772708474135100700,4.1521005859375,-1.2238026857376099,2.5347635746002197,-2.119661331176758
1772708474145126700,4.162126708984375,-0.9036701917648315,1.883457064628601,-0.6624333262443542
1772708474155152600,4.172152587890625,-0.8950149416923523,0.7372753620147705,0.645027756690979
1772708474165178600,4.1821787109375,-1.1453441381454468,-0.5338375568389893,1.6628955602645874
1772708474175204600,4.19220458984375,-1.4383996725082397,-1.3613640069961548,2.4004342555999756
1772708474185230600,4.202230712890625,-1.652902364730835,-1.4140706062316895,2.6372976303100586
1772708474195256600,4.212256591796875,-1.717983603477478,-0.7163991332054138,2.5184459686279297
1772708474205282600,4.222282470703125,-1.5464246273040771,0.2668894827365875,2.1823925971984863
1772708474215308500,4.23230859375,-1.2579138278961182,1.1804040670394897,1.764231562614441
1772708474225334500,4.24233447265625,-0.9137982130050659,1.793223261833191,1.401755928993225
1772708474235360500,4.252360595703125,-0.5782023668289185,2.1521658897399902,1.1056219339370728
1772708474245386500,4.262386474609375,-0.3102942109107971,2.3321452140808105,0.8795614242553711
1772708474255412500,4.27241259765625,-0.08486535400152206,2.3802852630615234,0.7553816437721252
1772708474265438500,4.2824384765625,0.10778158903121948,2.359463930130005,0.7275835871696472
1772708474275464400,4.29246435546875,0.2772134840488434,2.2718756198883057,0.7552439570426941
1772708474285490400,4.302490478515625,0.4090695381164551,2.0766658782958984,0.8797472715377808
1772708474295516400,4.312516357421875,0.5018037557601929,1.743018627166748,1.0585412979125977
1772708474305542400,4.32254248046875,0.5066349506378174,1.2961852550506592,1.235451340675354
1772708474315569700,4.332569580078125,0.42931222915649414,0.8468607068061829,1.3926007747650146
1772708474325595600,4.342595703125,0.3718164265155792,0.4032302796840668,1.4850249290466309
1772708474335621600,4.35262158203125,0.3940791189670563,0.018935341387987137,1.5496050119400024
1772708474345647600,4.362647705078125,0.4920235276222229,-0.18298819661140442,1.5765000581741333
1772708474355673600,4.372673583984375,0.6548579931259155,-0.18707667291164398,1.5566900968551636
1772708474365699600,4.382699462890625,0.8202615976333618,-0.07762874662876129,1.44613778591156
1772708474375725300,4.392725341796875,0.8828877210617065,-0.0002798982313834131,1.219687819480896
1772708474385751300,4.402751220703125,0.7786385416984558,-0.11135262250900269,0.8263455629348755
1772708474395777300,4.41277734375,0.5205374956130981,-0.5017967820167542,0.30368104577064514
1772708474405803300,4.42280322265625,0.19682598114013672,-0.94144207239151,-0.22290657460689545
1772708474415829200,4.432829345703125,-0.12825144827365875,-1.2302978038787842,-0.684788167476654
1772708474425855500,4.44285546875,-0.32951292395591736,-1.3292193412780762,-1.023627519607544
1772708474435881500,4.452881591796875,-0.3404683768749237,-1.151928424835205,-1.1879205703735352
1772708474445907500,4.462907470703125,-0.24566595256328583,-0.7413414716720581,-1.1926378011703491
1772708474455933400,4.472933349609375,-0.14586080610752106,-0.27060192823410034,-1.0687135457992554
1772708474465959400,4.48295947265625,-0.047630902379751205,0.14702406525611877,-0.7877369523048401
1772708474475985400,4.4929853515625,0.04248780384659767,0.4644949734210968,-0.37243348360061646
1772708474486011400,4.503011474609375,0.09065746515989304,0.6455459594726562,0.11474628746509552
1772708474496037000,4.513037109375,0.057310692965984344,0.6989319920539856,0.6129142642021179
1772708474506063000,4.52306298828125,-0.07200601696968079,0.5521188378334045,1.11357581615448
1772708474516089000,4.533089111328125,-0.2723985016345978,0.17268122732639313,1.653582215309143
1772708474526115000,4.543114990234375,-0.5022098422050476,-0.3570531904697418,2.2962417602539062
1772708474536141300,4.553141357421875,-0.6848776936531067,-1.0526686906814575,2.9126598834991455
1772708474546167300,4.563167236328125,-0.8392456769943237,-1.6366150379180908,3.285691499710083
1772708474556193300,4.573193359375,-0.984337329864502,-1.837687611579895,3.3750128746032715
1772708474566219300,4.58321923828125,-0.9052901864051819,-1.9973734617233276,3.2250277996063232
1772708474576245200,4.593245361328125,-0.5403631329536438,-2.0860729217529297,2.937753915786743
1772708474586271200,4.603271240234375,-0.11757510155439377,-1.4641337394714355,2.4076340198516846
1772708474596297200,4.613297119140625,0.2311898171901703,-0.4224703013896942,0.9504014849662781
1772708474606323200,4.6233232421875,0.33671197295188904,-0.5400770902633667,-1.7595033645629883
1772708474616349200,4.63334912109375,0.19745874404907227,-1.9831897020339966,-4.6626667976379395
1772708474626375200,4.643375244140625,-0.021336447447538376,-2.707507610321045,-6.4127702713012695
1772708474636401200,4.653401123046875,-0.13902179896831512,-1.5527321100234985,-6.81053352355957
1772708474646427400,4.663427490234375,0.09057676792144775,1.0613617897033691,-5.822615146636963
1772708474656454400,4.673454345703125,1.3496146202087402,2.9863810539245605,-3.926055669784546
1772708474666480400,4.68348046875,2.4555506706237793,2.819868564605713,-2.038043737411499
1772708474676506400,4.69350634765625,2.291602373123169,1.1285400390625,-0.27020910382270813
1772708474686532400,4.703532470703125,1.2937713861465454,-0.9996737241744995,1.5865020751953125
1772708474696558300,4.713558349609375,0.1740064173936844,-2.8373780250549316,2.4482734203338623
1772708474706584300,4.723584228515625,-0.4623364806175232,-3.206481456756592,2.067915201187134
1772708474716610300,4.7336103515625,-0.4405619502067566,-2.169048309326172,1.0212184190750122
1772708474726636300,4.74363623046875,-0.3051609694957733,-0.4214622974395752,-0.4430091083049774
1772708474736662300,4.753662353515625,-0.21412187814712524,1.1547415256500244,-1.6946252584457397
1772708474746688300,4.763688232421875,-0.1617329716682434,2.0014922618865967,-2.5346171855926514
1772708474756714200,4.77371435546875,-0.29589956998825073,2.3358354568481445,-2.956057548522949
1772708474766740200,4.783740234375,-0.41151511669158936,2.4707515239715576,-3.043492317199707
1772708474776766200,4.79376611328125,-0.44229352474212646,2.541826009750366,-2.8251373767852783
1772708474786792200,4.803792236328125,-0.4332222640514374,2.265378713607788,-2.3187167644500732
1772708474796818200,4.813818115234375,-0.4088311791419983,1.6339713335037231,-1.4036648273468018
1772708474806844200,4.82384423828125,-0.39249613881111145,0.8480671048164368,-0.3146394193172455
1772708474816870100,4.8338701171875,-0.4514356255531311,0.18267767131328583,0.6800493597984314
1772708474826896100,4.843896240234375,-0.515917956829071,-0.3096478581428528,1.4563874006271362
1772708474836922000,4.853922119140625,-0.5178292989730835,-0.521009087562561,1.958052158355713
1772708474846948400,4.8639482421875,-0.4294600188732147,-0.3082992434501648,2.20670223236084
1772708474856974300,4.873974365234375,-0.24686624109745026,0.15599945187568665,2.2573959827423096
1772708474867000300,4.884000244140625,0.018912971019744873,0.6288953423500061,2.1638309955596924
1772708474877026300,4.8940263671875,0.3268630802631378,0.9663668870925903,1.957540512084961
1772708474887052300,4.90405224609375,0.5894214510917664,1.2865140438079834,1.6785813570022583
1772708474897078300,4.914078369140625,0.7195789217948914,1.4245424270629883,1.4250431060791016
1772708474907104300,4.924104248046875,0.6470648050308228,1.1848691701889038,1.1688404083251953
1772708474917130200,4.934130126953125,0.3979654908180237,0.6713266968727112,0.9720556735992432
1772708474927156200,4.94415625,0.09901420027017593,0.10191304981708527,0.81770259141922
1772708474937182200,4.95418212890625,-0.1380111277103424,-0.33697509765625,0.7627930045127869
1772708474947208200,4.964208251953125,-0.20704080164432526,-0.6745672225952148,0.7883577346801758
1772708474957234400,4.974234375,-0.08055875450372696,-0.886671245098114,0.848564863204956
1772708474967260400,4.984260498046875,0.13008902966976166,-0.9914477467536926,0.8929427266120911
1772708474977286400,4.994286376953125,0.31571242213249207,-1.0190106630325317,0.83660888671875
1772708474987313200,5.004313232421875,0.4285185933113098,-0.9426589012145996,0.642570436000824
1772708474997339100,5.014339111328125,0.4053610861301422,-0.7816119194030762,0.2803381681442261
1772708475007365000,5.024365234375,0.2734310030937195,-0.6204656362533569,-0.20710870623588562
1772708475017391000,5.03439111328125,0.12671373784542084,-0.43933501839637756,-0.6331502795219421
1772708475027417000,5.0444169921875,0.059845488518476486,-0.21587316691875458,-0.8950918912887573
1772708475037443300,5.054443359375,0.04893665015697479,0.11444961279630661,-0.995086669921875
1772708475047469300,5.06446923828125,0.10327978432178497,0.3982986509799957,-0.9895851016044617
1772708475057495300,5.074495361328125,0.23371635377407074,0.5500143766403198,-0.8942378163337708
1772708475067521300,5.084521240234375,0.3038720190525055,0.5901415944099426,-0.699947714805603
1772708475077547300,5.09454736328125,0.2948457598686218,0.5093250274658203,-0.41554102301597595
1772708475087573200,5.1045732421875,0.2665765583515167,0.32820531725883484,-0.05282566323876381
1772708475097599200,5.11459912109375,0.2978130578994751,0.07178284227848053,0.2703513205051422
1772708475107625200,5.124625244140625,0.37158554792404175,-0.0712672546505928,0.5614843964576721
1772708475117651200,5.134651123046875,0.44339075684547424,-0.09021031856536865,0.8236259818077087
1772708475127677200,5.14467724609375,0.5087505578994751,-0.03971252590417862,1.0456608533859253
1772708475137703200,5.154703125,0.5406400561332703,-0.016451943665742874,1.2190699577331543
1772708475147729400,5.1647294921875,0.5025116205215454,-0.01179327629506588,1.2891193628311157
1772708475157755400,5.17475537109375,0.32101476192474365,0.1817793846130371,1.4067916870117188
1772708475167781400,5.184781494140625,0.026915503665804863,0.17883633077144623,1.4946032762527466
1772708475177807400,5.194807373046875,-0.20596621930599213,-0.07965008914470673,1.464676856994629
1772708475187833300,5.204833251953125,-0.34751269221305847,-0.03194461762905121,1.379129409790039
1772708475197859300,5.214859375,-0.28108519315719604,0.6710937023162842,1.3078293800354004
1772708475207885300,5.22488525390625,0.06362345069646835,1.6454311609268188,1.0860967636108398
1772708475217911300,5.234911376953125,0.4240061342716217,2.455338954925537,0.5443993806838989
1772708475227937300,5.244937255859375,0.43412429094314575,1.5769224166870117,-0.604829728603363
1772708475237963300,5.25496337890625,-0.033915624022483826,-0.3614386320114136,-1.676447868347168
1772708475247989200,5.2649892578125,-0.7343845367431641,-2.027116298675537,-2.3668711185455322
1772708475258015500,5.275015380859375,-1.2627860307693481,-2.597757577896118,-2.8203043937683105
1772708475268041500,5.28504150390625,-1.0587072372436523,-1.5338979959487915,-2.789736032485962
1772708475278067500,5.2950673828125,0.08436441421508789,-0.3717575669288635,-2.621591806411743
1772708475288093400,5.305093505859375,1.3690274953842163,-0.40568599104881287,-2.1165518760681152
1772708475298119400,5.315119384765625,1.559875726699829,-1.1621677875518799,-1.0992090702056885
1772708475308146200,5.325146240234375,0.5639461874961853,-1.9640392065048218,-0.26668813824653625
1772708475318172200,5.335172119140625,-0.3662291169166565,-2.414795398712158,0.03242691606283188
1772708475328198100,5.3451982421875,-0.5891777873039246,-2.2886171340942383,-0.7374095916748047
1772708475338224000,5.35522412109375,-0.4082636535167694,-1.6897943019866943,-1.6723953485488892
1772708475348250400,5.36525048828125,-0.3444998562335968,-1.6228395700454712,-2.0232269763946533
1772708475358276400,5.3752763671875,-0.5468540191650391,-1.8307656049728394,-2.1620185375213623
1772708475368302300,5.38530224609375,-0.7003887295722961,-2.0120975971221924,-1.9782497882843018
1772708475378327600,5.39532763671875,-0.7082815170288086,-1.9916948080062866,-1.8445849418640137
1772708475388353500,5.405353515625,-0.6511202454566956,-1.616809368133545,-1.6167984008789062
1772708475398379500,5.415379638671875,-0.4679110050201416,-1.1226643323898315,-1.2628920078277588
1772708475408405500,5.425405517578125,-0.205640509724617,-0.6198046803474426,-0.8885540962219238
1772708475418431700,5.435431640625,0.04410913959145546,-0.09646102786064148,-0.47180402278900146
1772708475428457700,5.445457763671875,0.19116009771823883,0.36176860332489014,-0.08425123244524002
1772708475438483700,5.455483642578125,0.1885422170162201,0.7613610029220581,0.26349183917045593
1772708475448509700,5.465509765625,0.1568647176027298,0.9851940870285034,0.6101619005203247
1772708475458535700,5.47553564453125,0.08251005411148071,0.9827958941459656,0.8420196175575256
1772708475468561700,5.485561767578125,-0.052267998456954956,0.8830775618553162,0.965061366558075
1772708475478587600,5.495587646484375,-0.2135559618473053,0.649738073348999,1.0643200874328613
1772708475488613600,5.505613525390625,-0.3760114312171936,0.30931469798088074,1.141772747039795
1772708475498639600,5.5156396484375,-0.4723941683769226,0.0019499665359035134,1.226244568824768
1772708475508665600,5.52566552734375,-0.46648168563842773,-0.15804661810398102,1.434443473815918
1772708475518691600,5.535691650390625,-0.48272350430488586,-0.21540072560310364,1.714161992073059
1772708475528717800,5.5457177734375,-0.5628936886787415,-0.26331233978271484,1.9772964715957642
1772708475538743800,5.555743896484375,-0.6637628078460693,-0.32065099477767944,2.230313539505005
1772708475548769800,5.565769775390625,-0.7521659135818481,-0.3876316249370575,2.3673441410064697
1772708475558795800,5.575795654296875,-0.7815477848052979,-0.44455376267433167,2.3084187507629395
1772708475568821800,5.58582177734375,-0.710186779499054,-0.43873128294944763,2.087674379348755
1772708475578847700,5.59584765625,-0.5876619219779968,-0.3920207619667053,1.7211261987686157
1772708475588873700,5.605873779296875,-0.44544243812561035,-0.28976017236709595,1.3239015340805054
1772708475598899700,5.615899658203125,-0.30368930101394653,-0.16662999987602234,0.9729496836662292
1772708475608925700,5.62592578125,-0.19431248307228088,-0.11005113273859024,0.6873394846916199
1772708475618951700,5.63595166015625,-0.13459855318069458,-0.18935634195804596,0.45379385352134705
1772708475628977700,5.645977783203125,-0.10930199176073074,-0.34780749678611755,0.3103421628475189
1772708475639004700,5.656004638671875,-0.09384340792894363,-0.5189299583435059,0.28325194120407104
1772708475649030700,5.66603076171875,-0.06175843998789787,-0.6938647627830505,0.34500932693481445
1772708475659056600,5.676056640625,-0.03327539935708046,-0.8731580972671509,0.5086147785186768
1772708475669082600,5.68608251953125,-0.09525781124830246,-1.0071358680725098,0.8049089908599854
1772708475679108600,5.696108642578125,-0.2244725227355957,-1.0882525444030762,1.180298089981079
1772708475689134600,5.706134521484375,-0.32202544808387756,-1.0316569805145264,1.5015455484390259
1772708475699160600,5.71616064453125,-0.3167521059513092,-0.7650167346000671,1.6774390935897827
1772708475709186600,5.7261865234375,-0.24117453396320343,-0.2983643114566803,1.7585151195526123
1772708475719212800,5.736212890625,-0.1585257351398468,0.22817590832710266,1.8333631753921509
1772708475729238800,5.74623876953125,-0.07377275824546814,0.653700053691864,1.8721601963043213
1772708475739264800,5.7562646484375,-0.005304750520735979,0.9785487055778503,1.912235975265503
1772708475749290800,5.766290771484375,0.036922331899404526,1.1395580768585205,1.9640922546386719
1772708475759316700,5.776316650390625,0.03455158695578575,1.1636894941329956,2.0470399856567383
1772708475769342700,5.7863427734375,0.0034322820138186216,1.1482045650482178,2.0685606002807617
1772708475779368700,5.79636865234375,-0.0875929668545723,1.17372727394104,2.049713134765625
1772708475789394700,5.806394775390625,-0.25608158111572266,1.2308012247085571,1.9025311470031738
1772708475799420700,5.816420654296875,-0.5043848752975464,1.3016687631607056,1.6716904640197754
1772708475809446700,5.82644677734375,-0.6955646872520447,1.2556642293930054,1.4481679201126099
1772708475819472600,5.83647265625,-0.7332518696784973,1.152833104133606,1.2710330486297607
1772708475829499000,5.846498779296875,-0.7099241614341736,0.9772893190383911,0.944961428642273
1772708475839524900,5.85652490234375,-0.6245040893554688,0.827350378036499,0.027477430179715157
1772708475849550800,5.86655078125,-0.5436065793037415,0.7000318765640259,-1.7767902612686157
1772708475859576600,5.87657666015625,-0.5095120072364807,-0.02317562699317932,-4.152073860168457
1772708475869602600,5.8866025390625,-0.7757396697998047,-0.833990752696991,-6.042290210723877
1772708475879628500,5.896628662109375,-0.988286018371582,-0.9117299914360046,-6.53151273727417
1772708475889654500,5.906654541015625,-0.8726432919502258,-0.20255284011363983,-5.729043006896973
1772708475899680500,5.916680419921875,-0.3679735064506531,0.8578401207923889,-4.235297679901123
1772708475909706500,5.92670654296875,0.16638152301311493,1.0052807331085205,-2.758333206176758
1772708475919732500,5.936732421875,0.712357223033905,-0.4219807982444763,-1.5928901433944702
1772708475929758500,5.946758544921875,1.2401350736618042,-2.591491222381592,-0.6086763739585876
1772708475939784700,5.95678466796875,1.5593284368515015,-4.397120952606201,0.11271456629037857
1772708475949811700,5.966811767578125,1.7172280550003052,-5.230586528778076,0.22800840437412262
1772708475959837700,5.976837646484375,1.7568343877792358,-4.515417098999023,-0.10685960203409195
1772708475969863700,5.98686376953125,1.716916799545288,-2.8861804008483887,-0.6983479261398315
1772708475979889700,5.9968896484375,1.59281587600708,-1.1447293758392334,-1.349085807800293
1772708475989915600,6.00691552734375,1.354254961013794,0.0408017598092556,-2.04085111618042
1772708475999941600,6.016941650390625,1.0086538791656494,0.8687990307807922,-2.515371561050415
1772708476009967600,6.026967529296875,0.6207975149154663,1.3457645177841187,-2.7728233337402344
1772708476019993600,6.03699365234375,0.17590099573135376,1.734499216079712,-2.835955858230591
1772708476030019800,6.047019775390625,-0.08165545016527176,2.062929391860962,-2.6585693359375
1772708476040045800,6.0570458984375,-0.05109727382659912,2.1557042598724365,-2.3524599075317383
1772708476050071800,6.06707177734375,0.15467692911624908,2.0032639503479004,-1.9664757251739502
1772708476060097800,6.077097900390625,0.4513986110687256,1.760715126991272,-1.4882771968841553
1772708476070123800,6.087123779296875,0.8115919232368469,1.4451271295547485,-0.8840163350105286
1772708476080149800,6.097149658203125,1.1533721685409546,1.1666169166564941,-0.26957741379737854
1772708476090175700,6.10717578125,1.4098864793777466,0.9319343566894531,0.23055651783943176
1772708476100201700,6.11720166015625,1.5496876239776611,0.7971184849739075,0.5512682199478149
1772708476110227700,6.127227783203125,1.5135716199874878,0.8050216436386108,0.6990011930465698
1772708476120253400,6.13725341796875,1.3307198286056519,0.8802964687347412,0.7129969000816345
1772708476130279400,6.147279541015625,1.1257551908493042,1.0126051902770996,0.6016163229942322
1772708476140305700,6.1573056640625,0.9529938101768494,1.246431827545166,0.4426621198654175
1772708476150331600,6.16733154296875,0.8702901601791382,1.553992509841919,0.37303242087364197
1772708476160357600,6.177357666015625,0.9497961401939392,1.8177651166915894,0.37798964977264404
1772708476170383600,6.187383544921875,1.1096603870391846,1.8986109495162964,0.397344172000885
1772708476180409600,6.19740966796875,1.3028007745742798,1.7164102792739868,0.32068881392478943
1772708476190435600,6.207435546875,1.4502041339874268,1.367348074913025,0.17417418956756592
1772708476200461600,6.217461669921875,1.536263108253479,1.042840838432312,0.008222510106861591
1772708476210487600,6.227487548828125,1.5505379438400269,0.7253012657165527,-0.14250707626342773
1772708476220513500,6.237513427734375,1.470657229423523,0.44795113801956177,-0.29189497232437134
1772708476230539500,6.24753955078125,1.2901843786239624,0.2509920001029968,-0.43054553866386414
1772708476240565500,6.2575654296875,1.0046641826629639,0.1175316870212555,-0.5182024240493774
1772708476250591700,6.267591796875,0.7009077668190002,0.0030085730832070112,-0.5689976811408997
1772708476260617700,6.27761767578125,0.48926955461502075,-0.14979562163352966,-0.6033710837364197
1772708476270644700,6.287644775390625,0.43263956904411316,-0.3279762864112854,-0.6546260118484497
1772708476280670700,6.297670654296875,0.3603443205356598,-0.2811070382595062,-0.6748554110527039
1772708476290696700,6.30769677734375,0.20824827253818512,-0.1296038031578064,-0.5600222945213318
1772708476300722700,6.31772265625,0.11544270813465118,-0.0966826006770134,-0.24865269660949707
1772708476310748700,6.327748779296875,0.12755796313285828,-0.06054483726620674,0.2363819032907486
1772708476320774700,6.337774658203125,0.19910617172718048,-0.013580789789557457,0.7873387932777405
1772708476330801000,6.34780078125,0.29649078845977783,0.012675581499934196,1.3089444637298584
1772708476340826600,6.35782666015625,0.38165947794914246,0.061768826097249985,1.7394907474517822
1772708476350852600,6.3678525390625,0.4347226917743683,0.0679689273238182,1.9887810945510864
1772708476360878600,6.377878662109375,0.4284229874610901,0.005257079843431711,2.0927374362945557
1772708476370904600,6.387904541015625,0.3975958228111267,-0.11331723630428314,2.1442928314208984
1772708476380931000,6.39793115234375,0.2673683166503906,-0.3354909121990204,2.0996851921081543
1772708476390957000,6.40795703125,0.031140608713030815,-0.637860894203186,1.9015274047851562
1772708476400983000,6.417983154296875,-0.23557843267917633,-0.9502371549606323,1.503555178642273
1772708476411009000,6.428009033203125,-0.6906687021255493,-1.3311525583267212,0.9130724668502808
1772708476421035000,6.438034912109375,-1.3305765390396118,-1.9474583864212036,0.14263944327831268
1772708476431061000,6.44806103515625,-1.913743257522583,-2.716843366622925,-0.7735651731491089
1772708476441087000,6.4580869140625,-2.167102098464966,-3.5033607482910156,-1.6976988315582275
1772708476451113000,6.468113037109375,-2.065748691558838,-3.6373956203460693,-2.0480949878692627
1772708476461139000,6.478138916015625,-1.424947738647461,-2.012213945388794,-1.8076860904693604
1772708476471165000,6.4881650390625,-1.1052912473678589,-1.2307839393615723,-2.4481663703918457
1772708476481191000,6.49819091796875,-1.1331899166107178,-0.3125144839286804,-3.673017740249634
1772708476491217200,6.508217041015625,-1.0585076808929443,0.38844120502471924,-4.0186567306518555
1772708476501243100,6.5182431640625,-1.0657930374145508,0.6444476842880249,-3.795682668685913
1772708476511269000,6.52826904296875,-1.041573166847229,0.754652738571167,-3.161435842514038
1772708476521295000,6.538295166015625,-0.2901167869567871,0.21323052048683167,-1.6822195053100586
1772708476531321000,6.548321044921875,0.6276346445083618,-1.0017446279525757,0.09362982213497162
1772708476541347000,6.55834716796875,0.9125998020172119,-2.1416308879852295,1.4091815948486328
1772708476551373000,6.568373046875,0.7078626155853271,-2.8022286891937256,2.106355667114258
1772708476561399000,6.57839892578125,0.22282855212688446,-2.779801368713379,2.289069414138794
1772708476571425000,6.588425048828125,-0.29200443625450134,-2.4621005058288574,2.0605545043945312
1772708476581451000,6.598450927734375,-0.5827339887619019,-1.993385910987854,1.5469000339508057
1772708476591478000,6.60847802734375,-0.8642817735671997,-1.1747829914093018,0.8922079801559448
1772708476601504000,6.61850390625,-1.0327906608581543,-0.324760764837265,0.17592176795005798
1772708476611530000,6.628530029296875,-1.029765009880066,0.461378276348114,-0.4830670654773712
1772708476621556000,6.638555908203125,-0.8688576221466064,1.204060673713684,-0.9821801781654358
1772708476631582000,6.64858203125,-0.6412804126739502,1.9179457426071167,-1.2979413270950317
1772708476641608000,6.65860791015625,-0.3727589249610901,2.350816011428833,-1.4258151054382324
1772708476651634000,6.668634033203125,-0.18744738399982452,2.335987091064453,-1.3368452787399292
1772708476661660000,6.678659912109375,-0.07851478457450867,1.9634569883346558,-0.9223685264587402
1772708476671686000,6.688685791015625,0.00692128948867321,1.442131757736206,-0.14109587669372559
1772708476681712000,6.698712158203125,0.033659692853689194,0.7229592800140381,0.8394345045089722
1772708476691738000,6.708738037109375,-0.032938774675130844,-0.017910556867718697,1.7838220596313477
1772708476701764000,6.71876416015625,-0.1483418047428131,-0.8240270614624023,2.503729820251465
1772708476711790000,6.7287900390625,-0.3152346611022949,-1.5314651727676392,2.836613893508911
1772708476721816000,6.738816162109375,-0.4914504289627075,-1.97433340549469,2.8040130138397217
1772708476731842000,6.748842041015625,-0.611565887928009,-2.004032611846924,2.4944756031036377
1772708476741868000,6.758867919921875,-0.6012762784957886,-1.5811882019042969,2.054063320159912
1772708476751894000,6.76889404296875,-0.4404522180557251,-0.8932237029075623,1.5676884651184082
1772708476761920000,6.778919921875,-0.19155637919902802,-0.019713517278432846,1.1268812417984009
1772708476771946000,6.788946044921875,0.1039959043264389,0.8186293244361877,0.788935661315918
1772708476781972000,6.798971923828125,0.2855340242385864,1.3042641878128052,0.3933246433734894
1772708476791998200,6.808998291015625,0.17650926113128662,1.2973434925079346,0.010604174807667732
1772708476802024200,6.819024169921875,-0.06774336099624634,0.7883425354957581,-0.1844489425420761
1772708476812050200,6.82905029296875,-0.24597355723381042,0.11338621377944946,-0.07916060090065002
1772708476822076200,6.839076171875,-0.31164735555648804,-0.4164086580276489,0.29766950011253357
1772708476832102100,6.84910205078125,-0.2825582027435303,-0.7543861865997314,0.7532551288604736
1772708476842128100,6.859128173828125,-0.18840426206588745,-0.926869809627533,1.1368353366851807
1772708476852154000,6.869154052734375,-0.014658038504421711,-0.9437547922134399,1.3812940120697021
1772708476862180000,6.87918017578125,0.2203664630651474,-0.8105847239494324,1.4417728185653687
1772708476872206000,6.8892060546875,0.46223047375679016,-0.5585016012191772,1.2791633605957031
1772708476882232000,6.899232177734375,0.6747494339942932,-0.24766333401203156,0.8911898136138916
1772708476892258000,6.909258056640625,0.8376153111457825,0.0819779559969902,0.36746376752853394
1772708476902284000,6.919283935546875,0.8756774663925171,0.32616931200027466,-0.15061694383621216
1772708476912311000,6.92931103515625,0.7985400557518005,0.5003927946090698,-0.47859373688697815
1772708476922337000,6.9393369140625,0.6783047318458557,0.7409079074859619,-0.4941394031047821
1772708476932363000,6.949363037109375,0.5588244199752808,0.9881848096847534,-0.17198240756988525
1772708476942389000,6.959388916015625,0.4503946006298065,1.065461277961731,0.4066130220890045
1772708476952415000,6.9694150390625,0.3436258137226105,0.8699308633804321,1.0665984153747559
1772708476962441000,6.97944091796875,0.2729700207710266,0.5730949640274048,1.6091008186340332
1772708476972467000,6.989467041015625,0.2606819272041321,0.4068548381328583,1.9388909339904785
1772708476982493000,6.999492919921875,0.3616809844970703,0.21796615421772003,2.013964891433716
1772708476992519200,7.009519287109375,0.5042250752449036,0.08449278026819229,1.8149818181991577
1772708477002545200,7.019545166015625,0.5867889523506165,0.06853564828634262,1.3261687755584717
1772708477012571100,7.029571044921875,0.48729801177978516,0.2992732524871826,0.7912344932556152
1772708477022597000,7.03959716796875,0.4039418697357178,0.5287493467330933,0.42752763628959656
1772708477032623000,7.049623046875,0.3655627965927124,0.5381017923355103,0.38944122195243835
1772708477042649000,7.059649169921875,0.345795214176178,0.49780604243278503,0.6147809028625488
1772708477052675000,7.069675048828125,0.32541006803512573,1.017029047012329,1.1006687879562378
1772708477062701000,7.079701171875,0.25538408756256104,2.0690879821777344,1.8649728298187256
1772708477072727000,7.08972705078125,0.40304651856422424,2.066678524017334,2.1555118560791016
1772708477082753000,7.0997529296875,0.4989860951900482,0.7646710276603699,1.045505404472351
1772708477092779000,7.109779052734375,-0.21401721239089966,-0.4068596363067627,-0.9744466543197632
1772708477102805200,7.11980517578125,-1.1584527492523193,-0.8526352643966675,-2.852861166000366
1772708477112831200,7.129831298828125,-1.399844765663147,0.3483811616897583,-3.721451759338379
1772708477122857200,7.139857177734375,-0.9800462126731873,1.4031904935836792,-3.644469976425171
1772708477132883000,7.149883056640625,-0.1486073136329651,2.1446399688720703,-2.5680789947509766
1772708477142909000,7.159908935546875,0.7401776909828186,3.046516180038452,-1.0155322551727295
1772708477152935000,7.169934814453125,1.2561558485031128,3.5710561275482178,0.5080166459083557
1772708477162961000,7.1799609375,1.402211308479309,2.6608669757843018,1.8701180219650269
1772708477172987000,7.18998681640625,1.2199403047561646,0.22540755569934845,3.0141632556915283
1772708477183012900,7.200012939453125,0.6776242852210999,-2.624844789505005,3.777923345565796
1772708477193038800,7.210038818359375,-0.19238781929016113,-4.426235675811768,3.9881017208099365
1772708477203064800,7.22006494140625,-1.4160525798797607,-3.5193159580230713,3.925504684448242
1772708477213091000,7.230091064453125,-2.380429267883301,-1.308968424797058,3.451613426208496
1772708477223117000,7.240116943359375,-2.7719624042510986,0.9699216485023499,2.6867194175720215
1772708477233144000,7.25014404296875,-2.2289035320281982,2.2319843769073486,1.61710524559021
1772708477243170000,7.260170166015625,-0.4577009677886963,1.3663305044174194,-0.35384461283683777
1772708477253196000,7.270196044921875,0.6678848266601562,2.241791248321533,-1.3236606121063232
1772708477263222000,7.280221923828125,1.091705083847046,3.7640671730041504,-1.7852833271026611
1772708477273248000,7.290248046875,1.23685884475708,4.5479302406311035,-2.2143430709838867
1772708477283274000,7.30027392578125,1.0949757099151611,4.285521030426025,-2.627598762512207
1772708477293300000,7.310300048828125,0.6735672354698181,3.4931154251098633,-2.8050804138183594
1772708477303326200,7.320326171875,0.29671528935432434,2.399862051010132,-2.817068338394165
1772708477313352200,7.330352294921875,-0.09847677499055862,1.6266385316848755,-2.7217679023742676
1772708477323378200,7.340378173828125,-0.4154762923717499,0.9081600308418274,-2.3534181118011475
1772708477333404200,7.350404052734375,-0.6056329011917114,0.5667505264282227,-1.751887559890747
1772708477343430100,7.36043017578125,-0.7716234922409058,0.5025305151939392,-1.1367192268371582
1772708477353456000,7.3704560546875,-0.8810221552848816,0.4660702347755432,-0.5557708144187927
1772708477363482000,7.380482177734375,-0.8394193053245544,0.45302873849868774,0.0014405038673430681
1772708477373508000,7.390508056640625,-0.5896438360214233,0.47404852509498596,0.5123716592788696
1772708477383534300,7.400534423828125,-0.2625754177570343,0.48787379264831543,0.917449414730072
1772708477393560300,7.410560302734375,-0.04082093387842178,0.3804924786090851,1.137279748916626
1772708477403586300,7.42058642578125,-0.013376791961491108,0.08121602982282639,1.1813255548477173
1772708477413612300,7.4306123046875,-0.13419562578201294,-0.2338138222694397,1.1341971158981323
1772708477423638300,7.44063818359375,-0.3058677911758423,-0.3486083149909973,1.0691661834716797
1772708477433664300,7.450664306640625,-0.4286693334579468,-0.2546844780445099,1.0082381963729858
1772708477443690200,7.460690185546875,-0.49059635400772095,-0.07437356561422348,0.9711509943008423
1772708477453716200,7.47071630859375,-0.5157381892204285,0.09576940536499023,0.9842342734336853
1772708477463742200,7.4807421875,-0.5121109485626221,0.23560959100723267,1.0866378545761108
1772708477473768200,7.490768310546875,-0.5128307938575745,0.3668999671936035,1.243973970413208
1772708477483794200,7.500794189453125,-0.4954318404197693,0.4684430956840515,1.3946279287338257
1772708477493820400,7.5108203125,-0.4186537265777588,0.5834988355636597,1.522430658340454
1772708477503846400,7.520846435546875,-0.19265547394752502,0.6351963877677917,1.6487401723861694
1772708477513872400,7.530872314453125,0.17456115782260895,0.564037024974823,1.753635048866272
1772708477523898400,7.5408984375,0.49650484323501587,0.4029325544834137,1.726792812347412
1772708477533925400,7.55092529296875,0.6580492854118347,0.103081114590168,1.46384859085083
1772708477543951400,7.560951416015625,0.6641708016395569,-0.2819264829158783,0.9630128741264343
1772708477553977300,7.570977294921875,0.5801470279693604,-0.5198695659637451,0.40448328852653503
1772708477564003300,7.58100341796875,0.4959176182746887,-0.4277808964252472,0.029036179184913635
1772708477578414300,7.595414306640625,0.34427642822265625,0.07284890860319138,-0.244791641831398
1772708477588440300,7.6054404296875,0.23078447580337524,0.4002768397331238,-0.3860859274864197
1772708477598466300,7.61546630859375,0.11396252363920212,0.4807583689689636,-0.5164332985877991
1772708477608492300,7.6254921875,0.042274750769138336,0.38855573534965515,-0.5440694093704224
1772708477618518300,7.635518310546875,0.0949249118566513,0.24627742171287537,-0.43212610483169556
1772708477628544300,7.645544189453125,0.250564843416214,0.11499476432800293,-0.22902733087539673
1772708477638570200,7.6555703125,0.4308187663555145,-0.07277806848287582,0.07963064312934875
1772708477648596200,7.66559619140625,0.5864440202713013,-0.25966647267341614,0.47514230012893677
1772708477658622200,7.675622314453125,0.6900314092636108,-0.40518876910209656,0.8683553338050842
1772708477668648200,7.685648193359375,0.7401286959648132,-0.4973256289958954,1.1524816751480103
1772708477678674200,7.695674072265625,0.7580664157867432,-0.4871819019317627,1.2454222440719604
1772708477688700400,7.705700439453125,0.7832604646682739,-0.3471353352069855,1.15506112575531
1772708477698726400,7.715726318359375,0.7810036540031433,-0.1340227872133255,0.9411419630050659
1772708477708752400,7.72575244140625,0.7165754437446594,0.13538073003292084,0.678062915802002
1772708477718778400,7.7357783203125,0.6067485213279724,0.43266698718070984,0.41079312562942505
1772708477728804400,7.745804443359375,0.46008238196372986,0.6398113965988159,0.18054793775081635
1772708477738830300,7.755830322265625,0.3032304346561432,0.7222806811332703,0.06284873932600021
1772708477748856300,7.765856201171875,0.21365156769752502,0.7277580499649048,0.052569203078746796
1772708477758882300,7.77588232421875,0.18082277476787567,0.7053022384643555,0.09752682596445084
1772708477768908300,7.785908203125,0.17396780848503113,0.6343750953674316,0.17473532259464264
1772708477778934300,7.795934326171875,0.21295355260372162,0.559118390083313,0.28951889276504517
1772708477788960300,7.805960205078125,0.2725878655910492,0.4437633156776428,0.3742004930973053
1772708477798986500,7.815986572265625,0.3290737569332123,0.2882067561149597,0.4007439613342285
1772708477809012500,7.826012451171875,0.44530636072158813,-0.25347381830215454,0.22308021783828735
1772708477819038500,7.83603857421875,0.5958293080329895,-0.4814523756504059,0.0328703336417675
1772708477829064400,7.846064453125,0.6121249198913574,-0.35322305560112,-0.07820745557546616
1772708477839090400,7.85609033203125,0.5176812410354614,-0.04814009740948677,-0.21679222583770752
1772708477849117200,7.8661171875,0.3883213698863983,0.2985651195049286,-0.33774635195732117
1772708477859143200,7.87614306640625,0.3575879633426666,0.6270700097084045,-0.4547134339809418
1772708477869169200,7.886169189453125,0.3662658631801605,0.9056188464164734,-0.5432521104812622
1772708477879195100,7.896195068359375,0.373136043548584,1.0004212856292725,-0.5952737331390381
1772708477889848300,7.906848388671875,0.42569297552108765,0.9052217602729797,-0.6016429662704468
1772708477902381300,7.91938134765625,0.4717390239238739,0.5935624241828918,-0.4683102071285248
1772708477912407300,7.9294072265625,0.48044171929359436,0.3428633511066437,-0.2228224277496338
1772708477922433300,7.939433349609375,0.47147804498672485,0.12421809136867523,0.059903547167778015
1772708477932459300,7.949459228515625,0.4297923743724823,-0.09125667810440063,0.3105091452598572
1772708477942485200,7.9594853515625,0.366716206073761,-0.23190486431121826,0.4847336709499359
1772708477952511200,7.96951123046875,0.32281213998794556,-0.25847548246383667,0.5232198238372803
1772708477962537200,7.979537109375,0.33659133315086365,-0.1703091561794281,0.44552820920944214
1772708477972563200,7.989563232421875,0.36841025948524475,-0.11011292040348053,0.2986910939216614
1772708477982590500,7.999590576171875,0.43485450744628906,-0.011501127853989601,0.15002545714378357
1772708477992616400,8.009616455078126,0.48889511823654175,0.1606954038143158,-0.02580336667597294
1772708478002642400,8.019642333984375,0.543948769569397,0.3273160755634308,-0.233546182513237
1772708478012668400,8.02966845703125,0.5760936737060547,0.392714262008667,-0.4596139192581177
1772708478022694400,8.0396943359375,0.5628029108047485,0.36369752883911133,-0.6655380725860596
1772708478032720400,8.049720458984375,0.5439080595970154,0.18506599962711334,-0.8235490322113037
1772708478042746400,8.059746337890624,0.5220189690589905,-0.0540136992931366,-0.9225384593009949
1772708478052772400,8.0697724609375,0.4786640405654907,-0.21911823749542236,-0.9721542000770569
1772708478062798300,8.07979833984375,0.4364564120769501,-0.28093498945236206,-0.956916093826294
1772708478072824300,8.08982421875,0.36655935645103455,-0.32334476709365845,-0.8600322008132935
1772708478082850300,8.099850341796875,0.3932950794696808,-0.2639128565788269,-0.6549213528633118
1772708478092876500,8.10987646484375,0.31817689538002014,-0.2133149355649948,-0.39711034297943115
1772708478102902500,8.119902587890625,0.250749409198761,-0.2759133279323578,-0.18815019726753235
1772708478112928500,8.129928466796875,0.006905576679855585,-0.42624610662460327,-0.0976349487900734
1772708478122954500,8.13995458984375,-0.14815138280391693,-0.5041760802268982,-0.07602286338806152
1772708478132980200,8.149980224609376,-0.3351556360721588,-0.3565051257610321,0.0021909826900810003
1772708478143006200,8.160006103515625,-0.4265603721141815,-0.08705021440982819,0.1203722208738327
1772708478153032200,8.1700322265625,-0.5488279461860657,0.1783020943403244,0.24402785301208496
1772708478163058200,8.18005810546875,-0.529143214225769,0.33843156695365906,0.34889858961105347
1772708478173084200,8.190084228515625,-0.47912904620170593,0.33440354466438293,0.393607497215271
1772708478183110100,8.200110107421875,-0.3360315263271332,0.18102703988552094,0.3367181122303009
1772708478193136000,8.21013623046875,-0.21587850153446198,0.021446703001856804,0.20846877992153168
1772708478203162400,8.220162353515626,-0.09577499330043793,-0.027817515656352043,0.05724278464913368
1772708478213188400,8.230188232421876,-0.035361986607313156,0.009643039666116238,-0.09403302520513535
1772708478223214300,8.24021435546875,-0.03198962286114693,0.04910629242658615,-0.21774564683437347
1772708478233240300,8.250240234375,-0.08595085889101028,0.04391526058316231,-0.3140426278114319
1772708478243266300,8.260266357421875,-0.1555858701467514,0.04379994422197342,-0.390959769487381
1772708478253292300,8.270292236328125,-0.20453476905822754,0.010536530055105686,-0.4352084696292877
1772708478263318300,8.280318359375,-0.23145027458667755,-0.022282136604189873,-0.4457052946090698
1772708478273345300,8.29034521484375,-0.21814244985580444,-0.096059150993824,-0.4100833833217621
1772708478283371300,8.300371337890626,-0.23297013342380524,-0.16355910897254944,-0.3271765410900116
1772708478293397500,8.3103974609375,-0.25361335277557373,-0.19765262305736542,-0.22732636332511902
1772708478303423500,8.320423583984375,-0.3436005115509033,-0.16485713422298431,-0.14120692014694214
1772708478313449500,8.330449462890625,-0.37949806451797485,-0.11876553297042847,-0.09355844557285309
1772708478323475500,8.340475341796875,-0.40736696124076843,-0.06245245784521103,-0.0865655168890953
1772708478333501400,8.35050146484375,-0.2748941481113434,0.042881421744823456,-0.12098580598831177
1772708478343527400,8.36052734375,-0.13986656069755554,0.21286113560199738,-0.19880311191082
1772708478353553400,8.370553466796874,0.08808138966560364,0.34706634283065796,-0.2947637140750885
1772708478363579400,8.380579345703126,0.22766192257404327,0.4897974133491516,-0.40560129284858704
1772708478373605400,8.39060546875,0.3857567608356476,0.6266745328903198,-0.5226722359657288
1772708478383631600,8.400631591796875,0.35554105043411255,0.7433913350105286,-0.6582084894180298
1772708478393657600,8.41065771484375,0.38371145725250244,0.7165013551712036,-0.7914952039718628
1772708478403683600,8.42068359375,0.28835296630859375,0.5959829688072205,-0.8230083584785461
1772708478413709600,8.43070947265625,0.18804553151130676,0.25391483306884766,-0.5012596249580383
1772708478423735600,8.440735595703124,-0.023682693019509315,-0.4270607829093933,-0.27338147163391113
1772708478433761500,8.450761474609376,0.10069305449724197,-0.729540228843689,-0.06906988471746445
1772708478443787500,8.46078759765625,0.10758291929960251,-0.7146582007408142,0.10010183602571487
1772708478453813500,8.4708134765625,0.17365674674510956,-0.4819173812866211,0.17995165288448334
1772708478463839700,8.48083984375,0.2357422262430191,-0.09108144044876099,0.24575543403625488
