time,seconds_elapsed,z,y,x
1772708470045731300,0.0627314453125,0.27243107557296753,0.13128897547721863,-0.017624467611312866
1772708470055757300,0.07275732421875,0.21388675272464752,0.1801304817199707,-0.03235062211751938
1772708470065783300,0.082783203125,0.151838019490242,0.18973037600517273,-0.044124189764261246
1772708470075809300,0.092809326171875,0.0971883088350296,0.18575012683868408,-0.049959149211645126
1772708470085835300,0.102835205078125,0.06390278786420822,0.17442236840724945,-0.053618066012859344
1772708470095861200,0.112861328125,0.04900398105382919,0.15904837846755981,-0.06308212131261826
1772708470105887200,0.12288720703125,0.053167566657066345,0.1614082157611847,-0.07164924591779709
1772708470115913200,0.132913330078125,0.0681089386343956,0.18492242693901062,-0.06465568393468857
1772708470125940000,0.14293994140625,0.08782751858234406,0.21820183098316193,-0.05322033911943436
1772708470135966200,0.15296630859375,0.10028695315122604,0.23664933443069458,-0.04874195158481598
1772708470145992200,0.1629921875,0.10554642975330353,0.22852535545825958,-0.0563436783850193
1772708470156018200,0.17301806640625,0.10377337038516998,0.19387272000312805,-0.06344974786043167
1772708470166044200,0.183044189453125,0.08636774867773056,0.13278326392173767,-0.07015664875507355
1772708470176070100,0.193070068359375,0.060577474534511566,0.06428692489862442,-0.07565929740667343
1772708470186096000,0.20309619140625,0.03334585577249527,0.011496679857373238,-0.08474759757518768
1772708470196122000,0.2131220703125,0.010900048539042473,-0.014753604307770729,-0.10245618224143982
1772708470206148000,0.223148193359375,-0.0024485141038894653,-0.026995357125997543,-0.11942131817340851
1772708470216174000,0.233174072265625,-0.010241170413792133,-0.027866829186677933,-0.13884440064430237
1772708470226200000,0.243199951171875,-0.018284449353814125,-0.031238125637173653,-0.16275905072689056
1772708470236226000,0.25322607421875,-0.026537206023931503,-0.048019006848335266,-0.1966298371553421
1772708470246252300,0.263252197265625,-0.03449898958206177,-0.08804099261760712,-0.23629069328308105
1772708470256278300,0.2732783203125,-0.04345383495092392,-0.11951655149459839,-0.27798694372177124
1772708470266304300,0.28330419921875,-0.05778057500720024,-0.12639735639095306,-0.30954939126968384
1772708470276330200,0.293330322265625,-0.07795443385839462,-0.12322354316711426,-0.3289812207221985
1772708470286356200,0.303356201171875,-0.09833214432001114,-0.12147784233093262,-0.34115612506866455
1772708470296382200,0.31338232421875,-0.10798481851816177,-0.10703549534082413,-0.3446942865848541
1772708470306408200,0.323408203125,-0.10209763050079346,-0.08184731751680374,-0.3266550898551941
1772708470316434200,0.33343408203125,-0.08990654349327087,-0.047629497945308685,-0.2848294973373413
1772708470326460200,0.343460205078125,-0.07962088286876678,-0.006990458816289902,-0.23834854364395142
1772708470336486100,0.353486083984375,-0.06291431933641434,0.031522396951913834,-0.19167746603488922
1772708470346512400,0.363512451171875,-0.04080155864357948,0.054580044001340866,-0.1579304188489914
1772708470356538400,0.373538330078125,-0.019087456166744232,0.06269575655460358,-0.14130155742168427
1772708470366564400,0.383564453125,-0.006927994079887867,0.057015229016542435,-0.13524474203586578
1772708470376590300,0.39359033203125,-0.008273400366306305,0.03743193671107292,-0.14073476195335388
1772708470386616300,0.4036162109375,-0.020265614613890648,0.020015127956867218,-0.15864665806293488
1772708470396643000,0.41364306640625,-0.030377104878425598,0.01642066240310669,-0.1848718672990799
1772708470406669000,0.4236689453125,-0.045031413435935974,0.012528716586530209,-0.21475332975387573
1772708470416695000,0.433695068359375,-0.06503841280937195,-0.010816819034516811,-0.2428286373615265
1772708470426721000,0.443720947265625,-0.0830715000629425,-0.059340137988328934,-0.2772945463657379
1772708470436747300,0.453747314453125,-0.09899749606847763,-0.1169162467122078,-0.3059886693954468
1772708470446773200,0.463773193359375,-0.11424249410629272,-0.173992320895195,-0.3229575455188751
1772708470456799200,0.47379931640625,-0.12672902643680573,-0.2308623343706131,-0.3330584168434143
1772708470466825200,0.4838251953125,-0.1322590857744217,-0.2755400836467743,-0.33747953176498413
1772708470476851200,0.493851318359375,-0.13151395320892334,-0.30067816376686096,-0.33408862352371216
1772708470486877200,0.503877197265625,-0.13660086691379547,-0.3162965178489685,-0.3220761716365814
1772708470496903200,0.513903076171875,-0.1465056836605072,-0.31666573882102966,-0.30334845185279846
1772708470506929200,0.52392919921875,-0.16346868872642517,-0.32122719287872314,-0.2874602973461151
1772708470516955100,0.533955078125,-0.18349146842956543,-0.335693895816803,-0.27557572722435
1772708470526981000,0.543981201171875,-0.20887857675552368,-0.3478506803512573,-0.26891568303108215
1772708470537007000,0.554007080078125,-0.23808668553829193,-0.35598820447921753,-0.25824058055877686
1772708470547033300,0.564033447265625,-0.26906242966651917,-0.35720688104629517,-0.25058454275131226
1772708470557059300,0.574059326171875,-0.2932189702987671,-0.3337482213973999,-0.2528177499771118
1772708470567085300,0.584085205078125,-0.31409308314323425,-0.3059522807598114,-0.2626138925552368
1772708470577111300,0.594111328125,-0.3251444399356842,-0.27974995970726013,-0.2774478495121002
1772708470587137300,0.60413720703125,-0.33266839385032654,-0.25136518478393555,-0.28604134917259216
1772708470597163300,0.614163330078125,-0.34784942865371704,-0.231073260307312,-0.2898840606212616
1772708470607189200,0.624189208984375,-0.36808866262435913,-0.20870882272720337,-0.29463088512420654
1772708470617215200,0.63421533203125,-0.3941238820552826,-0.17992036044597626,-0.3075093626976013
1772708470627241200,0.6442412109375,-0.4104011356830597,-0.1420467346906662,-0.3261205852031708
1772708470637267200,0.65426708984375,-0.415608674287796,-0.11080050468444824,-0.34234583377838135
1772708470647293200,0.664293212890625,-0.40671104192733765,-0.08249402791261673,-0.34178072214126587
1772708470657319400,0.6743193359375,-0.38908663392066956,-0.05567746236920357,-0.3139575123786926
1772708470667345400,0.684345458984375,-0.37019631266593933,-0.025766167789697647,-0.24445195496082306
1772708470677372200,0.6943720703125,-0.3512630760669708,0.04208441823720932,-0.12992866337299347
1772708470687398100,0.704398193359375,-0.33819279074668884,0.0984765812754631,0.024631086736917496
1772708470697424100,0.714424072265625,-0.3281475603580475,0.10125912725925446,0.20236073434352875
1772708470707450000,0.7244501953125,-0.30007198452949524,0.07140295952558517,0.3881407082080841
1772708470717476000,0.73447607421875,-0.2498379796743393,0.05619626119732857,0.5612572431564331
1772708470727502000,0.744502197265625,-0.18007461726665497,0.061729516834020615,0.7168687582015991
1772708470737528000,0.754528076171875,-0.1131986677646637,0.06642476469278336,0.8561270833015442
1772708470747554300,0.76455419921875,-0.0460158996284008,0.07528137415647507,0.9718134999275208
1772708470757580300,0.774580322265625,0.02550872415304184,0.13950222730636597,1.069156527519226
1772708470767606300,0.784606201171875,0.08640376478433609,0.3189217746257782,1.1561681032180786
1772708470777632300,0.79463232421875,0.11911002546548843,0.5832287073135376,1.2176789045333862
1772708470787658200,0.804658203125,0.10223916918039322,0.8922896385192871,1.2486789226531982
1772708470797684200,0.814684326171875,0.04884268343448639,1.2020010948181152,1.2668825387954712
1772708470807710200,0.824710205078125,-0.011466197669506073,1.3587640523910522,1.2662038803100586
1772708470817736200,0.834736083984375,-0.10655463486909866,1.2232160568237305,1.207379698753357
1772708470827762200,0.84476220703125,-0.27359235286712646,0.7531710863113403,1.0524849891662598
1772708470837788200,0.8547880859375,-0.45825856924057007,0.12178539484739304,0.8455392718315125
1772708470847814100,0.864814208984375,-0.6060128808021545,-0.38159865140914917,0.7153322696685791
1772708470857840400,0.87484033203125,-0.7295105457305908,-0.6209388375282288,0.7276293039321899
1772708470867866400,0.884866455078125,-0.8806180357933044,-0.6968333125114441,0.8464118838310242
1772708470877892400,0.894892333984375,-1.073779582977295,-0.5721451044082642,0.9829514026641846
1772708470887918300,0.90491845703125,-1.2238152027130127,-0.19381961226463318,0.946084201335907
1772708470897944300,0.9149443359375,-1.2182255983352661,0.08089244365692139,0.5871574878692627
1772708470907970300,0.92497021484375,-0.9899729490280151,0.25798970460891724,-0.000041346997022628784
1772708470917996300,0.934996337890625,-0.6637698411941528,0.3946140706539154,-0.568484365940094
1772708470928022300,0.945022216796875,-0.41032135486602783,0.45411282777786255,-0.9141117930412292
1772708470938048000,0.955048095703125,-0.2196212261915207,0.32592520117759705,-0.9743810892105103
1772708470948074000,0.965073974609375,-0.04718606546521187,-0.10522938519716263,-0.8158249855041504
1772708470958100000,0.975099853515625,0.05130401998758316,-0.7252246737480164,-0.535530686378479
1772708470968126200,0.985126220703125,0.05336051434278488,-1.2239495515823364,-0.22387374937534332
1772708470978153200,0.9951533203125,0.012131227180361748,-1.3858362436294556,0.032045964151620865
1772708470988179200,1.00517919921875,0.04296610504388809,-1.172420859336853,0.14574803411960602
1772708470998205200,1.015205078125,0.19727079570293427,-0.8522585034370422,0.06194877624511719
1772708471008231200,1.025231201171875,0.40196746587753296,-0.5602588653564453,-0.2009454369544983
1772708471018257200,1.035257080078125,0.6275526285171509,-0.42244547605514526,-0.5584515929222107
1772708471028283100,1.045283203125,0.8021971583366394,-0.5609264373779297,-0.9138400554656982
1772708471038309000,1.05530908203125,0.8500905632972717,-0.8849203586578369,-1.190415620803833
1772708471048335400,1.06533544921875,0.7615684270858765,-1.2878917455673218,-1.3449887037277222
1772708471058361300,1.075361328125,0.542826235294342,-1.7399992942810059,-1.364827036857605
1772708471068387300,1.08538720703125,0.27843397855758667,-1.9995139837265015,-1.2477272748947144
1772708471078413300,1.095413330078125,0.0726284384727478,-1.9809653759002686,-1.040018916130066
1772708471088439300,1.105439208984375,-0.07187414914369583,-1.7757813930511475,-0.8036378622055054
1772708471098465300,1.11546533203125,-0.1667473316192627,-1.390643835067749,-0.5461449027061462
1772708471108491300,1.1254912109375,-0.2916719615459442,-0.8371009826660156,-0.26548585295677185
1772708471118517200,1.135517333984375,-0.4369335472583771,-0.23498667776584625,0.022196367383003235
1772708471128543200,1.145543212890625,-0.471605509519577,0.40728041529655457,0.2542128264904022
1772708471138569200,1.1555693359375,-0.30843615531921387,1.1322211027145386,0.4031979441642761
1772708471148595200,1.16559521484375,-0.07286994904279709,1.6694833040237427,0.4501694440841675
1772708471158621200,1.17562109375,0.15780003368854523,1.8647938966751099,0.4211735427379608
1772708471168647200,1.185647216796875,0.25340938568115234,1.8101301193237305,0.31942427158355713
1772708471178673200,1.195673095703125,0.20608818531036377,1.5512689352035522,0.16348378360271454
1772708471188699100,1.20569921875,0.16903455555438995,1.2010421752929688,0.01030089519917965
1772708471198725000,1.21572509765625,0.11721860617399216,0.9185777902603149,-0.09729514271020889
1772708471208751000,1.225751220703125,-0.047301098704338074,0.893478274345398,-0.12419626861810684
1772708471218777000,1.235777099609375,-0.24140119552612305,0.9741423726081848,-0.02434637024998665
1772708471228803000,1.245802978515625,-0.30307599902153015,0.7157931327819824,0.21815574169158936
1772708471238829000,1.2558291015625,-0.31964030861854553,0.17925509810447693,0.5015830397605896
1772708471248855000,1.26585498046875,-0.3687015771865845,-0.4274161756038666,0.8125401139259338
1772708471258881000,1.275881103515625,-0.4473278522491455,-0.9062944650650024,1.1478618383407593
1772708471268907300,1.2859072265625,-0.6050863265991211,-1.244017481803894,1.4716620445251465
1772708471278934300,1.295934326171875,-0.75724196434021,-1.657180905342102,1.7732586860656738
1772708471288960300,1.305960205078125,-0.7827814221382141,-2.2831382751464844,2.054082155227661
1772708471298986200,1.315986328125,-0.8128547668457031,-1.684218406677246,2.2806379795074463
1772708471309012200,1.32601220703125,-0.9250659942626953,-1.2702412605285645,2.423482894897461
1772708471319038200,1.3360380859375,-1.137935996055603,-1.0624080896377563,2.3437070846557617
1772708471329064200,1.346064208984375,-1.3896784782409668,-0.6595437526702881,2.0776758193969727
1772708471339090200,1.356090087890625,-1.576784372329712,-0.438271701335907,1.7412267923355103
1772708471349116200,1.3661162109375,-1.6360602378845215,-0.40809115767478943,1.3954105377197266
1772708471359142400,1.376142333984375,-1.4969011545181274,-0.8994991183280945,1.0230876207351685
1772708471369168400,1.38616845703125,-1.1327167749404907,-1.5924432277679443,0.6484874486923218
1772708471379194600,1.396194580078125,-0.7209054827690125,-1.8171919584274292,0.32213452458381653
1772708471389220400,1.406220458984375,-0.5345374345779419,-1.0094399452209473,-0.07988695800304413
1772708471399246300,1.416246337890625,-0.4515572190284729,-0.3254963457584381,-0.37479326128959656
1772708471409272300,1.426272216796875,-0.172597736120224,0.33284130692481995,-0.5077675580978394
1772708471419298300,1.43629833984375,0.1004706546664238,0.8097389936447144,-0.5660572052001953
1772708471429324300,1.44632421875,0.3098374605178833,1.2105599641799927,-0.5326739549636841
1772708471439350300,1.456350341796875,0.2902592420578003,1.618017554283142,-0.4156262278556824
1772708471449376300,1.466376220703125,0.028061438351869583,1.8030129671096802,-0.25698599219322205
1772708471459402200,1.47640234375,-0.2820768654346466,1.5946564674377441,-0.057581983506679535
1772708471469428200,1.48642822265625,-0.34210479259490967,1.2262794971466064,0.24760456383228302
1772708471479454500,1.496454345703125,-0.04213908687233925,1.0253173112869263,0.649700939655304
1772708471489480400,1.50648046875,0.2967742383480072,0.9214985370635986,1.0688811540603638
1772708471499506400,1.51650634765625,0.35477131605148315,1.0634428262710571,1.3825308084487915
1772708471509532400,1.526532470703125,0.1536930799484253,1.438393235206604,1.401940941810608
1772708471519558400,1.536558349609375,-0.049154702574014664,1.6806150674819946,0.9839624762535095
1772708471529584400,1.54658447265625,-0.33873510360717773,1.3709179162979126,-0.05094537138938904
1772708471539610400,1.5566103515625,-0.6553881168365479,0.5148023962974548,-1.5245262384414673
1772708471549636400,1.56663623046875,-0.6568240523338318,-0.18295827507972717,-2.7041914463043213
1772708471559662300,1.576662353515625,-0.5696209073066711,-0.485361248254776,-3.335261106491089
1772708471569688300,1.586688232421875,-0.5463051795959473,-0.47052717208862305,-3.6305367946624756
1772708471579714300,1.59671435546875,-0.5065829753875732,-0.23038116097450256,-3.7116198539733887
1772708471589740500,1.606740478515625,-0.3527635931968689,0.06634213030338287,-3.6067886352539062
1772708471599766500,1.6167666015625,-0.08059265464544296,0.4201485216617584,-3.2968673706054688
1772708471609793500,1.62679345703125,0.17532913386821747,0.7095704674720764,-2.776435613632202
1772708471619819500,1.636819580078125,0.3388495147228241,0.7766027450561523,-2.0752172470092773
1772708471629845500,1.646845458984375,0.45183971524238586,0.6128090023994446,-1.2677056789398193
1772708471639871200,1.656871337890625,0.5339226722717285,0.20924384891986847,-0.5118494033813477
1772708471649897200,1.666897216796875,0.6093806624412537,-0.3488388657569885,0.003883729688823223
1772708471659923200,1.676923095703125,0.6605527400970459,-0.9267199635505676,0.23698659241199493
1772708471669949200,1.68694921875,0.5872612595558167,-1.4373857975006104,0.25961655378341675
1772708471679975400,1.696975341796875,0.3935728967189789,-1.8437467813491821,0.1280929297208786
1772708471690001400,1.70700146484375,0.1804201453924179,-2.22102427482605,-0.07458028942346573
1772708471700027400,1.71702734375,0.07010584324598312,-2.4494616985321045,-0.2672593593597412
1772708471710053400,1.727053466796875,0.07339484989643097,-2.3627898693084717,-0.3966633975505829
1772708471720079400,1.737079345703125,0.19354906678199768,-1.913417935371399,-0.3957878351211548
1772708471730105300,1.747105224609375,0.3456166088581085,-1.2130669355392456,-0.21853341162204742
1772708471740131300,1.75713134765625,0.4759775400161743,-0.542873203754425,0.09878336638212204
1772708471750157300,1.7671572265625,0.533674955368042,-0.16244278848171234,0.43724480271339417
1772708471760183300,1.777183349609375,0.42644327878952026,-0.08916448056697845,0.706278920173645
1772708471770209300,1.787209228515625,0.23536276817321777,-0.1333947777748108,0.9381982088088989
1772708471780235300,1.7972353515625,0.09419568628072739,-0.1973879337310791,1.1398119926452637
1772708471790261500,1.807261474609375,0.04702604562044144,-0.28358224034309387,1.267263650894165
1772708471800287500,1.81728759765625,0.03995635360479355,-0.3722396194934845,1.2510669231414795
1772708471810313500,1.8273134765625,0.045949798077344894,-0.4657543897628784,1.0811697244644165
1772708471820339500,1.83733935546875,0.08747485280036926,-0.5154299736022949,0.8580760359764099
1772708471830365400,1.847365478515625,0.18422402441501617,-0.4482367932796478,0.6582332253456116
1772708471840391400,1.857391357421875,0.2581535577774048,-0.31911295652389526,0.527349591255188
1772708471850417400,1.86741748046875,0.253316193819046,-0.2021983414888382,0.5025217533111572
1772708471860443400,1.877443359375,0.1639377921819687,-0.14983391761779785,0.5746731758117676
1772708471870469400,1.887469482421875,0.04029732942581177,-0.17111656069755554,0.7069857120513916
1772708471880495400,1.897495361328125,-0.056481655687093735,-0.2341139167547226,0.848373532295227
1772708471890521300,1.907521240234375,-0.16444887220859528,-0.31799978017807007,0.9212059378623962
1772708471900547600,1.917547607421875,-0.2973534166812897,-0.35273057222366333,0.8777483701705933
1772708471910573600,1.927573486328125,-0.403694212436676,-0.39795026183128357,0.7168772220611572
1772708471920600300,1.937600341796875,-0.4551939070224762,-0.472301721572876,0.47318553924560547
1772708471930626300,1.947626220703125,-0.42412784695625305,-0.49878713488578796,0.1658221334218979
1772708471940652300,1.95765234375,-0.31830498576164246,-0.45769765973091125,-0.20062005519866943
1772708471950678300,1.96767822265625,-0.1947585493326187,-0.40471139550209045,-0.5871871709823608
1772708471960704300,1.977704345703125,-0.07219143956899643,-0.35682302713394165,-0.9354332685470581
1772708471970730200,1.987730224609375,-0.02663940191268921,-0.33201196789741516,-1.2048509120941162
1772708471980756500,1.997756591796875,-0.09861458092927933,-0.327516108751297,-1.3840686082839966
1772708471990782500,2.007782470703125,-0.25977522134780884,-0.3020118176937103,-1.4257407188415527
1772708472000808400,2.017808349609375,-0.4650718867778778,-0.1932479441165924,-1.2875078916549683
1772708472010834400,2.02783447265625,-0.6622805595397949,0.04126707464456558,-0.9717603921890259
1772708472020860400,2.0378603515625,-0.8209814429283142,0.37961775064468384,-0.5542242527008057
1772708472030886400,2.047886474609375,-0.9195788502693176,0.6839584708213806,-0.1447044014930725
1772708472040912400,2.057912353515625,-0.9561707973480225,0.9041094183921814,0.19460615515708923
1772708472050938400,2.0679384765625,-0.9328052401542664,1.0163190364837646,0.4552989900112152
1772708472060964400,2.07796435546875,-0.871965765953064,0.9487602710723877,0.6449478268623352
1772708472070990300,2.087990234375,-0.8287512063980103,0.667491614818573,0.819868803024292
1772708472081016300,2.098016357421875,-0.8008521199226379,0.31600868701934814,1.0331597328186035
1772708472091042600,2.10804248046875,-0.7419382333755493,0.025488168001174927,1.2582343816757202
1772708472101068500,2.118068603515625,-0.7252508997917175,-0.16195133328437805,1.5102005004882812
1772708472111094500,2.128094482421875,-0.6479017734527588,-0.04751157388091087,1.8879152536392212
1772708472121120500,2.13812060546875,-0.44223088026046753,0.4325914680957794,2.3684616088867188
1772708472131146500,2.148146484375,-0.21831628680229187,1.0810272693634033,2.7909178733825684
1772708472141172500,2.15817236328125,-0.09108921140432358,1.622134804725647,3.094041109085083
1772708472151198500,2.168198486328125,-0.03596843406558037,1.6549055576324463,3.14577579498291
1772708472161224400,2.178224365234375,-0.07038874924182892,1.1707926988601685,2.767245292663574
1772708472171250400,2.18825048828125,-0.2922862768173218,0.38669541478157043,1.7895947694778442
1772708472181276400,2.1982763671875,-0.6881496906280518,-0.6649430394172668,0.060789432376623154
1772708472191302400,2.208302490234375,-0.8251706957817078,-1.2450977563858032,-1.7495031356811523
1772708472201328600,2.21832861328125,-0.8309416174888611,-1.2612154483795166,-3.2662014961242676
1772708472211354400,2.228354248046875,-0.8275442123413086,-0.7346352338790894,-4.3730292320251465
1772708472221380400,2.23838037109375,-0.49388328194618225,0.488515168428421,-4.650991916656494
1772708472231406300,2.24840625,0.21340250968933105,1.815552830696106,-3.976719856262207
1772708472241433300,2.258433349609375,0.9143879413604736,2.0717389583587646,-2.8752496242523193
1772708472251459300,2.268459228515625,1.148526906967163,0.7782902717590332,-1.953376293182373
1772708472261485300,2.2784853515625,0.8799506425857544,-1.4503107070922852,-1.2887697219848633
1772708472271511300,2.28851123046875,0.648632287979126,-3.5114023685455322,-0.9170088768005371
1772708472281537300,2.298537353515625,0.7012876272201538,-4.490987777709961,-0.827502965927124
1772708472291563500,2.3085634765625,1.1179088354110718,-4.592679977416992,-0.9902745485305786
1772708472301589500,2.318589599609375,1.6919004917144775,-4.227785587310791,-1.3415523767471313
1772708472311615500,2.328615478515625,2.0643842220306396,-3.571904420852661,-1.678121566772461
1772708472321641500,2.338641357421875,2.085524797439575,-2.577411413192749,-1.7482670545578003
1772708472331667500,2.34866748046875,1.7866872549057007,-1.5412012338638306,-1.5747716426849365
1772708472341693400,2.358693359375,1.2603421211242676,-0.7768450975418091,-1.2867246866226196
1772708472351719400,2.368719482421875,0.6296293139457703,-0.19689197838306427,-0.9951744079589844
1772708472361745400,2.378745361328125,0.01223844289779663,0.2919432520866394,-0.7325687408447266
1772708472371771400,2.388771484375,-0.3567430377006531,0.6464225053787231,-0.4946483075618744
1772708472381796600,2.398796630859375,-0.31694528460502625,0.8696293234825134,-0.2627522349357605
1772708472391822600,2.408822509765625,-0.028542255982756615,1.0126371383666992,-0.05757937952876091
1772708472401848600,2.4188486328125,0.3682817816734314,1.042467713356018,0.09715570509433746
1772708472411874600,2.42887451171875,0.7978523373603821,0.9778408408164978,0.23021602630615234
1772708472421900500,2.438900634765625,1.1012275218963623,0.8981465101242065,0.34670785069465637
1772708472431926500,2.448926513671875,1.2323179244995117,0.9175763726234436,0.4391206204891205
1772708472441952500,2.458952392578125,1.2007051706314087,0.9645596742630005,0.500129759311676
1772708472451978800,2.468978759765625,1.0041694641113281,0.9937718510627747,0.5794352293014526
1772708472462004700,2.479004638671875,0.7762748599052429,0.9975982904434204,0.7498014569282532
1772708472472030700,2.48903076171875,0.6068107485771179,0.9267235398292542,0.9970133900642395
1772708472482056700,2.499056640625,0.5005601048469543,0.7832543253898621,1.2522757053375244
1772708472492082700,2.509082763671875,0.4546133875846863,0.6150626540184021,1.4286472797393799
1772708472502108700,2.519108642578125,0.5111044049263,0.36091023683547974,1.4114612340927124
1772708472512134700,2.529134765625,0.6362987756729126,-0.04881761223077774,1.158799171447754
1772708472522161400,2.539161376953125,0.7783825397491455,-0.7139325737953186,0.8678063154220581
1772708472532187400,2.5491875,0.972392737865448,-0.9272218942642212,0.7475371360778809
1772708472542213600,2.559213623046875,1.0250828266143799,-0.5776661038398743,0.6614957451820374
1772708472552239600,2.569239501953125,0.8789329528808594,-0.2061346173286438,0.446972519159317
1772708472562265600,2.579265625,0.6976333260536194,0.039530958980321884,0.13530048727989197
1772708472572291600,2.58929150390625,0.48903512954711914,0.10557042807340622,-0.24763809144496918
1772708472582317600,2.599317626953125,0.23656930029392242,0.17643022537231445,-0.6523665189743042
1772708472592343600,2.609343505859375,-0.0038805832155048847,0.25816503167152405,-0.9651222825050354
1772708472602369500,2.61936962890625,-0.2896632254123688,0.20114974677562714,-1.25543212890625
1772708472612395500,2.6293955078125,-0.538713812828064,0.06584705412387848,-1.4159663915634155
1772708472622421500,2.63942138671875,-0.6984531879425049,-0.05259399488568306,-1.3965760469436646
1772708472632447500,2.649447509765625,-0.8086175918579102,-0.13962849974632263,-1.2279844284057617
1772708472642473500,2.659473388671875,-0.8569625616073608,0.31270527839660645,-0.97389817237854
1772708472652499700,2.669499755859375,-0.9299163818359375,0.1859539896249771,-0.6890460252761841
1772708472662525700,2.679525634765625,-1.0960217714309692,0.03798902407288551,-0.3777223825454712
1772708472672551700,2.6895517578125,-1.2934207916259766,-0.10675112158060074,-0.09598708897829056
1772708472682577700,2.69957763671875,-1.4641352891921997,-0.23936505615711212,0.1814490109682083
1772708472692603600,2.709603759765625,-1.632293701171875,-0.47291281819343567,0.46270760893821716
1772708472702629600,2.719629638671875,-1.8160921335220337,-0.9775679111480713,0.6808785796165466
1772708472712655600,2.729655517578125,-2.0154802799224854,-1.791324496269226,0.8428815603256226
1772708472722681600,2.739681640625,-2.1386513710021973,-2.6691339015960693,1.0053917169570923
1772708472732707600,2.74970751953125,-2.1214423179626465,-3.286637783050537,1.139525055885315
1772708472742733600,2.759733642578125,-2.031848430633545,-3.1683027744293213,1.2065393924713135
1772708472752759600,2.769759521484375,-1.8085962533950806,-2.088758945465088,1.10906982421875
1772708472762785800,2.779785888671875,-1.5374935865402222,-0.8202056288719177,0.4765450954437256
1772708472772811800,2.789811767578125,-1.7066823244094849,-0.14209714531898499,-0.9403461217880249
1772708472782837500,2.79983740234375,-2.0878655910491943,-0.22556263208389282,-2.4660637378692627
1772708472792864500,2.809864501953125,-2.745192527770996,-0.8239448070526123,-3.752182722091675
1772708472802890500,2.819890380859375,-3.1493821144104004,-1.3189469575881958,-4.324707508087158
1772708472812916500,2.82991650390625,-3.0088226795196533,-1.573567271232605,-4.196568965911865
1772708472822942500,2.8399423828125,-2.484821319580078,-1.3415950536727905,-3.772026538848877
1772708472832968400,2.849968505859375,-1.5360560417175293,-0.9712797999382019,-2.9760961532592773
1772708472842994700,2.85999462890625,-0.33738836646080017,-0.9883725643157959,-1.8409979343414307
1772708472853020700,2.870020751953125,0.4639091193675995,-1.3025506734848022,-0.7469907999038696
1772708472863046700,2.880046630859375,0.48265892267227173,-1.8113934993743896,-0.05569329485297203
1772708472873072600,2.89007275390625,-0.00822797603905201,-1.9988480806350708,0.13991482555866241
1772708472883098600,2.9000986328125,-0.5620482563972473,-1.6932827234268188,-0.03894161432981491
1772708472893124600,2.91012451171875,-0.8712652325630188,-1.142760992050171,-0.4604896605014801
1772708472903150600,2.920150634765625,-0.7541205883026123,-0.5149904489517212,-1.0250517129898071
1772708472913176600,2.930176513671875,-0.3538837134838104,0.19071421027183533,-1.6351462602615356
1772708472923202600,2.94020263671875,-0.04958045110106468,0.9250114560127258,-2.2262256145477295
1772708472933228500,2.950228515625,0.043554551899433136,1.4723621606826782,-2.61723256111145
1772708472943254500,2.960254638671875,0.0022794720716774464,1.6918803453445435,-2.5390098094940186
1772708472953280800,2.97028076171875,-0.07290475815534592,1.587023138999939,-1.8713486194610596
1772708472963306800,2.980306640625,-0.10761799663305283,1.2727922201156616,-0.8023470640182495
1772708472973332700,2.990332763671875,-0.09994170069694519,0.9120547771453857,0.35371148586273193
1772708472983358700,3.000358642578125,-0.06103505194187164,0.687426745891571,1.3495944738388062
1772708472993384700,3.010384765625,-0.021872734650969505,0.5890698432922363,2.0309343338012695
1772708473003410700,3.02041064453125,0.08852528780698776,0.6751840114593506,2.391096591949463
1772708473013436700,3.030436767578125,0.28924560546875,0.942206084728241,2.3845019340515137
1772708473023462700,3.040462646484375,0.46157407760620117,1.5099033117294312,2.0232009887695312
1772708473033488600,3.050488525390625,0.6086823344230652,2.3771607875823975,1.4676785469055176
1772708473043514400,3.060514404296875,0.7034837603569031,3.2702817916870117,0.8714075684547424
1772708473053540400,3.070540283203125,0.644009530544281,3.7069711685180664,0.26965269446372986
1772708473063566600,3.080566650390625,0.46754229068756104,3.6726789474487305,-0.3012239634990692
1772708473073593600,3.090593505859375,0.2666049301624298,3.335986614227295,-0.6463483572006226
1772708473083619600,3.10061962890625,0.11359526216983795,2.825793981552124,-0.6435948014259338
1772708473093645600,3.1106455078125,0.12372992187738419,2.4160096645355225,-0.2958991527557373
1772708473103671600,3.120671630859375,0.2882140576839447,2.0844712257385254,0.2782733142375946
1772708473113697500,3.130697509765625,0.48743686079978943,1.7192031145095825,0.8997488617897034
1772708473123723500,3.1407236328125,0.6360784769058228,1.3615798950195312,1.433786153793335
1772708473133749500,3.15074951171875,0.6911582350730896,1.0289372205734253,1.8056035041809082
1772708473143775500,3.160775390625,0.6420059204101562,0.6989354491233826,1.9723354578018188
1772708473153801700,3.1708017578125,0.5467497110366821,0.462052583694458,1.9774668216705322
1772708473163827700,3.18082763671875,0.44975534081459045,0.37496817111968994,1.8881924152374268
1772708473173853700,3.190853759765625,0.3670271635055542,0.3422397971153259,1.6960115432739258
1772708473183879700,3.200879638671875,0.31608229875564575,0.3346669673919678,1.379604458808899
1772708473193905700,3.21090576171875,0.2856146991252899,0.3156581223011017,1.005494475364685
1772708473203931600,3.220931640625,0.2678062915802002,0.2769000232219696,0.6465154886245728
1772708473213957600,3.23095751953125,0.27155551314353943,0.27597030997276306,0.42276015877723694
1772708473223983600,3.240983642578125,0.3028372526168823,0.32060906291007996,0.41259005665779114
1772708473234009600,3.251009521484375,0.375699520111084,0.343278169631958,0.6117380857467651
1772708473244035600,3.26103564453125,0.4754139184951782,0.38968220353126526,0.8887401819229126
1772708473254061600,3.2710615234375,0.558723509311676,0.37369444966316223,1.1128945350646973
1772708473264087600,3.281087646484375,0.6076922416687012,0.21422624588012695,1.2571957111358643
1772708473274113500,3.291113525390625,0.6399271488189697,0.06069368124008179,1.354028582572937
1772708473284139500,3.301139404296875,0.6654669642448425,0.02935437671840191,1.5036728382110596
1772708473294165500,3.31116552734375,0.6328110098838806,0.007969193160533905,1.5445244312286377
1772708473304191500,3.32119140625,0.6555085182189941,0.019872762262821198,1.4413048028945923
1772708473314217500,3.331217529296875,0.6698461771011353,0.21385207772254944,1.1365076303482056
1772708473324243500,3.341243408203125,0.5993338227272034,0.5558547377586365,0.7432857155799866
1772708473334269400,3.35126953125,0.5465183258056641,0.8466703295707703,0.4707905948162079
1772708473344295400,3.36129541015625,0.5276764035224915,1.0441725254058838,0.28630661964416504
1772708473354321400,3.3713212890625,0.4862072467803955,1.0232899188995361,0.2748726010322571
1772708473364348700,3.3813486328125,0.36834827065467834,0.7746802568435669,0.44379669427871704
1772708473374375700,3.391375732421875,0.17481501400470734,0.5877553820610046,0.9745527505874634
1772708473384401700,3.401401611328125,0.03638309985399246,0.46661272644996643,1.6817303895950317
1772708473394427600,3.411427734375,-0.11528924107551575,0.14694073796272278,1.871109127998352
1772708473404453600,3.42145361328125,-0.5718508362770081,-0.7946150898933411,0.8141204714775085
1772708473414479600,3.431479736328125,-1.340609073638916,-2.106476068496704,-1.5507487058639526
1772708473424505600,3.441505615234375,-1.7187707424163818,-2.848397731781006,-4.479001998901367
1772708473434531300,3.45153125,-1.4980887174606323,-2.219383478164673,-6.799973964691162
1772708473444557300,3.461557373046875,-0.502899706363678,-0.11019719392061234,-7.743549823760986
1772708473454583600,3.47158349609375,0.9151757955551147,1.6279417276382446,-7.674729824066162
1772708473464609500,3.481609619140625,1.6851415634155273,1.9874522686004639,-7.176860809326172
1772708473474635500,3.491635498046875,1.5556412935256958,1.7193936109542847,-6.220037460327148
1772708473484661500,3.50166162109375,0.7532104253768921,0.826832115650177,-5.137354373931885
1772708473494687500,3.5116875,0.023705849424004555,0.19434413313865662,-3.8027400970458984
1772708473504713500,3.52171337890625,-0.1565428525209427,0.0011970787309110165,-2.50874924659729
1772708473514739500,3.531739501953125,0.011034955270588398,0.10724548250436783,-1.7180978059768677
1772708473524765400,3.541765380859375,0.25308603048324585,0.7624818682670593,-1.6371327638626099
1772708473534791400,3.55179150390625,0.5611293911933899,1.920788049697876,-2.3255770206451416
1772708473544817400,3.5618173828125,0.8156381249427795,3.3164477348327637,-3.4906091690063477
1772708473554843400,3.571843505859375,0.8086329698562622,4.470545768737793,-4.73030948638916
1772708473564869600,3.58186962890625,0.6140766143798828,5.020689964294434,-5.437672138214111
1772708473574895600,3.5918955078125,0.4752742350101471,4.9230451583862305,-5.09510612487793
1772708473584921600,3.601921630859375,0.47560587525367737,3.9713828563690186,-3.86122989654541
1772708473594947600,3.611947509765625,0.5565702319145203,2.3212363719940186,-2.136270523071289
1772708473604973600,3.6219736328125,0.6351692080497742,0.49604740738868713,-0.36412835121154785
1772708473614999600,3.63199951171875,0.6389690041542053,-1.1270695924758911,1.0493375062942505
1772708473625025500,3.642025634765625,0.586932361125946,-2.246155023574829,1.9639978408813477
1772708473635051500,3.652051513671875,0.5715640783309937,-2.9096083641052246,2.335965394973755
1772708473645077500,3.662077392578125,0.687761664390564,-3.0139050483703613,2.2784783840179443
1772708473655103500,3.672103515625,0.8765259981155396,-2.626610040664673,1.9153095483779907
1772708473665130500,3.682130615234375,1.0402884483337402,-1.989933729171753,1.358638048171997
1772708473675156500,3.692156494140625,1.2036563158035278,-1.2847765684127808,0.8414111137390137
1772708473685182500,3.702182373046875,1.3721383810043335,-0.6325981020927429,0.5693716406822205
1772708473695208400,3.71220849609375,1.4153335094451904,-0.1941232681274414,0.5429466962814331
1772708473705234400,3.722234375,1.3677005767822266,-0.08483582735061646,0.6916128993034363
1772708473715260400,3.732260498046875,1.3070580959320068,-0.19028928875923157,0.970699667930603
1772708473725286400,3.742286376953125,1.2427375316619873,-0.255025178194046,1.3272064924240112
1772708473735312400,3.7523125,1.1550153493881226,-0.2676008939743042,1.6188820600509644
1772708473745338400,3.76233837890625,1.0131057500839233,-0.26101624965667725,1.7715858221054077
1772708473755364400,3.7723642578125,0.7947973608970642,-0.21748633682727814,1.7694823741912842
1772708473765390600,3.782390625,0.5877685546875,-0.19237886369228363,1.587170958518982
1772708473775416600,3.79241650390625,0.44295063614845276,-0.1863633096218109,1.2914029359817505
1772708473785442600,3.802442626953125,0.2548660337924957,-0.04826725274324417,0.9190799593925476
1772708473795468500,3.812468505859375,0.03340263292193413,0.16724532842636108,0.4860782325267792
1772708473805494500,3.82249462890625,-0.1055402159690857,0.345639169216156,0.06527432799339294
1772708473815520500,3.8325205078125,-0.17531718313694,0.4557883143424988,-0.2793586850166321
1772708473825546500,3.84254638671875,-0.22055719792842865,0.4902269244194031,-0.5148725509643555
1772708473835572500,3.852572509765625,-0.21942296624183655,0.38894185423851013,-0.6299269795417786
1772708473845598500,3.862598388671875,-0.13776177167892456,0.1334550827741623,-0.6262721419334412
1772708473855624400,3.87262451171875,-0.03231150284409523,-0.14409929513931274,-0.5067281723022461
1772708473865650400,3.882650390625,0.07447193562984467,-0.4347850978374481,-0.302548885345459
1772708473875676700,3.8926767578125,0.18936201930046082,-0.7168562412261963,-0.03938834369182587
1772708473885702700,3.90270263671875,0.2654011845588684,-0.8902407884597778,0.29731205105781555
1772708473895728600,3.912728759765625,0.31887584924697876,-0.8908604979515076,0.7133803963661194
1772708473905754600,3.922754638671875,0.41746965050697327,-0.7511135935783386,1.110654592514038
1772708473915780600,3.932780517578125,0.49814826250076294,-0.6020535230636597,1.3644334077835083
1772708473925806600,3.942806640625,0.41267019510269165,-0.568291962146759,1.4822486639022827
1772708473935832600,3.95283251953125,0.26625680923461914,-0.5195243954658508,1.6530632972717285
1772708473945858600,3.962858642578125,0.17397867143154144,-0.3351951837539673,1.9336930513381958
1772708473955884500,3.972884521484375,0.12755312025547028,0.010190453380346298,2.1147191524505615
1772708473965910500,3.98291064453125,0.057200267910957336,0.20547866821289062,2.074629545211792
1772708473975936500,3.9929365234375,-0.0019021995831280947,0.35240286588668823,2.0254056453704834
1772708473985963500,4.002963623046875,-0.17236174643039703,0.09825073182582855,1.8416434526443481
1772708473995989500,4.012989501953125,-0.6433785557746887,-0.9282484650611877,1.3834710121154785
1772708474006015500,4.023015380859375,-1.2232035398483276,-2.142441511154175,0.8841237425804138
1772708474016041500,4.03304150390625,-1.6430758237838745,-3.1130876541137695,0.338074266910553
1772708474026067500,4.0430673828125,-1.3873368501663208,-4.051374912261963,-0.05954325944185257
1772708474036093400,4.053093505859375,-0.6909037232398987,-4.411967754364014,-0.22605368494987488
1772708474046119400,4.063119384765625,0.10405313223600388,-3.868013620376587,-0.45387527346611023
1772708474056145400,4.0731455078125,0.828313410282135,-3.282972812652588,-1.118849277496338
1772708474066171600,4.083171630859375,1.451329231262207,-3.2448010444641113,-1.9791826009750366
1772708474076197600,4.09319775390625,1.711700677871704,-3.267343044281006,-2.6788063049316406
1772708474086223600,4.1032236328125,1.3474537134170532,-2.8676319122314453,-3.4820804595947266
1772708474096249600,4.11324951171875,0.31383731961250305,-2.264380931854248,-4.693358421325684
1772708474106275600,4.123275634765625,-1.096213459968567,-0.7298814058303833,-5.373098373413086
1772708474116301600,4.133301513671875,-1.7195444107055664,1.1666094064712524,-4.804325580596924
1772708474126327600,4.14332763671875,-1.5925418138504028,2.3930580615997314,-3.4577925205230713
1772708474136353500,4.153353515625,-1.1741856336593628,2.4827733039855957,-1.9295374155044556
1772708474146379500,4.163379638671875,-0.8866508603096008,1.7523890733718872,-0.48862236738204956
1772708474156405500,4.173405517578125,-0.9183552861213684,0.5657647848129272,0.7889358997344971
1772708474166431500,4.183431396484375,-1.1883431673049927,-0.6751847267150879,1.7862476110458374
1772708474176457700,4.193457763671875,-1.4731460809707642,-1.4225162267684937,2.4614107608795166
1772708474186483700,4.203483642578125,-1.676433801651001,-1.3671258687973022,2.6399717330932617
1772708474196509700,4.213509765625,-1.7126439809799194,-0.6062948107719421,2.489830493927002
1772708474206535700,4.22353564453125,-1.5172358751296997,0.3837282359600067,2.136543035507202
1772708474216561700,4.233561767578125,-1.2238799333572388,1.2683472633361816,1.7154099941253662
1772708474226587600,4.243587646484375,-0.8735600709915161,1.8413869142532349,1.363318681716919
1772708474236613600,4.253613525390625,-0.5443118214607239,2.1769840717315674,1.0751769542694092
1772708474246639600,4.2636396484375,-0.28620216250419617,2.3357555866241455,0.8657013177871704
1772708474256665300,4.273665283203125,-0.0648828074336052,2.371636390686035,0.7528663873672485
1772708474266691300,4.28369140625,0.12487652152776718,2.3468077182769775,0.735232949256897
1772708474276717300,4.29371728515625,0.2919566035270691,2.2466280460357666,0.7669810652732849
1772708474286743600,4.30374365234375,0.41990435123443604,2.034564971923828,0.9034519195556641
1772708474296769500,4.31376953125,0.5050610303878784,1.6844842433929443,1.081115961074829
1772708474306795500,4.32379541015625,0.4939360022544861,1.2301850318908691,1.26418137550354
1772708474316822500,4.333822509765625,0.41662389039993286,0.7839886546134949,1.4023053646087646
1772708474326848500,4.3438486328125,0.36559897661209106,0.3425655663013458,1.502199411392212
1772708474336874500,4.35387451171875,0.3989023268222809,-0.022868338972330093,1.5594048500061035
1772708474346900500,4.363900390625,0.5030422806739807,-0.20032157003879547,1.5865427255630493
1772708474356926500,4.373926513671875,0.6735676527023315,-0.1846475452184677,1.5487867593765259
1772708474366952400,4.383952392578125,0.8317440152168274,-0.07189269363880157,1.4265367984771729
1772708474376978400,4.393978515625,0.8758320808410645,-0.0066468496806919575,1.1838253736495972
1772708474387004400,4.40400439453125,0.7490383982658386,-0.15592604875564575,0.7691972255706787
1772708474397030400,4.414030517578125,0.4782809317111969,-0.5673868656158447,0.23898263275623322
1772708474407056400,4.424056396484375,0.15073077380657196,-0.9944967031478882,-0.2806832790374756
1772708474417082400,4.434082275390625,-0.1671137660741806,-1.2614221572875977,-0.7331740260124207
1772708474427108400,4.4441083984375,-0.3449106514453888,-1.3312361240386963,-1.0502408742904663
1772708474437134300,4.45413427734375,-0.3366479277610779,-1.1158503293991089,-1.1931146383285522
1772708474447160300,4.464160400390625,-0.23529456555843353,-0.6903637051582336,-1.1808782815933228
1772708474457186300,4.474186279296875,-0.13706041872501373,-0.22201456129550934,-1.0391345024108887
1772708474467212300,4.48421240234375,-0.03801219165325165,0.18709954619407654,-0.7390512824058533
1772708474477238300,4.49423828125,0.04833228141069412,0.4870646893978119,-0.31090283393859863
1772708474487264500,4.504264404296875,0.08806061744689941,0.651567816734314,0.18051917850971222
1772708474497290500,4.51429052734375,0.04364202171564102,0.6870076060295105,0.6789792776107788
1772708474507316200,4.524316162109375,-0.09847693890333176,0.5086867809295654,1.1805485486984253
1772708474517342200,4.53434228515625,-0.3030516505241394,0.10295868664979935,1.7272663116455078
1772708474527368200,4.5443681640625,-0.5342885851860046,-0.4419352412223816,2.386268138885498
1772708474537394200,4.554394287109375,-0.7036182284355164,-1.1502457857131958,2.9773917198181152
1772708474547420200,4.564420166015625,-0.8660217523574829,-1.6860076189041138,3.315016984939575
1772708474557446100,4.574446044921875,-0.9959352612495422,-1.8565423488616943,3.3729686737060547
1772708474567472000,4.58447216796875,-0.876391589641571,-2.0314207077026367,3.1969547271728516
1772708474577498000,4.594498046875,-0.48891183733940125,-2.065418243408203,2.8959579467773438
1772708474587524000,4.604524169921875,-0.07174677401781082,-1.3371785879135132,2.2961511611938477
1772708474597550300,4.61455029296875,0.25718769431114197,-0.35411903262138367,0.6759293675422668
1772708474607576300,4.624576416015625,0.33041685819625854,-0.689886212348938,-2.1480116844177246
1772708474617602300,4.634602294921875,0.16203051805496216,-2.1540446281433105,-4.951065540313721
1772708474627628300,4.644628173828125,-0.04169316589832306,-2.6879260540008545,-6.534979343414307
1772708474637654300,4.654654296875,-0.15302714705467224,-1.2783406972885132,-6.758321762084961
1772708474647680300,4.66468017578125,0.19078245759010315,1.3784897327423096,-5.613076210021973
1772708474657707300,4.674707275390625,1.5330995321273804,3.078159809112549,-3.672024965286255
1772708474667733200,4.684733154296875,2.503413438796997,2.6570563316345215,-1.8173190355300903
1772708474677759200,4.69475927734375,2.1923539638519287,0.8689975738525391,-0.03424298018217087
1772708474687785500,4.704785400390625,1.1476794481277466,-1.2897298336029053,1.7724658250808716
1772708474697811500,4.7148115234375,0.049183864146471024,-2.9757649898529053,2.4613428115844727
1772708474707837400,4.72483740234375,-0.48856744170188904,-3.151710033416748,1.9671167135238647
1772708474717863400,4.734863525390625,-0.42150425910949707,-1.9802697896957397,0.8577684760093689
1772708474727889400,4.744889404296875,-0.29810652136802673,-0.19921685755252838,-0.6162003874778748
1772708474737915400,4.754915283203125,-0.20354698598384857,1.289669394493103,-1.8215428590774536
1772708474747941400,4.76494140625,-0.17524993419647217,2.0570034980773926,-2.6052920818328857
1772708474757967400,4.77496728515625,-0.3210585117340088,2.3481321334838867,-2.9818437099456787
1772708474767993000,4.7849931640625,-0.4209473729133606,2.482198476791382,-3.0268988609313965
1772708474778019000,4.79501904296875,-0.44923466444015503,2.523376703262329,-2.7765533924102783
1772708474788045000,4.805045166015625,-0.4342323839664459,2.1969051361083984,-2.224172353744507
1772708474798071300,4.8150712890625,-0.407958447933197,1.5313441753387451,-1.2663624286651611
1772708474808097300,4.82509716796875,-0.3995566964149475,0.7478606700897217,-0.17878562211990356
1772708474818123300,4.835123291015625,-0.46550828218460083,0.10722607374191284,0.7950437068939209
1772708474828149200,4.845149169921875,-0.5237244963645935,-0.36668553948402405,1.5359008312225342
1772708474838175200,4.85517529296875,-0.5159928202629089,-0.5237902402877808,2.00531005859375
1772708474848201200,4.865201171875,-0.41512376070022583,-0.26782554388046265,2.2250657081604004
1772708474858227200,4.875227294921875,-0.22214871644973755,0.21326597034931183,2.2579708099365234
1772708474868253200,4.885253173828125,0.05291763320565224,0.666864812374115,2.1467185020446777
1772708474878279200,4.895279052734375,0.3602525293827057,1.0005911588668823,1.9291276931762695
1772708474888305200,4.90530517578125,0.6109699010848999,1.312199592590332,1.646854281425476
1772708474898331100,4.9153310546875,0.7201699018478394,1.4094465970993042,1.3972079753875732
1772708474908357400,4.925357421875,0.6187946796417236,1.1248517036437988,1.1439261436462402
1772708474918383400,4.93538330078125,0.3567657172679901,0.5912087559700012,0.9543111324310303
1772708474928409300,4.945409423828125,0.06090433895587921,0.032669294625520706,0.807640016078949
1772708474938435300,4.955435302734375,-0.1624874770641327,-0.39281728863716125,0.7647271752357483
1772708474948461300,4.96546142578125,-0.20371104776859283,-0.7158482670783997,0.7994701862335205
1772708474958487300,4.9754873046875,-0.060151226818561554,-0.9137328863143921,0.8578546643257141
1772708474968513300,4.98551318359375,0.15327544510364532,-1.0046371221542358,0.8964900374412537
1772708474978539300,4.995539306640625,0.33195170760154724,-1.0247700214385986,0.8228245973587036
1772708474988566300,5.005566162109375,0.42979565262794495,-0.9314978718757629,0.6099188923835754
1772708474998592300,5.01559228515625,0.38949084281921387,-0.7681659460067749,0.22506201267242432
1772708475008618200,5.0256181640625,0.2510471045970917,-0.6049225926399231,-0.26275506615638733
1772708475018644200,5.035644287109375,0.1106918454170227,-0.42234107851982117,-0.6719231009483337
1772708475028670200,5.045670166015625,0.05299943685531616,-0.18692710995674133,-0.9129087328910828
1772708475038696200,5.0556962890625,0.047362592071294785,0.14815926551818848,-0.996483564376831
1772708475048722200,5.06572216796875,0.11370537430047989,0.4170733690261841,-0.9803093671798706
1772708475058748200,5.075748046875,0.24380157887935638,0.5526144504547119,-0.8731222152709961
1772708475068774100,5.085774169921875,0.3034425973892212,0.5792607665061951,-0.6660654544830322
1772708475078800100,5.095800048828125,0.28673526644706726,0.48491641879081726,-0.3717123866081238
1772708475088826000,5.105826171875,0.26319292187690735,0.2884851396083832,-0.005744774825870991
1772708475098852400,5.115852294921875,0.3044905662536621,0.038450248539447784,0.3105490207672119
1772708475108878300,5.12587841796875,0.37701356410980225,-0.08670699596405029,0.5999149680137634
1772708475118904300,5.135904296875,0.4487724304199219,-0.09454121440649033,0.8567782044410706
1772708475128930300,5.145930419921875,0.5123131275177002,-0.04129814729094505,1.0739630460739136
1772708475138956300,5.155956298828125,0.5367984771728516,-0.025560995563864708,1.2374436855316162
1772708475148982300,5.165982177734375,0.48772186040878296,-0.0009651640430092812,1.304478406906128
1772708475159008300,5.17600830078125,0.2831399738788605,0.18641911447048187,1.417746663093567
1772708475169034200,5.1860341796875,-0.007069080136716366,0.14077800512313843,1.4929333925247192
1772708475179060200,5.196060302734375,-0.23301619291305542,-0.11375175416469574,1.4579133987426758
1772708475189086200,5.206086181640625,-0.3575730323791504,0.02405528351664543,1.3756849765777588
1772708475199112200,5.2161123046875,-0.2567231059074402,0.7761985659599304,1.2990754842758179
1772708475209138400,5.226138427734375,0.10967247188091278,1.7767149209976196,1.045579195022583
1772708475219164400,5.236164306640625,0.4496082067489624,2.4522976875305176,0.4373059868812561
1772708475229190400,5.2461904296875,0.3923006057739258,1.3523365259170532,-0.7589569091796875
1772708475239216400,5.25621630859375,-0.1174531877040863,-0.6105636954307556,-1.7736471891403198
1772708475249242400,5.266242431640625,-0.8253350853919983,-2.185497522354126,-2.4364640712738037
1772708475259268400,5.276268310546875,-1.2938724756240845,-2.5522940158843994,-2.8422136306762695
1772708475269294300,5.28629443359375,-0.9574317932128906,-1.357735514640808,-2.7575271129608154
1772708475279320300,5.2963203125,0.25191712379455566,-0.3156770169734955,-2.595475196838379
1772708475289346300,5.30634619140625,1.4803715944290161,-0.4880759119987488,-1.9970873594284058
1772708475299372300,5.316372314453125,1.471941590309143,-1.2787458896636963,-0.9732447266578674
1772708475309399300,5.3263994140625,0.42148253321647644,-2.051758050918579,-0.18946093320846558
1772708475319425300,5.33642529296875,-0.4373064637184143,-2.4458141326904297,0.024843109771609306
1772708475329451300,5.346451171875,-0.5907285213470459,-2.188694477081299,-0.8554413318634033
1772708475339477200,5.356477294921875,-0.3859703242778778,-1.6672019958496094,-1.7523268461227417
1772708475349503200,5.366503173828125,-0.3588402271270752,-1.6614528894424438,-2.0517847537994385
1772708475359529200,5.376529296875,-0.5824019908905029,-1.8585731983184814,-2.1532065868377686
1772708475369555200,5.38655517578125,-0.7055683732032776,-2.0420751571655273,-1.958498239517212
1772708475379580700,5.39658056640625,-0.711214542388916,-1.9638121128082275,-1.8191297054290771
1772708475389606700,5.406606689453125,-0.6391127109527588,-1.56589937210083,-1.5746371746063232
1772708475399632600,5.416632568359375,-0.4408031105995178,-1.0683811902999878,-1.2113066911697388
1772708475409658600,5.42665869140625,-0.1759917289018631,-0.5599716901779175,-0.8394759297370911
1772708475419684600,5.4366845703125,0.06799323111772537,-0.0435221828520298,-0.41501232981681824
1772708475429710600,5.446710693359375,0.19129939377307892,0.4079360067844391,-0.03494279831647873
1772708475439736600,5.456736572265625,0.18356503546237946,0.7963476777076721,0.31441599130630493
1772708475449762600,5.466762451171875,0.14696678519248962,0.9872085452079773,0.6522083282470703
1772708475459788500,5.47678857421875,0.0653853714466095,0.9677062034606934,0.8665840029716492
1772708475469814500,5.486814453125,-0.07479885965585709,0.8562614917755127,0.9792176485061646
1772708475479840800,5.4968408203125,-0.23618562519550323,0.6022787690162659,1.0780528783798218
1772708475489866800,5.50686669921875,-0.396921843290329,0.25710558891296387,1.1521304845809937
1772708475499892700,5.516892822265625,-0.4805011451244354,-0.032786402851343155,1.2479428052902222
1772708475509918700,5.526918701171875,-0.4680497348308563,-0.17760522663593292,1.4710919857025146
1772708475519944700,5.53694482421875,-0.4939607083797455,-0.22560018301010132,1.7509247064590454
1772708475529970700,5.546970703125,-0.5796390771865845,-0.27976807951927185,2.0133020877838135
1772708475539996700,5.55699658203125,-0.6780223846435547,-0.3348534405231476,2.2600226402282715
1772708475550022700,5.567022705078125,-0.765557050704956,-0.4039427638053894,2.3747715950012207
1772708475560048600,5.577048583984375,-0.7807899117469788,-0.45530539751052856,2.2928268909454346
1772708475570074600,5.58707470703125,-0.7007197141647339,-0.44246235489845276,2.0515377521514893
1772708475580100900,5.597100830078125,-0.5747644901275635,-0.3889402747154236,1.6749615669250488
1772708475590126800,5.607126953125,-0.43168678879737854,-0.2820316553115845,1.2789969444274902
1772708475600152800,5.61715283203125,-0.2916679084300995,-0.16079868376255035,0.9363613128662109
1772708475610178800,5.6271787109375,-0.1887022852897644,-0.12071689963340759,0.6590737104415894
1772708475620204800,5.637204833984375,-0.13454318046569824,-0.21464179456233978,0.4330557584762573
1772708475630230800,5.647230712890625,-0.11078116297721863,-0.37606263160705566,0.3041069507598877
1772708475640257500,5.657257568359375,-0.09455159306526184,-0.5474120378494263,0.2908012568950653
1772708475650283500,5.667283447265625,-0.05927199497818947,-0.7247083187103271,0.3622177839279175
1772708475660309500,5.6773095703125,-0.038617849349975586,-0.8997054100036621,0.5417369604110718
1772708475670335700,5.687335693359375,-0.11371688544750214,-1.0293728113174438,0.8522489666938782
1772708475680361700,5.69736181640625,-0.24502776563167572,-1.0959779024124146,1.2301714420318604
1772708475690387700,5.7073876953125,-0.33146440982818604,-1.0174758434295654,1.5345888137817383
1772708475700413700,5.71741357421875,-0.3152281641960144,-0.7231486439704895,1.6947201490402222
1772708475710439700,5.727439697265625,-0.23514185845851898,-0.23782694339752197,1.7714579105377197
1772708475720465700,5.737465576171875,-0.15074363350868225,0.2812156677246094,1.8447376489639282
1772708475730491600,5.74749169921875,-0.06865420937538147,0.6932360529899597,1.8772608041763306
1772708475740517600,5.757517578125,-0.0018916919361799955,1.003153920173645,1.9220330715179443
1772708475750543600,5.767543701171875,0.03399266302585602,1.1433329582214355,1.978315830230713
1772708475760569600,5.777569580078125,0.0306280255317688,1.152261734008789,2.0555334091186523
1772708475770595600,5.787595703125,-0.009365180507302284,1.1436045169830322,2.0731594562530518
1772708475780621800,5.797621826171875,-0.10479875653982162,1.1681153774261475,2.040273904800415
1772708475790647800,5.807647705078125,-0.2897336483001709,1.2338773012161255,1.8791958093643188
1772708475800673800,5.817673828125,-0.5370023250579834,1.2967640161514282,1.6446685791015625
1772708475810699800,5.82769970703125,-0.7129407525062561,1.2375770807266235,1.4275259971618652
1772708475820725800,5.837725830078125,-0.7341752052307129,1.1284968852996826,1.2492140531539917
1772708475830751700,5.847751708984375,-0.7071276307106018,0.9458640217781067,0.8761401176452637
1772708475840777700,5.85777783203125,-0.6161370277404785,0.8070084452629089,-0.14576484262943268
1772708475850803700,5.8678037109375,-0.53863126039505,0.6473045349121094,-2.052971363067627
1772708475860829700,5.87782958984375,-0.5263873338699341,-0.153901144862175,-4.438197612762451
1772708475870855700,5.887855712890625,-0.8217645883560181,-0.8984847664833069,-6.185519695281982
1772708475880881700,5.897881591796875,-0.9946996569633484,-0.8720752596855164,-6.488742828369141
1772708475890907600,5.90790771484375,-0.8305793404579163,-0.0785173773765564,-5.562273025512695
1772708475900933600,5.91793359375,-0.30039405822753906,0.9486371874809265,-4.035874843597412
1772708475910959600,5.927959716796875,0.22757457196712494,0.9047043919563293,-2.5897321701049805
1772708475920985600,5.937985595703125,0.77922123670578,-0.6912564039230347,-1.4619245529174805
1772708475931011600,5.948011474609375,1.2899733781814575,-2.855396032333374,-0.4921552240848541
1772708475941037600,5.95803759765625,1.5809940099716187,-4.576482772827148,0.16479335725307465
1772708475951064600,5.968064697265625,1.7234621047973633,-5.230711460113525,0.20920376479625702
1772708475961090600,5.978090576171875,1.7545467615127563,-4.35086727142334,-0.1688079833984375
1772708475971116500,5.988116455078125,1.7016232013702393,-2.665069580078125,-0.7764549851417542
1772708475981142800,5.998142822265625,1.5689202547073364,-0.9675395488739014,-1.425772786140442
1772708475991168800,6.008168701171875,1.3057516813278198,0.15395955741405487,-2.1147499084472656
1772708476001194800,6.01819482421875,0.9626643657684326,0.937967836856842,-2.5495738983154297
1772708476011220700,6.028220703125,0.5601727962493896,1.388339877128601,-2.788801908493042
1772708476021246700,6.038246826171875,0.12564370036125183,1.7734754085540771,-2.8207204341888428
1772708476031272700,6.048272705078125,-0.09679897129535675,2.08497953414917,-2.62225604057312
1772708476041298700,6.058298583984375,-0.036279432475566864,2.140014171600342,-2.307603597640991
1772708476051324700,6.06832470703125,0.183860644698143,1.9682121276855469,-1.9148277044296265
1772708476061350700,6.0783505859375,0.49124109745025635,1.7168147563934326,-1.4136559963226318
1772708476071376600,6.088376708984375,0.8547035455703735,1.3991013765335083,-0.8034594655036926
1772708476081402600,6.098402587890625,1.185860514640808,1.1290738582611084,-0.19557325541973114
1772708476091428900,6.108428955078125,1.4323416948318481,0.8991777300834656,0.284903347492218
1772708476101454800,6.118454833984375,1.5521563291549683,0.7839763164520264,0.5805922150611877
1772708476111480800,6.128480712890625,1.4916186332702637,0.8042851686477661,0.7121685147285461
1772708476121506800,6.1385068359375,1.3015154600143433,0.8845211267471313,0.7081932425498962
1772708476131532500,6.148532470703125,1.0969799757003784,1.0291554927825928,0.5862472653388977
1772708476141558500,6.15855859375,0.9333593845367432,1.2746970653533936,0.4289652705192566
1772708476151584500,6.16858447265625,0.8677372932434082,1.5849754810333252,0.37555938959121704
1772708476161610500,6.178610595703125,0.9617482423782349,1.8366754055023193,0.38448283076286316
1772708476171636500,6.188636474609375,1.131094217300415,1.8803308010101318,0.3927595317363739
1772708476181662500,6.198662353515625,1.3209507465362549,1.6700036525726318,0.3081578314304352
1772708476191688700,6.208688720703125,1.459328293800354,1.3165427446365356,0.15789572894573212
1772708476201714700,6.218714599609375,1.5398668050765991,0.995314359664917,-0.009865587577223778
1772708476211740700,6.22874072265625,1.5421557426452637,0.680467963218689,-0.15779295563697815
1772708476221766700,6.2387666015625,1.4504225254058838,0.4100911021232605,-0.30886074900627136
1772708476231792600,6.248792724609375,1.2534935474395752,0.22586843371391296,-0.4425395727157593
1772708476241818600,6.258818603515625,0.9619463682174683,0.09588062018156052,-0.5234211087226868
1772708476251844600,6.2688447265625,0.6624546647071838,-0.020853230729699135,-0.5701743960380554
1772708476261870600,6.27887060546875,0.47106871008872986,-0.18068444728851318,-0.6056506037712097
1772708476271897600,6.288897705078125,0.42618346214294434,-0.3460933566093445,-0.6582908034324646
1772708476281923800,6.298923828125,0.33958038687705994,-0.2669210433959961,-0.667750895023346
1772708476291949800,6.30894970703125,0.18767283856868744,-0.12734439969062805,-0.5288403034210205
1772708476301975800,6.318975830078125,0.10920360684394836,-0.10267049074172974,-0.19315551221370697
1772708476312001800,6.329001708984375,0.12946903705596924,-0.061096977442502975,0.30752500891685486
1772708476322027800,6.33902783203125,0.20757848024368286,-0.018250713124871254,0.8582054376602173
1772708476332053800,6.3490537109375,0.303997665643692,0.011512610130012035,1.3731818199157715
1772708476342079700,6.359079833984375,0.38757243752479553,0.059018880128860474,1.7867759466171265
1772708476352105700,6.369105712890625,0.433777779340744,0.05601588636636734,2.011564016342163
1772708476362131700,6.379131591796875,0.4210526645183563,-0.012494197115302086,2.10377836227417
1772708476372157700,6.38915771484375,0.38647738099098206,-0.1420016884803772,2.148386240005493
1772708476382184000,6.399183837890625,0.23420850932598114,-0.37669914960861206,2.086824893951416
1772708476392210000,6.4092099609375,-0.0013370374217629433,-0.6827709674835205,1.8673899173736572
1772708476402236000,6.41923583984375,-0.28435489535331726,-0.9972593784332275,1.4419076442718506
1772708476412262000,6.429261962890625,-0.7665043473243713,-1.3988336324691772,0.8310697078704834
1772708476422288000,6.439287841796875,-1.416848063468933,-2.051051378250122,0.036333173513412476
1772708476432313900,6.44931396484375,-1.9691357612609863,-2.812267303466797,-0.8861484527587891
1772708476442340000,6.459340087890625,-2.1789581775665283,-3.615023374557495,-1.806545376777649
1772708476452366000,6.469365966796875,-2.0097274780273438,-3.394768238067627,-1.9972615242004395
1772708476462392000,6.47939208984375,-1.3598344326019287,-1.9272136688232422,-1.8217023611068726
1772708476472418000,6.48941796875,-1.0974643230438232,-1.1377944946289062,-2.594017505645752
1772708476482444000,6.499444091796875,-1.1447503566741943,-0.19712819159030914,-3.775723695755005
1772708476492470000,6.509469970703125,-1.0457687377929688,0.42535075545310974,-4.001904487609863
1772708476502496000,6.51949609375,-1.0880775451660156,0.6584410071372986,-3.748347759246826
1772708476512522000,6.52952197265625,-0.9911392331123352,0.7309601902961731,-3.01926589012146
1772708476522548000,6.5395478515625,-0.16451774537563324,0.0694379135966301,-1.4532573223114014
1772708476532574000,6.549573974609375,0.6979784369468689,-1.1628013849258423,0.2972745895385742
1772708476542600000,6.559599853515625,0.9018319845199585,-2.269674301147461,1.5333843231201172
1772708476552626200,6.569626220703125,0.6575294733047485,-2.837815046310425,2.1568195819854736
1772708476562652200,6.579652099609375,0.15043266117572784,-2.7571825981140137,2.2864267826080322
1772708476572678100,6.58967822265625,-0.34597599506378174,-2.419727087020874,2.0140833854675293
1772708476582704000,6.5997041015625,-0.6202526092529297,-1.9148789644241333,1.4743026494979858
1772708476592731000,6.60973095703125,-0.8964529037475586,-1.0744224786758423,0.8056777715682983
1772708476602756900,6.6197568359375,-1.0450445413589478,-0.22971950471401215,0.09054449200630188
1772708476612782800,6.629782958984375,-1.019857406616211,0.55014568567276,-0.5481977462768555
1772708476622808800,6.639808837890625,-0.8484824895858765,1.2909401655197144,-1.0325077772140503
1772708476632835000,6.6498349609375,-0.6109630465507507,1.9844894409179688,-1.320143222808838
1772708476642861000,6.659861083984375,-0.3464539051055908,2.3692078590393066,-1.4226864576339722
1772708476652887000,6.669886962890625,-0.17530536651611328,2.2932393550872803,-1.3033021688461304
1772708476662913000,6.6799130859375,-0.07066178321838379,1.8998744487762451,-0.841048002243042
1772708476672939000,6.68993896484375,0.010602302849292755,1.3541063070297241,-0.020237060263752937
1772708476682965000,6.699965087890625,0.02687954157590866,0.6210635900497437,0.960330605506897
1772708476692991000,6.709990966796875,-0.0493616908788681,-0.12139734625816345,1.8932793140411377
1772708476703017000,6.720016845703125,-0.16997145116329193,-0.9312374591827393,2.569509983062744
1772708476713043000,6.73004296875,-0.34211787581443787,-1.6115374565124512,2.8592846393585205
1772708476723069000,6.74006884765625,-0.5140800476074219,-2.0126779079437256,2.776815176010132
1772708476733095000,6.750094970703125,-0.6204919219017029,-1.978390097618103,2.450716018676758
1772708476743121200,6.76012109375,-0.5921103358268738,-1.5141651630401611,1.9980640411376953
1772708476753147100,6.770147216796875,-0.4156833589076996,-0.801557183265686,1.5079582929611206
1772708476763173000,6.780173095703125,-0.15954771637916565,0.08810852468013763,1.0857388973236084
1772708476773199000,6.79019921875,0.13626030087471008,0.8939595818519592,0.7472630739212036
1772708476783225000,6.80022509765625,0.2823983430862427,1.3268159627914429,0.34762144088745117
1772708476793251000,6.8102509765625,0.14471127092838287,1.2479615211486816,-0.024999797344207764
1772708476803277000,6.820277099609375,-0.10082552582025528,0.6974347233772278,-0.18517401814460754
1772708476813303000,6.830302978515625,-0.2632651925086975,0.0289388969540596,-0.04026299715042114
1772708476823329000,6.8403291015625,-0.317877858877182,-0.4760611653327942,0.358192503452301
1772708476833355000,6.85035498046875,-0.27819812297821045,-0.7921943664550781,0.8101083040237427
1772708476843381000,6.860381103515625,-0.17466773092746735,-0.944696307182312,1.1797785758972168
1772708476853407200,6.8704072265625,0.008902150206267834,-0.9426634907722473,1.402681827545166
1772708476863433200,6.88043310546875,0.24685586988925934,-0.7924670577049255,1.4364558458328247
1772708476873459200,6.890459228515625,0.4876064360141754,-0.5285007953643799,1.2448723316192627
1772708476883485200,6.900485107421875,0.69493567943573,-0.2140670120716095,0.8326941728591919
1772708476893511200,6.91051123046875,0.8462391495704651,0.11347028613090515,0.29987406730651855
1772708476903537200,6.920537109375,0.8673332333564758,0.33971861004829407,-0.2018609493970871
1772708476913564000,6.93056396484375,0.779728889465332,0.5199576020240784,-0.4938547611236572
1772708476923590000,6.94058984375,0.658552348613739,0.7677162885665894,-0.4694013297557831
1772708476933615900,6.950615966796875,0.5417443513870239,1.003616213798523,-0.10892999917268753
1772708476943642000,6.96064208984375,0.43384528160095215,1.044877052307129,0.4873131513595581
1772708476953668000,6.970668212890625,0.32806873321533203,0.8268380165100098,1.1488999128341675
1772708476963694000,6.980694091796875,0.26578617095947266,0.5359987020492554,1.6627140045166016
1772708476973720000,6.990719970703125,0.26153120398521423,0.3823390305042267,1.9681966304779053
1772708476983746000,7.00074609375,0.3750036954879761,0.1837223470211029,1.9999955892562866
1772708476993772000,7.01077197265625,0.5199467539787292,0.0673588365316391,1.773754358291626
1772708477003798000,7.020798095703125,0.5760291814804077,0.07599840313196182,1.2595703601837158
1772708477013824000,7.030823974609375,0.47311559319496155,0.3250545561313629,0.7319726943969727
1772708477023850000,7.04085009765625,0.39211633801460266,0.5408204197883606,0.4099302291870117
1772708477033876000,7.0508759765625,0.3576027452945709,0.5153943300247192,0.40861260890960693
1772708477043902000,7.06090185546875,0.34146344661712646,0.5183430314064026,0.6634992361068726
1772708477053928200,7.07092822265625,0.31515708565711975,1.1218658685684204,1.1835263967514038
1772708477063954200,7.0809541015625,0.2505951225757599,2.1756348609924316,1.9647572040557861
1772708477073980200,7.090980224609375,0.4331403374671936,1.9209208488464355,2.091791868209839
1772708477084006100,7.101006103515625,0.4569564461708069,0.5964412093162537,0.8341755867004395
1772708477094032100,7.1110322265625,-0.352031409740448,-0.5304710865020752,-1.245710015296936
1772708477104058000,7.12105810546875,-1.2414641380310059,-0.8025478720664978,-3.016282558441162
1772708477114084000,7.131083984375,-1.3772356510162354,0.5094832181930542,-3.7663958072662354
1772708477124110000,7.141110107421875,-0.8980268239974976,1.4901810884475708,-3.555168628692627
1772708477134136000,7.151135986328125,-0.03089553862810135,2.2397286891937256,-2.3826353549957275
1772708477144162000,7.161162109375,0.8225786089897156,3.1487784385681152,-0.8154639601707458
1772708477154188000,7.17118798828125,1.2904530763626099,3.544191360473633,0.6914560794830322
1772708477164214000,7.181214111328125,1.393425703048706,2.4202880859375,2.031270742416382
1772708477174240000,7.191239990234375,1.1703195571899414,-0.14882320165634155,3.1379096508026123
1772708477184266000,7.201265869140625,0.5794314742088318,-2.937160015106201,3.840224027633667
1772708477194292000,7.2112919921875,-0.3227314054965973,-4.526656150817871,3.9776322841644287
1772708477204318000,7.22131787109375,-1.5694159269332886,-3.2745025157928467,3.896371841430664
1772708477214344000,7.231343994140625,-2.465137004852295,-1.02629554271698,3.3654611110687256
1772708477224370000,7.241369873046875,-2.7819983959198,1.2310034036636353,2.5951766967773438
1772708477234397000,7.25139697265625,-2.044682741165161,2.159863233566284,1.385573387145996
1772708477244423200,7.261423095703125,-0.26289036870002747,1.3511507511138916,-0.5351905226707458
1772708477254449200,7.27144921875,0.7436674237251282,2.4310734272003174,-1.3886748552322388
1772708477264475100,7.28147509765625,1.1165359020233154,3.9125351905822754,-1.8334286212921143
1772708477274501000,7.291501220703125,1.2341901063919067,4.554745674133301,-2.2686305046081543
1772708477284527000,7.301527099609375,1.047435998916626,4.204370498657227,-2.660576343536377
1772708477294553000,7.311552978515625,0.6191895604133606,3.3540046215057373,-2.809863328933716
1772708477304579000,7.3215791015625,0.2440289855003357,2.2691915035247803,-2.8093950748443604
1772708477314605000,7.33160498046875,-0.14966623485088348,1.533273458480835,-2.690500497817993
1772708477324631000,7.341631103515625,-0.4490175247192383,0.8306788802146912,-2.28336238861084
1772708477334657000,7.351656982421875,-0.6310946941375732,0.5444826483726501,-1.6710118055343628
1772708477344683000,7.36168310546875,-0.7943823933601379,0.4921547770500183,-1.060078740119934
1772708477354709200,7.371709228515625,-0.8904826641082764,0.45450589060783386,-0.4807368814945221
1772708477364735200,7.3817353515625,-0.8214654922485352,0.4490163028240204,0.07211698591709137
1772708477374761200,7.39176123046875,-0.5538533329963684,0.4676484167575836,0.5733051896095276
1772708477384787200,7.401787109375,-0.22974556684494019,0.4778563380241394,0.9588810801506042
1772708477394813200,7.411813232421875,-0.02968205325305462,0.3439836800098419,1.1541937589645386
1772708477404839200,7.421839111328125,-0.026358427479863167,0.029987404122948647,1.181485652923584
1772708477414865200,7.431865234375,-0.15861034393310547,-0.2712925970554352,1.1292035579681396
1772708477424891100,7.44189111328125,-0.3291708827018738,-0.3527357876300812,1.0636272430419922
1772708477434917000,7.451917236328125,-0.4398220479488373,-0.24390214681625366,1.0043803453445435
1772708477444943400,7.461943359375,-0.500325083732605,-0.056785259395837784,0.9712147116661072
1772708477454969300,7.47196923828125,-0.5197443962097168,0.10613052546977997,0.9942090511322021
1772708477464995300,7.481995361328125,-0.5156351327896118,0.24486815929412842,1.1069697141647339
1772708477475021300,7.492021240234375,-0.5157067775726318,0.3728332817554474,1.2667754888534546
1772708477485047300,7.50204736328125,-0.4938020408153534,0.4732626676559448,1.4143129587173462
1772708477495073300,7.5120732421875,-0.40414196252822876,0.5902089476585388,1.5411173105239868
1772708477505099300,7.522099365234375,-0.15515637397766113,0.6241235136985779,1.6677409410476685
1772708477515125200,7.532125244140625,0.2193918377161026,0.5427699089050293,1.7644895315170288
1772708477525151200,7.542151123046875,0.5222246646881104,0.3647492825984955,1.710665225982666
1772708477535178500,7.552178466796875,0.6623104810714722,0.04882822185754776,1.4164084196090698
1772708477545204500,7.56220458984375,0.6530109643936157,-0.3326922357082367,0.892620325088501
1772708477555230500,7.57223046875,0.5655030012130737,-0.536431074142456,0.3490319848060608
1772708477565256400,7.58225634765625,0.4816262125968933,-0.3996708393096924,-0.000724168261513114
1772708477578414300,7.595414306640625,0.34060823917388916,0.06556239724159241,-0.2416914999485016
1772708477588440300,7.6054404296875,0.22711630165576935,0.3929903209209442,-0.38298577070236206
1772708477598466300,7.61546630859375,0.11029430478811264,0.47347187995910645,-0.5133333206176758
1772708477608492300,7.6254921875,0.03860653191804886,0.381269246339798,-0.5409694314002991
1772708477618518300,7.635518310546875,0.09125655889511108,0.23899097740650177,-0.42902663350105286
1772708477628544300,7.645544189453125,0.24689649045467377,0.10770832002162933,-0.22592784464359283
1772708477638570200,7.6555703125,0.4271506071090698,-0.08006457984447479,0.08273085951805115
1772708477648596200,7.66559619140625,0.5827758312225342,-0.2669529914855957,0.47824251651763916
1772708477658622200,7.675622314453125,0.6863633990287781,-0.4124753475189209,0.8714561462402344
1772708477668648200,7.685648193359375,0.7364606857299805,-0.5046122074127197,1.1555824279785156
1772708477678674200,7.695674072265625,0.7543978691101074,-0.4944682717323303,1.248520851135254
1772708477688700400,7.705700439453125,0.7795919179916382,-0.3544217050075531,1.1581597328186035
1772708477698726400,7.715726318359375,0.7773354053497314,-0.14130927622318268,0.9442418813705444
1772708477708752400,7.72575244140625,0.7129071950912476,0.12809424102306366,0.6811628341674805
1772708477718778400,7.7357783203125,0.603080689907074,0.4253803491592407,0.41389453411102295
1772708477728804400,7.745804443359375,0.45641452074050903,0.6325247883796692,0.18364934623241425
1772708477738830300,7.755830322265625,0.2995622456073761,0.7149941921234131,0.06594881415367126
1772708477748856300,7.765856201171875,0.20998336374759674,0.7204715609550476,0.05566927418112755
1772708477758882300,7.77588232421875,0.1771547794342041,0.6980156898498535,0.10062771290540695
1772708477768908300,7.785908203125,0.17029981315135956,0.6270885467529297,0.17783620953559875
1772708477778934300,7.795934326171875,0.20928531885147095,0.5518319010734558,0.2926188111305237
1772708477788960300,7.805960205078125,0.26891961693763733,0.43647682666778564,0.3773004114627838
1772708477798986500,7.815986572265625,0.32540565729141235,0.28092020750045776,0.40384441614151
1772708477809012500,7.826012451171875,0.4416382610797882,-0.2607603669166565,0.22618065774440765
1772708477819038500,7.83603857421875,0.5921609401702881,-0.4887388050556183,0.0359698124229908
1772708477829064400,7.846064453125,0.608456552028656,-0.3605094850063324,-0.07510797679424286
1772708477839090400,7.85609033203125,0.5140130519866943,-0.055426597595214844,-0.21369215846061707
1772708477849117200,7.8661171875,0.3846531808376312,0.2912786304950714,-0.3346462845802307
1772708477859143200,7.87614306640625,0.35391971468925476,0.6197835206985474,-0.45161351561546326
1772708477869169200,7.886169189453125,0.36259761452674866,0.8983323574066162,-0.5401521921157837
1772708477879195100,7.896195068359375,0.3694677948951721,0.9931347966194153,-0.5921738743782043
1772708477889848300,7.906848388671875,0.4220247268676758,0.8979352712631226,-0.598543107509613
1772708477907394300,7.924394287109375,0.4746450185775757,0.45310792326927185,-0.3546909689903259
1772708477917420300,7.934420166015625,0.4770042896270752,0.22677770256996155,-0.07857020199298859
1772708477927446300,7.9444462890625,0.45024779438972473,0.006023754831403494,0.1960725486278534
1772708477937472300,7.95447216796875,0.394775927066803,-0.1824711263179779,0.41646185517311096
1772708477947498200,7.964498291015625,0.33536985516548157,-0.26983559131622314,0.5232024192810059
1772708477957524200,7.974524169921875,0.322945773601532,-0.22088024020195007,0.5029318928718567
1772708477967550200,7.98455029296875,0.34363558888435364,-0.14626218378543854,0.3757513165473938
1772708477977576200,7.994576171875,0.3948158323764801,-0.07494908571243286,0.228127583861351
1772708477987602200,8.004602294921876,0.45866140723228455,0.051979031413793564,0.06941143423318863
1772708477997629400,8.01462939453125,0.5126112699508667,0.2542709708213806,-0.12063441425561905
1772708478007655400,8.024655517578125,0.5622187852859497,0.35924479365348816,-0.3430190086364746
1772708478017681400,8.034681396484375,0.5696099400520325,0.3911707103252411,-0.5625523924827576
1772708478027707400,8.044707275390625,0.5480743050575256,0.28304848074913025,-0.7480556964874268
1772708478037733400,8.0547333984375,0.5292016863822937,0.05700892210006714,-0.8766762614250183
1772708478047759400,8.06475927734375,0.49871164560317993,-0.159547358751297,-0.9524280428886414
1772708478057785300,8.074785400390626,0.45314767956733704,-0.260341078042984,-0.9695233702659607
1772708478067811300,8.084811279296876,0.44168463349342346,-0.3100055754184723,-0.9232392311096191
1772708478077837300,8.09483740234375,0.3076803386211395,-0.31370997428894043,-0.7670634388923645
1772708478087863300,8.10486328125,0.42202237248420715,-0.2347525805234909,-0.5235738158226013
1772708478097889500,8.1148896484375,0.22919206321239471,-0.23784029483795166,-0.27679502964019775
1772708478107915500,8.12491552734375,0.19644716382026672,-0.35030555725097656,-0.12111594527959824
1772708478117941500,8.13494140625,-0.14686386287212372,-0.4932938814163208,-0.08587966114282608
1772708478127967200,8.14496728515625,-0.1830272078514099,-0.46701526641845703,-0.041628412902355194
1772708478137993200,8.1549931640625,-0.4530212879180908,-0.2303059697151184,0.06188061088323593
1772708478148019200,8.165019287109375,-0.4346556067466736,0.040348418056964874,0.18721961975097656
1772708478158045200,8.175045166015625,-0.621135950088501,0.2698388397693634,0.3036077916622162
1772708478168071200,8.1850712890625,-0.4511500895023346,0.3565761148929596,0.38947156071662903
1772708478178097200,8.19509716796875,-0.4826955497264862,0.2602221667766571,0.37995898723602295
1772708478188123100,8.205123046875,-0.2123120129108429,0.08473292738199234,0.28152430057525635
1772708478198149400,8.2151494140625,-0.222273051738739,-0.024686502292752266,0.13654278218746185
1772708478208175400,8.22517529296875,0.0029984156135469675,-0.024080365896224976,-0.01593303680419922
1772708478218201300,8.235201416015625,-0.09688865393400192,0.02940412238240242,-0.15549102425575256
1772708478228227300,8.245227294921875,0.010338470339775085,0.039541710168123245,-0.2636910080909729
1772708478238253300,8.25525341796875,-0.1954374760389328,0.04004829749464989,-0.35269895195961
1772708478248279300,8.265279296875,-0.12048787623643875,0.022709790617227554,-0.41229358315467834
1772708478258305300,8.27530517578125,-0.29535043239593506,-0.008819499984383583,-0.44374656677246094
1772708478268332300,8.285332275390624,-0.16093774139881134,-0.06300577521324158,-0.42977455258369446
1772708478278358300,8.295358154296874,-0.2928927540779114,-0.13850010931491852,-0.37022820115089417
1772708478288384500,8.305384521484376,-0.1754705160856247,-0.19433754682540894,-0.272849977016449
1772708478298410500,8.315410400390626,-0.3675892949104309,-0.19742949306964874,-0.17616181075572968
1772708478308436500,8.3254365234375,-0.30201348662376404,-0.1485293209552765,-0.1084703803062439
1772708478318462500,8.33546240234375,-0.47709861397743225,-0.099290631711483,-0.08178302645683289
1772708478328488400,8.345488525390625,-0.2897726595401764,-0.029889719560742378,-0.093223437666893
1772708478338514400,8.355514404296875,-0.28331851959228516,0.12298725545406342,-0.15346886217594147
1772708478348540400,8.36554052734375,0.03038615733385086,0.2750106155872345,-0.2418496012687683
1772708478358566400,8.37556640625,0.09320837259292603,0.4091688394546509,-0.3468727171421051
1772708478368592400,8.38559228515625,0.3820745348930359,0.5498447418212891,-0.4609318971633911
1772708478378618600,8.39561865234375,0.3106556832790375,0.6892444491386414,-0.5870146155357361
1772708478388644600,8.40564453125,0.43049153685569763,0.740157425403595,-0.722772479057312
1772708478398670600,8.415670654296875,0.2735230624675751,0.6432767510414124,-0.850925087928772
1772708478408696600,8.425696533203125,0.29641425609588623,0.5375378131866455,-0.5862540006637573
1772708478418722600,8.43572265625,-0.012215178459882736,-0.14527654647827148,-0.3909168243408203
1772708478428748500,8.44574853515625,0.08591112494468689,-0.6196915507316589,-0.16040055453777313
1772708478438774500,8.4557744140625,0.045280132442712784,-0.773492693901062,0.02466031350195408
1772708478448800500,8.465800537109375,0.19032573699951172,-0.6218001246452332,0.15521380305290222
1772708478458826500,8.475826416015625,0.19094201922416687,-0.3163377344608307,0.20905353128910065
