time,seconds_elapsed,z,y,x
1772709371540391000,0.060390869140625,0.17062720029652118,0.052823535431921476,0.05702266762219369
1772709371550416000,0.070415771484375,0.09725158296227454,-0.01523446707613766,0.0036402561984956263
1772709371560439800,0.080439697265625,-0.021890929290652273,-0.02340257596261799,-0.0348251566004008
1772709371570464800,0.09046484375,-0.03875263224244117,-0.0032416122697293756,-0.009736234986037016
1772709371580490000,0.100489990234375,0.017341595423221588,-0.0043014965862035745,0.025933555744960902
1772709371590515000,0.110514892578125,0.10267068540155887,0.010831482876837254,0.015449571131542324
1772709371600540000,0.120539794921875,0.08877952269315718,-0.016389993786811826,-0.03160144531354308
1772709371610564900,0.13056494140625,0.007834931409358977,-0.021024521719664332,-0.0042214901525527235
1772709371620590000,0.140590087890625,-0.01249298634827137,-0.005696165814995766,0.013471914383023977
1772709371630615000,0.150614990234375,0.015634206983447075,-0.010556684523448347,0.009169979405403136
1772709371640640000,0.160639892578125,0.04791793547272682,-0.028062822858616707,-0.014414675125852226
1772709371650665000,0.1706650390625,0.07469839037060737,-0.000028787703067064285,-0.010811755263060331
1772709371660689000,0.18068896484375,0.03777881877422332,0.005147299760580063,-0.0061181175541132685
1772709371670713900,0.1907138671875,0.018361586120724676,0.008065525294840335,-0.0033103666570037603
1772709371680738800,0.20073876953125,0.028542788395285606,-0.00498911352418363,-0.00123129536062479
1772709371690764000,0.210763916015625,0.0416968690007925,-0.014903554621338843,0.0014450842417776583
1772709371700789000,0.2207890625,0.061003042495250695,-0.0018858868118375538,-0.01210142974741757
1772709371710814000,0.23081396484375,0.03844049755334854,0.003916369726136327,-0.003527297343313694
1772709371720839000,0.2408388671875,0.0202080907702446,-0.005713190015032887,-0.01662446012981236
1772709371730864000,0.250864013671875,0.02933072390258312,0.005715016645938158,-0.010576704398170112
1772709371740888800,0.260888916015625,0.024990064349770545,-0.016009543101862072,0.01367452428303659
1772709371750913800,0.270913818359375,0.03263619518876076,-0.031023353164643046,0.0018819412890821695
1772709371760938000,0.28093798828125,0.062439797300100325,-0.018471257040277123,0.0010420563988387584
1772709371770963000,0.290962890625,0.042861236605048175,-0.005564867585524916,-0.009479118419811128
1772709371780988000,0.30098779296875,0.013989946907758712,0.00525543631017208,-0.01012552656456828
1772709371791013000,0.31101318359375,0.013701777616143225,0.007936126761510967,-0.01629515511021018
1772709371801038000,0.3210380859375,0.028489596903324126,-0.007206351182237267,-0.02850954371280968
1772709371811063000,0.33106298828125,0.04746200839877128,-0.025836890437453984,-0.012515563506260513
1772709371821087700,0.341087646484375,0.05178805490434169,0.009470862048119305,0.00794964383020997
1772709371831113000,0.351113037109375,0.012877017229795455,-0.008411562253534793,0.01707205776683986
1772709371841138000,0.361137939453125,0.029787235498428342,-0.009782996737211943,0.008326002861931919
1772709371851163000,0.371162841796875,0.052386605319380754,-0.006421192153915762,0.01894333153143525
1772709371861187800,0.381187744140625,0.06153904906809329,-0.015466741462051868,0.005462868515774607
1772709371871212000,0.3912119140625,0.047048751422762866,0.006273161985352635,-0.0015541706394404172
1772709371881237000,0.401237060546875,0.012044073536992073,-0.00972162193879485,-0.013880495183914899
1772709371891261700,0.41126171875,0.011142156261205672,-0.005080079743266105,-0.004199205255508423
1772709371901287000,0.421286865234375,0.03657704176902771,-0.004786795885115862,0.0026009032133966683
1772709371911312000,0.431311767578125,0.04512099823057651,-0.014272344045713543,-0.004548603215068578
1772709371921336800,0.4413369140625,0.05081541047990322,0.004975669520720839,-0.0005422171179205179
1772709371931361800,0.45136181640625,0.021795067700743673,-0.006099047527462244,-0.016911679573357104
1772709371941387000,0.461386962890625,0.02912380315363407,-0.014955723199993371,-0.002413637012988329
1772709371951412000,0.471411865234375,0.033004443979263304,-0.01067760748937726,-0.0023800270043313502
1772709371961437000,0.48143701171875,0.050796705779433245,-0.003401259810850024,-0.00424245987534523
1772709371971462000,0.4914619140625,0.052156303694844246,-0.016453779738023876,-0.0007043488770723343
1772709371981485800,0.50148583984375,0.028072248274087903,0.010482157982513307,-0.00457264167778194
1772709371991510800,0.5115107421875,0.03015899142026901,-0.0014925766453146934,-0.008299699376896024
1772709372001536000,0.521535888671875,0.025496844828128813,-0.00915339359678328,0.0023562808025628327
1772709372011561000,0.53156103515625,0.044208559560775754,-0.008143266706168651,0.003143266461789608
1772709372021586000,0.5415859375,0.05784370168149471,-0.018021467446163297,-0.013842647391557692
1772709372031611000,0.55161083984375,0.03134790894389152,0.0053414340931922195,-0.01705415678396821
1772709372041636000,0.561635986328125,0.022518705800175665,-0.004525149274244905,-0.005096007964760065
1772709372051661000,0.5716611328125,0.03451367949843406,0.0034934681389480826,-0.006953034008294344
1772709372061686000,0.58168603515625,0.05295066894292831,0.0007519874110817909,0.0016734131049364804
1772709372071710700,0.591710693359375,0.053117257681488984,-0.017943141512945293,-0.01283032854385674
1772709372081736000,0.60173583984375,0.03231821528077125,-0.013132891687005757,-0.007352116328477859
1772709372091759900,0.611759765625,0.03321428733766079,-0.0035294162351638078,-0.0016076543923467398
1772709372101784800,0.621784912109375,0.033676644152402874,0.0023086422685533762,0.002814838225021958
1772709372111810000,0.63181005859375,0.04743745847940445,0.0010375994194298983,-0.0023413754943758247
1772709372121835000,0.6418349609375,0.04878010526001453,-0.013075024019926785,0.007320332950726151
1772709372131860000,0.65185986328125,0.032930794221162796,-0.0130542004276067,0.003337693055346608
1772709372141885000,0.661885009765625,0.029808862808346746,-0.0014957915157079696,0.003310439722239971
1772709372151910000,0.671909912109375,0.03445522730946541,-0.006640022536367178,-0.010249883596599101
1772709372161934800,0.681934814453125,0.04970598793327808,-0.014231865904852746,-0.009756327925994991
1772709372171959800,0.691959716796875,0.03787701845169067,-0.016018968517333268,-0.005756736895814537
1772709372181985000,0.701985107421875,0.048341129320859905,-0.0063252574987709516,-0.0017534926038235425
1772709372192009000,0.712009033203125,0.0332224706441164,0.0051641047649085515,0.004539543125778436
1772709372202034000,0.722033935546875,0.02153378641605377,0.011034019711613654,-0.01350866619683802
1772709372212059100,0.73205908203125,0.028712299743294714,0.01377133572101593,-0.010290727063640951
1772709372222084000,0.742083984375,0.04246785337328911,0.004223535979166627,0.002597761408239603
1772709372232108800,0.75210888671875,0.041723172485828394,-0.006780965377017855,0.009474149983748794
1772709372242133800,0.7621337890625,0.0450385806441307,-0.016983868026733396,-0.0003968903630971908
1772709372252159000,0.772158935546875,0.033225393253564835,-0.012536240968108176,-0.002627425894141197
1772709372262183200,0.78218310546875,0.05043839386105537,-0.007309811556711792,-0.0034703064590692516
1772709372272208100,0.7922080078125,0.03682721713781357,0.0016530279040336607,-0.004752747485041618
1772709372282233300,0.8022333984375,0.030557050827145573,0.007447466461732983,-0.004526464448496699
1772709372292258000,0.812258056640625,0.018452771535515784,-0.005494578828290105,-0.003307882438972592
1772709372302282000,0.822281982421875,0.020699673679471016,-0.007229293666407465,0.004208265344798565
1772709372312307200,0.83230712890625,0.05076221898794174,-0.02851049356088042,-0.00878244139254093
1772709372322332200,0.842332275390625,0.05657061300575733,-0.02317249353379011,-0.011825097024068235
1772709372332357000,0.852357177734375,0.029017420169711112,0.014345409281924366,-0.01429879366122186
1772709372342382000,0.862382080078125,0.01583820512294769,0.029303397504240273,-0.010161474660784006
1772709372352407300,0.8724072265625,0.022120061871409413,0.005506780722737312,-0.027532734569907187
1772709372362432300,0.882432373046875,0.037488311395049094,-0.02378667990937829,-0.017919541441649197
1772709372372457000,0.89245703125,0.04986965406239032,-0.01940561528094113,0.0004747779048979282
1772709372382482200,0.902482177734375,0.027566052317619324,-0.006028904900699854,-0.007570654449984431
1772709372392507100,0.912507080078125,0.012456161469221114,0.026067703518643973,-0.002777867215499282
1772709372402531000,0.922531005859375,0.03593757482171058,-0.0008528905022889375,0.006140037124976515
1772709372412556300,0.932556396484375,0.08009060480296612,-0.012311419236287474,0.004660173830762505
1772709372422581200,0.942581298828125,0.0718909317344427,-0.0015561434008181095,-0.0003603577449917793
1772709372432606200,0.952606201171875,0.026122867771983145,-0.008407397535070776,-0.0062507309578359125
1772709372442631200,0.962631103515625,-0.0002326397120952606,-0.008682342018932103,-0.004703647646307945
1772709372452656000,0.97265625,0.02383388005197048,0.001970569420605898,-0.008512757605686783
1772709372462681000,0.98268115234375,0.04686345798373222,-0.010297156804427504,0.015531988717988133
1772709372472706000,0.9927060546875,0.048936757126450535,-0.016695041147992015,-0.009598726211488247
1772709372482731000,1.00273095703125,0.029760932013392447,0.0020316519580781457,-0.00010850187577307224
1772709372492756200,1.012756103515625,0.03123743430674076,-0.002040638982132077,0.001412643276900053
1772709372502780200,1.0227802734375,0.034818799924850465,-0.0065276482030749315,0.0037664398614317175
1772709372512805000,1.03280517578125,0.042432197538018225,0.0024508272182196377,-0.00808737180046737
1772709372522830300,1.042830322265625,0.03297463336288929,-0.014077186799794434,-0.0072949793137609955
1772709372532855000,1.05285498046875,0.03878419642448425,-0.0023530659321695565,0.00028225100748240946
1772709372542880000,1.0628798828125,0.01424012227654457,0.009467208786308764,-0.00403648897446692
1772709372552905000,1.072905029296875,0.0248527017056942,-0.008231383381038904,-0.014545023507252335
1772709372562930200,1.08293017578125,0.039808278775215145,-0.0013763298545032738,-0.015898776203766465
1772709372572955100,1.092955078125,0.041465398332476616,-0.013232333473488688,-0.0021891075421124695
1772709372582980000,1.10297998046875,0.04911094464957714,0.002036108937487006,-0.0017034429170191287
1772709372593005000,1.113005126953125,0.04193535393178463,-0.008504135907813907,-0.012758651547133923
1772709372603030300,1.1230302734375,0.03655541445910931,0.0022419337078928947,-0.010016513232141732
1772709372613054000,1.133053955078125,0.031627894929051395,0.013232041212543844,-0.005357727640867233
1772709372623079200,1.1430791015625,0.05514087246358394,-0.002694207520037889,-0.0010643412958830595
1772709372633104100,1.153104248046875,0.028217209702730176,-0.020939619915187356,-0.010276698538288474
1772709372643129000,1.163129150390625,0.03374327964782715,-0.008038198896497487,-0.012195756967365742
1772709372653154000,1.173154052734375,0.01038636945784092,-0.0035492899794131515,-0.003952244757115841
1772709372663179300,1.18317919921875,0.03057692457139492,-0.006270750832557678,-0.000742854256555438
1772709372673204200,1.193204345703125,0.04328501497507095,-0.005310235237330198,0.009432429733872413
1772709372683229200,1.203229248046875,0.0386468337804079,0.009769041277095675,-0.011435220923647283
1772709372693254100,1.213254150390625,0.03251286107003688,0.011143106109276412,-0.003363704279437661
1772709372703279400,1.223279296875,0.041922494450211525,-0.01707914509475231,-0.014199717200919984
1772709372713303000,1.233302978515625,0.025742928543686865,-0.019007555874064563,-0.007357450090721249
1772709372723328000,1.243327880859375,0.03739946406781673,-0.00990450422503054,0.005971256429329514
1772709372733353200,1.253353271484375,0.04277472736537456,-0.0018866174641996622,-0.0015830314077436923
1772709372743378200,1.263378173828125,0.04277063571214676,-0.007464417596533894,-0.0068372986741364
1772709372753403100,1.273403076171875,0.025848727005720138,0.008890139550715685,0.0019851094026118515
1772709372763428000,1.283427978515625,0.029874329259991644,0.012811989169567823,-0.014786357982456684
1772709372773453300,1.293453369140625,0.030762218010425564,-0.0009747633162885904,-0.00449285443983972
1772709372783478300,1.303478271484375,0.04512801249325275,0.003829860486462712,0.00010214520022273063
1772709372793503000,1.3135029296875,0.04692249469459057,-0.016613135018199682,-0.010362404060363768
1772709372803528200,1.323528076171875,0.04916530518531799,-0.004689546055719256,-0.009995032052695751
1772709372813552000,1.33355224609375,0.0403331794321537,-0.005975640343502163,-0.008476224987581372
1772709372823577000,1.3435771484375,0.03464519692361354,-0.0021433687042444944,-0.021419073995202778
1772709372833602300,1.353602294921875,0.03523088785707951,-0.009044307199120522,-0.012803075210750102
1772709372843627300,1.363627197265625,0.030150223591923712,-0.007032455920055508,0.004578633027151227
1772709372853652200,1.37365234375,0.027781156373023985,-0.005378112841770053,0.01520158771984279
1772709372863677000,1.383677001953125,0.04484101224541664,-0.009095891255885362,-0.0029076310750097037
1772709372873702100,1.3937021484375,0.0647457361549139,-0.013086641392484307,-0.011339724659919738
1772709372883727000,1.40372705078125,0.014164134430885314,-0.007275251699984073,-0.004988675132766365
1772709372893752000,1.413751953125,0.023138299003243445,0.002256181428954005,-0.023108196125924584
1772709372903777000,1.423777099609375,0.026566519886255264,0.0019724691167473793,-0.024839184636995196
1772709372913801200,1.43380126953125,0.0263905787974596,-0.009906111660227179,-0.019023703291267156
1772709372923826200,1.443826171875,0.05088906023800373,-0.011182926663011312,-0.008166866777464747
1772709372933851100,1.45385107421875,0.046674657413363456,-0.005887012211978435,-0.0022148995704948903
1772709372943876000,1.4638759765625,0.027055764707922935,-0.0039315672952681775,0.0051001726832240815
1772709372953901000,1.473901123046875,0.04514145649671554,-0.006503244414180517,-0.00819645819813013
1772709372963926000,1.483926025390625,0.055906011617183685,-0.014563655142486094,-0.009591200492158532
1772709372973951000,1.493950927734375,0.04754734859466552,0.014206000811234116,-0.0020206921726465222
1772709372983976200,1.50397607421875,0.03215571819543838,-0.002525061498209834,-0.011951572947949171
1772709372994001200,1.514001220703125,0.020189386069774627,-0.01206160919368267,-0.0015511749647557735
1772709373004026000,1.524026123046875,0.03933481604456901,-0.0028919220492243766,-0.0009120002783834934
1772709373014050300,1.53405029296875,0.05354162057340145,0.005563114019855857,-0.006189575355127454
1772709373024075000,1.544074951171875,0.036923078727722165,0.0012046996146440505,0.00810585730522871
1772709373034100000,1.554099853515625,0.027791093245148658,0.011946531446650624,-0.005927198091894388
1772709373044125200,1.564125244140625,0.03513210365772247,0.009075944446399807,-0.010257336250692606
1772709373054150100,1.574150146484375,0.04651625198125839,-0.011862068033590913,0.008406301556527614
1772709373064175000,1.584175048828125,0.05070025966763496,-0.01259958852790296,-0.008026727654412388
1772709373074200000,1.594199951171875,0.032445056530833245,-0.010890592652931809,-0.0028788433719426393
1772709373084225300,1.604225341796875,0.03003799538910389,-0.013066913778707384,0.00318608269020915
1772709373094250200,1.614250244140625,0.024043723410367965,-0.020998802756518123,0.0022016016975045204
1772709373104275200,1.624275146484375,0.03898877908587456,-0.0033951953962445256,-0.0036356530886143446
1772709373114299100,1.634299072265625,0.0425596233099699,-0.005791004491597414,-0.003591960077360272
1772709373124324000,1.644323974609375,0.03328209187686443,-0.019000687741860745,0.006907587431371212
1772709373134349000,1.65434912109375,0.04540624491274357,-0.0017145488329231738,-0.0022316315095871684
1772709373144374000,1.6643740234375,0.044509003812074656,0.002817103247344494,-0.010784721125662327
1772709373154399200,1.674399169921875,0.032249241697788235,-0.007496127909049391,0.0016356383778154849
1772709373164424200,1.684424072265625,0.03420855907201767,-0.013249649934470652,-0.00869454391337931
1772709373174449200,1.69444921875,0.030624270844459532,-0.008414265667274594,-0.018026655077934266
1772709373184474000,1.70447412109375,0.04558861574232578,-0.01171104219034314,-0.017567659264057872
1772709373194499300,1.714499267578125,0.028232407271862027,-0.003183306211233139,-0.011417758332192897
1772709373204523000,1.72452294921875,0.026729016971588134,-0.001719371138513088,-0.006676262893527746
1772709373214548200,1.73454833984375,0.03660276073217392,-0.00857384014315903,-0.008815028487890958
1772709373224573200,1.7445732421875,0.04453004660010337,-0.013865955201908945,0.0007667465887963771
1772709373234598100,1.75459814453125,0.047371992027759546,-0.014226093751192092,-0.005195961207896471
1772709373244623000,1.764623046875,0.03121639151871204,-0.00849646405801177,0.003955971084162593
1772709373254648300,1.7746484375,0.03376899861097336,-0.007523454307392239,-0.006778992615640163
1772709373264673000,1.784673095703125,0.03841127145886421,-0.00042005204297602174,-0.004239683396369219
1772709373274698000,1.794697998046875,0.04514496362805366,-0.016448372910544275,-0.005131006212905049
1772709373284723000,1.804722900390625,0.0439496163636446,-0.011415785570815205,-0.007173398760706186
1772709373294748200,1.814748046875,0.030041502520442007,-0.010917115333676338,0.0073353843893855806
1772709373304771800,1.824771728515625,0.017181436425447463,0.005020604640990496,0.003181041188910603
1772709373314796800,1.834796875,0.033194413593411444,0.009953457933291792,-0.010208967064321041
1772709373324822000,1.844822021484375,0.03723053724169731,0.006927899567037821,-0.007928381846472621
1772709373334847000,1.854846923828125,0.044563948869705196,-0.0009359656758606434,-0.0051154433175921435
1772709373344872000,1.864871826171875,0.03333528336882591,0.0015867577347904443,-0.004859788056090474
1772709373354897000,1.87489697265625,0.042917935228347776,-0.01784443037882447,-0.010256824794039129
1772709373364922000,1.884922119140625,0.0411216994613409,-0.007122106964886188,-0.007390183316543698
1772709373374947000,1.894947021484375,0.03348433645069599,-0.0006962386358529329,-0.0010992664787918328
1772709373384972000,1.904971923828125,0.02944178306162357,0.012110928228124975,-0.004318374655768275
1772709373394996000,1.914995849609375,0.025571663630008696,-0.0036040889065712687,0.010751841769367455
1772709373405021000,1.92502099609375,0.031582302221655846,-0.018153496327996253,0.008535700089856981
1772709373415046000,1.9350458984375,0.0639046091556549,-0.021231150207668543,-0.0005346183333545922
1772709373425071000,1.945071044921875,0.06001753858923912,0.005324409893155098,-0.00709032358713448
1772709373435096000,1.955095947265625,0.031311668586730956,0.01717339924946427,-0.012397636215016244
1772709373445121000,1.96512109375,0.012469605472683906,-0.0032318945933133363,-0.0042602877929806705
1772709373455146000,1.97514599609375,0.035928806993365286,-0.022340061297640202,-0.015599647126719355
1772709373465171200,1.985171142578125,0.042786417803168296,-0.013424641175195574,-0.007638678184896707
1772709373475196200,1.995196044921875,0.04337035517096519,-0.009936068407073617,-0.001489434840157628
1772709373485220900,2.005220947265625,0.03588613689541816,0.008418649581447243,-0.005820303651317953
1772709373495245000,2.0152451171875,0.03512918104827404,0.0008384966507554054,-0.012226225170865654
1772709373505270000,2.02527001953125,0.0496487047880888,-0.016835618662461638,-0.018247604352235793
1772709373515295000,2.035294921875,0.06806582048833369,-0.007276347678527236,0.0023804653957486153
1772709373525320000,2.04531982421875,0.04713584518432617,-0.005033025731146335,0.013550313381478189
1772709373535345200,2.05534521484375,0.026045710882544516,-0.014264233804494141,-0.012525573443621396
1772709373545370000,2.0653701171875,0.04161035976111889,-0.011355360620468853,-0.011048851954564452
1772709373555395000,2.07539501953125,0.04489829539060593,-0.012382292515411973,-0.004666165180131793
1772709373565420000,2.085419921875,0.04789221650958061,-0.0025042379058897494,0.002024199303984642
1772709373575445000,2.095445068359375,0.04624737191200256,0.005881532319262623,0.005772884313017129
1772709373585470000,2.105469970703125,0.02965805616080761,-0.004789572364091873,-0.015341946038603782
1772709373595494100,2.115494140625,0.04581716380119324,-0.005811243562027811,-0.009240706554055213
1772709373605519000,2.12551904296875,0.051942368683218956,-0.019710662642121315,0.0031652590978890655
1772709373615544000,2.1355439453125,0.04940671272575855,-0.0031224428694695233,0.0015622078154236077
1772709373625569000,2.145569091796875,0.04044540763497352,-0.0065441609464585776,-0.02183393840640783
1772709373635594200,2.15559423828125,0.03221358586251735,-0.009829539292678236,-0.006201850314810872
1772709373645619000,2.165618896484375,0.032062194693088526,-0.00609780541844666,0.0009157266054302454
1772709373655644000,2.175643798828125,0.04492869052886963,0.0012361176662147044,-0.002458206807076931
1772709373665668900,2.1856689453125,0.03760170864164829,-0.0008902268379926681,-0.005826368065923452
1772709373675694000,2.195694091796875,0.04764554827213287,0.0016795505847781896,-0.001173135432600975
1772709373685718000,2.205718017578125,0.04452770851254463,0.00847162187770009,-0.006951426573097706
1772709373695743000,2.215742919921875,0.03017477351129055,0.018639160953089595,-0.01455254922658205
1772709373705768200,2.225768310546875,0.0300461786955595,0.008043532658740877,-0.005181128964945674
1772709373715793200,2.235793212890625,0.044728199520707126,-0.007719123009964823,-0.02137925344146788
1772709373725817900,2.24581787109375,0.03771510588824749,-0.006226984756067395,-0.008761179408803582
1772709373735842800,2.2558427734375,0.04444704449176788,-0.0065464990340173244,0.004199351385980844
1772709373745868000,2.265867919921875,0.025442484292387962,0.0014094284065067767,-0.011294278082996606
1772709373755893000,2.27589306640625,0.026185996136069298,0.0009556202244013547,-0.007297755792737007
1772709373765918000,2.28591796875,0.03742869016230106,-0.010113543865829706,-0.0035072774685919283
1772709373775943200,2.295943115234375,0.038488428348302836,-0.01848426265232265,-0.006894362623617052
1772709373785967000,2.305967041015625,0.04268646456003189,-0.00741436790972948,-0.013693009787797927
1772709373795992000,2.315991943359375,0.02550093648135662,-0.0046353316504508255,-0.0014004413824528455
1772709373806017000,2.32601708984375,0.04227905280292034,-0.004086757856979966,-0.019982538386061788
1772709373816042000,2.3360419921875,0.046180151894688604,-0.00530599745362997,-0.013582169824466108
1772709373826067000,2.34606689453125,0.04305062169730663,-0.01149345391690731,-0.013477613471448421
1772709373836092000,2.356091796875,0.02808335418999195,0.002814911290258169,-0.022056202854961154
1772709373846117000,2.3661171875,0.0316582900673151,0.007762085368856787,-0.002437529345229268
1772709373856142000,2.37614208984375,0.0337497093886137,0.009022168432548642,-0.0040606735676527025
1772709373866167000,2.3861669921875,0.040190556091070175,0.007455649768188595,-0.02230674354992807
1772709373876192000,2.39619189453125,0.025243746849894524,0.003909501593932509,-0.005203048535808921
1772709373886216000,2.4062158203125,0.04141337588429451,-0.007703194788470864,-0.00978913421705365
1772709373896241000,2.416240966796875,0.037380174845457075,-0.020637422098219393,0.0097739366479218
1772709373906265900,2.426265869140625,0.04428454740643501,-0.005838716090843081,0.004751797636970877
1772709373916291000,2.436291015625,0.045347792723774906,-0.009831512054055929,-0.02475092183165252
1772709373926316000,2.44631591796875,0.03593056055903435,0.00498911352418363,-0.0056509384337812656
1772709373936341000,2.456341064453125,0.04298924689888954,0.0025314181737601756,0.011759119115769863
1772709373946366000,2.466365966796875,0.0214671509206295,-0.017832520745322107,-0.0032405162911862133
1772709373956391200,2.47639111328125,0.05440262131690979,-0.01872778908461332,-0.0025528262879699467
1772709373966416100,2.486416015625,0.07042904248833656,-0.0047145343665033574,-0.00023366262540221213
1772709373976440000,2.496440185546875,0.03212941471040249,0.0032466537710279224,-0.020785452266782523
1772709373986465000,2.506465087890625,0.013128946164250373,0.011039499604329466,-0.010039236520603298
1772709373996490000,2.516489990234375,0.016857611298561094,-0.00724215314798057,-0.021215952638536692
1772709374006515000,2.526514892578125,0.04930500591695308,-0.01454465818107128,-0.020631430748850106
1772709374016540200,2.5365400390625,0.06020750820338726,-0.0021239333514124154,0.002091565451771021
1772709374026565000,2.546565185546875,0.043294367325305935,0.001790025221928954,0.00043371524214744564
1772709374036590000,2.556590087890625,0.028335867646336554,0.009189268627762794,0.010469371566176415
1772709374046615000,2.566614990234375,0.03478022148013115,0.005767769746482372,0.004771159924566746
1772709374056640000,2.576639892578125,0.04616261623799801,0.007021496134623884,0.0046839930977672336
1772709374066665000,2.5866650390625,0.04185001373589039,0.01068484094776213,0.011338263355195522
1772709374076689000,2.59668896484375,0.031843583506345745,-0.0035266397561877962,-0.001288724636286497
1772709374086714000,2.606714111328125,0.012696984487771987,-0.008844912169501186,-0.008142024597153068
1772709374096739000,2.616739013671875,0.031246786656975743,-0.01377060506865382,0.0056583910878747696
1772709374106764000,2.626763916015625,0.04441548030972481,-0.0017101649187505244,0.011330664570629596
1772709374116789000,2.6367890625,0.04995557878017425,0.005134294148534536,0.005201294970139861
1772709374126814200,2.646814208984375,0.041571781316399575,-0.0037375060278922317,-0.002648468682169914
1772709374136839000,2.6568388671875,0.022412322816252706,-0.011781330947577953,-0.01071319025941193
1772709374146863900,2.66686376953125,0.046340310892462724,-0.00782265644967556,-0.0027738486275076866
1772709374156889000,2.67688916015625,0.056663551986217496,-0.0074848027974367135,0.008596855692565441
1772709374166914000,2.6869140625,0.03317687793672085,-0.012785466488823293,-0.013051497013866901
1772709374176938000,2.69693798828125,0.03482990584075451,0.0017982085283845663,-0.008143632032349706
1772709374186963200,2.706963134765625,0.03467734562754631,0.004525952991843224,-0.017225129436701535
1772709374196988200,2.71698828125,0.026146833169460294,0.0032465807057917117,-0.0047671413365751505
1772709374207013000,2.72701318359375,0.03917114991545677,-0.004075651941075921,-0.000971621511131525
1772709374217037800,2.737037841796875,0.05041150585412979,-0.001148366317525506,0.006875657923147082
1772709374227063000,2.74706298828125,0.044292146191000935,0.00847162187770009,-0.016189210517704486
1772709374237088000,2.757087890625,0.028897593182325362,0.007941606654226779,0.010579480877146124
1772709374247113000,2.767113037109375,0.03057634004950523,0.006246639304608106,-0.0097516517508775
1772709374257138000,2.777137939453125,0.04272562752664089,-0.0009812661223113537,-0.013816490036994217
1772709374267163400,2.787163330078125,0.03884790931046009,-0.019487156084552405,-0.007940656806156039
1772709374277187300,2.797187255859375,0.033466800794005394,-0.02792268373556435,-0.008650558641180396
1772709374287212300,2.80721240234375,0.018648001846671102,-0.00775434045381844,0.009677563601359724
1772709374297237500,2.817237548828125,0.03285889802873134,0.00876629397533834,0.005196472664549947
1772709374307262500,2.827262451171875,0.049480947005748746,0.00023088614642620086,-0.004553936977311969
1772709374317287400,2.837287353515625,0.04199263707697391,-0.015453005197644233,0.0014443535894155502
1772709374327312400,2.8473125,0.04424187730848789,-0.010394625829532742,-0.004529825449362397
1772709374337337600,2.857337646484375,0.037955344384908676,-0.007895721685886382,-0.008168401147425175
1772709374347362300,2.8673623046875,0.02179039152562618,-0.014149448318406938,-0.005285904513671994
1772709374357387300,2.87738720703125,0.038238837501406664,-0.009715484458953141,0.0023570845201611517
1772709374367411500,2.887411376953125,0.044511926421523094,0.0018627981971949337,-0.0049910862855613225
1772709374377436400,2.8974365234375,0.03417874845564365,-0.005325432806462049,-0.001437850783392787
1772709374387461400,2.90746142578125,0.03925590558946133,0.003243511965870857,-0.002963525980710983
1772709374397486300,2.917486328125,0.03476093225777149,0.007393471252173185,-0.015563333704322576
1772709374407511600,2.927511474609375,0.04223521366119384,-0.0010099076949059962,-0.009192702693864702
1772709374417536500,2.93753662109375,0.04269114073514938,-0.008360854979604482,0.0003686871819198131
1772709374427561200,2.947561279296875,0.043889410609006876,-0.0033280484441667794,0.009899608854204416
1772709374437586400,2.95758642578125,0.05316986465156078,-0.010487491744756699,-0.010884162912145256
1772709374447611400,2.967611328125,0.05556055918037891,-0.007989683579653501,-0.013733926320075989
1772709374457636400,2.97763623046875,0.0380588047593832,0.010459142433106899,-0.005325944263115525
1772709374467660500,2.98766064453125,0.013082768934965133,-0.008107903131842613,-0.003187032538279891
1772709374477685500,2.997685546875,0.023268062862753867,-0.022632833699136972,-0.0012298340559005736
1772709374487710500,3.00771044921875,0.06442541815936564,-0.023788360409811138,-0.004082081681862473
1772709374497735400,3.0177353515625,0.044672085419297215,-0.012591697482392191,-0.009872647782042622
1772709374507760400,3.027760498046875,0.02384089431464672,0.0023038930281996726,-0.017382146629318595
1772709374517785300,3.037785400390625,0.016195347997546194,0.018113456578552723,-0.023417189009860156
1772709374527810300,3.047810302734375,0.031000118419528006,0.007210077509284019,-0.02311740234568715
1772709374537835300,3.057835205078125,0.05386135404706001,-0.01734079170562327,-0.02029891085885465
1772709374547860500,3.067860595703125,0.038872459229826926,-0.0078045362710952755,-0.0206725664768368
1772709374557885400,3.077885498046875,0.02345043369233608,-0.005557049605250358,-0.0023055004633963107
1772709374567909400,3.087909423828125,0.01641220561861992,0.015555515724048018,0.004176628097519278
1772709374577934600,3.0979345703125,0.04260989219248294,-0.002707651523500681,-0.0061710898503661155
1772709374587959300,3.107959228515625,0.06118190619349479,-0.002704655848816037,-0.0017038082432001829
1772709374597984300,3.117984375,0.045644729843735694,-0.013120543662086129,0.0011048925019800661
1772709374608009200,3.12800927734375,0.02037175689935684,0.003533434823155403,0.007872560006007551
1772709374618034400,3.138034423828125,0.02096387757360935,0.00714271136149764,-0.011603855488821863
1772709374628059400,3.148059326171875,0.03666062839925289,-0.01467602947577834,-0.004586524072661996
1772709374638084400,3.15808447265625,0.04861819269657135,-0.00477868564389646,-0.00912672478556633
1772709374648109300,3.168109375,0.049507250490784645,0.0007672580454498529,-0.0020921499736607074
1772709374658134500,3.178134521484375,0.0275146143913269,0.004296747345849871,0.00692431937046349
1772709374668158200,3.188158203125,0.022713936111330983,-0.003531754322722554,-0.00801883660890162
1772709374678183400,3.198183349609375,0.052180269092321395,-0.009639423548057675,-0.003075461922585964
1772709374688208400,3.20820849609375,0.048425300472974775,-0.01813807956315577,0.01661656908430159
1772709374698233300,3.2182333984375,0.035083588340878484,-0.011968012626096605,0.0002897767268121242
1772709374708258300,3.22825830078125,0.03297346431910991,0.005964461362361908,-0.007628522117063403
1772709374718283500,3.238283447265625,0.024277532166242597,-0.0034149960752576586,-0.008872238567844033
1772709374728308500,3.24830859375,0.04057341792881489,0.00900609408058226,-0.011560381673276424
1772709374738333400,3.25833349609375,0.040405075624585146,-0.011937909748777746,-0.010702230473980306
1772709374748358400,3.2683583984375,0.042350948995351786,0.005910831478983163,-0.0059365504421293736
1772709374758383400,3.27838330078125,0.05238368270993232,0.005541998166590929,-0.008855360498279332
1772709374768407300,3.2884072265625,0.02036006646156311,0.01145611758120358,0.0016654489941895006
1772709374778432300,3.298432373046875,0.027553192836046216,-0.019407953368499875,-0.008064794642478227
1772709374788457500,3.30845751953125,0.05030103121697902,-0.007031871398165822,0.0018270692966878414
1772709374798482400,3.318482421875,0.05852642324864864,-0.003912643399089574,-0.007726575664058327
1772709374808507400,3.32850732421875,0.038171032962203026,-0.0003062164049595594,-0.00358823375031352
1772709374818532400,3.338532470703125,0.04220598756670951,-0.007523892698809504,0.00032221769168972966
1772709374828557600,3.3485576171875,0.03172609460651874,0.019769699352979658,-0.00524732606895268
1772709374838582300,3.358582275390625,0.04264028733074665,-0.008416019232943654,-0.013929229696467519
1772709374848607200,3.368607177734375,0.04756956042647362,-0.014800605703517794,-0.011653174523264169
1772709374858632400,3.378632568359375,0.03545008356571197,0.0024969313822686672,-0.005863631336390972
1772709374868656400,3.388656494140625,0.0297585939258337,-0.0037182168055325746,-0.005955035946890712
1772709374878681300,3.398681396484375,0.03289689195156097,0.0036971740175038574,-0.009641615505143999
1772709374888706600,3.40870654296875,0.03124035691618919,-0.004244359571486711,0.006420607632026076
1772709374898731500,3.4187314453125,0.04079728981256485,0.0074577686600387095,-0.008661445361375808
1772709374908756500,3.428756591796875,0.035686230409145356,-0.001579889602586627,-0.01579809230826795
1772709374918781200,3.43878125,0.023246435552835464,0.006663768738135695,-0.00462948643155396
1772709374928806400,3.448806396484375,0.024728198543190954,0.020565891231969,-0.004411898158118129
1772709374938831400,3.458831298828125,0.03593815934360027,0.012981719713285565,0.00506364006511867
1772709374948856300,3.468856201171875,0.04087035504877567,-0.0006728577602654695,-0.010870207452028989
1772709374958880500,3.478880615234375,0.05313888499140739,-0.023603505362197755,0.0002671265035867691
1772709374968905500,3.488905517578125,0.054641106247901916,-0.027761355694010854,0.012330197001993655
1772709374978930400,3.498930419921875,0.0571820229023695,-0.010330986008793114,-0.004056216588243842
1772709374988955400,3.508955322265625,0.02711070976555347,0.013906871734187006,-0.005138312736526132
1772709374998980400,3.51898046875,0.031004210072755813,-0.0005445552054792642,-0.006194178465008735
1772709375009005300,3.52900537109375,0.02203063002228737,-0.015506196689605713,0.0016852496732026338
1772709375019030300,3.5390302734375,0.04911503630280494,-0.013476225231960416,-0.01153619708009064
1772709375029055200,3.54905517578125,0.06677811876535415,-0.009721695004031061,-0.008941066020354629
1772709375039080400,3.55908056640625,0.03043079409897327,-0.0004020779948681593,-0.01226305004991591
1772709375049105400,3.56910546875,0.015314473509788512,0.0011575725372880697,-0.02295658576078713
1772709375059129600,3.579129638671875,0.01647884111404419,0.010390168850123881,-0.027987200339138506
1772709375069154600,3.589154541015625,0.042030046477913856,-0.014366744330897926,-0.004220101913064718
1772709375079179300,3.59917919921875,0.04349252024590969,-0.010753376139327883,-0.01300349315367639
1772709375089204200,3.609204345703125,0.04482406111061573,-0.003741159289702773,0.001978022074699402
1772709375099229400,3.6192294921875,0.04197451689839363,0.022381708482280372,0.003151522833481431
1772709375109254400,3.62925439453125,0.03628244273662567,0.010579627007618546,0.004182327185943723
1772709375119279400,3.639279296875,0.046155601975321765,0.009675152448564768,0.005858735965564846
1772709375129304300,3.64930419921875,0.046480596145987506,0.014649872121214866,-0.007469824424013495
1772709375139329500,3.65932958984375,0.031075521743297575,-0.006394011886045337,-0.016655220594257114
1772709375149354500,3.6693544921875,0.027018939828872678,-0.019264014853164552,-0.010769742752239107
1772709375159378200,3.679378173828125,0.028196751436591148,-0.0010791735388338566,0.004251593029871582
1772709375169403400,3.6894033203125,0.0331353768825531,-0.007931523651629685,-0.0035403029553592205
1772709375179428400,3.699428466796875,0.03836041805446148,-0.00022167992666363714,-0.0018220277953892945
1772709375189453300,3.709453369140625,0.022039982372522353,0.009766630124300717,-0.015007891778647899
1772709375199478300,3.719478271484375,0.03849661165475845,-0.007330269822850823,-0.011222893347218632
1772709375209503500,3.72950341796875,0.04104688065946102,-0.00105908059887588,0.0021682108845561742
1772709375219528400,3.739528564453125,0.04538929377794265,-0.008576981948316097,-0.0012252309460192919
1772709375229553400,3.749553466796875,0.03238017460107803,-0.012598565614596009,-0.01356711838580668
1772709375239578400,3.759578369140625,0.04164133942127227,-0.008812105878442526,-0.013212459729239344
1772709375249603600,3.769603515625,0.0402893402904272,-0.002587970666587353,-0.02279854565486312
1772709375259627300,3.779627197265625,0.031148586979508397,0.0070333327028900385,-0.009640081135183573
1772709375269652700,3.78965283203125,0.03337970703244209,-0.00028860768303275104,0.0038400896195322273
1772709375279678000,3.799677978515625,0.04370879334509373,-0.004325461983680725,-0.008240954926982522
1772709375289703000,3.809702880859375,0.04087620026767254,0.00155175948664546,-0.013461100728064775
1772709375299728000,3.819727783203125,0.03579787409007549,-0.006686053635179996,-0.0079194678876549
1772709375309752800,3.8297529296875,0.028031331741809842,0.0010482669439166783,-0.010776976210623979
1772709375319778000,3.839778076171875,0.034031448939442634,-0.006842340175434947,-0.017032748669758437
1772709375329803000,3.849802978515625,0.05349368977844715,-0.023128800522536037,-0.01306925186626613
1772709375339828000,3.859827880859375,0.042865328258275985,-0.006976853275299072,-0.008312193532288074
1772709375349852000,3.869851806640625,0.04077800059020519,0.005819353803247213,-0.007390767838433385
1772709375359876900,3.879876953125,0.029860300734639165,0.011454071754589677,-0.005144961673021317
1772709375369901800,3.88990185546875,0.03793956229388713,0.004528875601291656,-0.0067795040722936385
1772709375379927000,3.899927001953125,0.047965281745791434,-0.006824804518744349,0.001440335001423955
1772709375389952000,3.909951904296875,0.053047699576616286,0.008778495869785546,0.0059451721400022505
1772709375399977000,3.91997705078125,0.04153378739356994,0.004931538118049502,-0.000583425911143422
1772709375410002000,3.930001953125,0.03690612759292126,0.013321253865957259,-0.012550196428224443
1772709375420027100,3.940027099609375,0.04528583340346813,-0.012891411081328987,0.0024872867710888386
1772709375430052000,3.950052001953125,0.04617722928524017,-0.011815233217179774,-0.017552753955870866
1772709375440076800,3.960076904296875,0.044673838984966276,0.00049180210493505,-0.00353847632445395
1772709375450101000,3.97010107421875,0.03329495135843753,0.0022725480418652293,0.002488236619159579
1772709375460126000,3.9801259765625,0.0297106631308794,0.005693535466492176,-0.0054575347535312175
1772709375470151000,3.99015087890625,0.0401806192189455,-0.002407426467910409,-0.02428863808214664
1772709375480175900,4.00017578125,0.05005611654520035,0.007921367583796381,-0.010474632263183592
1772709375490201000,4.010201171875,0.03421031263768673,-0.009168445035442709,0.016393135591968894
1772709375500226000,4.02022607421875,0.036462475478649135,-0.013450725464522837,-0.0060734016295522445
1772709375510251000,4.0302509765625,0.05502162999808788,-0.009683554950729012,-0.003203910607844591
1772709375520275700,4.040275634765625,0.031385318344831464,-0.00415551224425435,-0.0072710139162838455
1772709375530301000,4.050301025390625,0.03454115202724933,0.011637757758423685,-0.009729366853833198
1772709375540326000,4.060325927734375,0.027532734569907187,-0.0024042115975171324,0.002072568490356207
1772709375550350800,4.070350830078125,0.036378888848423954,-0.005648746476694941,-0.0036174598447978492
1772709375560375000,4.080375,0.06721066496372223,0.0006282879661768674,-0.0016646452765911816
1772709375570400000,4.09039990234375,0.0518225416958332,0.008573474816977978,-0.0101040453851223
1772709375580425000,4.100425048828125,0.02222059963643551,0.009368351521715522,-0.009426292254030704
1772709375590450200,4.1104501953125,0.003806406545639038,-0.01378207631073892,-0.015078253601118922
1772709375600475000,4.120474853515625,0.02547171038687229,-0.019873378923162818,-0.017477131436392665
1772709375610499800,4.130499755859375,0.06494272003173827,-0.00029679098948836327,-0.009428776472061872
1772709375620524800,4.14052490234375,0.03246259218752384,0.0012470774516463278,-0.0069639207284897565
1772709375630550000,4.150550048828125,0.012708090403676032,0.01875613839626312,-0.009982026440650224
1772709375640575000,4.160574951171875,0.03934066126346588,-0.006097951548919081,-0.009498480707406998
1772709375650600000,4.170599853515625,0.05834989763796329,0.013346972829103469,-0.005098492182791233
1772709375660624100,4.1806240234375,0.03007540479004383,-0.015550108896568417,-0.00023307810351252554
1772709375670649000,4.190649169921875,0.0271095407217741,0.001986205381155014,0.01204210077561438
1772709375680673800,4.200673828125,0.02667991713285446,-0.002304623680561781,0.005525120097026229
1772709375690698800,4.21069873046875,0.046135728231072426,-0.005584522134065628,-0.021837664733454585
1772709375700724000,4.220723876953125,0.04613981988430023,-0.0008223492335528135,-0.010165858574956655
1772709375710749000,4.2307490234375,0.03313362331688404,0.009637377721443772,0.0020276333700865504
1772709375720774000,4.24077392578125,0.02730827816426754,0.010551131565496325,-0.01313764092735946
1772709375730798800,4.250798828125,0.03300327493548393,-0.009433379581943154,0.0018675474375486373
1772709375740824000,4.260823974609375,0.030468203499913214,0.0037602293163537977,0.00029328385815024377
1772709375750849000,4.27084912109375,0.04633505019545555,-0.010064809353277087,-0.0028125001374632117
1772709375760873000,4.280873046875,0.032573066824674604,-0.011192279013246298,-0.014892887096852063
1772709375770898000,4.29089794921875,0.02883797194957733,-0.007482245514169335,-0.012333777198567986
1772709375780923000,4.3009228515625,0.04573883786797523,-0.012076587567105888,-0.011596256704255938
1772709375790947800,4.31094775390625,0.04049567651748657,-0.007058101817965507,-0.007477277078106999
1772709375800973000,4.32097314453125,0.027471359771490095,-0.0007604629784822463,-0.011789660384505986
1772709375810998000,4.330998046875,0.034354689544439314,-0.0016295739632099866,-0.004026332906633615
1772709375821023000,4.34102294921875,0.03120996177792549,-0.005468275343254208,-0.015657295598089694
1772709375831048000,4.3510478515625,0.041246202623844146,-0.012148045368120074,-0.008407178339362144
1772709375841073200,4.3610732421875,0.043219548523426056,0.0019339637372642754,-0.007935176913440227
1772709375851097900,4.371097900390625,0.04892974286377429,-0.010758636836335062,-0.010499912834912539
1772709375861121800,4.381121826171875,0.041465398332476616,0.003915931334719062,-0.01506926657706499
1772709375871147000,4.39114697265625,0.04206511779129505,-0.01322458855845034,-0.011561916043236852
1772709375881172000,4.401171875,0.03727671447098255,-0.012646423344314098,-0.010354366884380578
1772709375891197000,4.411197021484375,0.031152678632736203,0.009549918633699417,0.010320318484306335
1772709375901222000,4.421221923828125,0.02967500729560852,0.009504472056776285,-0.00008928571864962577
1772709375911247000,4.4312470703125,0.032839024284482,0.0028499826036393642,0.0053100160416215654
1772709375921272000,4.44127197265625,0.04033376395404339,-0.0009651187051087617,-0.0016451368585228918
1772709375931296800,4.451296875,0.04932312609553337,-0.002754997796565294,0.0029551965437829494
1772709375941321700,4.46132177734375,0.04619476494193077,-0.0050743075896054505,-0.01227196400873363
1772709375951347000,4.471346923828125,0.040219197663664816,-0.0009632190089672803,-0.012572335194796324
1772709375961371000,4.481370849609375,0.03828501473069191,-0.00838102098479867,0.007790946137160062
1772709375971396000,4.49139599609375,0.037087913900613785,-0.003933320860937238,-0.005561214323714375
1772709375981421000,4.501421142578125,0.049808279263973236,0.0112537268768996,-0.013786314094439148
1772709375991446000,4.511446044921875,0.03544248478114605,-0.009119564392417668,-0.012877601751685142
1772709376001471000,4.521470947265625,0.03154664638638496,0.010141966242715716,0.005498451285809278
1772709376011496000,4.531495849609375,0.0339414325684309,0.011841317506507038,-0.020560922795906662
1772709376021521000,4.54152099609375,0.029759178447723387,-0.007824190819635988,-0.0004934095401316881
1772709376031545900,4.5515458984375,0.055957449543476104,-0.018955533425882458,-0.0031784108404070135
1772709376041570800,4.56157080078125,0.04580079718828201,-0.004599091293290257,-0.005087094005942344
1772709376051595000,4.571594970703125,0.042077977272868154,0.011685907749086618,-0.012371917251870035
1772709376061620000,4.581619873046875,0.025201076751947403,0.016079174271970986,-0.006045417644083499
1772709376071645000,4.59164501953125,0.020877952855825423,-0.004749532614648342,0.009602671734243631
1772709376081670100,4.601670166015625,0.04229249680638313,-0.018774331640079616,-0.0009449526999145745
1772709376091694800,4.61169482421875,0.05892156004607677,-0.01104424884468317,0.0045600013919174665
1772709376101719800,4.6217197265625,0.043804070413112635,-0.008850611257925628,-0.014711173854395746
1772709376111744800,4.631744873046875,0.019407880303263663,-0.0041029783394187684,-0.004771379120275378
1772709376121770000,4.64177001953125,0.010435469296574592,0.01801109218262136,-0.008285159394890069
1772709376131795000,4.651794921875,0.03496025422215462,-0.0037922318898141382,-0.015403466967493295
1772709376141820000,4.66181982421875,0.06096621761620044,-0.018272008141130208,-0.0071682841941714285
1772709376151844000,4.671843994140625,0.03281681245267391,-0.014618600200116634,-0.004345481858402491
1772709376161869000,4.681869140625,0.03356149334013462,0.00025441315248608587,-0.003423179381713271
1772709376171893800,4.691893798828125,0.03536883502304554,0.010116101149097084,0.0016899989135563372
1772709376181919000,4.7019189453125,0.04824819034039974,-0.0008298749528825283,-0.015041940178722141
1772709376191944000,4.71194384765625,0.05530103146135807,-0.01292816289514303,-0.014857669652998446
1772709376201969000,4.721968994140625,0.03511690608859062,-0.00006195932030677795,-0.00885419145449996
1772709376211993900,4.731993896484375,0.015216858354210853,0.0006882014598697424,-0.006891805340349674
1772709376222019000,4.74201904296875,0.02358078207373619,-0.010613456211984156,-0.01986928726993501
1772709376232044000,4.7520439453125,0.036140403917431826,-0.013571429234743117,-0.004330795745924115
1772709376242068000,4.76206787109375,0.03210486479103565,0.00043269232884049415,-0.006844897458702325
1772709376252093000,4.772093017578125,0.028818682727217673,-0.00010031856931746005,0.0004524930078536272
1772709376262118000,4.782117919921875,0.03480886305272579,-0.002385068505629897,0.002319748184457421
1772709376272142800,4.792142822265625,0.04200491203665733,0.0038342444006353614,0.010273848994076252
1772709376282167800,4.802167724609375,0.04650573058724403,-0.008429097910225392,-0.0025423048939555884
1772709376292192800,4.81219287109375,0.04112403754889965,-0.008404036534205078,-0.010187339754402638
1772709376302217700,4.8222177734375,0.03228957370817661,-0.004237418374046683,-0.004302665629982948
1772709376312242700,4.83224267578125,0.04126140019297599,-0.003943257733061909,-0.002472965984791517
1772709376322267600,4.842267578125,0.03661386664807796,-0.011539558080956339,0.009481237311661244
1772709376332292900,4.85229296875,0.03437631685435772,0.000005772153660655021,0.01202792611978948
1772709376342316800,4.86231689453125,0.05398235007822513,-0.001054550554230809,0.0013365823660045862
1772709376352342000,4.872342041015625,0.04080664216279983,0.0032656507324427364,-0.01245491936020553
1772709376362367000,4.882366943359375,0.0207657246530056,0.017588190595433116,-0.00259659236446023
1772709376372391700,4.8923916015625,0.024226094239950178,-0.0033494565583765505,0.00003653261810541153
1772709376382416600,4.902416748046875,0.03861468507647514,0.000008183306455612182,0.0024691665925085544
1772709376392441900,4.91244189453125,0.05687339534461498,-0.013721943621337412,-0.02391892798691988
1772709376402466800,4.922466796875,0.04055295966267586,-0.011301219280436633,-0.02109707549922168
1772709376412491800,4.93249169921875,0.02408697803020477,0.0015793781459331512,-0.0014651041164994239
1772709376422516700,4.942516845703125,0.01751169129312038,0.006093859895691276,0.0030987697329372165
1772709376432542000,4.9525419921875,0.03501695284545421,0.004415186093747615,-0.005731675519794225
1772709376442566000,4.96256591796875,0.032768297135829925,0.007687339632213115,-0.009949950801953673
1772709376452590600,4.972590576171875,0.03471826215982437,-0.00037504385747015476,0.002900836008042097
1772709376462615800,4.98261572265625,0.047884033203124995,-0.014042919204011559,0.009436375256627797
1772709376472640800,4.992640869140625,0.03083528324663639,-0.010606515014544128,-0.007967837074026466
1772709376482665700,5.002665771484375,0.048776598128676414,-0.009319324748218059,-0.00858699188567698
1772709376492690700,5.012690673828125,0.028106150543689725,-0.009527049214765429,-0.00107683545127511
1772709376502716000,5.0227158203125,0.032141689670085904,0.005213204603642225,-0.009809592483192681
1772709376512740900,5.032740966796875,0.03915712139010429,0.0037158056527376174,-0.010187997341528534
1772709376522765800,5.042765869140625,0.03375146295428276,0.003803118610009551,-0.002702171630784869
1772709376532790800,5.052790771484375,0.027013094609975814,-0.002445785716921091,-0.0032215193297713994
1772709376542814700,5.062814697265625,0.032687633115053176,-0.005488222152739763,-0.00848762316443026
1772709376552839700,5.072839599609375,0.0362678296893835,-0.019343144503980874,-0.013575374757498503
1772709376562865000,5.082864990234375,0.05527414345443248,-0.016194178953766823,-0.012960676925256848
1772709376572889900,5.092889892578125,0.05107552272081375,0.008993453794717788,-0.0023014088101685048
1772709376582914800,5.102914794921875,0.01920797381699085,0.020960808833688498,-0.004832680853456259
1772709376592939800,5.112939697265625,0.028352818781137466,0.0015548282265663146,-0.007675941455364227
1772709376602965000,5.122965087890625,0.04870937811136245,-0.015500424535945056,-0.0024200667537748813
1772709376612990000,5.132989990234375,0.0605365940272808,-0.030307386915013192,-0.00027151041775941846
1772709376623015000,5.143014892578125,0.043776597884297365,-0.017383096477389334,-0.0017692746948450803
1772709376633038800,5.153038818359375,0.021929507735371587,0.0036933746252208947,-0.02255385017879307
1772709376643063800,5.163063720703125,0.009055413115024566,0.01401383923999965,-0.022941972713544964
1772709376653088800,5.1730888671875,0.01321837801337242,-0.006855272722244263,-0.018116671448946
1772709376663113700,5.18311376953125,0.05806932713091373,-0.02148848596960306,-0.016196224780380724
1772709376673139000,5.193138916015625,0.054601358759403223,-0.010509776641801,0.000600377045944333
1772709376683164000,5.203163818359375,0.020612579917907714,0.009009455081447959,0.0005048807822167873
1772709376693188900,5.21318896484375,0.021190672066807744,0.009508636775240302,0.00711158557087183
1772709376703213600,5.223213623046875,0.06023907238543033,-0.0195640937782824,-0.008685118497908114
1772709376713238800,5.23323876953125,0.07266542323827743,-0.024100568164139986,-0.01078238303810358
1772709376723262700,5.2432626953125,0.03180909671485424,-0.01536123526096344,0.004687865555286407
1772709376733288000,5.253287841796875,0.014137830945849418,-0.008686872063577175,-0.004878346626088023
1772709376743313000,5.26331298828125,0.03655073828399181,-0.00030095570795238014,-0.009193068020045757
1772709376753337900,5.273337890625,0.050742345243692394,-0.0017844722639769315,0.006726458710804581
1772709376763362800,5.28336279296875,0.05431961920857429,-0.002359057281538844,0.007165361584722995
1772709376773388000,5.293387939453125,0.03380582349002361,0.007771437719091772,-0.008145093337073922
1772709376783412700,5.303412841796875,0.0233189162671566,0.006320800519362092,0.0008907382946461438
1772709376793437700,5.313437744140625,0.024210896670818327,-0.005411211393773555,-0.00012545301057398318
1772709376812859600,5.332859619140625,0.05097556947767734,-0.012995090651512145,-0.012232216520234943
1772709376822884900,5.342884765625,0.03601414718925953,-0.00370360375829041,-0.0074306614574044935
1772709376832909800,5.352909912109375,0.034511925932765,-0.002976823853701353,-0.011361571165546773
1772709376842934800,5.362934814453125,0.02701660174131393,0.0017427520141005514,-0.0033708646725863216
1772709376852959700,5.372959716796875,0.03583060731589794,-0.0057552755910903215,-0.0073977090358734125
1772709376862985000,5.38298486328125,0.045696752291917796,0.0036992198441177606,0.0011664864961057901
1772709376873008600,5.393008544921875,0.057958852493762966,-0.005554711517691612,-0.013747224193066357
1772709376883033900,5.403033935546875,0.03117547498643398,0.008223200074583291,-0.010837839552387594
1772709376893058800,5.413058837890625,0.03551087384223938,0.011284998797997832,-0.0023341420359909533
1772709376903083800,5.423083740234375,0.06125087977647781,0.0016910948920994995,-0.006979702819511294
1772709376913108700,5.433108642578125,0.04434066150784492,-0.014790084309503435,-0.014198182830959558
1772709376923134000,5.443134033203125,0.04119710278511047,-0.011028539818897842,-0.020600451088696715
1772709376933159000,5.453158935546875,0.03716039461493492,-0.0018771920487284659,-0.005472366996482014
1772709376943184000,5.463183837890625,0.026077275064587593,0.004396992849931121,-0.007958046332374215
1772709376953208800,5.473208740234375,0.03325695743560791,-0.005105433380231261,0.0004991086285561323
1772709376963232800,5.483232666015625,0.0628852029800415,-0.004859641925618052,-0.010635375782847404
1772709376973257700,5.4932578125,0.044622985580563546,-0.010220730567350983,-0.0008409808687865734
1772709376983282700,5.50328271484375,0.03639583998322487,-0.013316139299422502,-0.002486117727309465
1772709376993308000,5.513307861328125,0.03475391799509525,-0.010209259325265884,-0.00835267167314887
1772709377003332900,5.523332763671875,0.03430792779326439,-0.0027899960447102783,-0.010323825615644454
1772709377013357800,5.53335791015625,0.03728665134310722,-0.002837269252538681,-0.003909136267751455
1772709377023382800,5.5433828125,0.04041325893104076,-0.00864836668409407,-0.01086575047262013
1772709377033408000,5.553407958984375,0.032926118046045304,0.0006811871971935034,-0.004573007003962994
1772709377043432700,5.5634326171875,0.03635784606039524,0.011274477403983473,0.002532879478484392
1772709377053457000,5.573456787109375,0.028859014737606048,0.003011529840901494,-0.003447656235843897
1772709377063481900,5.58348193359375,0.04918751701712608,-0.0014231646709144115,-0.01043795351460576
1772709377073506800,5.5935068359375,0.031053309911489486,-0.015931071038171648,-0.01071582060791552
1772709377083531800,5.60353173828125,0.03628478082418442,-0.02279153139218688,0.002978869680315256
1772709377093557000,5.613556884765625,0.05245324081480503,-0.010062690461426972,-0.010423486597836018
1772709377103582000,5.62358203125,0.029121465066075325,-0.010927344466745852,-0.015063421358168124
1772709377113606700,5.633606689453125,0.016243278792500496,0.005162789590656757,0.007244052844122052
1772709377123631600,5.643631591796875,0.01727612897157669,0.010427432120591402,0.006033142684400081
1772709377133656800,5.65365673828125,0.031793314623832704,-0.01724339574575424,0.0028143267683684824
1772709377143680800,5.6636806640625,0.05664543180763721,-0.0124398679215461,-0.010037482954934238
1772709377163104800,5.683104736328125,0.02316460248827934,-0.0053233869798481465,-0.019743468933179974
1772709377173129700,5.693129638671875,0.024687282010912893,-0.00717376408688724,-0.008863763000443578
1772709377183155000,5.703155029296875,0.030813655936717987,-0.014082009105384348,-0.010671104683354497
1772709377193180000,5.713179931640625,0.04693535417616367,-0.011803323583677411,0.00113097679130733
1772709377203204900,5.723204833984375,0.052125324034690855,-0.00477240203358233,-0.003187324799224734
1772709377213229800,5.733229736328125,0.025756372547149655,0.005954378359764814,-0.017153379374742508
1772709377223255000,5.743255126953125,0.03232230693399906,0.0032044951297342775,-0.013942381438985466
1772709377233279700,5.75327978515625,0.043076925182342525,-0.006265709331259131,-0.004176993423700332
1772709377243303700,5.7633037109375,0.0508510663151741,-0.002968421351537108,0.00682224723547697
1772709377253329000,5.773328857421875,0.024219664499163625,-0.006544745468348264,0.001016995022818446
1772709377263353900,5.783353759765625,0.03499824814498424,0.0039606472592800855,0.0030476971328258513
1772709377273378600,5.793378662109375,0.033493688800930975,-0.007462590965628624,-0.010356485776230693
1772709377283403500,5.803403564453125,0.03077683105766773,-0.009996128031238912,-0.004906038350611925
1772709377293428700,5.8134287109375,0.03375497008562088,-0.008999591274559498,-0.007264291914552449
1772709377303453700,5.82345361328125,0.037191958796977995,0.0023659254137426613,-0.01164440669491887
1772709377313478700,5.833478759765625,0.03778115686178207,-0.0009997516270726918,-0.017169380661472677
1772709377323503600,5.843503662109375,0.03942600145936012,-0.00249364344663918,-0.01024352692104876
1772709377333528800,5.85352880859375,0.03823065419495106,-0.004458952170237899,-0.006025982291251421
1772709377343552500,5.863552490234375,0.0292401230096817,0.006613499855622649,-0.00665178603939712
1772709377353577700,5.87357763671875,0.036416882771253586,-0.01079568091109395,0.000656564212590456
1772709377363602700,5.883602783203125,0.03208382200300693,-0.016426307209208606,-0.0021597353171557187
1772709377373627600,5.893627685546875,0.059032034683227534,-0.01110460072979331,-0.00956343570239842
1772709377383652600,5.903652587890625,0.03269172476828098,-0.015136924985796212,0.00011785422600805759
1772709377393677800,5.913677734375,0.034765023910999296,-0.005002557527646422,-0.01802358633801341
1772709377403702800,5.923702880859375,0.03461363274157047,0.018069398241117595,-0.003996668420732021
1772709377413727700,5.933727783203125,0.03148585610985756,0.01360007080733776,-0.004756766073033213
1772709377423752400,5.94375244140625,0.03402794180810451,0.0008111702524125576,-0.013957067551463842
1772709377433776600,5.953776611328125,0.03851064018011093,0.008200184525176882,-0.0192353002153337
1772709377443801600,5.963801513671875,0.034922844821214674,-0.009533478955551981,-0.006169336284697055
1772709377453826600,5.97382666015625,0.038677228918671605,-0.013015548917651176,-0.015084975602850317
1772709377463851800,5.983851806640625,0.047213586595654486,-0.01889547380171716,-0.015085048668086527
1772709377473876700,5.993876708984375,0.03987842140197754,-0.011549056561663747,-0.0007545446943491696
1772709377483901700,6.003901611328125,0.0315016382008791,0.00010090309120714663,-0.003952975409477949
1772709377493926400,6.013926513671875,0.035244331860542294,-0.010747530920431018,0.006739025931432843
1772709377503951600,6.02395166015625,0.03480477139949798,0.0025325872175395486,0.0002709989611059427
1772709377513976600,6.0339765625,0.026722002708911893,-0.005688274769484997,-0.01143047168329358
1772709377524001500,6.04400146484375,0.03150748341977596,0.005112009251490235,-0.008935366931930184
1772709377534025700,6.054025634765625,0.03734334996640682,0.005306289714574814,-0.0010278817430138588
1772709377544050700,6.06405078125,0.03899637787044048,-0.016732669744640587,-0.004769698619842529
1772709377554075600,6.07407568359375,0.033168694630265234,-0.011056158478185535,-0.004982172326743603
1772709377564100900,6.084100830078125,0.03331307153701782,-0.00009425415471196174,-0.00556165271513164
1772709377574125600,6.09412548828125,0.039000469523668285,0.006506970741227269,-0.011397080870345234
1772709377584150500,6.104150634765625,0.03017418898940086,0.010185586188733577,0.004135857695713639
1772709377594175500,6.114175537109375,0.02717968334853649,-0.006311667364835739,-0.00702463793978095
1772709377604200700,6.12420068359375,0.03556815698742866,-0.005021481423825025,-0.006641410775855183
1772709377614225700,6.1342255859375,0.04200725012421608,-0.017492986592650413,-0.004710150452330708
1772709377624250600,6.144250732421875,0.04725859478116035,-0.0044407589264214035,-0.01536832258887589
1772709377634274800,6.15427490234375,0.03335164998173713,0.0012906243324279784,-0.0042865912780165666
1772709377644299800,6.1642998046875,0.03528407934904098,0.0008450725220143794,-0.023870485735312103
1772709377654324500,6.174324462890625,0.018075754916667935,0.013487769539281725,-0.007305354577302932
1772709377664349400,6.184349365234375,0.03125438544154167,0.0065955258075147865,0.002886807482689619
1772709377674374700,6.194374755859375,0.05027765034139156,-0.025461554319038987,0.0022543547980487344
1772709377684399600,6.204399658203125,0.05537701930701732,-0.019053806168586016,-0.003600581775233149
1772709377694424600,6.214424560546875,0.05568213973343372,-0.00038739188238978386,-0.0035766163777559996
1772709377704449500,6.224449462890625,0.02217909858226776,0.003952244757115841,-0.01224529519751668
1772709377714474800,6.234474853515625,0.009479776006937026,0.008138225204870104,-0.010948825646191835
1772709377724498700,6.244498779296875,0.03849661165475845,-0.01806801000162959,-0.013900368928164243
1772709377734523600,6.254523681640625,0.0570119270324707,-0.004645706913992762,-0.007196268179640174
1772709377744548600,6.264548583984375,0.04261281480193138,0.00324555779248476,0.0003141805157065391
1772709377754573600,6.274573486328125,0.037514030358195304,0.009327581119909882,0.0030815263371914625
1772709377764598500,6.2845986328125,0.030033903735876083,0.00009213526286184787,-0.016923443076387046
1772709377774623700,6.294623779296875,0.043945524710416795,-0.018244900938495994,-0.01701345944739878
1772709377784648700,6.304648681640625,0.046941783916950225,-0.006575067541375756,-0.003957140127941966
1772709377794673700,6.314673583984375,0.024203297886252403,-0.013391615688428282,0.013068594279140233
1772709377804698600,6.32469873046875,0.028701778349280355,-0.0017687632381916045,-0.013543006857857108
1772709377814722600,6.33472265625,0.025853987702727316,0.007073299387097358,-0.008601385737210511
1772709377824747500,6.34474755859375,0.041404023534059524,-0.0029521278038620946,0.00040463527813553807
1772709377834772500,6.3547724609375,0.03631517596244812,-0.011996581133455038,0.001186725566536188
1772709377844797700,6.364797607421875,0.04125380140841007,0.003994403398409486,0.002550999657064676
1772709377854822700,6.37482275390625,0.027492987081408498,-0.0010002630837261676,0.002603533561900258
1772709377864847600,6.38484765625,0.03184066089689731,-0.0024093261640518904,-0.003655088441446423
1772709377874872600,6.39487255859375,0.03664835343956947,-0.0015593582712113857,-0.0022382804460823534
1772709377884897800,6.404897705078125,0.05506956079304218,-0.0038668314959853884,-0.012515782701969146
1772709377894922800,6.4149228515625,0.037111294776201245,-0.00972783248387277,0.0011903057631105184
1772709377904947700,6.42494775390625,0.038006197789311406,-0.0017154986809939145,-0.01689984300509095
1772709377914971600,6.4349716796875,0.039051907449960704,0.0035413258686661717,-0.006807488057762384
1772709377924996600,6.44499658203125,0.03679448391199112,0.007023249700292945,-0.009261018689721822
1772709377935021600,6.455021484375,0.03694587508141994,-0.005653568782284855,-0.008972849398106336
1772709377945046800,6.465046875,0.05745791723430156,0.0028705139350146056,-0.00212254511192441
1772709377955071700,6.47507177734375,0.03861994577348232,-0.003001519903540611,0.002249970883876085
1772709377965096700,6.4850966796875,0.035189386802911754,0.01081445867680013,-0.008294657875597477
1772709377975121700,6.49512158203125,0.024118542212247848,0.00013823942691087722,0.007230974166840314
1772709377985147000,6.50514697265625,0.041049218747019764,-0.0031858634945005175,-0.011786883905529975
1772709377995171600,6.515171630859375,0.04585398868024349,-0.01051693703494966,-0.014313552838936447
1772709378005195500,6.525195556640625,0.029546997001767158,-0.007515709392353892,-0.0032668197762221094
1772709378015220700,6.535220703125,0.015628361764550208,-0.0008273907348513603,-0.006858122266456484
1772709378025245700,6.54524560546875,0.0183212541103363,0.011884425995871424,0.0019715923339128495
1772709378035270700,6.555270751953125,0.04272387396097183,0.012302066886052489,0.00449994176775217
1772709378045295600,6.565295654296875,0.04992109198868274,0.003716755500808358,-0.0028042437657713887
1772709378055320800,6.57532080078125,0.03527063534557819,-0.009800313198193907,-0.0054779199544340365
1772709378065345500,6.585345458984375,0.02346446221768856,-0.0016107231322675943,-0.004100201860442757
1772709378075370500,6.59537060546875,0.027813889598846436,-0.012412906849384307,-0.007879282007738948
1772709378085395500,6.6053955078125,0.04905950672328472,-0.002773994757980108,-0.013240151453763246
1772709378095420700,6.615420654296875,0.03633680327236652,-0.010332593443989754,-0.005798457145690918
1772709378105444600,6.625444580078125,0.022878186762332914,-0.008277633675560355,-0.020557634860277174
1772709378115469600,6.635469482421875,0.028873043262958524,0.005080737330392003,-0.014712635159119962
1772709378125494800,6.645494873046875,0.03021685908734798,0.007750321865826844,-0.00639876112639904
1772709378135519700,6.655519775390625,0.039941549766063685,0.014134104618802665,-0.010126111086457968
1772709378145544400,6.66554443359375,0.035763387298583985,0.00632869156487286,-0.015478066573664545
1772709378155569700,6.675569580078125,0.029936288580298422,-0.01197641512826085,-0.001984013424068689
1772709378165594600,6.6855947265625,0.048210196417570114,-0.016991539876535535,-0.006492138498276472
1772709378175619600,6.69561962890625,0.05106675489246845,0.006488558301702142,-0.004258095835894346
1772709378185644500,6.70564453125,0.03448094627261162,0.005619520382210612,-0.015858809519559144
1772709378195669800,6.715669677734375,0.03719838853776455,-0.0007041296813637017,-0.02002886174581945
1772709378205693700,6.725693603515625,0.02883271125257015,0.009895882527157663,-0.0020152122799307107
1772709378215718700,6.73571875,0.03499240292608738,-0.015739055597409606,0.019562486343085765
1772709378225743600,6.74574365234375,0.04936696523725986,-0.011347177314013242,-0.008563537944853305
1772709378235768600,6.7557685546875,0.06060615213215351,-0.010010594948008655,-0.01982851686812937
1772709378245793500,6.76579345703125,0.024402619850635528,-0.006884425751492381,-0.013856748982146382
1772709378255818500,6.775818603515625,-0.005227963781356811,0.013001008935645222,-0.013233575582504271
1772709378265844000,6.785843994140625,0.008836217406392097,0.013447656724601983,-0.03195508105680346
1772709378275869000,6.795868896484375,0.049210897892713545,-0.007443009482324123,-0.02408588205166161
1772709378285894000,6.805893798828125,0.0518663808375597,-0.002072568490356207,-0.0013648586124181746
1772709378295918000,6.81591796875,0.021634324181079863,-0.0011864333055913447,0.004220394174009562
1772709378305943000,6.825943115234375,0.02896072154641151,0.0024476123478263615,-0.00025945465378463266
1772709378315968000,6.835968017578125,0.047373161071538925,0.006052797232940793,-0.002840995579585433
1772709378325992700,6.84599267578125,0.05366086303889751,-0.013896423405408859,0.00026632278598845004
1772709378336018000,6.856017822265625,0.05172200393080711,-0.0032102672833949327,-0.012928674351796506
1772709378346043000,6.86604296875,0.036484687310457224,-0.004055193674936891,-0.0061248395558446645
1772709378356067800,6.87606787109375,0.03620060967206955,-0.0028699294131249186,-0.017880962996929883
1772709378366092800,6.8860927734375,0.04217559242844581,-0.000890299903228879,-0.00244658943451941
1772709378376118000,6.896117919921875,0.0444026208281517,0.004115034103393554,-0.0016726093873381614
1772709378386143000,6.90614306640625,0.045001171243190766,-0.00006166705936193466,-0.007570508319512009
1772709378396167000,6.9161669921875,0.03558510812222957,0.001870981503650546,-0.0019740034867078067
1772709378406191900,6.92619189453125,0.048452188479900356,-0.02091068608164787,-0.014535305830836296
1772709378416216800,6.936216796875,0.04695639696419239,-0.0004508125074207782,-0.008517214585095644
1772709378426241800,6.94624169921875,0.046807928404211996,-0.003292173413187265,-0.009313041137903929
1772709378436267000,6.95626708984375,0.029009821385145185,-0.010520663361996412,-0.003117985890060663
1772709378446292000,6.9662919921875,0.036627310651540755,-0.004694587557017803,-0.008694032456725835
1772709378456317000,6.97631689453125,0.042596448189020156,-0.009480433594062924,-0.01654277319572866
1772709378466342000,6.986341796875,0.04334346716403961,0.0078100161638110874,-0.006481105647608638
1772709378476367000,6.9963671875,0.0387123002320528,-0.010484569135308265,-0.01386990072466433
1772709378486390800,7.006390869140625,0.04441255770027637,-0.003651142918691039,-0.015284589828178286
1772709378496415700,7.016415771484375,0.04919803841114044,0.014961641484126448,-0.0044851095248013735
1772709378506441000,7.02644091796875,0.02840133409798145,0.026460209967568517,0.00692965313270688
1772709378516466000,7.0364658203125,0.03723930507004261,0.0023428367991000414,0.00470320925489068
1772709378526491000,7.046490966796875,0.040999534386396405,-0.007807312750071287,-0.010180252426490188
1772709378536515800,7.056515869140625,0.05416530542969703,0.00089395316503942,-0.015305997942388056
1772709378546541000,7.066541015625,0.04638824168741703,-0.006797258924692869,-0.020468568337336183
1772709378556566000,7.07656591796875,0.03666939622759819,0.02135879517532885,-0.014029548265784978
1772709378566591000,7.086591064453125,0.01333294430375099,0.0015431377887725828,-0.001495645385235548
1772709378576616000,7.096615966796875,0.04011749085485935,0.0014833704255521297,-0.004155658374726772
1772709378586640000,7.106639892578125,0.053881227791309355,-0.009574322422593831,-0.01182991932965815
1772709378596664800,7.116664794921875,0.043567339047789574,-0.017820391916111112,0.008342369474843144
1772709378606690000,7.12668994140625,0.024716508105397224,-0.0005856909334659576,-0.00291617970764637
1772709378616715000,7.136715087890625,0.025460604470968245,0.00814041716195643,-0.006785276225954294
1772709378626740000,7.146739990234375,0.03472644546627998,-0.0023337767098098993,-0.0036603491384536026
1772709378636765000,7.156764892578125,0.04354220460653305,-0.00019661855064332485,-0.005722469300031662
1772709378646790100,7.1667900390625,0.0528074610799551,-0.0058372547861188645,-0.005535787621513009
1772709378656815000,7.176815185546875,0.038277415946125985,-0.00020545944422483442,-0.008849442214146255
1772709378666839800,7.18683984375,0.03243219704926014,-0.0008990677315741777,-0.007086524194851517
1772709378676864800,7.19686474609375,0.03197217832207679,0.006602467004954814,-0.006458090098202228
1772709378686889000,7.206888916015625,0.03555412846207619,0.0011625409733504056,-0.01274783789217472
1772709378696914000,7.216913818359375,0.04287234252095222,-0.011676336203143,-0.012305427886918187
1772709378706939000,7.22693896484375,0.04360591749250889,-0.01806004589088261,-0.022510084102302787
1772709378716964000,7.236964111328125,0.030295185020565985,-0.0044851095248013735,-0.01777326483875513
1772709378726989000,7.246989013671875,0.04975917942523956,0.0037703123189508914,-0.02635864928923547
1772709378737013800,7.257013671875,0.035703181543946264,0.033322350822016594,-0.014283303831145167
1772709378747038700,7.267038818359375,0.014339490997791289,0.004787234276533127,-0.00003828618377447128
1772709378757064000,7.27706396484375,0.029168811339139938,-0.024842107246443628,0.0038726767148822543
1772709378767089000,7.2870888671875,0.060281157961487766,-0.022315511378273367,0.0033143121797591444
1772709378777113900,7.29711376953125,0.056692778080701826,-0.002899959225207567,-0.005122384515032172
1772709378787138000,7.307137939453125,0.021817279532551765,0.015089359517022966,-0.01418232767470181
1772709378797163000,7.3171630859375,-0.002731470790505409,0.030807591522112487,-0.026786007855832576
1772709378807188000,7.32718798828125,0.041705052307248115,-0.006439093136787414,-0.030333471204340455
1772709378817213000,7.337212890625,0.060385202857851976,-0.02491772976592183,-0.026732670233398675
1772709378827238000,7.34723779296875,0.04179331511259079,0.004046718107536435,-0.01109663661904633
1772709378837262800,7.357262939453125,0.03023614830970764,0.010376067259535193,0.01136829316727817
1772709378847287800,7.367287841796875,0.01614975529015064,0.014469839379191397,-0.005273483423516154
1772709378857313000,7.37731298828125,0.0643318946570158,-0.000714358814433217,-0.0004389759391546249
1772709378867338000,7.387337890625,0.059256491088867186,-0.005399740151688456,0.0022197949413210153
1772709378877363000,7.397363037109375,0.03457446977496147,-0.009368351521715522,-0.009414017294347286
1772709378887387100,7.40738720703125,0.007470774272084236,-0.0033799247618764637,-0.007066065928712487
1772709378897411800,7.417411865234375,0.019419570741057393,0.014473857967182993,-0.016590557860210537
1772709378907436800,7.427436767578125,0.05305822097063064,0.00990267759412527,-0.014436667761951684
1772709378917461800,7.437461669921875,0.053479076731204986,-0.003582096270471811,-0.006678600981086492
1772709378927487000,7.447487060546875,0.03655190732777119,0.0018535189121961593,-0.01457571090646088
1772709378937512000,7.457511962890625,0.01589315018057823,0.006906856779009103,0.0032216654602438208
1772709378947537000,7.467536865234375,0.017523381730914115,-0.007154694060236215,0.0010202098932117223
1772709378957561900,7.477561767578125,0.05194178416132927,-0.01285349022373557,0.002596738494932651
1772709378967587000,7.487587158203125,0.058818684193491934,0.0019916852738708257,-0.00885419145449996
1772709378977610800,7.49761083984375,0.041159108862280844,-0.00654438014216721,-0.006180223004892468
1772709378987636000,7.507635986328125,0.039060675278306006,0.009543415827676652,-0.02122464740164578
1772709378997661000,7.517660888671875,0.03875321676433086,0.019660028433427214,-0.012537336946651339
1772709379007686000,7.527685791015625,0.03918459391891956,-0.0017592647574841975,-0.01219035013988614
1772709379017710800,7.5377109375,0.034834582015872,-0.010730068328976631,-0.00925188553519547
1772709379027736000,7.547736083984375,0.04216624007821083,-0.0050990036394447085,-0.009763926710560917
1772709379037761000,7.557760986328125,0.040683308044075966,-0.0035587884601205586,-0.016397008049488068
1772709379047786000,7.567785888671875,0.03335048093795776,0.003996960681676864,-0.023575886702910064
1772709379057811000,7.57781103515625,0.012844284003973007,-0.001048047748208046,-0.019505130132660267
1772709379067836200,7.587836181640625,0.04247428311407566,0.005057575650513172,-0.01621522174179554
1772709379077859800,7.59785986328125,0.04546528162360191,0.0002747252881526947,-0.013036153314262628
1772709379087884800,7.607884765625,0.038270401683449744,-0.005935016072168946,-0.013949907158315181
1772709379097910000,7.617909912109375,0.03690846568048,0.005629603384807705,-0.015623466393724084
1772709379107935000,7.62793505859375,0.029860300734639165,0.010169950228184461,-0.014611220611259341
1772709379117960000,7.6379599609375,0.03569382919371128,0.001866451459005475,-0.010044424152374267
1772709379127985000,7.64798486328125,0.044216742867231366,0.01167816283404827,0.0016628917109221218
1772709379138010000,7.658010009765625,0.033598318219184874,-0.0001920885059982538,-0.004183277034014463
1772709379148035000,7.66803515625,0.024915830069780348,-0.00170088563375175,0.0010297814391553401
1772709379158059800,7.678059814453125,0.03314531375467777,-0.004841521747037768,-0.008705430633574724
1772709379168084000,7.688083984375,0.02432487843930721,-0.007374035899341106,-0.007732713143900036
1772709379178109000,7.69810888671875,0.04407061239480972,0.004517185163497924,-0.012082505851238965
1772709379188134000,7.7081337890625,0.05064765269756317,-0.005415010786056518,-0.017205986344814298
1772709379198159000,7.7181591796875,0.02999532529115677,0.018834610459953546,-0.011994389176368712
1772709379208184000,7.72818408203125,0.030886136651039123,0.0005379062689840794,-0.01766783170290291
1772709379218209000,7.738208984375,0.03356850760281086,0.0048597149908542634,-0.016066899312287566
1772709379228234000,7.74823388671875,0.0411959337413311,-0.006049143971130252,-0.007680325369536876
1772709379238259000,7.758259033203125,0.05062485634386539,-0.011094956118613481,-0.01945361914113164
1772709379248284000,7.768283935546875,0.03745440912544727,-0.005492752197384834,-0.005398132716491818
1772709379258307800,7.778307861328125,0.03865618613064289,-0.01784793751016259,-0.003895473068580031
1772709379268332300,7.788332275390625,0.044352351945638656,0.006901742212474346,-0.010566109938919543
1772709379278357200,7.798357177734375,0.02400514496564865,0.008028408154845238,-0.02584368550442159
1772709379288382200,7.80838232421875,0.036416882771253586,0.00023855799622833726,-0.01838036388643086
1772709379298407400,7.818407470703125,0.03297521788477897,0.025639029777795076,-0.004534282428771257
1772709379308432400,7.828432373046875,0.022514029625058173,-0.002985883942991495,0.0021747136905789373
1772709379318457300,7.838457275390625,0.04003390422463417,-0.010917845986038446,-0.0034858693543821572
1772709379328482000,7.84848193359375,0.05619301186501979,-0.009270224909484386,-0.015082272189110516
1772709379338507300,7.85850732421875,0.038388475105166436,-0.0026921616934239864,-0.008680734583735465
1772709379348532200,7.8685322265625,0.003970072674751282,0.009890475699678063,-0.027556407706439492
1772709379358556200,7.87855615234375,0.02685468917787075,-0.011939517183974385,-0.029406419487297532
1772709379368581400,7.888581298828125,0.05256956067085266,-0.01251424833200872,-0.03099069300405681
1772709379378606300,7.8986064453125,0.03771744397580623,0.00849741390608251,-0.016306626352295277
1772709379388631300,7.90863134765625,0.024819968479871748,0.003933393926173448,-0.010013517557457089
1772709379398656300,7.91865625,0.02599719556570053,-0.00037767420597374434,-0.011127616279199719
1772709379408681200,7.92868115234375,0.03976970033049583,0.03869118437878787,-0.0009003829058259725
1772709379418706200,7.9387060546875,0.061356678238511084,0.05534691642969847,-0.017028730081766842
1772709379428731100,7.948731201171875,0.07864566669166087,0.030435141480527818,-0.012544205078855156
1772709379438756400,7.95875634765625,0.04299567663967609,-0.0013548852076753974,0.0013100596852600574
1772709379448781300,7.96878125,0.008548048114776611,-0.03449303856920451,-0.006689122375100851
1772709379458805200,7.97880517578125,-0.023874212062358856,-0.06737502521257847,-0.013694836418703197
1772709379468830500,7.98883056640625,0.02410918986201286,-0.01767700139004737,-0.01718567420914769
1772709379478855400,7.99885546875,0.06970657343268394,-0.0025633842146024106,0.020896730621531606
1772709379488880000,8.008880126953125,0.03542144199311733,-0.027989940285496413,0.0036929362338036296
1772709379498905000,8.018905029296874,0.012305939343571663,-0.0192731114750728,-0.027306305402889846
1772709379508930300,8.028930419921876,0.03355623264312744,-0.01879475337360054,-0.03442928915061057
1772709379518955300,8.038955322265625,0.04304477647840976,0.014735285382345318,-0.03160882490240037
1772709379528980200,8.048980224609375,0.03569382919371128,0.0874368759125471,0.0202634742192924
