time,seconds_elapsed,z,y,x
1772709371530366000,0.050365966796875,0.004193413536995649,0.004978779703378677,-0.00038509309524670243
1772709371540391000,0.060390869140625,0.0033936661202460527,-0.004880242515355349,-0.0031377363484352827
1772709371550416000,0.070415771484375,0.0023150858469307423,0.0021875204984098673,-0.002615224104374647
1772709371560439800,0.080439697265625,0.005666407756507397,0.014507303945720196,-0.007282147649675608
1772709371570464800,0.09046484375,0.00307621737010777,0.013648967258632183,-0.005933522712439299
1772709371580490000,0.100489990234375,0.0041641187854111195,0.003428287338465452,-0.004432565066963434
1772709371590515000,0.110514892578125,0.002030926523730159,0.0037238982040435076,-0.004397411365061998
1772709371600540000,0.120539794921875,0.00333134806714952,0.007210242096334696,-0.0016080166678875685
1772709371610564900,0.13056494140625,0.004303135443478823,0.0065684206783771515,-0.002389388158917427
1772709371620590000,0.140590087890625,0.0031039142049849033,0.004740426782518625,-0.005138303153216839
1772709371630615000,0.150614990234375,0.0026815368328243494,0.006633135490119457,-0.008052866905927658
1772709371640640000,0.160639892578125,0.001814411603845656,0.007247793022543192,-0.005803826730698347
1772709371650665000,0.1706650390625,0.003278617514297366,0.004172640852630138,-0.0022594258189201355
1772709371660689000,0.18068896484375,0.0031502533238381147,0.0041369544342160225,0.0004569984448608011
1772709371670713900,0.1907138671875,0.004652542527765036,0.007984156720340252,0.00016165387933142483
1772709371680738800,0.20073876953125,0.0028660940006375313,0.008623582310974598,-0.00376011710613966
1772709371690764000,0.210763916015625,0.0028748824261128902,0.006381466519087553,-0.005537510849535465
1772709371700789000,0.2207890625,0.0029710223898291588,0.0023318638559430838,-0.005667739547789097
1772709371710814000,0.23081396484375,0.004676776938140392,0.005064533557742834,-0.0014476943761110306
1772709371720839000,0.2408388671875,0.0024445154704153538,0.008074704557657242,-0.0014708638191223145
1772709371730864000,0.250864013671875,0.004837365821003914,0.007399859372526407,-0.0030024477746337652
1772709371740888800,0.260888916015625,0.0044440170750021935,0.006847253534942865,-0.0038008634001016617
1772709371750913800,0.270913818359375,0.0032445292454212904,0.0046362970024347305,-0.003058906877413392
1772709371760938000,0.28093798828125,0.0032538501545786858,0.0030248183757066727,-0.005795038305222988
1772709371770963000,0.290962890625,0.0049098036251962185,0.004930309951305389,-0.005782788153737783
1772709371780988000,0.30098779296875,0.0016884441720321774,0.005356948357075453,-0.0041044638492167
1772709371791013000,0.31101318359375,0.004939098376780748,0.008618255145847797,-0.0019299928098917007
1772709371801038000,0.3210380859375,0.0033430662006139755,0.01056076493114233,-0.0043718451634049416
1772709371811063000,0.33106298828125,0.002737463219091296,0.008293350227177143,-0.0052323127165436745
1772709371821087700,0.341087646484375,0.003290868131443858,0.0060118199326097965,-0.005097024142742157
1772709371831113000,0.351113037109375,0.004086354281753302,0.008677377365529537,-0.0031185615807771683
1772709371841138000,0.361137939453125,0.0036131106317043304,0.007837949320673943,-0.0021877868566662073
1772709371851163000,0.371162841796875,0.004448011517524719,0.005566272884607315,-0.0022098910994827747
1772709371861187800,0.381187744140625,0.003620833856984973,0.0025939189363271,-0.003990214318037033
1772709371871212000,0.3912119140625,0.004421912599354982,0.005511145573109388,-0.0036709012929350138
1772709371881237000,0.401237060546875,0.002826679265126586,0.007966313511133194,-0.003254915354773402
1772709371891261700,0.41126171875,0.002944923471659422,0.008584433235228062,-0.003974501509219408
1772709371901287000,0.421286865234375,0.00267674308270216,0.0052232579328119755,-0.004656270612031221
1772709371911312000,0.431311767578125,0.0008431567694060504,0.006593454163521528,-0.003230947069823742
1772709371921336800,0.4413369140625,0.0023185480386018753,0.00552259711548686,-0.00270683690905571
1772709371931361800,0.45136181640625,0.0025369273498654366,0.006432865746319294,-0.00424188282340765
1772709371941387000,0.461386962890625,0.002886333968490362,0.00732422573491931,-0.003566771512851119
1772709371951412000,0.471411865234375,0.0024823325220495462,0.00703873485326767,-0.00634924229234457
1772709371961437000,0.48143701171875,0.0016753945965319872,0.005774265620857477,-0.006566556170582771
1772709371971462000,0.4914619140625,0.002816825406625867,0.004364388529211283,-0.004965996369719505
1772709371981485800,0.50148583984375,0.00261895265430212,0.006886401679366827,-0.005547630600631237
1772709371991510800,0.5115107421875,0.0028959212359040976,0.008415056392550468,-0.0054275221191346645
1772709372001536000,0.521535888671875,0.0020128171890974045,0.007879494689404964,-0.005020591430366039
1772709372011561000,0.53156103515625,0.0021225393284112215,0.0044173854403197765,-0.005635515321046114
1772709372021586000,0.5415859375,0.002502572489902377,0.00464694993570447,-0.006955111399292946
1772709372031611000,0.55161083984375,0.00344586418941617,0.007367635145783424,-0.004522313829511404
1772709372041636000,0.561635986328125,0.0038131140172481537,0.007610781583935022,-0.002626942005008459
1772709372051661000,0.5716611328125,0.004248274490237236,0.005952164996415377,-0.0018072210950776935
1772709372061686000,0.58168603515625,0.0029443909879773855,0.0059449742548167706,-0.003008040366694331
1772709372071710700,0.591710693359375,0.0031124362722039223,0.005570800509303808,-0.004235757514834404
1772709372081736000,0.60173583984375,0.001532116555608809,0.007217965554445982,-0.004948419518768787
1772709372091759900,0.611759765625,0.005420598201453686,0.006169745232909918,-0.0037348170299082994
1772709372101784800,0.621784912109375,0.0036101811565458775,0.005653092171996832,-0.006666158325970173
1772709372111810000,0.63181005859375,0.0025869945529848337,0.007819040678441525,-0.005026982631534338
1772709372121835000,0.6418349609375,0.0023558323737233877,0.005759884603321552,-0.005301288329064846
1772709372131860000,0.65185986328125,0.003979561384767294,0.004032292403280735,-0.0036661075428128242
1772709372141885000,0.661885009765625,0.002662628423422575,0.004048537462949753,-0.006039250176399946
1772709372151910000,0.671909912109375,0.0027981833554804325,0.005958556663244963,-0.006736998446285725
1772709372161934800,0.681934814453125,0.0021973741240799427,0.007238738238811493,-0.0054269894026219845
1772709372171959800,0.691959716796875,0.003346528159454465,0.00563897704705596,-0.005958556663244963
1772709372181985000,0.701985107421875,0.002758768619969487,0.005723399575799704,-0.007643538527190685
1772709372192009000,0.712009033203125,0.003681021276861429,0.005889846943318844,-0.005254949443042278
1772709372202034000,0.722033935546875,0.00301656243391335,0.008028898388147354,-0.004463191609829664
1772709372212059100,0.73205908203125,0.003922570031136274,0.0075902752578258514,-0.0019462381023913622
1772709372222084000,0.742083984375,0.0034434671979397535,0.007744206115603447,-0.002858903491869569
1772709372232108800,0.75210888671875,0.004621649626642466,0.00561181316152215,-0.002109223511070013
1772709372242133800,0.7621337890625,0.0028788771014660597,0.006894657853990793,-0.002341983839869499
1772709372252159000,0.772158935546875,0.003668770659714937,0.006666424684226513,-0.0032256206031888723
1772709372262183200,0.78218310546875,0.0036487970501184464,0.006617422681301832,-0.0038370825350284576
1772709372272208100,0.7922080078125,0.004692223388701677,0.0057372478768229485,-0.0021201425697654486
1772709372282233300,0.8022333984375,0.0032527849543839693,0.006389722228050232,-0.00015819176041986793
1772709372292258000,0.812258056640625,0.0035454663448035717,0.007601194549351931,0.0003009371866937727
1772709372302282000,0.822281982421875,0.0043625240214169025,0.007864580489695072,-0.0014301175251603127
1772709372312307200,0.83230712890625,0.0034645062405616045,0.008144212886691093,-0.006168413441628218
1772709372322332200,0.842332275390625,0.0034522556234151125,0.007154848426580429,-0.006718888878822327
1772709372332357000,0.852357177734375,0.0038077877834439278,0.00965395849198103,-0.00347542529925704
1772709372342382000,0.862382080078125,0.004996356554329395,0.008567655459046364,-0.0001334243715973571
1772709372352407300,0.8724072265625,0.005547098349779844,0.01255014631897211,0.0024019049014896154
1772709372362432300,0.882432373046875,0.0036874127108603716,0.011963452212512493,-0.0033332123421132565
1772709372372457000,0.89245703125,0.004531634971499443,0.008429703302681446,-0.0032653016969561577
1772709372382482200,0.902482177734375,0.0041191112250089645,0.009243299253284931,-0.0005696501466445625
1772709372392507100,0.912507080078125,0.005441104527562857,0.012089153751730919,0.002094576135277748
1772709372402531000,0.922531005859375,0.005173456855118275,0.01101483404636383,0.0011667308863252401
1772709372412556300,0.932556396484375,0.004223241005092859,0.007669371087104082,-0.0002002697146963328
1772709372422581200,0.942581298828125,0.005043228156864643,0.004210457671433687,-0.001529187080450356
1772709372432606200,0.952606201171875,0.003359045134857297,0.00896526500582695,-0.0003424825263209641
1772709372442631200,0.962631103515625,0.0044394894503057,0.011322695761919022,-0.0006929545197635889
1772709372452656000,0.97265625,0.005097024142742157,0.008314655162394047,-0.003575826296582818
1772709372462681000,0.98268115234375,0.003373692510649562,0.007209443487226963,-0.004253068007528782
1772709372472706000,0.9927060546875,0.003090864745900035,0.010819624178111553,-0.003064233111217618
1772709372482731000,1.00273095703125,0.003201385959982872,0.010380735620856285,-0.0028037759475409985
1772709372492756200,1.012756103515625,0.004199538845568895,0.008914665319025517,-0.002079928759485483
1772709372502780200,1.0227802734375,0.004206995479762554,0.008863266557455063,-0.0011938951211050153
1772709372512805000,1.03280517578125,0.004274639766663313,0.009947705082595348,-0.0040946099907159805
1772709372522830300,1.042830322265625,0.0044046021066606045,0.01028619334101677,-0.005372927524149418
1772709372532855000,1.05285498046875,0.0038485340774059296,0.009199357591569424,-0.0019827233627438545
1772709372542880000,1.0628798828125,0.00446931691840291,0.008931975811719894,-0.003135872073471546
1772709372552905000,1.072905029296875,0.005544967483729124,0.009865946136415005,-0.0020530307665467262
1772709372562930200,1.08293017578125,0.0046421559527516365,0.00908537395298481,-0.00044661210267804563
1772709372572955100,1.092955078125,0.004574778024107218,0.0076392777264118195,-0.0013571468880400062
1772709372582980000,1.10297998046875,0.003430950455367565,0.006697583943605423,-0.0015584818320348859
1772709372593005000,1.113005126953125,0.004650411661714315,0.007005445193499327,-0.0018434401135891676
1772709372603030300,1.1230302734375,0.0051862397231161594,0.00884915143251419,-0.00000958738019107841
1772709372613054000,1.133053955078125,0.004815527703613043,0.008126103319227695,0.0009672601008787751
1772709372623079200,1.1430791015625,0.006013151258230209,0.007590008899569511,0.0004426173691172153
1772709372633104100,1.153104248046875,0.0038336203433573246,0.008248874917626381,-0.0015331818722188473
1772709372643129000,1.163129150390625,0.004145210143178701,0.009270464070141315,-0.0027949875220656395
1772709372653154000,1.173154052734375,0.0033398703671991825,0.006993727292865515,-0.003029612125828862
1772709372663179300,1.18317919921875,0.0031784826423972845,0.009343700483441353,-0.004781705792993307
1772709372673204200,1.193204345703125,0.003993143793195486,0.00893623661249876,-0.0023124227300286293
1772709372683229200,1.203229248046875,0.0038096518255770206,0.006938866339623928,-0.000859934720210731
1772709372693254100,1.213254150390625,0.0033989925868809223,0.008423312567174435,-0.0030890004709362984
1772709372703279400,1.223279296875,0.0017952368361875415,0.01092588435858488,-0.0032290827948600054
1772709372713303000,1.233302978515625,0.004614459350705147,0.00923504400998354,-0.0039113848470151424
1772709372723328000,1.243327880859375,0.0028245486319065094,0.008790828287601471,-0.0038072550669312477
1772709372733353200,1.253353271484375,0.0033244239166378975,0.008262723684310913,-0.004384894855320454
1772709372743378200,1.263378173828125,0.004466920159757137,0.007605455350130796,-0.00227806787006557
1772709372753403100,1.273403076171875,0.004191815387457609,0.008875783532857895,-0.003349990351125598
1772709372763428000,1.283427978515625,0.004572114907205105,0.00774633651599288,-0.002770752878859639
1772709372773453300,1.293453369140625,0.005083441734313965,0.008903480134904385,-0.0007755124825052917
1772709372783478300,1.303478271484375,0.004461061209440231,0.010343717411160469,-0.0017379788914695382
1772709372793503000,1.3135029296875,0.004504204262048006,0.008790561929345131,-0.0008487494196742773
1772709372803528200,1.323528076171875,0.005129780620336533,0.007268299348652363,-0.0037787591572850943
1772709372813552000,1.33355224609375,0.003743072971701622,0.006474943365901709,-0.003366768127307296
1772709372823577000,1.3435771484375,0.0038634478114545345,0.010614560917019844,-0.0020298613235354424
1772709372833602300,1.353602294921875,0.003999269101768732,0.007871771231293678,-0.0018210695125162601
1772709372843627300,1.363627197265625,0.003765976056456566,0.006400641519576311,-0.0019105518003925681
1772709372853652200,1.37365234375,0.0035928706638514996,0.006369482260197401,-0.00041438787593506277
1772709372863677000,1.383677001953125,0.0033659692853689194,0.00691969133913517,-0.004099670331925154
1772709372873702100,1.3937021484375,0.0023244069889187813,0.005907690152525902,-0.005143096670508385
1772709372883727000,1.40372705078125,0.003206978552043438,0.0073476615361869335,-0.004862399306148291
1772709372893752000,1.413751953125,0.004625378176569939,0.00953944306820631,-0.0020061591640114784
1772709372903777000,1.423777099609375,0.005287972744554281,0.010811635293066502,-0.002014148747548461
1772709372913801200,1.43380126953125,0.003808586625382304,0.011242267675697803,-0.003447728231549263
1772709372923826200,1.443826171875,0.0033539850264787674,0.00980469398200512,-0.0046421559527516365
1772709372933851100,1.45385107421875,0.0041731735691428185,0.009314938448369503,-0.0038482677191495895
1772709372943876000,1.4638759765625,0.003680754918605089,0.009131712839007378,-0.0022040321491658688
1772709372953901000,1.473901123046875,0.0026551715563982725,0.010726946406066418,-0.001945439144037664
1772709372963926000,1.483926025390625,0.003774498123675585,0.008292551152408123,-0.0010365023044869304
1772709372973951000,1.493950927734375,0.004614725708961487,0.006470948923379183,-0.0028764803428202868
1772709372983976200,1.50397607421875,0.005564941558986902,0.007551925722509623,-0.0003992078418377787
1772709372994001200,1.514001220703125,0.005061604082584381,0.010033193044364452,-0.0014263890916481614
1772709373004026000,1.524026123046875,0.0036077843979001045,0.007267233915627003,-0.005119128152728081
1772709373014050300,1.53405029296875,0.004664793144911528,0.008694421499967575,-0.0040948763489723206
1772709373024075000,1.544074951171875,0.0030213561840355396,0.008129831403493881,-0.002633333671838045
1772709373034100000,1.554099853515625,0.004756938200443983,0.007604124024510384,-0.0021260015200823545
1772709373044125200,1.564125244140625,0.0038392129354178905,0.006509564816951752,-0.002002164488658309
1772709373054150100,1.574150146484375,0.003471430391073227,0.007179882377386093,-0.003989681601524353
1772709373064175000,1.584175048828125,0.0028061727061867714,0.006622748915106058,-0.005075186025351286
1772709373074200000,1.594199951171875,0.002439189236611128,0.007211307529360056,-0.003916711080819368
1772709373084225300,1.604225341796875,0.0026351979468017817,0.008373244665563107,-0.003674895968288183
1772709373094250200,1.614250244140625,0.004325506277382374,0.00871998816728592,-0.0020812603179365396
1772709373104275200,1.624275146484375,0.0024264061357825994,0.009052617475390434,-0.004335626028478146
1772709373114299100,1.634299072265625,0.004454669542610645,0.007703726179897785,-0.004181429278105497
1772709373124324000,1.644323974609375,0.0025808694772422314,0.00675271125510335,-0.003501790575683117
1772709373134349000,1.65434912109375,0.002398176584392786,0.006897054612636566,-0.002444781828671694
1772709373144374000,1.6643740234375,0.003787015099078417,0.007120760157704353,-0.002713228575885296
1772709373154399200,1.674399169921875,0.004406199790537357,0.007370564620941877,-0.0012679309584200382
1772709373164424200,1.684424072265625,0.0038959383964538574,0.0073473951779305935,-0.0015092133544385433
1772709373174449200,1.69444921875,0.0025920546613633633,0.006901049055159092,-0.002341983839869499
1772709373184474000,1.70447412109375,0.0021917815320193768,0.007358580362051725,-0.0036786242853850126
1772709373194499300,1.714499267578125,0.004323109518736601,0.006262955721467733,-0.003754524514079094
1772709373204523000,1.72452294921875,0.003028546692803502,0.00814900640398264,-0.003817641409114003
1772709373214548200,1.73454833984375,0.0037582528311759233,0.007270163390785456,-0.002002430846914649
1772709373224573200,1.7445732421875,0.0037111148703843355,0.00797190610319376,-0.0038250982761383057
1772709373234598100,1.75459814453125,0.005008340813219547,0.00758015550673008,-0.0032613070216029882
1772709373244623000,1.764623046875,0.0036432044580578804,0.006601177155971527,-0.0028844696935266256
1772709373254648300,1.7746484375,0.002463690238073468,0.008112254552543163,-0.0028101676143705845
1772709373264673000,1.784673095703125,0.00270683690905571,0.008748217485845089,-0.0035515916533768177
1772709373274698000,1.794697998046875,0.005884520709514618,0.008139153011143208,-0.0034615767654031515
1772709373284723000,1.804722900390625,0.004308195784687996,0.006102900020778179,-0.004764928016811609
1772709373294748200,1.814748046875,0.0036972665693610907,0.005629390012472868,-0.0030746194534003735
1772709373304771800,1.824771728515625,0.003305781865492463,0.006754841655492783,-0.0012775183422490954
1772709373314796800,1.834796875,0.0054142065346241,0.009766610339283943,-0.001805889536626637
1772709373324822000,1.844822021484375,0.0035337484441697598,0.007439007982611656,-0.0017121462151408195
1772709373334847000,1.854846923828125,0.003884752979502082,0.008404137566685677,-0.002751844236627221
1772709373344872000,1.864871826171875,0.0022626216523349285,0.0065071675926446915,-0.003397927153855562
1772709373354897000,1.87489697265625,0.003385410411283374,0.00541260838508606,-0.004511661361902952
1772709373364922000,1.884922119140625,0.005042695440351963,0.008407599292695522,-0.0037406759802252054
1772709373374947000,1.894947021484375,0.002785400254651904,0.008988435380160809,-0.0010775149567052722
1772709373384972000,1.904971923828125,0.0046576024033129215,0.0070158313028514385,-0.0019006980583071709
1772709373394996000,1.914995849609375,0.004090349189937115,0.006118612363934517,-0.0011851066956296563
1772709373405021000,1.92502099609375,0.0031731564085930586,0.006416886579245329,-0.00230789533816278
1772709373415046000,1.9350458984375,0.002615490462630987,0.007900799624621868,-0.004796619527041912
1772709373425071000,1.945071044921875,0.0038040592335164547,0.004285558592528105,-0.0052016861736774445
1772709373435096000,1.955095947265625,0.0034698324743658304,0.004618720151484013,-0.003008040366694331
1772709373445121000,1.96512109375,0.004830175079405308,0.009464608505368233,-0.0017861821688711643
1772709373455146000,1.97514599609375,0.0012799152173101902,0.00905900914222002,-0.004741225857287645
1772709373465171200,1.985171142578125,0.003629888640716672,0.008153267204761505,-0.005648031830787659
1772709373475196200,1.995196044921875,0.0016354472609236836,0.0065684206783771515,-0.004805141594260931
1772709373485220900,2.005220947265625,0.0024583640042692423,0.007888549007475376,-0.0034115093294531107
1772709373495245000,2.0152451171875,0.0036075180396437645,0.008774316869676113,-0.0020764668006449938
1772709373505270000,2.02527001953125,0.003195260651409626,0.005917810369282961,-0.0006210491410456598
1772709373515295000,2.035294921875,0.003959321416914463,0.005095159634947777,-0.003492469433695078
1772709373525320000,2.04531982421875,0.004504470620304346,0.007695470005273819,-0.0005659217131324112
1772709373535345200,2.05534521484375,0.0023670175578445196,0.008942628279328346,-0.001970206620171666
1772709373545370000,2.0653701171875,0.0032716933637857437,0.007107976824045181,-0.004545749630779028
1772709373555395000,2.07539501953125,0.0019294602097943425,0.008099472150206566,-0.0029057750944048166
1772709373565420000,2.085419921875,0.0019467707024887204,0.007231547497212887,-0.0035151063930243254
1772709373575445000,2.095445068359375,0.005121524911373854,0.00589650496840477,-0.0029198897536844015
1772709373585470000,2.105469970703125,0.0031220237724483013,0.007541006896644831,-0.0028663603588938713
1772709373595494100,2.115494140625,0.003546797903254628,0.00743075180798769,-0.0026788737159222364
1772709373605519000,2.12551904296875,0.0026466494891792536,0.00695005152374506,-0.005620335228741169
1772709373615544000,2.1355439453125,0.003138801548629999,0.005067196674644947,-0.005073321983218193
1772709373625569000,2.145569091796875,0.0011941614793613553,0.005627525504678488,-0.004526308737695217
1772709373635594200,2.15559423828125,0.0034269557800143957,0.006587595213204622,-0.004162520635873079
1772709373645619000,2.165618896484375,0.0033598439767956734,0.006088252644985914,-0.00449754623696208
1772709373655644000,2.175643798828125,0.0041763694025576115,0.0067846691235899925,-0.0038336203433573246
1772709373665668900,2.1856689453125,0.0032740901224315166,0.006012884899973869,-0.0026852653827518225
1772709373675694000,2.195694091796875,0.002401106059551239,0.005016862880438566,-0.003063700394704938
1772709373685718000,2.205718017578125,0.0035113778430968523,0.00549170421436429,-0.0016588830621913075
1772709373695743000,2.215742919921875,0.0049497513100504875,0.006503439508378506,-0.0014554174849763513
1772709373705768200,2.225768310546875,0.004822984803467989,0.007197192870080471,-0.0008226504432968795
1772709373715793200,2.235793212890625,0.004426706116646528,0.005299424286931753,-0.0021017666440457106
1772709373725817900,2.24581787109375,0.004536694847047329,0.005842975340783596,-0.004655472002923489
1772709373735842800,2.2558427734375,0.004466387443244457,0.007546066772192717,-0.004069043789058924
1772709373745868000,2.265867919921875,0.0031933963764458895,0.008256598375737667,-0.0035268242936581373
1772709373755893000,2.27589306640625,0.004339088220149279,0.006846454460173845,-0.0034109766129404306
1772709373765918000,2.28591796875,0.0030003173742443323,0.004968126770108938,-0.0028091021813452244
1772709373775943200,2.295943115234375,0.003686613868921995,0.006475476082414389,-0.004450141917914152
1772709373785967000,2.305967041015625,0.004821653012186289,0.00603498937562108,-0.0022679478861391544
1772709373795992000,2.315991943359375,0.0033241575583815575,0.006822485942393541,-0.002174204681068659
1772709373806017000,2.32601708984375,0.0033129723742604256,0.005709284916520119,-0.0024551681708544493
1772709373816042000,2.3360419921875,0.002630137838423252,0.00446851784363389,-0.0037494644057005644
1772709373826067000,2.34606689453125,0.0018658105982467532,0.006673881784081459,-0.004309527110308409
1772709373836092000,2.356091796875,0.0026794064324349165,0.007106379140168428,-0.006404103245586157
1772709373846117000,2.3661171875,0.003367300843819976,0.00726483715698123,-0.006533532869070768
1772709373856142000,2.37614208984375,0.002779008587822318,0.008477107621729374,-0.0036570527590811253
1772709373866167000,2.3861669921875,0.005672533065080643,0.0075633772648870945,-0.0017534252256155014
1772709373876192000,2.39619189453125,0.0025803367607295513,0.007952732034027576,-0.0007920240750536323
1772709373886216000,2.4062158203125,0.003291400847956538,0.007032875902950764,-0.0036703685764223337
1772709373896241000,2.416240966796875,0.002834668615832925,0.005107143893837929,-0.002894589677453041
1772709373906265900,2.426265869140625,0.0038064562249928713,0.005230448208749294,-0.004114317707717419
1772709373916291000,2.436291015625,0.0028306739404797554,0.0067657604813575745,-0.003041330026462674
1772709373926316000,2.44631591796875,0.0038184402510523796,0.006942062173038721,-0.0023848607670515776
1772709373936341000,2.456341064453125,0.003859453136101365,0.004349474795162678,-0.0013558153295889497
1772709373946366000,2.466365966796875,0.0020671456586569548,0.0054757255129516125,-0.0031702269334346056
1772709373956391200,2.47639111328125,0.0028016455471515656,0.0033068470656871796,-0.005733519326895475
1772709373966416100,2.486416015625,0.0024833977222442627,0.004933239426463842,-0.007048055995255709
1772709373976440000,2.496440185546875,0.003192597534507513,0.0043681166134774685,-0.005685582756996155
1772709373986465000,2.506465087890625,0.00307621737010777,0.007215834688395262,-0.002540655666962266
1772709373996490000,2.516489990234375,0.0027443873696029186,0.009863816201686859,-0.004166515544056892
1772709374006515000,2.526514892578125,0.003349990351125598,0.008421980775892735,-0.005314604379236698
1772709374016540200,2.5365400390625,0.003622964257374406,0.006421147845685482,-0.005709284916520119
1772709374026565000,2.546565185546875,0.003058107802644372,0.006208094768226147,-0.005723133217543364
1772709374036590000,2.556590087890625,0.002627208363264799,0.008393485099077225,-0.0014165353495627642
1772709374046615000,2.566614990234375,0.004012318328022957,0.0070339408703148365,-0.0020815266761928797
1772709374056640000,2.576639892578125,0.0035840822383761406,0.0067820060066878796,-0.0018756643403321505
1772709374066665000,2.5866650390625,0.003900199430063367,0.006392118986696005,-0.0011491540353745222
1772709374076689000,2.59668896484375,0.005440571811050177,0.00758042186498642,-0.0020903151016682386
1772709374086714000,2.606714111328125,0.005008607171475887,0.007507717236876488,-0.004312989301979542
1772709374096739000,2.616739013671875,0.003537210635840893,0.006586796138435602,-0.005002215504646301
1772709374106764000,2.626763916015625,0.0028490496333688498,0.006656571291387081,-0.004071706905961037
1772709374116789000,2.6367890625,0.002538258908316493,0.005059739574790001,-0.0038274950347840786
1772709374126814200,2.646814208984375,0.002659698948264122,0.00797110702842474,-0.00446878420189023
1772709374136839000,2.6568388671875,0.0017294568242505193,0.007232080213725567,-0.004456267226487398
1772709374146863900,2.66686376953125,0.0033870083279907703,0.006480802316218615,-0.005629390012472868
1772709374156889000,2.67688916015625,0.0019057580502703786,0.005278118886053562,-0.006087187211960554
1772709374166914000,2.6869140625,0.0027212179265916348,0.006530869752168655,-0.0052016861736774445
1772709374176938000,2.69693798828125,0.004190217703580856,0.005623797420412302,-0.004578240215778351
1772709374186963200,2.706963134765625,0.002823217073455453,0.007250456139445305,-0.0027137610595673323
1772709374196988200,2.71698828125,0.004772384651005268,0.0071037160232663155,-0.0038986015133559704
1772709374207013000,2.72701318359375,0.0037297571543604136,0.005478122271597385,-0.004532699938863516
1772709374217037800,2.737037841796875,0.002665824256837368,0.004573446698486805,-0.004196343012154102
1772709374227063000,2.74706298828125,0.0034354778472334146,0.005422728601843119,-0.0031763522420078516
1772709374237088000,2.757087890625,0.004208859521895647,0.005366535857319832,-0.001716673607006669
1772709374247113000,2.767113037109375,0.004711398389190435,0.006243514828383923,0.0004239752306602895
1772709374257138000,2.777137939453125,0.002688460983335972,0.006413158029317856,-0.002058889716863632
1772709374267163400,2.787163330078125,0.0027382622938603163,0.005530586466193199,-0.005562810692936182
1772709374277187300,2.797187255859375,0.001844505313783884,0.004890096373856068,-0.004718322306871414
1772709374287212300,2.80721240234375,0.00336090917699039,0.006602242588996887,-0.004770254250615835
1772709374297237500,2.817237548828125,0.0021318604703992605,0.007065100129693747,-0.003367034485563636
1772709374307262500,2.827262451171875,0.002671416848897934,0.0062855929136276245,-0.0034527883399277925
1772709374317287400,2.837287353515625,0.0030040456913411617,0.007661648094654083,-0.004541754722595215
1772709374327312400,2.8473125,0.003308977698907256,0.005049087107181549,-0.00484162662178278
1772709374337337600,2.857337646484375,0.00169563468080014,0.006904511246830225,-0.005622199270874262
1772709374347362300,2.8673623046875,0.0031758195254951715,0.007984423078596592,-0.005790244787931442
1772709374357387300,2.87738720703125,0.0017334514996036887,0.006137787364423275,-0.006706638727337122
1772709374367411500,2.887411376953125,0.0026844663079828024,0.005675995256751776,-0.007523696403950453
1772709374377436400,2.8974365234375,0.002546514617279172,0.008480836637318134,-0.004866127856075764
1772709374387461400,2.90746142578125,0.002079662401229143,0.007818507961928844,-0.0023395870812237263
1772709374397486300,2.917486328125,0.004010187927633524,0.00726536987349391,-0.004251736681908369
1772709374407511600,2.927511474609375,0.004187021870166063,0.007174023427069187,-0.0019236012594774365
1772709374417536500,2.93753662109375,0.002975283656269312,0.008431567810475826,-0.0029087045695632696
1772709374427561200,2.947561279296875,0.0033779535442590714,0.006129798013716936,-0.002773149637505412
1772709374437586400,2.95758642578125,0.0030810111202299595,0.006922354456037283,-0.003213103860616684
1772709374447611400,2.967611328125,0.00503870053216815,0.007583617232739925,-0.003422162029892206
1772709374457636400,2.97763623046875,0.0041151163168251514,0.007083741948008537,-0.0027180220931768417
1772709374467660500,2.98766064453125,0.003942277282476425,0.007877097465097904,-0.002014415105804801
1772709374477685500,2.997685546875,0.004436027258634567,0.007495999336242676,-0.0026852653827518225
1772709374487710500,3.00771044921875,0.002493517706170678,0.004026167094707489,-0.006217149551957846
1772709374497735400,3.0177353515625,0.003810983384028077,0.007173490710556507,-0.006287723314017057
1772709374507760400,3.027760498046875,0.004222175572067499,0.010083792731165886,-0.004381699021905661
1772709374517785300,3.037785400390625,0.006157228257507086,0.008493886329233646,-0.0014357101172208786
1772709374527810300,3.047810302734375,0.005745769944041967,0.012657471932470798,-0.0007789746159687638
1772709374537835300,3.057835205078125,0.003451723139733076,0.010326939634978771,-0.004278634674847126
1772709374547860500,3.067860595703125,0.00546240946277976,0.009266735054552555,-0.004041879437863827
1772709374557885400,3.077885498046875,0.006612629164010286,0.009851299226284027,-0.0011267834343016148
1772709374567909400,3.087909423828125,0.003771835006773472,0.0091759217903018,-0.000025566347176209092
1772709374577934600,3.0979345703125,0.006345247384160757,0.008609200827777386,0.0008564725867472589
1772709374587959300,3.107959228515625,0.005026716738939285,0.005942843854427338,-0.0018080200534313917
1772709374597984300,3.117984375,0.004421646241098642,0.006838465109467506,-0.0012996225850656629
1772709374608009200,3.12800927734375,0.005453887395560741,0.0070674968883395195,-0.001278849900700152
1772709374618034400,3.138034423828125,0.003087935270741582,0.009970342740416527,-0.001674861996434629
1772709374628059400,3.148059326171875,0.004236290231347084,0.008855010382831097,-0.003924966789782047
1772709374638084400,3.15808447265625,0.003966245800256729,0.007248591631650925,-0.005305549595504999
1772709374648109300,3.168109375,0.004020840395241976,0.007483748719096184,-0.0018349179299548268
1772709374658134500,3.178134521484375,0.003668504301458597,0.009210542775690556,0.0001627191377338022
1772709374668158200,3.188158203125,0.002927612978965044,0.008986837230622768,-0.0011496866354718804
1772709374678183400,3.198183349609375,0.004995291121304035,0.008321313187479973,-0.004340420011430979
1772709374688208400,3.20820849609375,0.004649879410862923,0.007742607966065407,-0.004811533261090517
1772709374698233300,3.2182333984375,0.00404640706256032,0.00899748969823122,-0.003344397759065032
1772709374708258300,3.22825830078125,0.004749215207993984,0.00888110976666212,-0.002709500025957823
1772709374718283500,3.238283447265625,0.00301682879216969,0.009381251409649849,-0.0034474621061235666
1772709374728308500,3.24830859375,0.0032109732273966074,0.00887844618409872,-0.0032871398143470287
1772709374738333400,3.25833349609375,0.005829926114529371,0.008291485719382763,-0.003742007538676262
1772709374748358400,3.2683583984375,0.0067633637227118015,0.006372678093612194,-0.0024000408593565226
1772709374758383400,3.27838330078125,0.006326605565845966,0.009094960987567902,-0.0014562164433300495
1772709374768407300,3.2884072265625,0.005459479987621307,0.009134642779827118,-0.00019520970818120986
1772709374778432300,3.298432373046875,0.006068544927984476,0.008498147130012512,0.00024314661277458072
1772709374788457500,3.30845751953125,0.0045572011731565,0.00857271533459425,-0.0012154667638242245
1772709374798482400,3.318482421875,0.004450940992683172,0.008164718747138977,-0.0032732912804931402
1772709374808507400,3.32850732421875,0.0034650389570742846,0.006719954311847687,-0.0034147051628679037
1772709374818532400,3.338532470703125,0.005253085400909185,0.0087820403277874,-0.0016548882704228163
1772709374828557600,3.3485576171875,0.0028453213162720203,0.009649431332945824,-0.0009339706157334149
1772709374838582300,3.358582275390625,0.003996339626610279,0.008019310422241688,-0.002400839701294899
1772709374848607200,3.368607177734375,0.004135622642934322,0.008142082020640373,-0.0032139027025550604
1772709374858632400,3.378632568359375,0.003210440743714571,0.008509598672389984,-0.0026754115242511034
1772709374868656400,3.388656494140625,0.005054946057498455,0.007760983891785145,-0.0024644893128424883
1772709374878681300,3.398681396484375,0.0021526331547647715,0.007801463827490807,-0.002442651428282261
1772709374888706600,3.40870654296875,0.004038949962705374,0.007534082513302565,-0.0035510589368641376
1772709374898731500,3.4187314453125,0.0032061797101050615,0.008608934469521046,-0.005773467011749744
1772709374908756500,3.428756591796875,0.0019680759869515896,0.008297611027956009,-0.004039749037474394
1772709374918781200,3.43878125,0.004348143003880978,0.009913084097206593,-0.002380067016929388
1772709374928806400,3.448806396484375,0.005756688769906759,0.010088853538036346,-0.002216548891738057
1772709374938831400,3.458831298828125,0.00436119269579649,0.009163404814898968,-0.0007126618875190616
1772709374948856300,3.468856201171875,0.004216050263494253,0.009429986588656902,-0.001055943313986063
1772709374958880500,3.478880615234375,0.0030722226947546005,0.0073173013515770435,-0.00202240445651114
1772709374968905500,3.488905517578125,0.004746285732835531,0.008920524269342422,-0.0016168050933629274
1772709374978930400,3.498930419921875,0.005732986610382795,0.008161523379385471,-0.0020327907986938953
1772709374988955400,3.508955322265625,0.004674912896007299,0.006797718815505505,-0.0022365227341651917
1772709374998980400,3.51898046875,0.004551342222839594,0.007836084812879562,-0.0026841999497264624
1772709375009005300,3.52900537109375,0.0038165762089192867,0.00666402792558074,-0.00196408131159842
1772709375019030300,3.5390302734375,0.0037228327710181475,0.008418518118560314,-0.002686863299459219
1772709375029055200,3.54905517578125,0.00358781055547297,0.005373726598918438,-0.00367170013487339
1772709375039080400,3.55908056640625,0.0038860845379531384,0.006220878101885319,-0.003439738880842924
1772709375049105400,3.56910546875,0.00458649592474103,0.008845156989991665,-0.002394980750977993
1772709375059129600,3.579129638671875,0.004169711377471685,0.011077684350311756,-0.0019710054621100426
1772709375069154600,3.589154541015625,0.0022069616243243217,0.00962892547249794,-0.004244545940309763
1772709375079179300,3.59917919921875,0.005179049447178841,0.009218531660735607,-0.004778243601322174
1772709375089204200,3.609204345703125,0.003254116512835026,0.007889081723988056,-0.004253334365785122
1772709375099229400,3.6192294921875,0.0049063414335250854,0.00814847368746996,-0.002590989461168647
1772709375109254400,3.62925439453125,0.005447229836136103,0.009214537218213081,-0.001549959764815867
1772709375119279400,3.639279296875,0.004737497307360172,0.0062493737787008286,-0.002038117265328765
1772709375129304300,3.64930419921875,0.005870938766747713,0.006843524985015392,-0.00022770027862861753
1772709375139329500,3.65932958984375,0.0041529336012899876,0.00911679957062006,-0.002058623591437936
1772709375149354500,3.6693544921875,0.004718055948615074,0.009503756649792194,-0.0017712684348225594
1772709375159378200,3.679378173828125,0.003838414093479514,0.009125587530434132,-0.0016844493802636862
1772709375169403400,3.6894033203125,0.005014732480049133,0.007713313214480877,-0.004730306565761566
1772709375179428400,3.699428466796875,0.004710865672677755,0.008418784476816654,-0.0014716627774760127
1772709375189453300,3.709453369140625,0.002880208659917116,0.009877664037048817,-0.0013875069562345743
1772709375199478300,3.719478271484375,0.004858404863625765,0.007120493799448013,-0.0022426480427384377
1772709375209503500,3.72950341796875,0.002981142606586218,0.0075788237154483795,-0.0035308189690113068
1772709375219528400,3.739528564453125,0.004462126176804304,0.006637129932641983,-0.003897003596648574
1772709375229553400,3.749553466796875,0.0023395870812237263,0.008128766901791096,-0.003139334265142679
1772709375239578400,3.759578369140625,0.003037867834791541,0.007743939757347107,-0.004624579101800919
1772709375249603600,3.769603515625,0.003632285399362445,0.008244081400334835,-0.0026610305067151785
1772709375259627300,3.779627197265625,0.0037092508282512426,0.009277920238673687,-0.002689792774617672
1772709375269652700,3.78965283203125,0.003877029987052083,0.007906658574938774,-0.002767290687188506
1772709375279678000,3.799677978515625,0.004575577098876238,0.006185990758240223,-0.005197159014642239
1772709375289703000,3.809702880859375,0.003968642558902502,0.006298908498138189,-0.003111371072009206
1772709375299728000,3.819727783203125,0.004030427895486355,0.007072556763887405,-0.00032330775866284966
1772709375309752800,3.8297529296875,0.003707652911543846,0.008155664429068565,-0.0013731258222833276
1772709375319778000,3.839778076171875,0.0044227116741240025,0.006677876226603985,-0.0022354573011398315
1772709375329803000,3.849802978515625,0.0037955371662974358,0.007225688546895981,-0.0034320156555622816
1772709375339828000,3.859827880859375,0.0026703516487032175,0.006611297372728586,-0.0029403960797935724
1772709375349852000,3.869851806640625,0.004321777727454901,0.008139153011143208,-0.0011464908020570874
1772709375359876900,3.879876953125,0.004110322799533606,0.00660677021369338,-0.0034442662727087736
1772709375369901800,3.88990185546875,0.004090615548193455,0.00791384931653738,-0.0029084382113069296
1772709375379927000,3.899927001953125,0.0033076461404561996,0.007211840245872736,-0.0037888791412115097
1772709375389952000,3.909951904296875,0.0032408006954938173,0.007951400242745876,-0.0030027141328901052
1772709375399977000,3.91997705078125,0.00461712246760726,0.005958556663244963,-0.001955292886123061
1772709375410002000,3.930001953125,0.0051862397231161594,0.008205465972423553,-0.0006948187365196645
1772709375420027100,3.940027099609375,0.004510595928877592,0.008390022441744804,-0.003626959165558219
1772709375430052000,3.950052001953125,0.0030426615849137306,0.006292783189564943,-0.005289570428431034
1772709375440076800,3.960076904296875,0.003662645351141691,0.007191067561507225,-0.0057534934021532536
1772709375450101000,3.97010107421875,0.003894074121490121,0.006894924212247133,-0.0035779569298028946
1772709375460126000,3.9801259765625,0.005358280148357153,0.007794806268066168,-0.002133192028850317
1772709375470151000,3.99015087890625,0.004895422607660294,0.010006029158830643,-0.0024927188642323017
1772709375480175900,4.00017578125,0.003058906877413392,0.007222759071737528,-0.0012900352012366056
1772709375490201000,4.010201171875,0.0033047166652977467,0.006648581475019455,-0.0030061763245612383
1772709375500226000,4.02022607421875,0.005037102848291397,0.0070704263634979725,-0.004476241301745176
1772709375510251000,4.0302509765625,0.0027838023379445076,0.007346063386648893,-0.001383778522722423
1772709375520275700,4.040275634765625,0.004837365821003914,0.007122624199837446,-0.002055427758023143
1772709375530301000,4.050301025390625,0.003257578704506159,0.005784385837614536,-0.002192846732214093
1772709375540326000,4.060325927734375,0.0038903458043932915,0.006406234111636877,-0.0023704797495156527
1772709375550350800,4.070350830078125,0.003209908027201891,0.006383064668625593,-0.00395665830001235
1772709375560375000,4.080375,0.004674912896007299,0.004509264137595892,-0.004736165516078472
1772709375570400000,4.09039990234375,0.004027764778584242,0.0036940707359462976,-0.0018413095967844129
1772709375580425000,4.100425048828125,0.003216299694031477,0.007187871728092432,-0.002251702593639493
1772709375590450200,4.1104501953125,0.003945739474147558,0.008872587233781815,-0.0041609229519963264
1772709375600475000,4.120474853515625,0.003745469730347395,0.007784952409565449,-0.007242999039590359
1772709375610499800,4.130499755859375,0.0013960290234535933,0.0068155620247125626,-0.006643787957727909
1772709375620524800,4.14052490234375,0.0036661075428128242,0.008432366885244846,-0.0046328348107635975
1772709375630550000,4.150550048828125,0.0032748891972005367,0.007968444377183914,-0.0021662150975316763
1772709375640575000,4.160574951171875,0.004362790379673243,0.007616640534251928,-0.002426672261208296
1772709375650600000,4.170599853515625,0.004177700728178024,0.007083741948008537,-0.0035872780717909336
1772709375660624100,4.1806240234375,0.0035449336282908916,0.006324208807200193,-0.002329467097297311
1772709375670649000,4.190649169921875,0.00316063966602087,0.006716492120176554,-0.0010756507981568575
1772709375680673800,4.200673828125,0.00580888707190752,0.006360960192978382,-0.002070873975753784
1772709375690698800,4.21069873046875,0.0028668928425759077,0.006038185209035873,-0.004077565856277943
1772709375700724000,4.220723876953125,0.004197674337774515,0.005259210709482431,-0.0056712012737989426
1772709375710749000,4.2307490234375,0.002472478663548827,0.00552392890676856,-0.004062652122229338
1772709375720774000,4.24077392578125,0.004314321093261242,0.008710401132702827,-0.001284708851017058
1772709375730798800,4.250798828125,0.0024823325220495462,0.007366036996245384,-0.003334810258820653
1772709375740824000,4.260823974609375,0.002910568844527006,0.005839246790856123,-0.004199538845568895
1772709375750849000,4.27084912109375,0.0024024376180022955,0.005247758701443672,-0.005938849411904812
1772709375760873000,4.280873046875,0.0024591628462076187,0.004935103934258223,-0.005172391422092915
1772709375770898000,4.29089794921875,0.0032732912804931402,0.00717695290222764,-0.004601409658789635
1772709375780923000,4.3009228515625,0.0020516992080956697,0.006354568526148796,-0.005170261021703482
1772709375790947800,4.31094775390625,0.004664526786655188,0.006453904323279858,-0.003976366017013788
1772709375800973000,4.32097314453125,0.0028072381392121315,0.007704524789005518,-0.003602990647777915
1772709375810998000,4.330998046875,0.002960103563964367,0.006595051847398281,-0.004570783115923405
1772709375821023000,4.34102294921875,0.004643754102289677,0.007545001804828644,-0.004433364141732454
1772709375831048000,4.3510478515625,0.005054679699242115,0.0062187472358345985,-0.0015598133904859424
1772709375841073200,4.3610732421875,0.0038519962690770626,0.005618204362690449,-0.0023148194886744022
1772709375851097900,4.371097900390625,0.004049869254231453,0.006573746912181377,-0.0005768407136201859
1772709375861121800,4.381121826171875,0.003973170183598995,0.006614226847887039,-0.0030831415206193924
1772709375871147000,4.39114697265625,0.004348143003880978,0.007014233618974686,-0.004067978356033564
1772709375881172000,4.401171875,0.003492735791951418,0.00549356872215867,-0.004097007215023041
1772709375891197000,4.411197021484375,0.003932956140488386,0.005804093088954687,-0.0049343048594892025
1772709375901222000,4.421221923828125,0.004144943784922361,0.005123123060911894,-0.0034525219816714525
1772709375911247000,4.4312470703125,0.00281948852352798,0.006701045669615269,-0.0014868428697809577
1772709375921272000,4.44127197265625,0.002528671408072114,0.006068811286240816,-0.0029286781791597605
1772709375931296800,4.451296875,0.0038535939529538155,0.005527923349291086,-0.0036464000586420298
1772709375941321700,4.46132177734375,0.003972637467086315,0.007155381143093109,-0.004659466445446014
1772709375951347000,4.471346923828125,0.00281975488178432,0.006071208510547876,-0.004877046681940556
1772709375961371000,4.481370849609375,0.003578489413484931,0.006232862360775471,-0.00436065997928381
1772709375971396000,4.49139599609375,0.003921770956367254,0.005797435529530048,-0.004555337131023407
1772709375981421000,4.501421142578125,0.00364746549166739,0.006188920233398676,-0.004750546533614397
1772709375991446000,4.511446044921875,0.002965163439512253,0.007754592224955559,-0.002980876248329878
1772709376001471000,4.521470947265625,0.0036642432678490877,0.007509581744670868,-0.002923884429037571
1772709376011496000,4.531495849609375,0.0029587720055133104,0.008074704557657242,-0.0018969696247950196
1772709376021521000,4.54152099609375,0.004865595139563084,0.007289072033017874,-0.002812031889334321
1772709376031545900,4.5515458984375,0.0036341496743261814,0.004737497307360172,-0.004089816473424435
1772709376041570800,4.56157080078125,0.004099936690181494,0.005081044975668192,-0.003973968792706728
1772709376051595000,4.571594970703125,0.0037175065372139215,0.005542304366827011,-0.003263970138505101
1772709376061620000,4.581619873046875,0.0035814191214740276,0.005785717628896236,-0.0009683253592811525
1772709376071645000,4.59164501953125,0.003707120195031166,0.0060059609822928905,-0.0037936728913336992
1772709376081670100,4.601670166015625,0.002514556748792529,0.003584614722058177,-0.004067446105182171
1772709376091694800,4.61169482421875,0.0028636970091611147,0.0026261431630700827,-0.0076089175418019295
1772709376101719800,4.6217197265625,0.0020418455824255943,0.007111971732228994,-0.00632021389901638
1772709376111744800,4.631744873046875,0.003997404593974352,0.0070768180303275585,-0.0052205948159098625
1772709376121770000,4.64177001953125,0.003108441596850753,0.007333014160394669,-0.00436012726277113
1772709376131795000,4.651794921875,0.0022863238118588924,0.008976717479526997,-0.0057076867669820786
1772709376141820000,4.66181982421875,0.004597947467118502,0.007858987897634506,-0.005697034299373627
1772709376151844000,4.671843994140625,0.0027337349019944668,0.00624085171148181,-0.005768939387053251
1772709376161869000,4.681869140625,0.001651159836910665,0.005991579964756966,-0.0031824775505810976
1772709376171893800,4.691893798828125,0.004214984830468893,0.007277354132384062,-0.0027361316606402397
1772709376181919000,4.7019189453125,0.004203266929835081,0.005855225957930088,-0.0036424053832888603
1772709376191944000,4.71194384765625,0.003968642558902502,0.004841360729187727,-0.0035228293854743242
1772709376201969000,4.721968994140625,0.005143629387021065,0.005423794034868479,-0.0029577065724879503
1772709376211993900,4.731993896484375,0.0032679650466889143,0.008584965951740742,-0.003935087006539106
1772709376222019000,4.74201904296875,0.004036286845803261,0.008177235722541809,-0.003947070799767971
1772709376232044000,4.7520439453125,0.0036330842413008213,0.006154831498861313,-0.0054941014386713505
1772709376242068000,4.76206787109375,0.0034293525386601686,0.005342833697795868,-0.004583566449582577
1772709376252093000,4.772093017578125,0.0014942996203899384,0.0062666842713952065,-0.004224305972456932
1772709376262118000,4.782117919921875,0.0027499801944941282,0.007697600871324539,-0.003454119898378849
1772709376272142800,4.792142822265625,0.0025542378425598145,0.0054789213463664055,-0.004332962911576033
1772709376282167800,4.802167724609375,0.0025864620693027973,0.005387841258198023,-0.004482366610318422
1772709376292192800,4.81219287109375,0.0011579424608498812,0.006330333650112152,-0.005105812568217516
1772709376302217700,4.8222177734375,0.003126551164314151,0.007216633763164282,-0.004988899454474449
1772709376312242700,4.83224267578125,0.002686064224690199,0.006744455546140671,-0.005944442003965378
1772709376322267600,4.842267578125,0.0022210762836039066,0.007897071540355682,-0.004670917987823486
1772709376332292900,4.85229296875,0.001957423286512494,0.005375856999307871,-0.006475476082414389
1772709376342316800,4.86231689453125,0.002683134749531746,0.00541340745985508,-0.007336209993809462
1772709376352342000,4.872342041015625,0.0017904432024806738,0.005936718545854092,-0.004089017398655415
1772709376362367000,4.882366943359375,0.001907089608721435,0.006419549696147442,-0.0025592977181077003
1772709376372391700,4.8923916015625,0.003549461020156741,0.005730856209993362,-0.0018128136871382594
1772709376382416600,4.902416748046875,0.004165183752775192,0.005334577988833189,-0.002918558195233345
1772709376392441900,4.91244189453125,0.0032431974541395903,0.0070254188030958176,-0.005104214418679476
1772709376402466800,4.922466796875,0.001612544059753418,0.007466438226401806,-0.005075452383607626
1772709376412491800,4.93249169921875,0.003166232258081436,0.0062677497044205666,-0.002294047037139535
1772709376422516700,4.942516845703125,0.00321949552744627,0.00635030772536993,-0.0022591594606637955
1772709376432542000,4.9525419921875,0.0031438616570085287,0.007833954878151417,-0.0036932716611772776
1772709376442566000,4.96256591796875,0.003932157531380653,0.006302637048065662,-0.0034762241411954165
1772709376452590600,4.972590576171875,0.001014398061670363,0.0046845003962516785,-0.005517270881682634
1772709376462615800,4.98261572265625,0.002210423583164811,0.006503705866634846,-0.00433109886944294
1772709376472640800,4.992640869140625,0.002737196860834956,0.007762315683066845,-0.00436039362102747
1772709376482665700,5.002665771484375,0.00259418529458344,0.006628874223679304,-0.005630987696349621
1772709376492690700,5.012690673828125,0.002898318227380514,0.0055063520558178425,-0.005823268089443445
1772709376502716000,5.0227158203125,0.0052384380251169205,0.006836334243416786,-0.004689027555286884
1772709376512740900,5.032740966796875,0.0024434502702206373,0.009288307279348373,-0.003162770066410303
1772709376522765800,5.042765869140625,0.0038120488170534372,0.007954062893986702,-0.0036133769899606705
1772709376532790800,5.052790771484375,0.004055994097143412,0.00785739067941904,-0.0022594258189201355
1772709376542814700,5.062814697265625,0.004811000544577837,0.009127984754741192,-0.003308711340650916
1772709376552839700,5.072839599609375,0.0029411951545625925,0.006803844124078751,-0.0034179009962826967
1772709376562865000,5.082864990234375,0.004157460760325193,0.006411027628928423,-0.004004861693829298
1772709376572889900,5.092889892578125,0.004201136529445648,0.010135192424058914,-0.0020932445768266916
1772709376582914800,5.102914794921875,0.005501291714608669,0.00743101816624403,0.0018580874893814325
1772709376592939800,5.112939697265625,0.002764627570286393,0.008392153307795525,0.001958222361281514
1772709376602965000,5.122965087890625,0.005009139887988567,0.007842476479709148,-0.0024610271211713552
1772709376612990000,5.132989990234375,0.004538825247436762,0.005359079223126173,-0.00501073757186532
1772709376623015000,5.143014892578125,0.005425924435257912,0.0064837317913770676,-0.005651227664202452
1772709376633038800,5.153038818359375,0.004514058120548725,0.008021441288292408,-0.0017712684348225594
1772709376643063800,5.163063720703125,0.0054882424883544445,0.011662514880299568,0.000036485307646216825
1772709376653088800,5.1730888671875,0.00341603672131896,0.011501393280923367,-0.002466353354975581
1772709376663113700,5.18311376953125,0.004297010600566864,0.009043029509484768,-0.0054456316865980625
1772709376673139000,5.193138916015625,0.005752161610871553,0.007967911660671234,-0.0052078114822506905
1772709376683164000,5.203163818359375,0.004285026341676712,0.011437477543950081,-0.0004796353168785572
1772709376693188900,5.21318896484375,0.00512924836948514,0.010231864638626575,0.0007566040731035173
1772709376703213600,5.223213623046875,0.00526720006018877,0.006911169271916151,-0.0016431703697890043
1772709376713238800,5.23323876953125,0.004224039614200592,0.007446198258548975,-0.003968908917158842
1772709376723262700,5.2432626953125,0.004288754425942898,0.008695220574736595,-0.0012985573848709464
1772709376733288000,5.253287841796875,0.0036932716611772776,0.011255317367613316,-0.0006053365068510175
1772709376743313000,5.26331298828125,0.0041063278913497925,0.01044358592480421,-0.00333214714191854
1772709376753337900,5.273337890625,0.005537510849535465,0.008037952706217766,-0.003338272450491786
1772709376763362800,5.28336279296875,0.0037593182642012835,0.009101885370910168,-0.0038245655596256256
1772709376773388000,5.293387939453125,0.0046120621263980865,0.009316802956163883,-0.0018394453218206763
1772709376783412700,5.303412841796875,0.0023254721891134977,0.009365804493427277,-0.001868473831564188
1772709376793437700,5.313437744140625,0.002971288748085499,0.008550344966351986,-0.0037148434203118086
1772709376804087800,5.324087890625,0.0044317664578557014,0.007282946724444628,-0.005263737868517637
1772709376814113000,5.334113037109375,0.0033076461404561996,0.0062403189949691296,-0.0033577135764062405
1772709376824138000,5.344137939453125,0.003837881376966834,0.007237939164042473,-0.003742806613445282
1772709376834162700,5.35416259765625,0.0030570426024496555,0.00800093449652195,-0.003823766717687249
1772709376844187600,5.364187744140625,0.005227785091847181,0.007890946231782436,-0.0028818065766245127
1772709376854212900,5.374212890625,0.002074069809168577,0.008195078931748867,-0.0038061898667365313
1772709376864237800,5.38423779296875,0.004312456585466862,0.007932225242257118,-0.004447478801012039
1772709376874262800,5.3942626953125,0.004770254250615835,0.007355917245149612,-0.003322559641674161
1772709376884287000,5.404286865234375,0.005315669346600771,0.0082704471424222,-0.0009912285022437572
1772709376894312000,5.41431201171875,0.004335892386734486,0.00914476253092289,-0.001961684552952647
1772709376904336600,5.424336669921875,0.004293548408895731,0.008774583227932453,-0.0012476909905672073
1772709376914361600,5.434361572265625,0.0038892803713679314,0.010278736241161823,-0.0008892294717952609
1772709376924386800,5.44438671875,0.0037358824629336596,0.007444334216415882,-0.0017832526937127113
1772709376934411800,5.454411865234375,0.003573695896193385,0.008068845607340336,-0.0034703651908785105
1772709376944436700,5.464436767578125,0.002299373270943761,0.008952216245234013,-0.003638677066192031
1772709376954461700,5.474461669921875,0.003796602366492152,0.008823319338262081,-0.0023254721891134977
1772709376964487000,5.48448681640625,0.003832821501418948,0.0072896042838692665,-0.0026996464002877474
1772709376974510800,5.4945107421875,0.004817924462258816,0.006729275453835726,-0.0023190807551145554
1772709376984535800,5.504535888671875,0.003195793367922306,0.008127435110509396,-0.003579288488253951
1772709376994560800,5.514560791015625,0.003763312939554453,0.007715710438787937,-0.002377670258283615
1772709377004585700,5.524585693359375,0.0032003207597881556,0.0073428675532341,-0.004343083128333092
1772709377014610700,5.534610595703125,0.0034133736044168472,0.008810802362859249,-0.004984905011951923
1772709377024636000,5.544635986328125,0.003626160090789199,0.0075548551976680756,-0.00367143377661705
1772709377034660900,5.554660888671875,0.003722300287336111,0.006718622520565987,-0.005019259639084339
1772709377044685800,5.564685791015625,0.004884770140051842,0.009357549250125885,-0.0028240159153938293
1772709377054710800,5.574710693359375,0.0013845774810761213,0.008922655135393143,-0.002695119008421898
1772709377064734700,5.584734619140625,0.003950532991439104,0.010237723588943481,-0.0025776736438274384
1772709377074759700,5.594759765625,0.004260525107383728,0.009148490615189075,-0.0018431737553328276
1772709377084784600,5.60478466796875,0.004851746838539839,0.006337524391710758,-0.004792890977114439
1772709377094809900,5.614809814453125,0.0044075315818190575,0.006770554464310408,-0.00327275856398046
1772709377104834800,5.624834716796875,0.004503937903791666,0.008874451741576195,-0.002367816399782896
1772709377114859800,5.63485986328125,0.004777444526553154,0.008824650198221207,-0.0016847157385200262
1772709377124884700,5.644884765625,0.005465871654450893,0.009017197415232658,-0.0021521004382520914
1772709377134910000,5.654909912109375,0.00432976707816124,0.007482950109988451,-0.002317216480150819
1772709377144935000,5.664934814453125,0.003951598424464464,0.006366552785038948,-0.0025752766523510218
1772709377164358000,5.68435791015625,0.004449876025319099,0.00638013519346714,-0.002246376359835267
1772709377174382800,5.6943828125,0.005073321983218193,0.007299458142369986,-0.0016679377295076847
1772709377184407800,5.70440771484375,0.0033694314770400524,0.010940265841782093,-0.0041587925516068935
1772709377194432800,5.714432861328125,0.002754773711785674,0.008758870884776115,-0.007045392412692308
1772709377204457700,5.724457763671875,0.002406165935099125,0.007844607345759869,-0.006687197368592024
1772709377214482700,5.734482666015625,0.004208060912787914,0.009075254201889038,-0.0035055188927799463
1772709377224508000,5.7445078125,0.0044320328161120415,0.00914715975522995,-0.0013190637109801173
1772709377234532900,5.754532958984375,0.005652026738971472,0.009693640284240246,-0.0037020600866526365
1772709377244556800,5.764556884765625,0.0038895467296242714,0.0073380740359425545,-0.0025150892324745655
1772709377254582000,5.77458203125,0.0046967510133981705,0.007366303354501724,-0.002281796419993043
1772709377264606700,5.784606689453125,0.002785400254651904,0.008329834789037704,-0.0008625978953205049
1772709377274631700,5.794631591796875,0.004098072182387114,0.00956927053630352,-0.001627191435545683
1772709377284656600,5.80465673828125,0.004333495628088713,0.009411078877747059,-0.0034171019215136766
1772709377294681600,5.814681640625,0.0037204360123723745,0.008465922437608242,-0.0035329493694007397
1772709377304706600,5.82470654296875,0.0031795480754226446,0.007991081103682518,-0.0051476238295435905
1772709377314731500,5.8347314453125,0.003409378696233034,0.008893626742064953,-0.0006854976527392864
1772709377324756700,5.8447568359375,0.003034405643120408,0.007425691932439804,-0.0028274781070649624
1772709377334781700,5.85478173828125,0.0024921861477196217,0.0068901302292943,-0.004723116289824247
1772709377344805600,5.8648056640625,0.0010655306978151202,0.007568437606096268,-0.004972121678292751
1772709377354830800,5.874830810546875,0.0038432078436017036,0.0073473951779305935,-0.0037713022902607918
1772709377364855600,5.88485546875,0.0024607607629150152,0.007706922013312578,-0.002254632068797946
1772709377374880500,5.894880615234375,0.005151618737727404,0.006654440425336361,-0.0024796691723167896
1772709377384905500,5.904905517578125,0.005103415343910456,0.009339972399175167,-0.0049468218348920345
1772709377394930700,5.9149306640625,0.0034549187403172255,0.0073290192522108555,-0.0029057750944048166
1772709377404955600,5.92495556640625,0.0041497377678751945,0.004738296382129192,-0.004707403481006622
1772709377414980600,5.934980712890625,0.005242965184152126,0.006317284423857927,-0.0030834078788757324
1772709377425005600,5.945005615234375,0.005321528296917677,0.009585781954228878,-0.0017499631503596902
1772709377435029800,5.95502978515625,0.0033390712924301624,0.007286142557859421,-0.0009882990270853043
1772709377445054500,5.965054443359375,0.0034999263007193804,0.007795604877173901,-0.0008639294537715614
1772709377455079700,5.97507958984375,0.0035625104792416096,0.0067814732901751995,-0.003945739474147558
1772709377465104600,5.985104736328125,0.0032296155113726854,0.007925300858914852,-0.0026905916165560484
1772709377475129600,5.995129638671875,0.0037143107037991285,0.00723634148016572,-0.0014271880500018597
1772709377485154600,6.005154541015625,0.004540423396974802,0.006375607568770647,-0.0026051041204482317
1772709377495179800,6.0151796875,0.0038330876268446445,0.006660565733909607,-0.004585164599120617
1772709377505204700,6.025204833984375,0.0031337416730821133,0.006923419889062643,-0.0032386700622737408
1772709377515229700,6.035229736328125,0.0027595674619078636,0.007712248247116804,-0.002385659608989954
1772709377525254700,6.045254638671875,0.004203000571578741,0.0070943948812782764,-0.003312173532322049
1772709377535278600,6.055278564453125,0.003337739733979106,0.008533034473657608,-0.0027324033435434103
1772709377545303600,6.065303466796875,0.00529463030397892,0.0068238177336752415,-0.002427737694233656
1772709377555328500,6.07532861328125,0.0035537220537662506,0.006474144756793976,-0.004538825247436762
1772709377565353700,6.085353759765625,0.005104480776935816,0.005856291390955448,-0.005595833994448185
1772709377575378700,6.095378662109375,0.0041212416253983974,0.007527690846472979,-0.002144377212971449
1772709377585403600,6.105403564453125,0.00401737866923213,0.009006012231111526,-0.0018469021888449788
1772709377595428600,6.1154287109375,0.005323126446455717,0.0086590014398098,-0.00130920996889472
1772709377605453800,6.125453857421875,0.003691940102726221,0.006542587652802467,0.00028043086058460176
1772709377615478800,6.135478759765625,0.002758768619969487,0.0072840116918087006,-0.0019121496006846428
1772709377625503500,6.14550341796875,0.0027680895291268826,0.004189684987068176,-0.005396629683673382
1772709377635527700,6.155527587890625,0.0034522556234151125,0.0073684342205524445,-0.002243979601189494
1772709377645552600,6.165552734375,0.002980343531817198,0.007707187905907631,-0.0021262678783386946
1772709377655577600,6.17557763671875,0.0031012510880827904,0.007994011044502258,-0.0022234732750803232
1772709377665602600,6.1856025390625,0.0041129859164357185,0.007049920037388802,-0.00021491710504051298
1772709377675627800,6.195627685546875,0.003082076320424676,0.0057010287418961525,-0.0035297537688165903
1772709377685652700,6.20565283203125,0.002657035831362009,0.004965996369719505,-0.0034551850985735655
1772709377695677700,6.215677734375,0.003805657150223851,0.005034173373132944,-0.00392842898145318
1772709377705702700,6.22570263671875,0.0031822111923247576,0.005532450973987579,-0.000011185276889591478
1772709377715727600,6.2357275390625,0.004822984803467989,0.007229150738567114,-0.002261023735627532
1772709377725751600,6.24575146484375,0.0033598439767956734,0.010177802294492722,-0.0048887645825743675
1772709377735776800,6.25577685546875,0.0024224112275987864,0.008074171841144562,-0.006317018065601587
1772709377745801700,6.2658017578125,0.004463724326342344,0.0083673857152462,-0.007931426167488098
1772709377755826700,6.27582666015625,0.0026988473255187273,0.007785751484334469,-0.0034048515371978283
1772709377765851600,6.2858515625,0.004296211525797844,0.00872131995856762,-0.0019326560432091355
1772709377775876900,6.295876953125,0.0036847495939582586,0.007237140089273453,-0.003933222498744726
1772709377785901600,6.305901611328125,0.0027326694689691067,0.005592904519289732,-0.003662378992885351
1772709377795926500,6.315926513671875,0.004731904715299606,0.008085889741778374,-0.0018764632986858487
1772709377805951500,6.325951416015625,0.0041121868416666985,0.007576959673315287,-0.0023816649336367846
1772709377815975700,6.3359755859375,0.004805407952517271,0.008949019946157932,-0.0024549018125981092
1772709377826000600,6.346000732421875,0.0031065773218870163,0.007561513222754002,-0.0036330842413008213
1772709377836025600,6.356025634765625,0.0032831449061632156,0.006954578682780266,-0.0040887510403990746
1772709377846050800,6.36605078125,0.004394215997308493,0.009017197415232658,-0.0028061727061867714
1772709377856075500,6.376075439453125,0.00336197461001575,0.007801197934895754,-0.0027049726340919733
1772709377866100500,6.3861005859375,0.0037800907157361507,0.005152950529009104,-0.005179315805435181
1772709377876125700,6.396125732421875,0.0038900794461369514,0.006404635962098837,-0.004156395327299833
1772709377886150700,6.406150634765625,0.0035055188927799463,0.006256031803786755,-0.004851746838539839
1772709377896175600,6.416175537109375,0.0017542241839691997,0.006292783189564943,-0.005077050067484379
1772709377906200600,6.42620068359375,0.0030485205352306366,0.005736448802053928,-0.004565190523862839
1772709377916224800,6.436224853515625,0.0027712853625416756,0.006761766038835049,-0.004186222795397043
1772709377926249700,6.446249755859375,0.0035393410362303257,0.006653641816228628,-0.0027214842848479748
1772709377936274400,6.4562744140625,0.004048803821206093,0.006898119580000639,-0.002109223511070013
1772709377946299600,6.466299560546875,0.004117247182875872,0.0046120621263980865,-0.0031425300985574722
1772709377956324600,6.47632470703125,0.0032503881957381964,0.0065383268520236015,-0.002635730430483818
1772709377966349600,6.486349609375,0.005276254843920469,0.007107177749276161,-0.003596865339204669
1772709377976374500,6.49637451171875,0.003278883872553706,0.006701578386127949,-0.0015795208746567369
1772709377986399700,6.506399658203125,0.003662112867459655,0.006030461750924587,-0.0026841999497264624
1772709377996424700,6.5164248046875,0.00507065886631608,0.005160939879715443,-0.004352137912064791
1772709378006448600,6.52644873046875,0.004058657679706812,0.006138053722679615,-0.003540406236425042
1772709378016473600,6.5364736328125,0.003777693957090378,0.007869907654821873,-0.0031281490810215473
1772709378026498600,6.54649853515625,0.002302036387845874,0.006411027628928423,-0.0038482677191495895
1772709378036523500,6.5565234375,0.0033486587926745415,0.006505303550511599,-0.0029915287159383297
1772709378046548500,6.566548583984375,0.003261040663346648,0.006696784868836403,-0.00373135507106781
1772709378056573700,6.57657373046875,0.0034732946660369635,0.005828327964991331,-0.003385144053027034
1772709378066598700,6.5865986328125,0.003041330026462674,0.006432599388062954,-0.002977946773171425
1772709378076623600,6.59662353515625,0.0033214944414794445,0.006620618514716625,-0.003900199430063367
1772709378086648600,6.606648681640625,0.002270611235871911,0.006347644608467817,-0.004298874642699957
1772709378096673800,6.616673828125,0.00210682675242424,0.005307413637638092,-0.005351089406758547
1772709378106697500,6.626697509765625,0.002681004349142313,0.0037321539130061865,-0.0048975530080497265
1772709378116722700,6.63672265625,0.002928145695477724,0.005917810369282961,-0.003653058083727956
1772709378126747600,6.64674755859375,0.004110322799533606,0.007383347954601049,-0.00415399856865406
1772709378136772600,6.656772705078125,0.002951048780232668,0.007634750101715326,-0.0028245486319065094
1772709378146797600,6.666797607421875,0.003989681601524353,0.007626494392752647,-0.0028152274899184704
1772709378156822800,6.67682275390625,0.0037646444980055094,0.006985737942159176,-0.00210735946893692
1772709378166847700,6.68684765625,0.0016935041639953852,0.006000368390232325,-0.003406715579330921
1772709378176872700,6.696872802734375,0.0028964539524167776,0.005905293393880129,-0.003605387406423688
1772709378186897700,6.706897705078125,0.0032647692132741213,0.004996090196073055,-0.0013941648649051785
1772709378196922600,6.716922607421875,0.00130894361063838,0.006323676090687513,-0.0017044231062754989
1772709378206946600,6.726946533203125,0.003154514357447624,0.005975867155939341,-0.0022354573011398315
1772709378216971500,6.736971435546875,0.0018311894964426756,0.0062762717716395855,-0.0017973673529922962
1772709378226996700,6.746996826171875,0.0036011263728141785,0.005300223361700773,-0.004732703324407339
1772709378237021700,6.757021728515625,0.0026200178544968367,0.0046269758604466915,-0.005160140804946423
1772709378247046700,6.767046630859375,0.003992611076682806,0.00509888818487525,-0.007192398887127638
1772709378257071600,6.777071533203125,0.0035808864049613476,0.006052566226571798,-0.003885552054271102
1772709378267096800,6.787096923828125,0.0032956618815660477,0.009839048609137535,-0.0021291973534971476
1772709378277122000,6.7971220703125,0.0011861718958243728,0.010096842423081398,-0.0067692226730287075
1772709378287147000,6.80714697265625,0.0033478597179055214,0.007479754276573658,-0.006963899824768305
1772709378297171000,6.8171708984375,0.004062918480485678,0.006583600305020809,-0.005574794951826334
1772709378307196000,6.82719580078125,0.00437956815585494,0.006321545224636793,-0.00236302288249135
1772709378317220900,6.837220947265625,0.0029755497816950083,0.008184426464140415,-0.0033875408116728067
1772709378327245800,6.847245849609375,0.0025931198615580797,0.007134075742214918,-0.0034226945135742426
1772709378337271000,6.85727099609375,0.0023015039041638374,0.00586641114205122,-0.0035518580116331577
1772709378347296000,6.8672958984375,0.0018722022650763392,0.0046445527113974094,-0.0024828650057315826
1772709378357321000,6.877321044921875,0.0034149715211242437,0.008006793446838856,-0.0023278691805899143
1772709378367346200,6.88734619140625,0.0035547874867916107,0.00830799713730812,-0.005124454386532307
1772709378377371000,6.897370849609375,0.004516987595707178,0.006736998446285725,-0.005564941558986902
1772709378387395800,6.907395751953125,0.004576642066240311,0.004403803031891584,-0.0037294907961040735
1772709378397420000,6.917419921875,0.001424791174940765,0.0080296965315938,-0.0034416031558066607
1772709378407445000,6.927445068359375,0.0021702100057154894,0.007406251039355993,-0.003704723436385393
1772709378417470000,6.937469970703125,0.003385144053027034,0.005768406670540571,-0.004318848252296448
1772709378427495000,6.947494873046875,0.0031704932916909456,0.006135390605777502,-0.0054155378602445126
1772709378437520100,6.95752001953125,0.0022652847692370415,0.006493585649877787,-0.005055478774011135
1772709378447545000,6.967545166015625,0.002055427758023143,0.008409996517002583,-0.005166798830032349
1772709378457569800,6.97756982421875,0.003623230615630746,0.006072007119655609,-0.0044109937734901905
1772709378467594800,6.9875947265625,0.0030040456913411617,0.007924235425889492,-0.0034495925065129995
1772709378477620000,6.997619873046875,0.0028871328104287386,0.006388657260686159,-0.0020029633305966854
1772709378487644000,7.007643798828125,0.0033270870335400105,0.007044061087071896,-0.0023763386998325586
1772709378497668900,7.0176689453125,0.0021086910273879766,0.0062544336542487144,-0.004555869847536087
1772709378507694000,7.027694091796875,0.004072772338986397,0.00717482203617692,-0.003680754918605089
1772709378517719000,7.037718994140625,0.005337773822247982,0.006640059407800436,-0.0015283881220966578
1772709378527743700,7.04774365234375,0.003774764481931925,0.006665891967713833,-0.0028415927663445473
1772709378537769000,7.05776904296875,0.0032708945218473673,0.007273092865943909,-0.003640541108325124
1772709378547794000,7.0677939453125,0.0041193775832653046,0.006206230726093054,-0.00339126936160028
1772709378557819000,7.07781884765625,0.002813895931467414,0.005845372099429369,-0.003707652911543846
1772709378567843800,7.08784375,0.005028314422816038,0.005870406050235033,-0.0024924525059759617
1772709378577869000,7.097869140625,0.0028732845094054937,0.007715177722275257,-0.0035782232880592346
1772709378587893000,7.10789306640625,0.0030338731594383717,0.005663744639605284,-0.002626675646752119
1772709378597918000,7.11791796875,0.004465854726731777,0.004804076161235571,-0.00447038235142827
1772709378607943000,7.12794287109375,0.0031289479229599237,0.006983873434364796,-0.004504470620304346
1772709378617967900,7.1379677734375,0.0027204190846532583,0.006846188101917505,-0.005001682788133621
1772709378627992800,7.147992919921875,0.00216568261384964,0.008472314104437828,-0.003912183456122875
1772709378638017800,7.158017822265625,0.002525475574657321,0.007269364316016436,-0.0062246061861515045
1772709378648043000,7.16804296875,0.0035451999865472317,0.007985488511621952,-0.006333529483526945
1772709378658068000,7.17806787109375,0.003640541108325124,0.008096009492874146,-0.00392709719017148
1772709378668093000,7.188093017578125,0.004252003040164709,0.008205199614167213,-0.004204598721116781
1772709378678118000,7.198117919921875,0.0034764904994517565,0.007818507961928844,-0.0018490327056497335
1772709378688141800,7.208141845703125,0.003978230059146881,0.00923504400998354,-0.0029878003988415003
1772709378698166800,7.218166748046875,0.005856557283550501,0.009300291538238525,-0.0021781993564218283
1772709378708191700,7.228191650390625,0.004133225884288549,0.007228618022054434,-0.0030778152868151665
1772709378718217000,7.238217041015625,0.0036213663406670094,0.004995823837816715,-0.002639192622154951
1772709378728242000,7.248241943359375,0.004032026045024395,0.007731689140200615,-0.001347293145954609
1772709378738267000,7.258266845703125,0.005780124571174383,0.008111721836030483,0.0014231932582333684
1772709378748292000,7.2682919921875,0.0028794098179787397,0.0064983791671693325,0.002499110298231244
1772709378758317000,7.278317138671875,0.005736448802053928,0.0076126460917294025,-0.0024743429385125637
1772709378768342000,7.288342041015625,0.0022357236593961716,0.005474127363413572,-0.00555269094184041
1772709378778367000,7.298366943359375,0.005008607171475887,0.005386509466916323,-0.0071005201898515224
1772709378788391000,7.308390869140625,0.003337473375722766,0.009037703275680542,-0.0030594393610954285
1772709378798416000,7.318415771484375,0.005203816574066877,0.00845580268651247,-0.00014887070574332029
1772709378808440800,7.32844091796875,0.004289287142455578,0.009242500178515911,-0.0020599551498889923
1772709378818466000,7.338466064453125,0.0036365464329719543,0.008839830756187439,-0.004857339430600405
1772709378828491000,7.348490966796875,0.0036719664931297302,0.008688030764460564,-0.006258694920688868
1772709378838516000,7.358515869140625,0.004606735892593861,0.010491789318621159,-0.003067428944632411
1772709378848541000,7.368541015625,0.0046421559527516365,0.010349576361477375,0.0012713931500911713
1772709378858566100,7.378566162109375,0.0044203149154782295,0.008851282298564911,0.0005036037764512002
1772709378868590800,7.3885908203125,0.005161472596228123,0.004479969386011362,-0.0016615461790934205
1772709378878615800,7.39861572265625,0.004817125853151083,0.006630206014961004,-0.00279046013019979
1772709378888640000,7.408639892578125,0.0036783581599593163,0.010073672980070114,-0.0026730147656053305
1772709378898665000,7.4186650390625,0.004423776641488075,0.010174074210226536,-0.0028093685396015644
1772709378908690000,7.42868994140625,0.005185174755752087,0.00890614278614521,-0.004265851341187954
1772709378918715000,7.43871484375,0.002246110001578927,0.008245413191616535,-0.0049311090260744095
1772709378928740000,7.448739990234375,0.004314321093261242,0.0075780246406793594,-0.004748948849737644
1772709378938765000,7.45876513671875,0.004013650119304657,0.009699765592813492,-0.0020013656467199326
1772709378948789800,7.468789794921875,0.0043801008723676205,0.009610549546778202,-0.001050617080181837
1772709378958815000,7.47881494140625,0.0024676851462572813,0.006845921743661165,-0.0030120352748781443
1772709378968840000,7.48883984375,0.0030131004750728607,0.007527690846472979,-0.0038549257442355156
1772709378978863900,7.49886376953125,0.002454102970659733,0.007665376644581556,-0.0032746228389441967
1772709378988889000,7.50888916015625,0.004012584686279297,0.008524245582520962,-0.0016053534345701337
1772709378998914000,7.5189140625,0.004632302559912205,0.009543703868985176,-0.0019955066964030266
1772709379008939000,7.52893896484375,0.00387303507886827,0.00869175884872675,-0.001329982653260231
1772709379018964000,7.5389638671875,0.005058674607425928,0.00891040451824665,-0.0026937874499708414
1772709379028989000,7.548989013671875,0.003428287338465452,0.006106628105044365,-0.0038663772866129875
1772709379039014000,7.559013916015625,0.004875981714576483,0.006886135786771774,-0.002129463478922844
1772709379049038800,7.569038818359375,0.004471180960536003,0.009341037832200527,-0.0007313040550798178
1772709379059063800,7.579063720703125,0.005717007908970118,0.008810802362859249,-0.0005001416429877281
1772709379069089000,7.589089111328125,0.004917793441563845,0.0068206219002604485,-0.0010239854454994202
1772709379079113000,7.599113037109375,0.004460528492927551,0.008643022738397121,-0.002837864449247718
1772709379089138000,7.609137939453125,0.003179814200848341,0.008074704557657242,-0.0033372072502970695
1772709379099163000,7.619162841796875,0.002913498319685459,0.009191367775201797,-0.0023635553661733866
1772709379109187800,7.629187744140625,0.003640807466581464,0.0076150428503751755,-0.0018777948571369052
1772709379119212800,7.639212890625,0.004686098080128431,0.008415322750806808,-0.0021499700378626585
1772709379129238000,7.649238037109375,0.002668221015483141,0.008727711625397205,-0.00270736962556839
1772709379139263000,7.659262939453125,0.003786748740822077,0.006762298755347729,-0.0032621060963720083
1772709379149288000,7.669287841796875,0.004859736189246178,0.007318633142858744,-0.0035574506036937237
1772709379159313000,7.67931298828125,0.0034876756835728884,0.00637906976044178,-0.003022687742486596
1772709379169337000,7.689337158203125,0.0033920682035386562,0.006055229343473911,-0.0029108349699527025
1772709379179361800,7.69936181640625,0.0032525185961276293,0.008129565045237541,-0.0034996599424630404
1772709379189386800,7.70938671875,0.004515389446169138,0.007937018759548664,-0.003209375310689211
1772709379199412000,7.719411865234375,0.0032690302468836308,0.007048055995255709,-0.0022975089959800243
1772709379209437000,7.72943701171875,0.005147890187799931,0.009489641524851322,-0.0036658411845564842
1772709379219462000,7.7394619140625,0.004254399798810482,0.007714645005762577,-0.001413073274306953
1772709379229486800,7.74948681640625,0.004531368613243103,0.00827657151967287,-0.0031318773981183767
1772709379239512000,7.759511962890625,0.005548962391912937,0.006977215874940157,-0.0008905610884539783
1772709379249537000,7.769537109375,0.0032985913567245007,0.007994011044502258,-0.0018050905782729387
1772709379259560700,7.779560791015625,0.0027712853625416756,0.006415288895368576,-0.0023254721891134977
1772709379269585400,7.78958544921875,0.0028357338160276413,0.005505020264536142,-0.0036970002111047506
1772709379279610000,7.799610107421875,0.0033963292371481657,0.009226521477103233,-0.0019590212032198906
1772709379289635000,7.809635009765625,0.0016620787791907787,0.008410529233515263,-0.00022690132027491927
1772709379299660300,7.819660400390625,0.003875964554026723,0.0073383403941988945,-0.0025121597573161125
1772709379309685200,7.829685302734375,0.002930009737610817,0.007927431724965572,-0.0010863033821806312
1772709379319710200,7.839710205078125,0.004024036228656769,0.0070981234312057495,-0.0041010016575455666
1772709379329735200,7.849735107421875,0.003847468877211213,0.005354018881917,-0.00652660895138979
1772709379339760400,7.859760498046875,0.004085821565240622,0.006345780100673437,-0.003540938952937722
1772709379349785300,7.869785400390625,0.00472418125718832,0.010348244570195675,-0.0018050905782729387
1772709379359809300,7.879809326171875,0.0034171019215136766,0.009362342767417431,-0.0028330706991255283
1772709379369834200,7.889834228515625,0.0035238948184996843,0.009130913764238358,-0.004994758404791355
1772709379379859200,7.899859130859375,0.004241084214299917,0.008532501757144928,-0.0067692226730287075
1772709379389884200,7.90988427734375,0.003748665563762188,0.009637713432312012,-0.004343615844845772
1772709379399909400,7.919909423828125,0.005544967483729124,0.009949835948646069,0.0008615325787104666
1772709379409934300,7.929934326171875,0.0046211169101297855,0.019117236137390137,0.018982212990522385
1772709379419959300,7.939959228515625,0.005678125657141209,0.022275211289525032,0.033243175595998764
1772709379429984300,7.949984375,0.005203816574066877,0.025718413293361664,0.04143984988331795
1772709379440009500,7.960009521484375,0.0046208505518734455,0.015840215608477592,0.031014109030365944
1772709379450034400,7.970034423828125,0.004312722943723202,0.00941933412104845,0.014333931729197502
1772709379460058000,7.98005810546875,0.0020426444243639708,0.01158688124269247,0.0016564861871302128
1772709379470083300,7.990083251953125,0.0005693838465958834,0.01017061248421669,-0.010100571438670158
1772709379480108300,8.0001083984375,0.000743554555810988,-0.0041609229519963264,-0.02329600229859352
1772709379490133200,8.01013330078125,0.0016932378057390451,-0.008885104209184647,-0.03549514338374138
1772709379500158200,8.020158203125,0.0032738239970058203,-0.006253368686884642,-0.04406945779919624
1772709379510183400,8.030183349609375,0.006074936594814062,0.0007752461824566126,-0.045942191034555435
1772709379520208400,8.04020849609375,0.002575809368863702,0.014488128945231438,-0.029679331928491592
1772709379530233300,8.0502333984375,0.00446851784363389,0.011485680937767029,0.005120459944009781
1772709379540258000,8.060258056640626,0.004323641769587994,-0.00043356261448934674,0.01756940595805645
