time,seconds_elapsed,z,y,x
1772709060969734700,0.052734619140625,-1.0515899658203125,-0.2413787841796875,0.348052978515625
1772709060979759600,0.062759521484375,-1.0352935791015625,-0.2657318115234375,0.3654327392578125
1772709060989785600,0.07278564453125,-1.007904052734375,-0.2781829833984375,0.3560638427734375
1772709060999810800,0.082810791015625,-0.9809417724609375,-0.2920684814453125,0.318756103515625
1772709061009835500,0.09283544921875,-0.945098876953125,-0.3155670166015625,0.29388427734375
1772709061019860500,0.102860595703125,-0.891357421875,-0.3350372314453125,0.2688140869140625
1772709061029885400,0.112885498046875,-0.83282470703125,-0.331695556640625,0.2280120849609375
1772709061039910700,0.12291064453125,-0.8032684326171875,-0.30413818359375,0.194183349609375
1772709061049935600,0.132935546875,-0.796417236328125,-0.3113861083984375,0.1590728759765625
1772709061059961600,0.142961669921875,-0.794158935546875,-0.342254638671875,0.129425048828125
1772709061069986600,0.152986572265625,-0.755889892578125,-0.342559814453125,0.1059112548828125
1772709061080011500,0.163011474609375,-0.67999267578125,-0.3109130859375,0.1089019775390625
1772709061090036700,0.17303662109375,-0.6123046875,-0.266265869140625,0.125091552734375
1772709061100061700,0.183061767578125,-0.566864013671875,-0.2398834228515625,0.152557373046875
1772709061110086700,0.193086669921875,-0.539093017578125,-0.240386962890625,0.1786041259765625
1772709061120111400,0.203111328125,-0.5440521240234375,-0.27764892578125,0.2022247314453125
1772709061130137600,0.2131376953125,-0.5794677734375,-0.3301544189453125,0.21063232421875
1772709061140162600,0.22316259765625,-0.6255035400390625,-0.3715057373046875,0.2196807861328125
1772709061150187500,0.2331875,-0.69757080078125,-0.39801025390625,0.250946044921875
1772709061160212500,0.24321240234375,-0.800140380859375,-0.424652099609375,0.3174591064453125
1772709061170237400,0.253237548828125,-0.9638519287109375,-0.4803314208984375,0.39324951171875
1772709061180262700,0.2632626953125,-1.1071014404296875,-0.546661376953125,0.42962646484375
1772709061190287600,0.27328759765625,-1.168548583984375,-0.566741943359375,0.39959716796875
1772709061200312600,0.2833125,-1.215545654296875,-0.5690155029296875,0.3327789306640625
1772709061210338600,0.293338623046875,-1.169891357421875,-0.566009521484375,0.26116943359375
1772709061220363500,0.303363525390625,-1.1320343017578125,-0.5403900146484375,0.4094085693359375
1772709061230388700,0.313388671875,-1.190338134765625,-0.65155029296875,0.592529296875
1772709061240413700,0.32341357421875,-1.24560546875,-0.7617034912109375,0.729461669921875
1772709061250438700,0.333438720703125,-1.2478790283203125,-0.807373046875,0.7546844482421875
1772709061260463400,0.34346337890625,-1.1666717529296875,-0.724365234375,0.671600341796875
1772709061270488600,0.353488525390625,-1.1466522216796875,-0.6676025390625,0.579437255859375
1772709061280514600,0.3635146484375,-1.270355224609375,-0.7943572998046875,0.54150390625
1772709061290539500,0.37353955078125,-1.3701324462890625,-0.8551788330078125,0.5257720947265625
1772709061300564500,0.383564453125,-1.5506744384765625,-0.8805389404296875,0.60577392578125
1772709061310589400,0.39358935546875,-1.7951202392578125,-0.970672607421875,0.74462890625
1772709061320614700,0.40361474609375,-1.904327392578125,-0.9819793701171875,0.59173583984375
1772709061330639600,0.4136396484375,-1.802947998046875,-0.9467010498046875,0.3032684326171875
1772709061340664600,0.42366455078125,-1.6168060302734375,-1.01104736328125,0.207183837890625
1772709061350690600,0.433690673828125,-1.452484130859375,-0.9799041748046875,0.05816650390625
1772709061360715500,0.443715576171875,-1.3128509521484375,-0.896270751953125,-0.0489654541015625
1772709061370740700,0.45374072265625,-1.23785400390625,-0.73162841796875,0.04437255859375
1772709061380765700,0.463765625,-0.664154052734375,-0.5792999267578125,0.12689208984375
1772709061390790700,0.473790771484375,-0.350250244140625,-0.45550537109375,0.182373046875
1772709061400815400,0.4838154296875,-0.323211669921875,-0.2787322998046875,0.1662139892578125
1772709061410840600,0.493840576171875,-0.3005218505859375,-0.1922149658203125,0.136871337890625
1772709061420866600,0.503866455078125,-0.4095001220703125,-0.3269195556640625,0.244903564453125
1772709061430891500,0.5138916015625,-0.664581298828125,-0.51910400390625,0.303558349609375
1772709061440916500,0.52391650390625,-0.8581085205078125,-0.6019134521484375,0.3020782470703125
1772709061450941400,0.53394140625,-0.8981170654296875,-0.54608154296875,0.2225799560546875
1772709061460966700,0.543966552734375,-0.7742767333984375,-0.350311279296875,0.01513671875
1772709061470991600,0.55399169921875,-0.599365234375,-0.25897216796875,-0.0833282470703125
1772709061481016600,0.5640166015625,-0.499359130859375,-0.3355865478515625,-0.01153564453125
1772709061491042600,0.57404248046875,-0.3827056884765625,-0.3470458984375,0.0318145751953125
1772709061501067500,0.584067626953125,-0.2617645263671875,-0.3133392333984375,0.0478515625
1772709061511092700,0.5940927734375,-0.22454833984375,-0.289398193359375,0.0621795654296875
1772709061521117700,0.60411767578125,-0.2500762939453125,-0.2347869873046875,0.0365753173828125
1772709061531142400,0.614142333984375,-0.2931976318359375,-0.191009521484375,-0.0093231201171875
1772709061541167600,0.624167724609375,-0.4541473388671875,-0.1688079833984375,-0.091796875
1772709061551192600,0.634192626953125,-0.5864715576171875,-0.1363983154296875,-0.1367645263671875
1772709061561218600,0.644218505859375,-0.67352294921875,-0.087158203125,-0.13604736328125
1772709061571243500,0.654243408203125,-0.728851318359375,-0.0594482421875,-0.1239166259765625
1772709061581268500,0.6642685546875,-0.7120208740234375,-0.0710296630859375,-0.1488037109375
1772709061591293700,0.674293701171875,-0.6113128662109375,-0.1041717529296875,-0.194000244140625
1772709061601318700,0.684318603515625,-0.519683837890625,-0.1499481201171875,-0.239837646484375
1772709061611343600,0.694343505859375,-0.458251953125,-0.2056884765625,-0.2481842041015625
1772709061621368600,0.70436865234375,-0.427032470703125,-0.2355194091796875,-0.227294921875
1772709061631394600,0.71439453125,-0.448760986328125,-0.2260284423828125,-0.184356689453125
1772709061641419800,0.724419677734375,-0.4715423583984375,-0.2477874755859375,-0.140625
1772709061651444700,0.73444482421875,-0.4545440673828125,-0.2489776611328125,-0.1609954833984375
1772709061661469700,0.7444697265625,-0.4178924560546875,-0.2765960693359375,-0.1604461669921875
1772709061671494400,0.754494384765625,-0.36553955078125,-0.327789306640625,-0.1292877197265625
1772709061681519600,0.76451953125,-0.3289794921875,-0.3668212890625,-0.1450042724609375
1772709061691544600,0.774544677734375,-0.3679656982421875,-0.3496246337890625,-0.180419921875
1772709061701570600,0.784570556640625,-0.4519195556640625,-0.271820068359375,-0.2397613525390625
1772709061711595500,0.794595458984375,-0.568695068359375,-0.2020111083984375,-0.2999420166015625
1772709061721620500,0.804620361328125,-0.673858642578125,-0.16424560546875,-0.31903076171875
1772709061731645700,0.814645751953125,-0.7248992919921875,-0.1729736328125,-0.3216705322265625
1772709061741670700,0.824670654296875,-0.7350616455078125,-0.2100677490234375,-0.346466064453125
1772709061751695600,0.834695556640625,-0.7257080078125,-0.2797393798828125,-0.39141845703125
1772709061761720600,0.844720458984375,-0.787689208984375,-0.42236328125,-0.4293212890625
1772709061771746600,0.85474658203125,-0.94171142578125,-0.6222991943359375,-0.4045257568359375
1772709061781771800,0.864771728515625,-1.093841552734375,-0.887115478515625,-0.3341064453125
1772709061791796700,0.874796630859375,-1.1537628173828125,-1.2447357177734375,-0.1948394775390625
1772709061801821400,0.884821533203125,-1.028350830078125,-1.6246337890625,-0.108612060546875
1772709061811846400,0.894846435546875,-0.88525390625,-2.00811767578125,-0.099700927734375
1772709061821871600,0.90487158203125,-0.79461669921875,-2.180267333984375,-0.0915069580078125
1772709061831897600,0.914897705078125,-0.88604736328125,-1.897613525390625,0.0194854736328125
1772709061841922600,0.924922607421875,-1.316009521484375,-1.5823974609375,0.2247467041015625
1772709061851947500,0.934947509765625,-1.839324951171875,-1.5667266845703125,0.46893310546875
1772709061861972500,0.944972412109375,-2.09283447265625,-1.8110809326171875,0.7387847900390625
1772709061918363600,1.00136376953125,-0.6389617919921875,-1.8282318115234375,0.141204833984375
1772709061928388600,1.011388671875,-0.3693695068359375,-1.60858154296875,0.07037353515625
1772709061938414600,1.02141455078125,-0.1316680908203125,-1.377777099609375,0.116485595703125
1772709061948439600,1.031439453125,0.00140380859375,-1.125396728515625,0.1619415283203125
1772709061958464000,1.041464111328125,0.10845947265625,-0.8511199951171875,0.2342681884765625
1772709061968489000,1.051489013671875,0.20648193359375,-0.5920867919921875,0.291473388671875
1772709061978514000,1.061513916015625,0.2658843994140625,-0.3751373291015625,0.264923095703125
1772709061988539000,1.071538818359375,0.27471923828125,-0.199462890625,0.163818359375
1772709061998564000,1.081564208984375,0.2507171630859375,-0.062896728515625,0.02020263671875
1772709062008590000,1.091590087890625,0.18505859375,0.007049560546875,-0.1035919189453125
1772709062018615000,1.101614990234375,0.0838623046875,0.032440185546875,-0.1713104248046875
1772709062028640000,1.111639892578125,-0.0062408447265625,0.0341339111328125,-0.205902099609375
1772709062038664700,1.121664794921875,-0.0912628173828125,0.01519775390625,-0.232086181640625
1772709062048690000,1.13168994140625,-0.1656951904296875,-0.010284423828125,-0.242919921875
1772709062058715000,1.14171484375,-0.230743408203125,-0.010833740234375,-0.23944091796875
1772709062068739800,1.15173974609375,-0.359100341796875,-0.0125579833984375,-0.2002410888671875
1772709062078765800,1.161765869140625,-0.47314453125,-0.0620269775390625,-0.122528076171875
1772709062088790800,1.171790771484375,-0.3897552490234375,-0.04339599609375,-0.189422607421875
1772709062098816000,1.18181591796875,-0.393157958984375,-0.09149169921875,-0.1640625
1772709062108841000,1.191841064453125,-0.322540283203125,-0.1545867919921875,-0.1548309326171875
1772709062118866000,1.201865966796875,-0.264862060546875,-0.1967926025390625,-0.16888427734375
1772709062128891000,1.211890869140625,-0.2550506591796875,-0.234832763671875,-0.11212158203125
1772709062138916000,1.221916015625,-0.246856689453125,-0.2575531005859375,-0.0538177490234375
1772709062148942000,1.231942138671875,-0.2232513427734375,-0.2598114013671875,-0.00921630859375
1772709062158967000,1.241967041015625,-0.1839599609375,-0.2636260986328125,0.0277557373046875
1772709062168991700,1.25199169921875,-0.134246826171875,-0.273712158203125,0.050689697265625
1772709062179016700,1.2620166015625,-0.0796661376953125,-0.2910003662109375,0.059783935546875
1772709062189042000,1.2720419921875,-0.03204345703125,-0.289459228515625,0.042327880859375
1772709062199067000,1.28206689453125,-0.007537841796875,-0.2726287841796875,0.006072998046875
1772709062209091800,1.292091796875,-0.023529052734375,-0.2696380615234375,-0.01593017578125
1772709062219117800,1.302117919921875,-0.0814208984375,-0.2853240966796875,-0.0068359375
1772709062229142800,1.312142822265625,-0.1556549072265625,-0.3037261962890625,0.01470947265625
1772709062239168000,1.32216796875,-0.2881622314453125,-0.310882568359375,0.005096435546875
1772709062249193000,1.33219287109375,-0.338623046875,-0.34356689453125,-0.0406646728515625
1772709062259218000,1.342218017578125,-0.2679290771484375,-0.3826446533203125,-0.0692138671875
1772709062269243000,1.352242919921875,-0.2984466552734375,-0.3586883544921875,-0.1334686279296875
1772709062279268000,1.36226806640625,-0.2559356689453125,-0.3441925048828125,-0.165802001953125
1772709062289294000,1.372294189453125,-0.2868499755859375,-0.373443603515625,-0.173248291015625
1772709062299319000,1.382319091796875,-0.4073486328125,-0.4291534423828125,-0.1187286376953125
1772709062309343700,1.39234375,-0.6325836181640625,-0.4964447021484375,-0.016357421875
1772709062319369000,1.402368896484375,-0.978424072265625,-0.605224609375,0.1030120849609375
1772709062329394000,1.412393798828125,-1.3451995849609375,-0.7551422119140625,0.2526702880859375
1772709062339419000,1.4224189453125,-1.7909393310546875,-1.165435791015625,0.3719635009765625
1772709062349443800,1.43244384765625,-2.23486328125,-1.8275604248046875,0.5158233642578125
1772709062429646000,1.51264599609375,-1.803436279296875,-1.65771484375,0.8936614990234375
1772709062439670800,1.5226708984375,-1.5207366943359375,-1.6741943359375,0.8978424072265625
1772709062449695700,1.53269580078125,-1.1900177001953125,-1.373077392578125,0.7543487548828125
1772709062459721000,1.542720947265625,-0.984161376953125,-0.9861907958984375,0.560333251953125
1772709062469746000,1.552745849609375,-0.8906707763671875,-0.581451416015625,0.3594818115234375
1772709062479771000,1.56277099609375,-0.901397705078125,-0.186370849609375,0.15228271484375
1772709062489795800,1.5727958984375,-0.99554443359375,0.025054931640625,-0.002777099609375
1772709062499821800,1.58282177734375,-1.109710693359375,0.1185455322265625,-0.0535125732421875
1772709062509847000,1.592846923828125,-1.13555908203125,0.2076568603515625,-0.0830230712890625
1772709062519872000,1.6028720703125,-1.022003173828125,0.2672576904296875,-0.143951416015625
1772709062529897000,1.61289697265625,-0.8115692138671875,0.251739501953125,-0.1686859130859375
1772709062539922000,1.622921875,-0.5777587890625,0.196807861328125,-0.1370849609375
1772709062549947100,1.632947021484375,-0.3639984130859375,0.1427154541015625,-0.0666351318359375
1772709062559971800,1.642971923828125,-0.2300872802734375,0.1098785400390625,0.039886474609375
1772709062569998000,1.652998046875,-0.1133575439453125,0.101409912109375,0.135894775390625
1772709062580022800,1.663022705078125,-0.009033203125,0.10968017578125,0.1848907470703125
1772709062590047700,1.6730478515625,0.0774688720703125,0.1229705810546875,0.202728271484375
1772709062600073000,1.683072998046875,0.1331787109375,0.1296539306640625,0.19122314453125
1772709062610098000,1.693097900390625,0.1283111572265625,0.1175689697265625,0.1712493896484375
1772709062620123000,1.703122802734375,0.070831298828125,0.0687255859375,0.135833740234375
1772709062630147800,1.71314794921875,-0.0195159912109375,-0.01031494140625,0.08709716796875
1772709062640173000,1.723173095703125,-0.125396728515625,-0.0890655517578125,0.0436859130859375
1772709062650199000,1.733198974609375,-0.3710479736328125,-0.16748046875,0.063812255859375
1772709062660224000,1.74322412109375,-0.5577850341796875,-0.3064117431640625,0.15753173828125
1772709062670249000,1.7532490234375,-0.478668212890625,-0.2719879150390625,0.0806884765625
1772709062680274000,1.76327392578125,-0.4666748046875,-0.1955413818359375,0.112548828125
1772709062690299100,1.773299072265625,-0.34423828125,-0.1326141357421875,0.0968475341796875
1772709062700323800,1.78332373046875,-0.2533721923828125,-0.15557861328125,0.11724853515625
1772709062710348800,1.793348876953125,-0.1821746826171875,-0.196319580078125,0.1465301513671875
1772709062720374800,1.803374755859375,-0.113800048828125,-0.222991943359375,0.1513824462890625
1772709062730399700,1.813399658203125,-0.081939697265625,-0.244384765625,0.1497955322265625
1772709062740425000,1.823425048828125,-0.0798187255859375,-0.2585906982421875,0.113616943359375
1772709062750450000,1.833449951171875,-0.0899200439453125,-0.270660400390625,0.06280517578125
1772709062760475000,1.843474853515625,-0.0810394287109375,-0.273468017578125,0.030609130859375
1772709062770499800,1.853499755859375,-0.0641632080078125,-0.283477783203125,0.0010833740234375
1772709062780525000,1.863525146484375,-0.0899505615234375,-0.29638671875,-0.0415191650390625
1772709062790551000,1.873551025390625,-0.1273345947265625,-0.303924560546875,-0.09326171875
1772709062800576000,1.883575927734375,-0.160797119140625,-0.3051910400390625,-0.1347503662109375
1772709062810601000,1.89360107421875,-0.2051849365234375,-0.28717041015625,-0.1522216796875
1772709062820626000,1.9036259765625,-0.2756500244140625,-0.258392333984375,-0.1667633056640625
1772709062830651000,1.91365087890625,-0.3837890625,-0.2760009765625,-0.20953369140625
1772709062840675800,1.92367578125,-0.5317840576171875,-0.3908843994140625,-0.244964599609375
1772709062850700800,1.93370068359375,-0.7783203125,-0.6540374755859375,-0.237640380859375
1772709062860726800,1.943726806640625,-1.230560302734375,-1.170257568359375,-0.1444854736328125
1772709062870751700,1.953751708984375,-1.7540435791015625,-1.935638427734375,0.062713623046875
1772709062880777000,1.96377685546875,-1.9907379150390625,-2.5607147216796875,0.1637725830078125
1772709062984789000,2.0677890625,-1.22442626953125,-1.873382568359375,0.510284423828125
1772709062994814000,2.07781396484375,-0.9392242431640625,-1.6301422119140625,0.4263763427734375
1772709063004839000,2.0878388671875,-0.71759033203125,-1.3592071533203125,0.3865203857421875
1772709063014864000,2.09786376953125,-0.5069122314453125,-1.0864105224609375,0.375579833984375
1772709063024889000,2.10788916015625,-0.318145751953125,-0.840240478515625,0.3294219970703125
1772709063034914000,2.1179140625,-0.184112548828125,-0.6262359619140625,0.2182769775390625
1772709063044940000,2.12793994140625,-0.12103271484375,-0.4340667724609375,0.06719970703125
1772709063054965000,2.137965087890625,-0.1082305908203125,-0.2840423583984375,-0.086578369140625
1772709063064990000,2.147989990234375,-0.130706787109375,-0.19805908203125,-0.2022552490234375
1772709063075015200,2.15801513671875,-0.1898956298828125,-0.1701202392578125,-0.22662353515625
1772709063085039900,2.168039794921875,-0.208587646484375,-0.1831512451171875,-0.2546844482421875
1772709063095064800,2.17806494140625,-0.18048095703125,-0.2088775634765625,-0.261077880859375
1772709063105089800,2.18808984375,-0.1221771240234375,-0.1953125,-0.19036865234375
1772709063115115800,2.19811572265625,-0.046661376953125,-0.185150146484375,-0.082672119140625
1772709063125141000,2.20814111328125,0.013153076171875,-0.170440673828125,0.02276611328125
1772709063135166000,2.218166015625,0.0373077392578125,-0.108642578125,0.07940673828125
1772709063145191000,2.22819091796875,-0.0052337646484375,-0.012451171875,0.0734405517578125
1772709063155216000,2.2382158203125,-0.1081390380859375,0.072845458984375,0.0516357421875
1772709063165241000,2.248240966796875,-0.35919189453125,0.07208251953125,0.0569915771484375
1772709063175266000,2.25826611328125,-0.7087860107421875,-0.091339111328125,0.1712646484375
1772709063185291000,2.268291015625,-0.70458984375,-0.05963134765625,0.120208740234375
1772709063195317000,2.27831689453125,-0.65618896484375,0.005523681640625,0.081390380859375
1772709063205342000,2.288342041015625,-0.51214599609375,-0.032958984375,0.040496826171875
1772709063215367000,2.298366943359375,-0.39910888671875,-0.121551513671875,0.0458984375
1772709063225391900,2.308391845703125,-0.3394927978515625,-0.1839752197265625,0.0349884033203125
1772709063235416800,2.318416748046875,-0.32861328125,-0.222564697265625,0.0326385498046875
1772709063245441800,2.32844189453125,-0.3649444580078125,-0.230926513671875,0.03387451171875
1772709063255467000,2.338467041015625,-0.3936309814453125,-0.220977783203125,0.0214691162109375
1772709063265493000,2.348492919921875,-0.3809051513671875,-0.205108642578125,0.0055389404296875
1772709063275518000,2.35851806640625,-0.353363037109375,-0.1747283935546875,-0.0277862548828125
1772709063285543000,2.36854296875,-0.3482818603515625,-0.144256591796875,-0.1054534912109375
1772709063295568000,2.37856787109375,-0.3739471435546875,-0.1378936767578125,-0.2006683349609375
1772709063305593000,2.388593017578125,-0.38958740234375,-0.16156005859375,-0.2841796875
1772709063315618000,2.3986181640625,-0.3831329345703125,-0.2081298828125,-0.3494720458984375
1772709063325643000,2.40864306640625,-0.394683837890625,-0.3085784912109375,-0.4264068603515625
1772709063335668000,2.41866796875,-0.4580535888671875,-0.4433135986328125,-0.5927886962890625
1772709063345694000,2.42869384765625,-0.5666961669921875,-0.5351104736328125,-0.8910064697265625
1772709063355719000,2.438718994140625,-0.719451904296875,-0.5453033447265625,-1.3405914306640625
1772709063365743900,2.448743896484375,-0.8921661376953125,-0.4790191650390625,-1.78851318359375
1772709063375768800,2.458768798828125,-1.110809326171875,-0.349609375,-2.0453948974609375
1772709063392060200,2.47506005859375,-1.5280609130859375,-0.082000732421875,-1.8350067138671875
1772709063402085000,2.485085205078125,-1.613250732421875,0.0038299560546875,-1.3851776123046875
1772709063412109800,2.49510986328125,-1.532623291015625,-0.0323028564453125,-0.8727569580078125
1772709063422134800,2.505134765625,-1.4180908203125,-0.3134613037109375,-0.336578369140625
1772709063432160000,2.515159912109375,-1.2945709228515625,-0.9240264892578125,0.2412261962890625
1772709063442185000,2.52518505859375,-1.0156097412109375,-1.633331298828125,0.817626953125
1772709063452210000,2.5352099609375,-0.589141845703125,-1.77532958984375,0.992889404296875
1772709063462236000,2.54523583984375,-0.2913360595703125,-1.6314544677734375,0.9378814697265625
1772709063472260900,2.5552607421875,-0.168060302734375,-1.59686279296875,0.910491943359375
1772709063482286000,2.5652861328125,-0.29638671875,-1.6375579833984375,1.163909912109375
1772709063492311000,2.57531103515625,-0.61700439453125,-1.762939453125,1.6077880859375
1772709063502336000,2.5853359375,-1.075653076171875,-1.9572906494140625,1.998321533203125
1772709063512361000,2.59536083984375,-1.29364013671875,-2.0413665771484375,2.2368316650390625
1772709063526146000,2.60914599609375,-1.1585235595703125,-1.7612457275390625,1.9256591796875
1772709063536171000,2.6191708984375,-1.0661468505859375,-1.558807373046875,1.5362701416015625
1772709063546196000,2.629196044921875,-1.00225830078125,-1.2199554443359375,1.1130523681640625
1772709063556221000,2.639220947265625,-0.9126739501953125,-0.79205322265625,0.6951904296875
1772709063566247000,2.649246826171875,-0.8304901123046875,-0.4105987548828125,0.4338531494140625
1772709063576272100,2.659272216796875,-0.762664794921875,-0.0558929443359375,0.2733001708984375
1772709063586297000,2.669297119140625,-0.7083892822265625,0.209930419921875,0.1214141845703125
1772709063596322000,2.679322021484375,-0.703155517578125,0.3697662353515625,0.0489044189453125
1772709063606346800,2.6893466796875,-0.74688720703125,0.414337158203125,0.0280914306640625
1772709063616372000,2.6993720703125,-0.8133697509765625,0.364013671875,0.0189208984375
1772709063626397000,2.70939697265625,-0.918975830078125,0.3106842041015625,0.0105133056640625
1772709063636422000,2.719421875,-1.008819580078125,0.2558441162109375,-0.0172882080078125
1772709063646447900,2.72944775390625,-1.007293701171875,0.20440673828125,-0.0796051025390625
1772709063656472800,2.739472900390625,-0.911376953125,0.128082275390625,-0.204193115234375
1772709063666498000,2.749498046875,-0.755035400390625,0.0150146484375,-0.3596343994140625
1772709063676523000,2.75952294921875,-0.624969482421875,-0.106048583984375,-0.4282073974609375
1772709063686548000,2.7695478515625,-0.6138458251953125,-0.1410980224609375,-0.3873443603515625
1772709063696573000,2.779572998046875,-0.7100372314453125,-0.1165924072265625,-0.2696685791015625
1772709063706598100,2.78959814453125,-0.8095703125,-0.1031341552734375,-0.1111602783203125
1772709063716623000,2.799623046875,-0.8329010009765625,-0.088409423828125,0.028778076171875
1772709063726649000,2.809649169921875,-0.789154052734375,-0.063812255859375,0.1100616455078125
1772709063736674000,2.819674072265625,-0.73455810546875,-0.052215576171875,0.12872314453125
1772709063746698800,2.82969873046875,-0.6768798828125,-0.0542755126953125,0.0830230712890625
1772709063756724000,2.839723876953125,-0.61468505859375,-0.075653076171875,-0.0053863525390625
1772709063766749000,2.8497490234375,-0.562225341796875,-0.136199951171875,-0.0719757080078125
1772709063776774000,2.85977392578125,-0.50750732421875,-0.209991455078125,-0.0820770263671875
1772709063786798800,2.869798828125,-0.4590606689453125,-0.2754974365234375,-0.0595245361328125
1772709063796824800,2.879824951171875,-0.406707763671875,-0.3268585205078125,-0.0344085693359375
1772709063806850000,2.88985009765625,-0.351165771484375,-0.347198486328125,-0.020965576171875
1772709063816875000,2.899875,-0.325103759765625,-0.3462982177734375,-0.00189208984375
1772709063826900000,2.90989990234375,-0.301025390625,-0.33465576171875,0.0320892333984375
1772709063836925000,2.919925048828125,-0.2741546630859375,-0.313079833984375,0.05401611328125
1772709063846950100,2.9299501953125,-0.2649993896484375,-0.296966552734375,0.0467376708984375
1772709063856974800,2.939974853515625,-0.273834228515625,-0.2905731201171875,0.000762939453125
1772709063866999800,2.949999755859375,-0.2707977294921875,-0.3093109130859375,-0.064697265625
1772709063877025800,2.96002587890625,-0.2504119873046875,-0.3361358642578125,-0.1023712158203125
1772709063887050800,2.97005078125,-0.2259368896484375,-0.352874755859375,-0.103240966796875
1772709063897076000,2.980075927734375,-0.194915771484375,-0.392669677734375,-0.07000732421875
1772709063907101000,2.990100830078125,-0.17730712890625,-0.4689483642578125,-0.0268402099609375
1772709063917126000,3.0001259765625,-0.156646728515625,-0.549224853515625,0.0707550048828125
1772709063927150800,3.01015087890625,-0.1062164306640625,-0.6064605712890625,0.205810546875
1772709063937176000,3.020176025390625,-0.09112548828125,-0.7248077392578125,0.35504150390625
1772709063947201000,3.030200927734375,-0.208831787109375,-0.9235076904296875,0.5372161865234375
1772709063957227000,3.04022705078125,-0.41656494140625,-1.0865936279296875,0.636810302734375
1772709063967251200,3.050251220703125,-0.66607666015625,-1.152191162109375,0.53643798828125
1772709063977276400,3.0602763671875,-0.9781341552734375,-1.1933441162109375,0.3026885986328125
1772709063987301400,3.07030126953125,-1.48480224609375,-1.3438262939453125,0.0986480712890625
1772709063997326300,3.080326416015625,-2.129425048828125,-1.617340087890625,-0.04730224609375
1772709064007351300,3.090351318359375,-2.586700439453125,-1.7185516357421875,-0.3392181396484375
1772709064087552300,3.17055224609375,-1.82818603515625,-1.0656890869140625,1.03900146484375
1772709064097577200,3.1805771484375,-1.4777679443359375,-1.18267822265625,0.8951416015625
1772709064107602400,3.1906025390625,-1.0924530029296875,-1.161865234375,0.6510467529296875
1772709064117628400,3.20062841796875,-0.715576171875,-0.956787109375,0.3391876220703125
1772709064127653400,3.2106533203125,-0.3944549560546875,-0.8167724609375,0.01947021484375
1772709064137678300,3.22067822265625,-0.138427734375,-0.7199859619140625,-0.24139404296875
1772709064147703300,3.230703369140625,0.004180908203125,-0.632568359375,-0.283905029296875
1772709064157728300,3.240728271484375,0.1022186279296875,-0.443389892578125,-0.277496337890625
1772709064167753200,3.250753173828125,0.2002410888671875,-0.2032623291015625,-0.2935028076171875
1772709064177778200,3.260778076171875,0.2262725830078125,-0.053619384765625,-0.206512451171875
1772709064187803400,3.270803466796875,0.153411865234375,0.003173828125,-0.108245849609375
1772709064197829000,3.2808291015625,-0.0187530517578125,-0.1085662841796875,-0.0572509765625
1772709064207854300,3.290854248046875,-0.110504150390625,-0.298553466796875,-0.17498779296875
1772709064217879300,3.30087939453125,-0.2361602783203125,-0.3818511962890625,-0.19921875
1772709064227904300,3.310904296875,-0.2234649658203125,-0.303924560546875,-0.2430877685546875
1772709064237929500,3.320929443359375,-0.1658172607421875,-0.1981353759765625,-0.2900848388671875
1772709064247954400,3.330954345703125,-0.1576690673828125,-0.1670379638671875,-0.2821044921875
1772709064257979400,3.3409794921875,-0.194580078125,-0.1759490966796875,-0.2136383056640625
1772709064268004000,3.351004150390625,-0.2865447998046875,-0.17730712890625,-0.0869903564453125
1772709064278030300,3.3610302734375,-0.4127197265625,-0.1577301025390625,0.0331878662109375
1772709064288055300,3.37105517578125,-0.539581298828125,-0.1477203369140625,0.0991363525390625
1772709064298080300,3.381080322265625,-0.6284637451171875,-0.1409149169921875,0.1067047119140625
1772709064308105200,3.391105224609375,-0.6756591796875,-0.1327362060546875,0.0824432373046875
1772709064318130200,3.401130126953125,-0.6420745849609375,-0.1266937255859375,0.06011962890625
1772709064328155400,3.4111552734375,-0.5903472900390625,-0.1496734619140625,0.05413818359375
1772709064338180400,3.421180419921875,-0.5528106689453125,-0.1744842529296875,0.06903076171875
1772709064348205300,3.431205322265625,-0.5258331298828125,-0.163482666015625,0.1007537841796875
1772709064358231300,3.441231201171875,-0.525482177734375,-0.1466522216796875,0.1356658935546875
1772709064368256300,3.45125634765625,-0.5160369873046875,-0.138275146484375,0.17254638671875
1772709064378281500,3.461281494140625,-0.4882049560546875,-0.1298065185546875,0.21697998046875
1772709064388306400,3.471306396484375,-0.4229736328125,-0.1247406005859375,0.2503814697265625
1772709064398331400,3.481331298828125,-0.3287811279296875,-0.1129302978515625,0.2508087158203125
1772709064408356000,3.491356201171875,-0.237457275390625,-0.0978546142578125,0.2176361083984375
1772709064418381300,3.50138134765625,-0.1954498291015625,-0.1054840087890625,0.1588897705078125
1772709064428406300,3.51140625,-0.195831298828125,-0.119964599609375,0.0856781005859375
1772709064438432300,3.521432373046875,-0.214141845703125,-0.129486083984375,-0.015625
1772709064448457200,3.531457275390625,-0.2188873291015625,-0.1484375,-0.12750244140625
1772709064458482200,3.541482177734375,-0.2052459716796875,-0.18145751953125,-0.25115966796875
1772709064468507400,3.55150732421875,-0.1811065673828125,-0.2352142333984375,-0.3804168701171875
1772709064478532400,3.561532470703125,-0.1526947021484375,-0.2568206787109375,-0.4823455810546875
1772709064488557300,3.571557373046875,-0.158477783203125,-0.2235107421875,-0.54815673828125
1772709064498582300,3.581582275390625,-0.21868896484375,-0.18463134765625,-0.5703277587890625
1772709064508607500,3.591607421875,-0.3210601806640625,-0.17022705078125,-0.5511474609375
1772709064518633500,3.601633544921875,-0.4511566162109375,-0.194091796875,-0.4847564697265625
1772709064528658400,3.611658447265625,-0.6044769287109375,-0.3118743896484375,-0.3988189697265625
1772709064538683100,3.62168310546875,-0.8331298828125,-0.55963134765625,-0.2894744873046875
1772709064548708000,3.6317080078125,-1.2527923583984375,-0.93670654296875,-0.0983123779296875
1772709064558733300,3.6417333984375,-1.7562713623046875,-1.5127716064453125,0.2052001953125
1772709064568758300,3.65175830078125,-1.8512115478515625,-1.8765869140625,0.32818603515625
1772709064578783200,3.661783203125,-1.7159423828125,-2.0240020751953125,0.2419891357421875
1772709064665250300,3.748250244140625,-1.78662109375,-1.6904144287109375,1.2567596435546875
1772709064675275300,3.758275146484375,-1.50054931640625,-1.383544921875,0.9387664794921875
1772709064685300200,3.76830029296875,-1.458709716796875,-0.9806365966796875,0.5189361572265625
1772709064695325400,3.778325439453125,-1.527862548828125,-0.7008819580078125,0.114837646484375
1772709064705350400,3.788350341796875,-1.582977294921875,-0.506561279296875,-0.2599334716796875
1772709064715376400,3.79837646484375,-1.4363861083984375,-0.27166748046875,-0.6109466552734375
1772709064725401300,3.8084013671875,-1.0695648193359375,-0.1400299072265625,-0.917449951171875
1772709064735426300,3.81842626953125,-0.6656646728515625,-0.050628662109375,-1.0449371337890625
1772709064745451300,3.828451171875,-0.3607025146484375,0.1124267578125,-0.993316650390625
1772709064755476200,3.838476318359375,-0.1840667724609375,0.27764892578125,-0.80755615234375
1772709064765501200,3.848501220703125,-0.0997772216796875,0.300506591796875,-0.5447540283203125
1772709064775526400,3.8585263671875,-0.097076416015625,0.211273193359375,-0.3058013916015625
1772709064785551400,3.86855126953125,-0.131317138671875,0.16705322265625,-0.1488494873046875
1772709064795576300,3.878576416015625,-0.142303466796875,0.1996917724609375,-0.0814208984375
1772709064805602300,3.888602294921875,-0.1369171142578125,0.2015228271484375,-0.0879669189453125
1772709064815627300,3.898627197265625,-0.147186279296875,0.1650848388671875,-0.131927490234375
1772709064825652500,3.908652587890625,-0.1790924072265625,0.1313934326171875,-0.1845245361328125
1772709064835677400,3.918677490234375,-0.227691650390625,0.118927001953125,-0.2291259765625
1772709064845702100,3.9287021484375,-0.2805023193359375,0.1175079345703125,-0.2556915283203125
1772709064855727000,3.93872705078125,-0.32293701171875,0.10040283203125,-0.2391815185546875
1772709064865752300,3.94875244140625,-0.3294219970703125,0.0704498291015625,-0.186370849609375
1772709064875777300,3.95877734375,-0.3082122802734375,0.0362396240234375,-0.114593505859375
1772709064885803300,3.96880322265625,-0.283477783203125,-0.005584716796875,-0.052276611328125
1772709064895828200,3.978828125,-0.27349853515625,-0.0337677001953125,-0.013763427734375
1772709064905853200,3.988853271484375,-0.2793731689453125,-0.0528717041015625,-0.0111083984375
1772709064915878400,3.99887841796875,-0.2884521484375,-0.08709716796875,-0.045074462890625
1772709064925903400,4.0089033203125,-0.291900634765625,-0.1410980224609375,-0.120086669921875
1772709064935928300,4.01892822265625,-0.273712158203125,-0.1815032958984375,-0.20916748046875
1772709064945953300,4.028953369140625,-0.23834228515625,-0.1909942626953125,-0.2844696044921875
1772709064955978500,4.038978515625,-0.1717529296875,-0.1965484619140625,-0.335296630859375
1772709064966004000,4.04900390625,-0.098175048828125,-0.2099761962890625,-0.3669586181640625
1772709064976030000,4.059030029296875,-0.0423583984375,-0.1986541748046875,-0.36859130859375
1772709064986055000,4.069054931640625,-0.0238800048828125,-0.1665191650390625,-0.34906005859375
1772709064996079600,4.07907958984375,-0.0374298095703125,-0.12615966796875,-0.3282012939453125
1772709065006104800,4.089104736328125,-0.0360260009765625,-0.0850677490234375,-0.2815704345703125
1772709065016129800,4.0991298828125,-0.0154876708984375,-0.0697021484375,-0.2265777587890625
1772709065026154800,4.10915478515625,0.00531005859375,-0.094940185546875,-0.181793212890625
1772709065036179700,4.1191796875,0.0124053955078125,-0.123138427734375,-0.1480560302734375
1772709065046205000,4.129204833984375,-0.0008697509765625,-0.1344757080078125,-0.1533050537109375
1772709065056230700,4.139230712890625,-0.038818359375,-0.144195556640625,-0.197540283203125
1772709065066256000,4.149255859375,-0.1159515380859375,-0.1833648681640625,-0.26751708984375
1772709065076280800,4.15928076171875,-0.2500152587890625,-0.2807159423828125,-0.3552398681640625
1772709065086305800,4.169305908203125,-0.4773712158203125,-0.536041259765625,-0.433685302734375
1772709065096331000,4.1793310546875,-0.8393402099609375,-1.10833740234375,-0.5264129638671875
1772709065106356000,4.18935595703125,-1.347442626953125,-2.10137939453125,-0.5435333251953125
1772709065116380700,4.199380615234375,-1.6653900146484375,-2.8865509033203125,-0.6147918701171875
1772709065206606800,4.28960693359375,-1.591827392578125,-1.916412353515625,1.7200775146484375
1772709065216632800,4.2996328125,-1.371337890625,-1.9752044677734375,1.0919952392578125
1772709065226657800,4.30965771484375,-1.168121337890625,-1.790863037109375,0.5039215087890625
1772709065236683000,4.31968310546875,-1.0873260498046875,-1.4006195068359375,0.0826416015625
1772709065246707700,4.329707763671875,-1.2120361328125,-0.95330810546875,-0.1855926513671875
1772709065256732700,4.339732666015625,-1.415313720703125,-0.48309326171875,-0.2947998046875
1772709065266757600,4.349757568359375,-1.592376708984375,-0.0964202880859375,-0.1949920654296875
1772709065276782800,4.359782958984375,-1.6475677490234375,0.141998291015625,0.03118896484375
1772709065286807800,4.369807861328125,-1.483062744140625,0.248016357421875,0.2603912353515625
1772709065296833800,4.379833740234375,-1.1471710205078125,0.265625,0.412933349609375
1772709065306858800,4.389858642578125,-0.8040618896484375,0.29193115234375,0.502899169921875
1772709065316883700,4.3998837890625,-0.560028076171875,0.2858428955078125,0.5633392333984375
1772709065326909000,4.409908935546875,-0.3804779052734375,0.193817138671875,0.5626068115234375
1772709065336934000,4.419933837890625,-0.2332305908203125,0.0999908447265625,0.4896240234375
1772709065346958800,4.429958740234375,-0.1427001953125,0.0623626708984375,0.3826904296875
1772709065356983800,4.43998388671875,-0.102935791015625,0.0696563720703125,0.266143798828125
1772709065367008800,4.4500087890625,-0.116302490234375,0.102020263671875,0.1726837158203125
1772709065377035000,4.460034912109375,-0.1695404052734375,0.153289794921875,0.1041717529296875
1772709065387059700,4.470059814453125,-0.24700927734375,0.2071990966796875,0.0821685791015625
1772709065397084700,4.480084716796875,-0.3414306640625,0.21710205078125,0.100250244140625
1772709065407109600,4.490109619140625,-0.4151611328125,0.1744232177734375,0.1103363037109375
1772709065417134800,4.500134765625,-0.4496307373046875,0.128753662109375,0.12164306640625
1772709065427159800,4.510159912109375,-0.42919921875,0.0951080322265625,0.1478271484375
1772709065437184800,4.520184814453125,-0.3676300048828125,0.049774169921875,0.165985107421875
1772709065447209700,4.530209716796875,-0.2770233154296875,-0.0273590087890625,0.1591339111328125
1772709065457235700,4.540235595703125,-0.1873016357421875,-0.1262664794921875,0.137359619140625
1772709065467261000,4.550260986328125,-0.118255615234375,-0.1834869384765625,0.12921142578125
1772709065477286000,4.560285888671875,-0.0866546630859375,-0.1862945556640625,0.14727783203125
1772709065487310800,4.570310791015625,-0.0861968994140625,-0.173919677734375,0.194061279296875
1772709065497335600,4.58033544921875,-0.0672454833984375,-0.1566162109375,0.2471160888671875
1772709065507360800,4.59036083984375,-0.02386474609375,-0.1555023193359375,0.262786865234375
1772709065517385700,4.6003857421875,0.0185394287109375,-0.154296875,0.2521209716796875
1772709065527410700,4.61041064453125,0.04705810546875,-0.1457977294921875,0.2284088134765625
1772709065537436700,4.620436767578125,0.0662078857421875,-0.1356201171875,0.18804931640625
1772709065547461600,4.630461669921875,0.050689697265625,-0.1080169677734375,0.17572021484375
1772709065557486800,4.64048681640625,-0.0156097412109375,-0.114837646484375,0.16552734375
1772709065567511800,4.65051171875,-0.1316680908203125,-0.151123046875,0.139434814453125
1772709065577536800,4.660536865234375,-0.287139892578125,-0.1440277099609375,0.1207427978515625
1772709065587561700,4.670561767578125,-0.457305908203125,-0.1455230712890625,0.121246337890625
1772709065597587000,4.6805869140625,-0.62213134765625,-0.2336273193359375,0.1225738525390625
1772709065607612000,4.69061181640625,-0.7549285888671875,-0.41265869140625,0.152191162109375
1772709065617636600,4.70063671875,-0.7976531982421875,-0.5747222900390625,0.193145751953125
1772709065627662800,4.710662841796875,-0.827911376953125,-0.658447265625,0.218780517578125
1772709065637687800,4.720687744140625,-0.9650421142578125,-0.8565521240234375,0.2046966552734375
1772709065647712800,4.730712646484375,-1.1864776611328125,-1.302734375,0.22259521484375
1772709065657737700,4.74073779296875,-1.3397979736328125,-1.874755859375,0.2678985595703125
1772709065667762700,4.7507626953125,-1.167144775390625,-2.1204833984375,0.178253173828125
1772709065687812900,4.770812744140625,-0.914764404296875,-1.8144378662109375,-0.125457763671875
1772709065697838800,4.7808388671875,-1.4650115966796875,-1.519683837890625,-0.1826629638671875
1772709065707863800,4.79086376953125,-2.3947906494140625,-1.2901458740234375,-0.1291961669921875
1772709065717888800,4.800888671875,-3.132904052734375,-1.249359130859375,0.07745361328125
1772709065778039800,4.861039794921875,-0.5349273681640625,-1.8302459716796875,-0.5372161865234375
1772709065788064800,4.871064697265625,-0.3318634033203125,-1.607147216796875,-0.60107421875
1772709065798089700,4.88108984375,-0.2178955078125,-1.3411712646484375,-0.5780792236328125
1772709065808114700,4.89111474609375,-0.1527862548828125,-0.9645538330078125,-0.6003570556640625
1772709065818140000,4.901139892578125,-0.1185760498046875,-0.49896240234375,-0.57159423828125
1772709065828164900,4.911164794921875,-0.272552490234375,-0.160125732421875,-0.3229522705078125
1772709065838189800,4.92118994140625,-0.6887054443359375,-0.1696319580078125,-0.039306640625
1772709065848214800,4.93121484375,-1.425537109375,-0.30926513671875,-0.054473876953125
1772709065858240000,4.941239990234375,-1.97613525390625,-0.30450439453125,-0.3523101806640625
1772709065868266000,4.951265869140625,-1.9792327880859375,-0.129486083984375,-0.64324951171875
1772709065878291000,4.961291015625,-1.7751617431640625,-0.07183837890625,-0.7362060546875
1772709065888315600,4.971315673828125,-1.4395904541015625,-0.18572998046875,-0.6508331298828125
1772709065898340600,4.981340576171875,-0.9515838623046875,-0.2716064453125,-0.50457763671875
1772709065908365800,4.99136572265625,-0.475311279296875,-0.2926025390625,-0.4056243896484375
1772709065918390800,5.001390869140625,-0.1240081787109375,-0.2938690185546875,-0.3268585205078125
1772709065928415700,5.011415771484375,0.0886688232421875,-0.30487060546875,-0.2562103271484375
1772709065938441700,5.021441650390625,0.1591796875,-0.313140869140625,-0.1779632568359375
1772709065948466700,5.031466796875,0.14520263671875,-0.266021728515625,-0.1744537353515625
1772709065958492000,5.041491943359375,0.1036529541015625,-0.167572021484375,-0.162811279296875
1772709065968516900,5.051516845703125,0.0521087646484375,-0.056365966796875,-0.128997802734375
1772709065978541800,5.061541748046875,-0.023956298828125,0.004974365234375,-0.043670654296875
1772709065988566800,5.07156689453125,-0.1561126708984375,-0.0098419189453125,0.0902099609375
1772709065998592000,5.081592041015625,-0.365997314453125,-0.077484130859375,0.299285888671875
1772709066008616700,5.09161669921875,-0.3675384521484375,-0.0976104736328125,0.2809600830078125
1772709066018643000,5.101642822265625,-0.393157958984375,-0.035736083984375,0.188568115234375
1772709066028667600,5.111667724609375,-0.345550537109375,0.0350189208984375,0.037139892578125
1772709066038692600,5.121692626953125,-0.2980499267578125,0.04638671875,-0.0755615234375
1772709066048717800,5.1317177734375,-0.2917938232421875,0.0223236083984375,-0.111907958984375
1772709066058742800,5.14174267578125,-0.318206787109375,0.000823974609375,-0.10711669921875
1772709066068767700,5.151767822265625,-0.3484649658203125,-0.001922607421875,-0.0679779052734375
1772709066078792700,5.161792724609375,-0.337982177734375,0.0081939697265625,-0.0023193359375
1772709066088818000,5.17181787109375,-0.27508544921875,0.027984619140625,0.0650634765625
1772709066098843000,5.1818427734375,-0.2298126220703125,0.06024169921875,0.1301422119140625
1772709066108868900,5.191868896484375,-0.2201690673828125,0.0879669189453125,0.1942138671875
1772709066118893800,5.201893798828125,-0.2425537109375,0.1038360595703125,0.215423583984375
1772709066128918800,5.211918701171875,-0.2611541748046875,0.0930023193359375,0.1930694580078125
1772709066138943700,5.22194384765625,-0.2795562744140625,0.023956298828125,0.132904052734375
1772709066148968700,5.23196875,-0.3209381103515625,-0.091339111328125,0.030670166015625
1772709066158993700,5.24199365234375,-0.4302978515625,-0.2310333251953125,-0.0350341796875
1772709066169018600,5.2520185546875,-0.561676025390625,-0.4080352783203125,-0.036102294921875
1772709066179044600,5.262044677734375,-0.6719970703125,-0.647857666015625,0.03369140625
1772709066189069800,5.27206982421875,-0.76556396484375,-0.93212890625,0.171600341796875
1772709066199094800,5.2820947265625,-0.8452301025390625,-1.203826904296875,0.351654052734375
1772709066209119700,5.29211962890625,-0.88446044921875,-1.4237823486328125,0.505035400390625
1772709066219144700,5.302144775390625,-0.9827880859375,-1.669189453125,0.536346435546875
1772709066229170000,5.312169921875,-1.092926025390625,-1.890777587890625,0.3883209228515625
1772709066239195000,5.32219482421875,-1.1568603515625,-1.990997314453125,0.1314239501953125
1772709066249845800,5.332845703125,-1.2805938720703125,-2.0322418212890625,-0.003692626953125
1772709066259870700,5.34287060546875,-1.381622314453125,-2.0567474365234375,0.088043212890625
1772709066269895700,5.352895751953125,-1.530426025390625,-1.978271484375,0.2774505615234375
1772709066279921700,5.362921630859375,-1.6714935302734375,-1.849151611328125,0.4738006591796875
1772709066289947000,5.37294677734375,-1.5542144775390625,-1.96856689453125,0.6980438232421875
1772709066299971800,5.382971923828125,-1.1773681640625,-2.2051544189453125,0.8803253173828125
1772709066309996800,5.392996826171875,-0.883453369140625,-2.3200836181640625,0.94384765625
1772709066320021800,5.403021728515625,-0.8218231201171875,-2.150665283203125,0.8340911865234375
1772709066330047000,5.413046875,-0.911163330078125,-1.786712646484375,0.619354248046875
1772709066340071700,5.42307177734375,-0.9675750732421875,-1.457183837890625,0.4261627197265625
1772709066350096600,5.4330966796875,-0.9672698974609375,-1.1851654052734375,0.31280517578125
1772709066360122600,5.44312255859375,-0.9557647705078125,-0.9128570556640625,0.2710723876953125
1772709066370147600,5.453147705078125,-0.968902587890625,-0.6166229248046875,0.265289306640625
1772709066380172800,5.4631728515625,-0.9557952880859375,-0.3516845703125,0.294525146484375
1772709066390197800,5.47319775390625,-0.8975830078125,-0.1885986328125,0.330902099609375
1772709066400222700,5.48322265625,-0.8050384521484375,-0.1084136962890625,0.3310394287109375
1772709066410247700,5.49324755859375,-0.6978302001953125,-0.0982208251953125,0.3104095458984375
1772709066420273000,5.50327294921875,-0.582794189453125,-0.14459228515625,0.30133056640625
1772709066430297900,5.5132978515625,-0.4544525146484375,-0.20050048828125,0.2776641845703125
1772709066440323800,5.52332373046875,-0.3049774169921875,-0.253387451171875,0.210113525390625
1772709066450348800,5.533348876953125,-0.164764404296875,-0.26654052734375,0.1369171142578125
1772709066460373800,5.543373779296875,-0.0987091064453125,-0.238128662109375,0.0898590087890625
1772709066470399000,5.55339892578125,-0.087371826171875,-0.2527008056640625,0.0531005859375
1772709066480423700,5.563423583984375,-0.1263275146484375,-0.2525482177734375,0.005950927734375
1772709066490448600,5.57344873046875,-0.2440185546875,-0.1996612548828125,-0.0154571533203125
1772709066500473900,5.583473876953125,-0.3687744140625,-0.1290130615234375,0.035858154296875
1772709066510498800,5.593498779296875,-0.45953369140625,-0.0789947509765625,0.1118011474609375
1772709066520524800,5.60352490234375,-0.5160980224609375,-0.0403900146484375,0.159027099609375
1772709066530549800,5.6135498046875,-0.5148162841796875,-0.025054931640625,0.1934967041015625
1772709066540574700,5.62357470703125,-0.46270751953125,-0.0199737548828125,0.2086029052734375
1772709066550600000,5.633599853515625,-0.3990631103515625,-0.009002685546875,0.191558837890625
1772709066560625000,5.643625,-0.3354034423828125,-0.0284423828125,0.1332855224609375
1772709066570649900,5.65364990234375,-0.2927093505859375,-0.0652313232421875,0.0306549072265625
1772709066580674800,5.6636748046875,-0.275299072265625,-0.06524658203125,-0.0395660400390625
1772709066590700800,5.67370068359375,-0.275177001953125,-0.0521697998046875,-0.060089111328125
1772709066601352700,5.684352783203125,-0.275238037109375,-0.0358428955078125,-0.029541015625
1772709066611377700,5.694377685546875,-0.267425537109375,-0.02545166015625,0.009857177734375
1772709066621402600,5.704402587890625,-0.2482147216796875,0.0015106201171875,0.04510498046875
1772709066631427800,5.714427734375,-0.2211151123046875,-0.0001678466796875,0.079925537109375
1772709066641452800,5.724452880859375,-0.1954345703125,-0.0319976806640625,0.1085662841796875
1772709066651478800,5.734478759765625,-0.1704864501953125,-0.06317138671875,0.096343994140625
1772709066661503700,5.744503662109375,-0.1602935791015625,-0.0870361328125,0.0493621826171875
1772709066671528700,5.75452880859375,-0.1662139892578125,-0.13482666015625,0.0094451904296875
1772709066681554000,5.764553955078125,-0.182830810546875,-0.2069854736328125,-0.0100860595703125
1772709066691579000,5.774578857421875,-0.1808319091796875,-0.312896728515625,0.0147552490234375
1772709066701603800,5.784603759765625,-0.1918182373046875,-0.4553070068359375,0.0590667724609375
1772709066711628800,5.79462890625,-0.2354583740234375,-0.66387939453125,0.09613037109375
1772709066721654800,5.80465478515625,-0.3860015869140625,-0.9549560546875,0.1042938232421875
1772709066731679700,5.8146796875,-0.7262725830078125,-1.33441162109375,0.064117431640625
1772709066741704700,5.82470458984375,-1.20697021484375,-1.6888580322265625,-0.093658447265625
1772709066751729700,5.834729736328125,-1.679656982421875,-1.84906005859375,-0.368682861328125
1772709066761754600,5.844754638671875,-2.053192138671875,-1.776123046875,-0.5696868896484375
1772709066771779800,5.85477978515625,-2.3960113525390625,-1.7306365966796875,-0.67852783203125
1772709066872031700,5.95503173828125,-0.3479156494140625,-1.50030517578125,-0.1840362548828125
1772709066882056700,5.965056640625,-0.453887939453125,-0.987579345703125,-0.308258056640625
1772709066892081700,5.97508154296875,-0.62530517578125,-0.5447235107421875,-0.389617919921875
1772709066902107000,5.98510693359375,-0.9385528564453125,-0.262603759765625,-0.3787994384765625
1772709066912131800,5.9951318359375,-1.199188232421875,-0.1796417236328125,-0.3289642333984375
1772709066922156800,6.00515673828125,-1.2950439453125,-0.2084503173828125,-0.391143798828125
1772709066932181800,6.015181640625,-1.2216339111328125,-0.1614532470703125,-0.5163116455078125
1772709066942207000,6.02520703125,-1.007049560546875,-0.1558990478515625,-0.538116455078125
1772709066952233000,6.03523291015625,-0.7299957275390625,-0.232635498046875,-0.47308349609375
1772709066962258000,6.0452578125,-0.4349822998046875,-0.2698211669921875,-0.403411865234375
1772709066972282600,6.05528271484375,-0.182098388671875,-0.23223876953125,-0.3268280029296875
1772709066982307300,6.065307373046875,-0.01025390625,-0.1701202392578125,-0.234283447265625
1772709066992332500,6.07533251953125,0.0891876220703125,-0.119964599609375,-0.1209716796875
1772709067002357500,6.085357421875,0.120147705078125,-0.07342529296875,-0.0036163330078125
1772709067012382500,6.095382568359375,0.1385498046875,0.0058746337890625,0.052734375
1772709067022408400,6.105408447265625,0.1524200439453125,0.047119140625,0.1035003662109375
1772709067032433400,6.115433349609375,0.1432952880859375,-0.010467529296875,0.1597137451171875
1772709067042458600,6.125458740234375,0.07110595703125,-0.0724945068359375,0.17529296875
1772709067052483600,6.135483642578125,-0.1003875732421875,-0.0851898193359375,0.1720428466796875
1772709067062508500,6.145508544921875,-0.179443359375,-0.0869293212890625,0.06903076171875
1772709067072533500,6.155533447265625,-0.2299041748046875,-0.06787109375,-0.080047607421875
1772709067082558700,6.165558837890625,-0.2815093994140625,-0.05902099609375,-0.1414947509765625
1772709067092583700,6.175583740234375,-0.296722412109375,-0.0771484375,-0.1624908447265625
1772709067102609700,6.185609619140625,-0.335540771484375,-0.131439208984375,-0.1247100830078125
1772709067112634600,6.195634521484375,-0.346893310546875,-0.1894683837890625,-0.0666961669921875
1772709067122659300,6.205659423828125,-0.3139495849609375,-0.21722412109375,-0.0037078857421875
1772709067132684500,6.2156845703125,-0.2655487060546875,-0.2056884765625,0.0563201904296875
1772709067142709500,6.22570947265625,-0.2291412353515625,-0.1739654541015625,0.094390869140625
1772709067152734500,6.235734375,-0.225494384765625,-0.139923095703125,0.1032257080078125
1772709067162759400,6.245759521484375,-0.296905517578125,-0.101043701171875,0.0673980712890625
1772709067172784600,6.25578466796875,-0.4504241943359375,-0.0670166015625,0.020843505859375
1772709067182810600,6.265810546875,-0.6163177490234375,-0.0748138427734375,-0.015228271484375
1772709067192835600,6.275835693359375,-0.712982177734375,-0.10919189453125,-0.0411834716796875
1772709067202860500,6.285860595703125,-0.7245941162109375,-0.1865692138671875,-0.0709686279296875
1772709067212885500,6.295885498046875,-0.72393798828125,-0.2964019775390625,-0.10076904296875
1772709067222910700,6.30591064453125,-0.766998291015625,-0.413177490234375,-0.1071014404296875
1772709067232935400,6.315935302734375,-0.8707427978515625,-0.5521240234375,-0.0518035888671875
1772709067242960400,6.32596044921875,-1.0224609375,-0.735565185546875,0.0150604248046875
1772709067252986400,6.335986328125,-1.2752227783203125,-0.9195556640625,0.0860443115234375
1772709067263011300,6.34601123046875,-1.6040802001953125,-1.079071044921875,0.2165374755859375
1772709067273036500,6.35603662109375,-1.819671630859375,-1.2543487548828125,0.36712646484375
1772709067283061500,6.3660615234375,-1.81683349609375,-1.4335479736328125,0.3875274658203125
1772709067293086500,6.37608642578125,-1.701141357421875,-1.6374359130859375,0.188385009765625
1772709067303111700,6.386111572265625,-1.6454925537109375,-1.8842926025390625,-0.120513916015625
1772709067313136600,6.39613671875,-1.82440185546875,-2.070831298828125,-0.3259124755859375
1772709067383312400,6.4663125,-1.349273681640625,-1.926727294921875,0.211456298828125
1772709067393337600,6.476337646484375,-1.228759765625,-1.6320343017578125,0.0450286865234375
1772709067403363600,6.486363525390625,-1.0541534423828125,-1.3333587646484375,-0.1411895751953125
1772709067413388500,6.496388427734375,-0.85107421875,-1.034881591796875,-0.238250732421875
1772709067423413500,6.50641357421875,-0.66461181640625,-0.6725311279296875,-0.21856689453125
1772709067433438500,6.5164384765625,-0.543792724609375,-0.3336181640625,-0.09503173828125
1772709067443463700,6.526463623046875,-0.42669677734375,-0.1739349365234375,0.058837890625
1772709067453488600,6.536488525390625,-0.3251495361328125,-0.1181640625,0.170074462890625
1772709067463513600,6.546513671875,-0.2901458740234375,-0.0886688232421875,0.2241973876953125
1772709067473538600,6.55653857421875,-0.2525787353515625,-0.1341400146484375,0.21014404296875
1772709067483564500,6.566564453125,-0.1628570556640625,-0.2266845703125,0.13238525390625
1772709067493589800,6.57658984375,-0.0549468994140625,-0.2918243408203125,0.0101776123046875
1772709067503614500,6.586614501953125,0.0492401123046875,-0.2999267578125,-0.10858154296875
1772709067513639400,6.596639404296875,0.1678466796875,-0.2687530517578125,-0.216339111328125
1772709067523664400,6.606664306640625,0.26177978515625,-0.2226104736328125,-0.2798309326171875
1772709067533689600,6.616689697265625,0.3128662109375,-0.1735382080078125,-0.2812347412109375
1772709067543714600,6.626714599609375,0.322967529296875,-0.1295623779296875,-0.2149505615234375
1772709067553740500,6.636740478515625,0.3033599853515625,-0.1209716796875,-0.108489990234375
1772709067563765500,6.646765625,0.2482757568359375,-0.1352996826171875,0.004119873046875
1772709067573790500,6.65679052734375,0.167510986328125,-0.163543701171875,0.092010498046875
1772709067583815700,6.666815673828125,0.0906829833984375,-0.189605712890625,0.1461181640625
1772709067593840600,6.676840576171875,0.02984619140625,-0.204803466796875,0.1871185302734375
1772709067603865600,6.686865478515625,-0.008056640625,-0.2196044921875,0.206634521484375
1772709067613890600,6.696890625,-0.0634613037109375,-0.23419189453125,0.1821441650390625
1772709067623915500,6.70691552734375,-0.13421630859375,-0.2371063232421875,0.1233062744140625
1772709067633941800,6.716941650390625,-0.10333251953125,-0.2030181884765625,-0.0114288330078125
1772709067643966500,6.726966552734375,-0.125213623046875,-0.16290283203125,-0.0749053955078125
1772709067653991400,6.736991455078125,-0.1319427490234375,-0.137359619140625,-0.1194305419921875
1772709067664016400,6.747016357421875,-0.15777587890625,-0.1229248046875,-0.1548309326171875
1772709067674041600,6.75704150390625,-0.187408447265625,-0.08935546875,-0.175750732421875
1772709067684066600,6.767066650390625,-0.195556640625,-0.0491180419921875,-0.169219970703125
1772709067694091500,6.777091552734375,-0.204559326171875,-0.048309326171875,-0.1014251708984375
1772709067704117500,6.787117431640625,-0.216552734375,-0.08734130859375,0.000640869140625
1772709067714142500,6.797142578125,-0.251678466796875,-0.1473541259765625,0.065582275390625
1772709067724167700,6.807167724609375,-0.3265533447265625,-0.20416259765625,0.0673675537109375
1772709067734192600,6.817192626953125,-0.407806396484375,-0.268646240234375,0.0580596923828125
1772709067744217600,6.827217529296875,-0.482147216796875,-0.3774261474609375,0.0470428466796875
1772709067754242600,6.83724267578125,-0.5601043701171875,-0.5159149169921875,0.04034423828125
1772709067764267500,6.847267578125,-0.6434783935546875,-0.624603271484375,0.040679931640625
1772709067774292500,6.85729248046875,-0.761962890625,-0.7464752197265625,0.0644378662109375
1772709067784318500,6.867318359375,-0.910125732421875,-1.0137786865234375,0.1605987548828125
1772709067794343400,6.877343505859375,-1.0733795166015625,-1.4532928466796875,0.37237548828125
1772709067804368400,6.887368408203125,-1.2246246337890625,-1.9260711669921875,0.6605987548828125
1772709067814393600,6.8973935546875,-1.2398681640625,-2.12939453125,0.77142333984375
1772709067834443500,6.917443603515625,-0.8823699951171875,-1.8361663818359375,0.310150146484375
1772709067844468500,6.927468505859375,-0.9813690185546875,-1.8930511474609375,0.095001220703125
1772709067854494500,6.937494384765625,-1.399383544921875,-1.8993072509765625,0.0629425048828125
1772709067864519700,6.947519775390625,-1.945098876953125,-1.7655029296875,0.1481781005859375
1772709067874544600,6.957544677734375,-2.284454345703125,-1.6728363037109375,0.2194671630859375
1772709067934695400,7.0176953125,-0.7584686279296875,-1.7537078857421875,-0.7378082275390625
1772709067944720400,7.027720458984375,-0.66851806640625,-1.4505462646484375,-0.9268646240234375
1772709067954745600,7.03774560546875,-0.54376220703125,-1.1111602783203125,-0.9491424560546875
1772709067964770800,7.047770751953125,-0.4372100830078125,-0.747222900390625,-0.8231353759765625
1772709067974795800,7.057795654296875,-0.3798675537109375,-0.4252471923828125,-0.581512451171875
1772709067984820700,7.06782080078125,-0.3692169189453125,-0.1868896484375,-0.288177490234375
1772709067994846000,7.077845947265625,-0.4197845458984375,-0.030181884765625,0.0048065185546875
1772709068004872000,7.087871826171875,-0.5534820556640625,-0.0000457763671875,0.281463623046875
1772709068014897000,7.09789697265625,-0.6681365966796875,-0.10614013671875,0.39337158203125
1772709068024921900,7.107921875,-0.6708984375,-0.2560882568359375,0.2801971435546875
1772709068034946600,7.117946533203125,-0.582916259765625,-0.305084228515625,0.0567169189453125
1772709068044971800,7.1279716796875,-0.396942138671875,-0.3274383544921875,-0.1317291259765625
1772709068054996700,7.137996826171875,-0.196197509765625,-0.3735809326171875,-0.296844482421875
1772709068065021700,7.148021728515625,-0.0646209716796875,-0.36468505859375,-0.4239044189453125
1772709068075046700,7.158046630859375,-0.008148193359375,-0.3178253173828125,-0.4339447021484375
1772709068085072600,7.16807275390625,-0.0110931396484375,-0.268646240234375,-0.343597412109375
1772709068095097900,7.178097900390625,-0.05706787109375,-0.21124267578125,-0.2422332763671875
1772709068105122800,7.188122802734375,-0.128997802734375,-0.1609039306640625,-0.12255859375
1772709068115147800,7.198147705078125,-0.21124267578125,-0.1524505615234375,-0.0018768310546875
1772709068125172700,7.2081728515625,-0.247772216796875,-0.173858642578125,0.0626220703125
1772709068135198000,7.218197998046875,-0.200714111328125,-0.1849212646484375,0.06634521484375
1772709068145223000,7.228222900390625,-0.1171875,-0.17803955078125,0.0035400390625
1772709068155247600,7.23824755859375,-0.061065673828125,-0.1903228759765625,-0.0545196533203125
1772709068165273900,7.24827392578125,-0.02154541015625,-0.208526611328125,-0.0884246826171875
1772709068175298800,7.258298828125,0.00927734375,-0.21148681640625,-0.113372802734375
1772709068185323800,7.26832373046875,0.0082550048828125,-0.188079833984375,-0.10882568359375
1772709068195348700,7.2783486328125,-0.02886962890625,-0.14208984375,-0.0764923095703125
1772709068205373700,7.288373779296875,-0.1122589111328125,-0.1110687255859375,-0.033416748046875
1772709068215399000,7.29839892578125,-0.206329345703125,-0.1195831298828125,0.0058746337890625
1772709068225424000,7.308423828125,-0.261810302734375,-0.107574462890625,0.0409698486328125
1772709068235448800,7.31844873046875,-0.2917938232421875,-0.092559814453125,0.0628204345703125
1772709068245474800,7.328474853515625,-0.3097381591796875,-0.129791259765625,0.074432373046875
1772709068255499800,7.338499755859375,-0.34588623046875,-0.2032012939453125,0.1033935546875
1772709068265525000,7.34852490234375,-0.4138336181640625,-0.2834014892578125,0.1223907470703125
1772709068275550000,7.358550048828125,-0.51226806640625,-0.33770751953125,0.1263580322265625
1772709068285574700,7.36857470703125,-0.627685546875,-0.38043212890625,0.1428985595703125
1772709068295599600,7.378599609375,-0.8135223388671875,-0.47589111328125,0.1530303955078125
1772709068305624800,7.388624755859375,-1.0859222412109375,-0.634368896484375,0.1395111083984375
1772709068315650800,7.39865087890625,-1.3924102783203125,-0.8564300537109375,0.125274658203125
1772709068325675800,7.40867578125,-1.7236328125,-1.0656585693359375,0.1705780029296875
1772709068335700700,7.41870068359375,-1.91436767578125,-1.16510009765625,0.2194671630859375
1772709068345725700,7.4287255859375,-1.8276519775390625,-1.230010986328125,0.1623992919921875
1772709068355751000,7.4387509765625,-1.663330078125,-1.4352264404296875,0.0783538818359375
1772709068365776000,7.44877587890625,-1.6195068359375,-1.6612701416015625,0.0806427001953125
1772709068375800800,7.45880078125,-1.844085693359375,-1.6399383544921875,0.211822509765625
1772709068385825800,7.46882568359375,-2.225311279296875,-1.5116729736328125,0.3996734619140625
1772709068395851800,7.478851806640625,-2.527984619140625,-1.4521636962890625,0.49346923828125
1772709068445976800,7.528976806640625,-1.87872314453125,-1.6659393310546875,-0.15997314453125
1772709068456001800,7.539001708984375,-1.736358642578125,-1.3667144775390625,-0.3623046875
1772709068466026800,7.54902685546875,-1.5089111328125,-1.106719970703125,-0.366607666015625
1772709068476052700,7.559052734375,-1.1700897216796875,-0.9297332763671875,-0.1775665283203125
1772709068486077700,7.56907763671875,-0.8072662353515625,-0.763092041015625,0.0118865966796875
1772709068496103000,7.57910302734375,-0.5091552734375,-0.6112060546875,0.15240478515625
1772709068506128000,7.5891279296875,-0.3029632568359375,-0.52105712890625,0.259063720703125
1772709068516152800,7.59915283203125,-0.2260284423828125,-0.5009918212890625,0.2098388671875
1772709068526177800,7.609177734375,-0.2635040283203125,-0.500213623046875,0.03912353515625
1772709068536203000,7.619203125,-0.313934326171875,-0.44573974609375,-0.17041015625
1772709068546227700,7.629227783203125,-0.3406982421875,-0.382415771484375,-0.3961334228515625
1772709068556253700,7.639253662109375,-0.3513641357421875,-0.3312530517578125,-0.540740966796875
1772709068566278700,7.649278564453125,-0.3452911376953125,-0.3063812255859375,-0.55914306640625
1772709068576303600,7.6593037109375,-0.2831573486328125,-0.3123626708984375,-0.4665374755859375
1772709068586328800,7.669328857421875,-0.1800079345703125,-0.2898101806640625,-0.3201904296875
1772709068596353800,7.679353759765625,-0.1038665771484375,-0.22216796875,-0.1655426025390625
1772709068606378800,7.689378662109375,-0.09735107421875,-0.1374359130859375,-0.023101806640625
1772709068616403700,7.69940380859375,-0.1501922607421875,-0.081268310546875,0.0675201416015625
1772709068626429000,7.709428955078125,-0.2301788330078125,-0.0888214111328125,0.1010284423828125
1772709068636455000,7.719454833984375,-0.2873077392578125,-0.1302642822265625,0.091766357421875
1772709068646480000,7.72947998046875,-0.27166748046875,-0.16876220703125,0.0569915771484375
1772709068656504800,7.7395048828125,-0.1709747314453125,-0.182525634765625,0.0251312255859375
1772709068666529800,7.74952978515625,-0.0746307373046875,-0.204620361328125,0.0100250244140625
1772709068676554800,7.7595546875,-0.0225677490234375,-0.2386322021484375,0.0052337646484375
1772709068686579700,7.769579833984375,-0.00311279296875,-0.2588653564453125,0.003173828125
1772709068696604700,7.779604736328125,-0.00799560546875,-0.2522735595703125,0.0022125244140625
1772709068706629600,7.789629638671875,-0.0330352783203125,-0.236663818359375,0.0003509521484375
1772709068716655600,7.799655517578125,-0.073028564453125,-0.224151611328125,-0.001251220703125
1772709068726680800,7.809680908203125,-0.1266021728515625,-0.1993408203125,-0.00164794921875
1772709068736705800,7.819705810546875,-0.1868133544921875,-0.1677398681640625,0.001495361328125
1772709068746730800,7.829730712890625,-0.2254180908203125,-0.144287109375,0.0016326904296875
1772709068756755700,7.839755615234375,-0.2347564697265625,-0.1302337646484375,-0.00970458984375
1772709068766781000,7.849781005859375,-0.2335052490234375,-0.117889404296875,-0.03509521484375
1772709068776806000,7.859805908203125,-0.22869873046875,-0.11236572265625,-0.05804443359375
1772709068786830800,7.869830810546875,-0.2058563232421875,-0.1171112060546875,-0.04248046875
1772709068796856800,7.87985693359375,-0.1855010986328125,-0.14068603515625,-0.0336151123046875
1772709068806881800,7.8898818359375,-0.2008209228515625,-0.1655731201171875,-0.07086181640625
1772709068816906800,7.89990673828125,-0.254638671875,-0.1833038330078125,-0.1172943115234375
1772709068826931700,7.909931640625,-0.3560333251953125,-0.2063751220703125,-0.132049560546875
1772709068836956700,7.919956787109375,-0.4793853759765625,-0.2916412353515625,-0.0755767822265625
1772709068846982000,7.92998193359375,-0.5774078369140625,-0.4785919189453125,0.028350830078125
1772709068857006800,7.9400068359375,-0.680908203125,-0.636199951171875,0.0849609375
1772709068867031800,7.95003173828125,-0.913604736328125,-0.7528076171875,0.1033172607421875
1772709068877057800,7.960057861328125,-1.2518768310546875,-1.0130157470703125,0.164947509765625
1772709068887082800,7.970082763671875,-1.6075897216796875,-1.377655029296875,0.2718963623046875
1772709068897107700,7.980107666015625,-1.82659912109375,-1.7020416259765625,0.245635986328125
1772709068907133000,7.9901328125,-1.5801544189453125,-1.7272186279296875,-0.0941009521484375
1772709068917158000,8.000157958984374,-1.1960906982421875,-1.684112548828125,-0.4968109130859375
1772709068927182600,8.0101826171875,-1.138916015625,-1.808563232421875,-0.482666015625
1772709068937207800,8.020207763671875,-1.4358367919921875,-1.9589691162109375,-0.04656982421875
1772709068947232800,8.030232666015625,-1.768768310546875,-1.8312530517578125,0.3213653564453125
1772709068957258800,8.0402587890625,-1.9824981689453125,-1.7070770263671875,0.49786376953125
1772709068967283500,8.050283447265626,-1.99072265625,-1.979278564453125,0.6180877685546875
1772709069017408300,8.100408203125,-1.7783050537109375,-1.24560546875,-0.648101806640625
1772709069027433500,8.11043359375,-1.2919769287109375,-0.9658355712890625,-0.4283599853515625
1772709069037459500,8.12045947265625,-0.9239959716796875,-0.7610015869140625,-0.12091064453125
1772709069047484400,8.130484375,-0.71484375,-0.582305908203125,0.1499176025390625
1772709069057509400,8.14050927734375,-0.5683135986328125,-0.4023590087890625,0.308441162109375
1772709069067534300,8.150534423828125,-0.499267578125,-0.3437652587890625,0.2853851318359375
1772709069077559600,8.1605595703125,-0.524658203125,-0.34637451171875,0.1670379638671875
1772709069087584500,8.17058447265625,-0.5638427734375,-0.2994384765625,0.0440216064453125
1772709069097609500,8.180609375,-0.5930328369140625,-0.219268798828125,-0.1045989990234375
1772709069107635500,8.190635498046875,-0.62945556640625,-0.1353607177734375,-0.171600341796875
1772709069117660400,8.200660400390625,-0.5837249755859375,-0.1190948486328125,-0.094879150390625
1772709069127685400,8.210685302734374,-0.4205169677734375,-0.1844024658203125,0.021484375
1772709069137710300,8.22071044921875,-0.2713775634765625,-0.18768310546875,0.07171630859375
1772709069147735300,8.2307353515625,-0.189605712890625,-0.1851348876953125,0.071502685546875
1772709069157760300,8.24076025390625,-0.15533447265625,-0.201141357421875,0.0374755859375
1772709069167785500,8.250785400390624,-0.133026123046875,-0.210357666015625,-0.031707763671875
1772709069177810400,8.260810546875,-0.117828369140625,-0.2396392822265625,-0.1250762939453125
1772709069187836400,8.27083642578125,-0.1366424560546875,-0.26007080078125,-0.2176666259765625
1772709069197861400,8.280861328125,-0.208740234375,-0.25958251953125,-0.271514892578125
1772709069207886300,8.29088623046875,-0.300628662109375,-0.2764434814453125,-0.2401275634765625
1772709069217911600,8.30091162109375,-0.37384033203125,-0.29345703125,-0.1387786865234375
1772709069227936500,8.3109365234375,-0.4234619140625,-0.2835845947265625,-0.064971923828125
1772709069237961500,8.32096142578125,-0.439300537109375,-0.2559814453125,-0.032470703125
1772709069247986400,8.330986328125,-0.40533447265625,-0.2371826171875,-0.0116119384765625
1772709069258011400,8.341011474609376,-0.3455352783203125,-0.2335968017578125,0.008514404296875
1772709069268037400,8.351037353515625,-0.2781982421875,-0.24365234375,0.0265350341796875
1772709069278062300,8.361062255859375,-0.2426910400390625,-0.255462646484375,0.0285491943359375
1772709069288087300,8.37108740234375,-0.2552642822265625,-0.2509307861328125,0.0272979736328125
1772709069298112500,8.381112548828124,-0.25665283203125,-0.2315521240234375,0.0388946533203125
1772709069308137500,8.391137451171875,-0.2492828369140625,-0.1925506591796875,0.0425567626953125
1772709069318162400,8.401162353515625,-0.2626800537109375,-0.161376953125,0.039215087890625
1772709069328187400,8.4111875,-0.2902374267578125,-0.15478515625,0.0433349609375
1772709069338212600,8.421212646484374,-0.3072662353515625,-0.1514129638671875,0.0646209716796875
1772709069348238600,8.431238525390626,-0.332794189453125,-0.155059814453125,0.0855865478515625
1772709069358263600,8.441263671875,-0.3620452880859375,-0.1420745849609375,0.08428955078125
1772709069368288500,8.45128857421875,-0.4053802490234375,-0.0966644287109375,0.0880279541015625
1772709069378313200,8.461313232421874,-0.50408935546875,-0.11639404296875,0.116668701171875
1772709069388338400,8.47133837890625,-0.65478515625,-0.218902587890625,0.1502227783203125
1772709069398363400,8.48136328125,-0.7649688720703125,-0.3226318359375,0.195770263671875
1772709069408388400,8.491388427734375,-0.8104400634765625,-0.4387054443359375,0.23004150390625
1772709069418413300,8.501413330078124,-0.8597259521484375,-0.6003875732421875,0.2849578857421875
1772709069428439300,8.511439208984376,-1.014129638671875,-0.9335174560546875,0.402252197265625
1772709069438464500,8.521464599609375,-1.17559814453125,-1.4001617431640625,0.5235595703125
1772709069448489500,8.531489501953125,-1.204010009765625,-1.7040863037109375,0.5482940673828125
1772709069458514400,8.541514404296874,-1.2441253662109375,-1.8340606689453125,0.3579254150390625
1772709069468539400,8.551539306640626,-1.4685821533203125,-1.771636962890625,0.08416748046875
1772709069478564600,8.561564697265625,-1.95989990234375,-1.461639404296875,-0.0612335205078125
1772709069488589600,8.571589599609375,-2.5365753173828125,-1.241912841796875,0.0047607421875
1772709069528690400,8.6116904296875,-1.8912200927734375,-1.71527099609375,0.482025146484375
1772709069538715400,8.62171533203125,-1.6778717041015625,-1.7653656005859375,0.46697998046875
1772709069548740400,8.631740234375,-1.572845458984375,-1.6167755126953125,0.3787078857421875
1772709069558765300,8.641765380859376,-1.453704833984375,-1.377471923828125,0.2750091552734375
1772709069568790500,8.65179052734375,-1.3077850341796875,-1.1466522216796875,0.1838531494140625
1772709069578815500,8.6618154296875,-1.17791748046875,-0.917205810546875,0.103607177734375
1772709069588841500,8.671841552734374,-1.091796875,-0.7365264892578125,0.041107177734375
1772709069598866400,8.681866455078126,-0.9627532958984375,-0.61846923828125,0.0135040283203125
1772709069608891400,8.691891357421875,-0.7489166259765625,-0.537994384765625,0.040496826171875
1772709069618916600,8.70191650390625,-0.542938232421875,-0.4585418701171875,0.1060028076171875
1772709069628941300,8.71194140625,-0.381134033203125,-0.34246826171875,0.216339111328125
1772709069638966300,8.72196630859375,-0.271392822265625,-0.254669189453125,0.3112945556640625
1772709069648991200,8.7319912109375,-0.184295654296875,-0.236724853515625,0.35052490234375
1772709069659016400,8.742016357421875,-0.12738037109375,-0.187713623046875,0.3265228271484375
1772709069669042400,8.75204248046875,-0.1226348876953125,-0.089691162109375,0.24981689453125
1772709069679067400,8.7620673828125,-0.130157470703125,-0.0128021240234375,0.182525634765625
1772709069689092400,8.77209228515625,-0.0907135009765625,0.0181427001953125,0.14971923828125
1772709069699117300,8.782117431640625,-0.05181884765625,0.02642822265625,0.1487579345703125
1772709069709142500,8.792142578125,-0.0832366943359375,0.0316619873046875,0.182586669921875
1772709069719167500,8.80216748046875,-0.1633758544921875,-0.0041351318359375,0.215362548828125
1772709069729192400,8.8121923828125,-0.21307373046875,-0.0825042724609375,0.2066650390625
1772709069739217400,8.822217529296875,-0.232666015625,-0.1315460205078125,0.1468048095703125
1772709069749243400,8.832243408203125,-0.1993865966796875,-0.14263916015625,0.0644989013671875
1772709069759268600,8.8422685546875,-0.1368408203125,-0.1700592041015625,0.00457763671875
1772709069769293300,8.852293212890626,-0.1100311279296875,-0.183624267578125,-0.0094451904296875
1772709069779318300,8.862318359375,-0.13653564453125,-0.1631927490234375,-0.00177001953125
1772709069789343200,8.87234326171875,-0.1855621337890625,-0.1148681640625,0.0141448974609375
1772709069799368400,8.882368408203124,-0.2578277587890625,-0.0603790283203125,0.006256103515625
1772709069809393400,8.892393310546876,-0.3510589599609375,-0.063751220703125,-0.023681640625
1772709069819418400,8.90241845703125,-0.4136505126953125,-0.0975189208984375,-0.038909912109375
1772709069829444400,8.9124443359375,-0.4220733642578125,-0.106719970703125,-0.0528564453125
1772709069839469300,8.92246923828125,-0.3961334228515625,-0.103851318359375,-0.069915771484375
1772709069849494500,8.93249462890625,-0.3805694580078125,-0.1081695556640625,-0.103729248046875
1772709069859519500,8.94251953125,-0.368682861328125,-0.14093017578125,-0.123870849609375
1772709069869544400,8.95254443359375,-0.3434906005859375,-0.1698760986328125,-0.0823516845703125
1772709069879569400,8.9625693359375,-0.3347320556640625,-0.2231903076171875,-0.0039825439453125
1772709069889594400,8.972594482421876,-0.3104400634765625,-0.2672576904296875,0.0491943359375
1772709069899619300,8.982619384765625,-0.317138671875,-0.3000030517578125,0.081817626953125
1772709069909645300,8.992645263671875,-0.3992156982421875,-0.370025634765625,0.092376708984375
1772709069919670300,9.002670166015625,-0.53875732421875,-0.4722137451171875,0.1270751953125
1772709069929695500,9.012695556640624,-0.6423797607421875,-0.5831451416015625,0.1515350341796875
1772709069939720400,9.022720458984375,-0.73077392578125,-0.648956298828125,0.12646484375
1772709069949745400,9.032745361328125,-0.89093017578125,-0.701507568359375,0.1121826171875
1772709069959770400,9.042770263671875,-1.0800933837890625,-0.895660400390625,0.25469970703125
1772709069969795800,9.0527958984375,-0.9559478759765625,-1.1849517822265625,0.4667510986328125
1772709069979821000,9.062821044921876,-0.64398193359375,-1.219329833984375,0.2085113525390625
1772709069989847000,9.072846923828125,-0.58831787109375,-1.2068328857421875,-0.21502685546875
1772709069999872000,9.0828720703125,-0.9158477783203125,-1.2074432373046875,-0.4630584716796875
1772709070009897000,9.09289697265625,-1.2700347900390625,-1.17974853515625,-0.4246673583984375
1772709070019922000,9.102921875,-1.2447357177734375,-1.1515655517578125,-0.1902923583984375
1772709070029947100,9.112947021484375,-1.0322418212890625,-1.126617431640625,0.012054443359375
1772709070039972000,9.12297216796875,-0.8820037841796875,-1.2078704833984375,0.1212005615234375
