time,seconds_elapsed,z,y,x
1772709133318034400,0.051034423828125,-0.991058349609375,0.05780029296875,-0.0434722900390625
1772709133328059400,0.061059326171875,-0.9968109130859375,0.059295654296875,-0.038665771484375
1772709133338084400,0.07108447265625,-1.0014801025390625,0.06103515625,-0.037628173828125
1772709133348109300,0.081109375,-0.9980926513671875,0.0618438720703125,-0.0403289794921875
1772709133358134300,0.09113427734375,-0.9925384521484375,0.05987548828125,-0.042083740234375
1772709133368159200,0.1011591796875,-0.988616943359375,0.0591278076171875,-0.0401153564453125
1772709133378184200,0.11118408203125,-0.9922027587890625,0.0583648681640625,-0.0394439697265625
1772709133388209400,0.12120947265625,-0.99908447265625,0.0600738525390625,-0.038604736328125
1772709133398234400,0.131234375,-0.9976043701171875,0.0617828369140625,-0.041015625
1772709133408259300,0.14125927734375,-0.995208740234375,0.0616302490234375,-0.0405731201171875
1772709133418284500,0.151284423828125,-0.9930267333984375,0.0605316162109375,-0.0383758544921875
1772709133428309500,0.1613095703125,-0.9908599853515625,0.0593719482421875,-0.03582763671875
1772709133438334500,0.17133447265625,-0.9931640625,0.060455322265625,-0.038848876953125
1772709133448359200,0.181359130859375,-0.9965057373046875,0.061614990234375,-0.0400543212890625
1772709133458384400,0.19138427734375,-0.9953460693359375,0.0602569580078125,-0.0402069091796875
1772709133468409300,0.201409423828125,-0.9952392578125,0.0605316162109375,-0.0391387939453125
1772709133478434300,0.211434326171875,-0.9940643310546875,0.0623016357421875,-0.0362701416015625
1772709133488459300,0.221459228515625,-0.9930419921875,0.062469482421875,-0.0403594970703125
1772709133498484500,0.231484375,-0.9942169189453125,0.06134033203125,-0.0412139892578125
1772709133508509400,0.241509521484375,-0.994781494140625,0.0618438720703125,-0.0410614013671875
1772709133518534400,0.251534423828125,-0.996551513671875,0.0621490478515625,-0.040435791015625
1772709133528559400,0.261559326171875,-0.9960479736328125,0.06103515625,-0.03839111328125
1772709133538584600,0.27158447265625,-0.9942626953125,0.0606842041015625,-0.0399169921875
1772709133548609300,0.281609375,-0.9943389892578125,0.0608673095703125,-0.0400848388671875
1772709133558634200,0.29163427734375,-0.9939422607421875,0.0599517822265625,-0.040771484375
1772709133568659200,0.3016591796875,-0.9952392578125,0.060943603515625,-0.037353515625
1772709133578684400,0.311684326171875,-0.9947967529296875,0.06158447265625,-0.0382232666015625
1772709133588709400,0.32170947265625,-0.995025634765625,0.0620880126953125,-0.0411376953125
1772709133598734300,0.331734375,-0.9940338134765625,0.062652587890625,-0.04010009765625
1772709133608759300,0.34175927734375,-0.995269775390625,0.0625762939453125,-0.039764404296875
1772709133618784500,0.351784423828125,-0.9935150146484375,0.0600433349609375,-0.0388641357421875
1772709133628809500,0.3618095703125,-0.9923095703125,0.0603485107421875,-0.0385284423828125
1772709133638834200,0.371834228515625,-0.99285888671875,0.0620269775390625,-0.0394744873046875
1772709133648859100,0.381859130859375,-0.99749755859375,0.06072998046875,-0.0390625
1772709133658884400,0.39188427734375,-0.9964752197265625,0.0607452392578125,-0.0337677001953125
1772709133668909300,0.401909423828125,-0.9931640625,0.059661865234375,-0.0375213623046875
1772709133678934300,0.411934326171875,-0.9941558837890625,0.061187744140625,-0.0418548583984375
1772709133688959500,0.42195947265625,-0.9960174560546875,0.063262939453125,-0.044586181640625
1772709133698984400,0.431984375,-0.995025634765625,0.06317138671875,-0.0430450439453125
1772709133709009400,0.442009521484375,-0.9935455322265625,0.06109619140625,-0.0397796630859375
1772709133719034400,0.452034423828125,-0.9942169189453125,0.059417724609375,-0.0394287109375
1772709133729059600,0.4620595703125,-0.9970855712890625,0.0605010986328125,-0.0413970947265625
1772709133739084300,0.472084228515625,-0.9953460693359375,0.0627593994140625,-0.0398406982421875
1772709133749109200,0.482109130859375,-0.9937286376953125,0.0631256103515625,-0.0355682373046875
1772709133759134200,0.49213427734375,-0.9928436279296875,0.0623931884765625,-0.0366058349609375
1772709133769159400,0.502159423828125,-0.9940032958984375,0.0618743896484375,-0.037689208984375
1772709133779184400,0.512184326171875,-0.99603271484375,0.0599365234375,-0.0378875732421875
1772709133789209300,0.522209228515625,-0.9951934814453125,0.0609283447265625,-0.0357513427734375
1772709133799234300,0.532234375,-0.9935302734375,0.0607452392578125,-0.03704833984375
1772709133809259500,0.542259521484375,-0.9949188232421875,0.06005859375,-0.0391845703125
1772709133819284500,0.552284423828125,-0.9944305419921875,0.0609893798828125,-0.0391693115234375
1772709133829309400,0.562309326171875,-0.9949951171875,0.060638427734375,-0.0386962890625
1772709133839334100,0.572334228515625,-0.99591064453125,0.0587615966796875,-0.0379180908203125
1772709133849359400,0.582359375,-0.99481201171875,0.0587310791015625,-0.0381317138671875
1772709133859384300,0.59238427734375,-0.9950408935546875,0.060211181640625,-0.03759765625
1772709133869409300,0.6024091796875,-0.995025634765625,0.06085205078125,-0.0397186279296875
1772709133879434200,0.612434326171875,-0.9947662353515625,0.0615692138671875,-0.038848876953125
1772709133889459500,0.62245947265625,-0.995330810546875,0.0623931884765625,-0.038299560546875
1772709133899484400,0.632484375,-0.99530029296875,0.0605926513671875,-0.0381927490234375
1772709133909509400,0.64250927734375,-0.9947662353515625,0.05987548828125,-0.038116455078125
1772709133919534300,0.652534423828125,-0.993896484375,0.0608978271484375,-0.03839111328125
1772709133929559600,0.6625595703125,-0.9957122802734375,0.0610198974609375,-0.038848876953125
1772709133939584300,0.672584228515625,-0.995941162109375,0.0599212646484375,-0.0379180908203125
1772709133949609200,0.682609130859375,-0.995361328125,0.0596466064453125,-0.03790283203125
1772709133959634400,0.692634521484375,-0.9951324462890625,0.060394287109375,-0.0384063720703125
1772709133969659400,0.702659423828125,-0.9951324462890625,0.059539794921875,-0.0374298095703125
1772709133979684400,0.712684326171875,-0.9946746826171875,0.0587310791015625,-0.035980224609375
1772709133989709300,0.722709228515625,-0.9942474365234375,0.0614471435546875,-0.0374908447265625
1772709133999734500,0.732734619140625,-0.9942474365234375,0.0615386962890625,-0.039031982421875
1772709134009759500,0.742759521484375,-0.9956817626953125,0.0594024658203125,-0.039520263671875
1772709134019784400,0.752784423828125,-0.99530029296875,0.0611572265625,-0.0379791259765625
1772709134029809200,0.76280908203125,-0.993896484375,0.0605010986328125,-0.0370941162109375
1772709134039834400,0.77283447265625,-0.99468994140625,0.0605316162109375,-0.038726806640625
1772709134049859300,0.782859375,-0.993865966796875,0.0605621337890625,-0.0375823974609375
1772709134059884000,0.792884033203125,-0.9960479736328125,0.06048583984375,-0.040069580078125
1772709134069909000,0.802908935546875,-0.995513916015625,0.062347412109375,-0.0377349853515625
1772709134079934200,0.812934326171875,-0.9961395263671875,0.06097412109375,-0.038482666015625
1772709134089959200,0.822959228515625,-0.993896484375,0.0605316162109375,-0.03607177734375
1772709134099984100,0.832984130859375,-0.993804931640625,0.0604248046875,-0.03857421875
1772709134110009000,0.843009033203125,-0.99462890625,0.0629119873046875,-0.037689208984375
1772709134120034300,0.853034423828125,-0.9949188232421875,0.0604248046875,-0.03875732421875
1772709134130059300,0.863059326171875,-0.99591064453125,0.0604095458984375,-0.038177490234375
1772709134140084200,0.873084228515625,-0.995574951171875,0.0596923828125,-0.039520263671875
1772709134150109200,0.883109130859375,-0.9947662353515625,0.059478759765625,-0.0391998291015625
1772709134160134100,0.893134033203125,-0.9951019287109375,0.060150146484375,-0.037322998046875
1772709134170159000,0.9031591796875,-0.9954833984375,0.060211181640625,-0.0376434326171875
1772709134180184000,0.91318408203125,-0.9944305419921875,0.0590667724609375,-0.0384368896484375
1772709134190209000,0.923208984375,-0.9931182861328125,0.059967041015625,-0.0384368896484375
1772709134200234200,0.933234130859375,-0.9952850341796875,0.0611114501953125,-0.0396575927734375
1772709134210259200,0.94325927734375,-0.997955322265625,0.0612640380859375,-0.0386962890625
1772709134220284200,0.9532841796875,-0.9956817626953125,0.06024169921875,-0.0382080078125
1772709134230309000,0.96330908203125,-0.99298095703125,0.06341552734375,-0.0383758544921875
1772709134240334300,0.973334228515625,-0.9956207275390625,0.0608367919921875,-0.0375518798828125
1772709134250359300,0.983359375,-0.997100830078125,0.0572052001953125,-0.03399658203125
1772709134260384000,0.993384033203125,-0.99456787109375,0.0584869384765625,-0.033966064453125
1772709134270409200,1.0034091796875,-0.99114990234375,0.058990478515625,-0.0344085693359375
1772709134280434200,1.01343408203125,-0.992034912109375,0.062469482421875,-0.038787841796875
1772709134290459100,1.023459228515625,-0.9946441650390625,0.06427001953125,-0.041412353515625
1772709134300484000,1.033484130859375,-0.996337890625,0.0618743896484375,-0.039215087890625
1772709134310509300,1.04350927734375,-0.996734619140625,0.0599822998046875,-0.0375213623046875
1772709134320534300,1.0535341796875,-0.99468994140625,0.05804443359375,-0.0399932861328125
1772709134330559200,1.063559326171875,-0.993621826171875,0.0572052001953125,-0.039459228515625
1772709134340584200,1.073584228515625,-0.993408203125,0.059783935546875,-0.039031982421875
1772709134350609400,1.083609375,-0.9954071044921875,0.0615386962890625,-0.036834716796875
1772709134360634000,1.093634033203125,-0.99603271484375,0.0628509521484375,-0.0376739501953125
1772709134370659000,1.1036591796875,-0.994598388671875,0.0608978271484375,-0.0384979248046875
1772709134380684000,1.11368408203125,-0.9953460693359375,0.06231689453125,-0.0377960205078125
1772709134390709200,1.123709228515625,-0.9942626953125,0.0627593994140625,-0.036590576171875
1772709134400734200,1.133734130859375,-0.9933319091796875,0.0626678466796875,-0.0384521484375
1772709134410759200,1.14375927734375,-0.9962005615234375,0.0626373291015625,-0.03900146484375
1772709134420784000,1.1537841796875,-0.995147705078125,0.0613555908203125,-0.036376953125
1772709134430809300,1.163809326171875,-0.9947357177734375,0.05975341796875,-0.0382537841796875
1772709134440834300,1.173834228515625,-0.9951171875,0.0608062744140625,-0.037139892578125
1772709134450859300,1.183859375,-0.9953460693359375,0.0611572265625,-0.0358428955078125
1772709134460884000,1.193884033203125,-0.9950408935546875,0.0611724853515625,-0.03692626953125
1772709134470909200,1.2039091796875,-0.9940948486328125,0.06158447265625,-0.0359039306640625
1772709134480934100,1.21393408203125,-0.99407958984375,0.0599517822265625,-0.03692626953125
1772709134490959000,1.223958984375,-0.9952392578125,0.06005859375,-0.0374603271484375
1772709134500984000,1.233984130859375,-0.994232177734375,0.0595855712890625,-0.0373077392578125
1772709134511009300,1.24400927734375,-0.9947509765625,0.0610504150390625,-0.0367431640625
1772709134521034200,1.2540341796875,-0.9942779541015625,0.060150146484375,-0.0386505126953125
1772709134531059200,1.26405908203125,-0.994842529296875,0.0599212646484375,-0.0369873046875
1772709134541084400,1.27408447265625,-0.994415283203125,0.0615692138671875,-0.0366363525390625
1772709134551109000,1.284109130859375,-0.995880126953125,0.0615386962890625,-0.0366363525390625
1772709134561134000,1.294134033203125,-0.9946746826171875,0.0624237060546875,-0.03692626953125
1772709134571159000,1.304158935546875,-0.9935760498046875,0.0621490478515625,-0.0367279052734375
1772709134581184300,1.314184326171875,-0.99530029296875,0.062042236328125,-0.037139892578125
1772709134591209200,1.324209228515625,-0.9956512451171875,0.0615386962890625,-0.0356903076171875
1772709134601234200,1.334234130859375,-0.994781494140625,0.0607757568359375,-0.036041259765625
1772709134611259100,1.344259033203125,-0.9950714111328125,0.0604400634765625,-0.0368194580078125
1772709134621284400,1.354284423828125,-0.9933624267578125,0.0606231689453125,-0.03857421875
1772709134631309300,1.364309326171875,-0.9940032958984375,0.0609893798828125,-0.0374755859375
1772709134641334300,1.374334228515625,-0.9951171875,0.05938720703125,-0.036651611328125
1772709134651359000,1.38435888671875,-0.9942779541015625,0.059722900390625,-0.037994384765625
1772709134661384200,1.39438427734375,-0.995452880859375,0.06048583984375,-0.0386199951171875
1772709134671409200,1.4044091796875,-0.994354248046875,0.060302734375,-0.037933349609375
1772709134681434000,1.41443408203125,-0.994659423828125,0.06048583984375,-0.0382232666015625
1772709134691459000,1.424458984375,-0.9953155517578125,0.060791015625,-0.0378570556640625
1772709134701484300,1.434484375,-0.9951629638671875,0.0609588623046875,-0.038116455078125
1772709134711509200,1.44450927734375,-0.9947357177734375,0.0624847412109375,-0.0365142822265625
1772709134721534200,1.4545341796875,-0.994964599609375,0.0606689453125,-0.037841796875
1772709134731559200,1.46455908203125,-0.9927825927734375,0.06011962890625,-0.036285400390625
1772709134741584400,1.47458447265625,-0.9930877685546875,0.062530517578125,-0.0366973876953125
1772709134751609000,1.484609130859375,-0.9948577880859375,0.06414794921875,-0.03778076171875
1772709134761634000,1.494634033203125,-0.9986724853515625,0.061553955078125,-0.036285400390625
1772709134771659000,1.504658935546875,-0.9957122802734375,0.0591583251953125,-0.0348663330078125
1772709134781684200,1.514684326171875,-0.9928131103515625,0.060211181640625,-0.03643798828125
1772709134791709200,1.524709228515625,-0.9949188232421875,0.060577392578125,-0.038482666015625
1772709134801734100,1.534734130859375,-0.9971771240234375,0.061767578125,-0.039398193359375
1772709134811759400,1.54475927734375,-0.9954681396484375,0.0603485107421875,-0.0381622314453125
1772709134821784300,1.554784423828125,-0.9923248291015625,0.0610504150390625,-0.0369873046875
1772709134831809300,1.564809326171875,-0.9932403564453125,0.0615081787109375,-0.0393524169921875
1772709134841834200,1.574834228515625,-0.993621826171875,0.063262939453125,-0.0391693115234375
1772709134851859200,1.584859130859375,-0.994781494140625,0.06365966796875,-0.0357666015625
1772709134861884200,1.59488427734375,-0.9952545166015625,0.0628662109375,-0.03594970703125
1772709134871909000,1.6049091796875,-0.9954833984375,0.061614990234375,-0.0376129150390625
1772709134881934000,1.61493408203125,-0.9945220947265625,0.0624237060546875,-0.0371856689453125
1772709134891959300,1.624959228515625,-0.9945526123046875,0.0615234375,-0.0372772216796875
1772709134901984300,1.634984375,-0.9951019287109375,0.0606689453125,-0.036285400390625
1772709134912009200,1.64500927734375,-0.99468994140625,0.0614776611328125,-0.0377655029296875
1772709134922034200,1.6550341796875,-0.9923095703125,0.060028076171875,-0.0375823974609375
1772709134932059400,1.665059326171875,-0.99395751953125,0.059234619140625,-0.036590576171875
1772709134942084000,1.675083984375,-0.995758056640625,0.0610504150390625,-0.03643798828125
1772709134952109000,1.685109130859375,-0.994537353515625,0.06097412109375,-0.0387420654296875
1772709134962134000,1.695134033203125,-0.9955596923828125,0.0618133544921875,-0.03790283203125
1772709134972159200,1.7051591796875,-0.993865966796875,0.0617828369140625,-0.0386962890625
1772709134982184200,1.71518408203125,-0.9940032958984375,0.0609283447265625,-0.03826904296875
1772709134992209200,1.725209228515625,-0.99383544921875,0.0619354248046875,-0.037109375
1772709135002234000,1.735234130859375,-0.995269775390625,0.06134033203125,-0.0378875732421875
1772709135012259300,1.74525927734375,-0.9958648681640625,0.0597381591796875,-0.0376434326171875
1772709135022284300,1.7552841796875,-0.992828369140625,0.0604095458984375,-0.038543701171875
1772709135032309000,1.76530908203125,-0.9943084716796875,0.061553955078125,-0.0383758544921875
1772709135042334000,1.775333984375,-0.9957275390625,0.0617523193359375,-0.037322998046875
1772709135052359200,1.785359130859375,-0.99517822265625,0.06109619140625,-0.0392303466796875
1772709135062384000,1.795384033203125,-0.995513916015625,0.0599517822265625,-0.03759765625
1772709135072409000,1.8054091796875,-0.9942474365234375,0.0601806640625,-0.0394744873046875
1772709135082434300,1.815434326171875,-0.9944000244140625,0.061065673828125,-0.0386505126953125
1772709135092459000,1.825458984375,-0.9947509765625,0.0611572265625,-0.03765869140625
1772709135102484000,1.83548388671875,-0.9935150146484375,0.061614990234375,-0.03729248046875
1772709135112509000,1.845509033203125,-0.994598388671875,0.060516357421875,-0.038238525390625
1772709135122534100,1.8555341796875,-0.9947357177734375,0.0605621337890625,-0.037750244140625
1772709135132559000,1.86555908203125,-0.9957427978515625,0.061065673828125,-0.037567138671875
1772709135142584000,1.875583984375,-0.9947967529296875,0.060516357421875,-0.0380706787109375
1772709135152609000,1.885609130859375,-0.993988037109375,0.06201171875,-0.037872314453125
1772709135162634200,1.89563427734375,-0.9945526123046875,0.06085205078125,-0.0378875732421875
1772709135172659200,1.9056591796875,-0.995391845703125,0.0613555908203125,-0.0389556884765625
1772709135182684200,1.91568408203125,-0.995513916015625,0.06024169921875,-0.0383758544921875
1772709135192708900,1.925708984375,-0.9953460693359375,0.060791015625,-0.0380706787109375
1772709135202734000,1.935734130859375,-0.993072509765625,0.0616302490234375,-0.0394439697265625
1772709135212759000,1.945759033203125,-0.9945068359375,0.061126708984375,-0.0395355224609375
1772709135222784000,1.955783935546875,-0.9945831298828125,0.0616455078125,-0.038116455078125
1772709135232809000,1.96580908203125,-0.994232177734375,0.0613250732421875,-0.037628173828125
1772709135242834200,1.975834228515625,-0.9946441650390625,0.0611114501953125,-0.03814697265625
1772709135252859100,1.985859130859375,-0.9947357177734375,0.0601959228515625,-0.03778076171875
1772709135262884000,1.995884033203125,-0.99517822265625,0.0601806640625,-0.038970947265625
1772709135272909000,2.005908935546875,-0.994140625,0.0604248046875,-0.0376739501953125
1772709135282934000,2.01593408203125,-0.9935302734375,0.06268310546875,-0.0383453369140625
1772709135292959000,2.025958984375,-0.996124267578125,0.06402587890625,-0.038055419921875
1772709135302984000,2.03598388671875,-0.9965362548828125,0.0609283447265625,-0.0368194580078125
1772709135313009000,2.0460087890625,-0.9950408935546875,0.0601959228515625,-0.036651611328125
1772709135323034000,2.0560341796875,-0.9939117431640625,0.06134033203125,-0.0394439697265625
1772709135333059000,2.06605908203125,-0.9944000244140625,0.0622100830078125,-0.0425872802734375
1772709135343084000,2.076083984375,-0.995819091796875,0.0623931884765625,-0.0420074462890625
1772709135353109200,2.086109130859375,-0.9938201904296875,0.0601043701171875,-0.0381927490234375
1772709135363134200,2.09613427734375,-0.994476318359375,0.0601806640625,-0.037872314453125
1772709135373159200,2.1061591796875,-0.99627685546875,0.0613861083984375,-0.0392913818359375
1772709135383184000,2.116183837890625,-0.9964447021484375,0.063934326171875,-0.0400848388671875
1772709135393209000,2.126208984375,-0.99481201171875,0.0640411376953125,-0.03790283203125
1772709135403234000,2.136234130859375,-0.992919921875,0.061737060546875,-0.037017822265625
1772709135413259000,2.146259033203125,-0.9932708740234375,0.0601043701171875,-0.0377960205078125
1772709135423284000,2.156283935546875,-0.9954376220703125,0.0599212646484375,-0.03759765625
1772709135433309200,2.16630908203125,-0.994659423828125,0.0622100830078125,-0.0392913818359375
1772709135443334100,2.176334228515625,-0.9954376220703125,0.0627593994140625,-0.0388031005859375
1772709135453359000,2.186359130859375,-0.9962310791015625,0.0601654052734375,-0.0394439697265625
1772709135463384000,2.196384033203125,-0.994293212890625,0.061981201171875,-0.039276123046875
1772709135473409300,2.2064091796875,-0.9938507080078125,0.0621490478515625,-0.03875732421875
1772709135483434000,2.21643408203125,-0.994232177734375,0.0611572265625,-0.0387420654296875
1772709135493459000,2.226458984375,-0.9950408935546875,0.0623779296875,-0.0388336181640625
1772709135503484000,2.23648388671875,-0.9948883056640625,0.0629730224609375,-0.0398101806640625
1772709135513509000,2.246509033203125,-0.9950408935546875,0.0616912841796875,-0.0378875732421875
1772709135523534000,2.2565341796875,-0.9941558837890625,0.06158447265625,-0.0370635986328125
1772709135533559000,2.26655908203125,-0.99456787109375,0.0619354248046875,-0.0390777587890625
1772709135543584000,2.276583984375,-0.9952239990234375,0.0619659423828125,-0.038177490234375
1772709135553609200,2.286609130859375,-0.9953460693359375,0.0616607666015625,-0.0384063720703125
1772709135563634200,2.29663427734375,-0.9932403564453125,0.06170654296875,-0.039031982421875
1772709135573659100,2.3066591796875,-0.994110107421875,0.064453125,-0.0399627685546875
1772709135583683800,2.316683837890625,-0.9958038330078125,0.06304931640625,-0.0384521484375
1772709135593709000,2.326708984375,-0.99407958984375,0.06195068359375,-0.0393829345703125
1772709135603734000,2.336734130859375,-0.9937744140625,0.0617523193359375,-0.0407867431640625
1772709135613759000,2.346759033203125,-0.99462890625,0.0623779296875,-0.039581298828125
1772709135623784200,2.3567841796875,-0.9958953857421875,0.0626678466796875,-0.038787841796875
1772709135633809200,2.36680908203125,-0.994232177734375,0.0619659423828125,-0.037200927734375
1772709135643834000,2.376834228515625,-0.994384765625,0.0621185302734375,-0.036712646484375
1772709135653859000,2.386859130859375,-0.99407958984375,0.06280517578125,-0.03900146484375
1772709135663884300,2.39688427734375,-0.9947967529296875,0.0639190673828125,-0.03924560546875
1772709135673909000,2.406908935546875,-0.9936676025390625,0.0625152587890625,-0.0388336181640625
1772709135683934000,2.416933837890625,-0.994873046875,0.06231689453125,-0.038482666015625
1772709135693959000,2.426958984375,-0.9945526123046875,0.0626068115234375,-0.03924560546875
1772709135703984000,2.436984130859375,-0.99530029296875,0.0620574951171875,-0.039154052734375
1772709135714009000,2.447009033203125,-0.99493408203125,0.063690185546875,-0.040374755859375
1772709135724034000,2.457033935546875,-0.9940338134765625,0.0643157958984375,-0.0394439697265625
1772709135734059000,2.46705908203125,-0.9942169189453125,0.0620880126953125,-0.03936767578125
1772709135744084200,2.477084228515625,-0.9958038330078125,0.06280517578125,-0.039093017578125
1772709135754109200,2.487109130859375,-0.9944305419921875,0.0626373291015625,-0.038543701171875
1772709135764134100,2.497134033203125,-0.9951629638671875,0.0617523193359375,-0.03936767578125
1772709135774158800,2.507158935546875,-0.9947662353515625,0.0626220703125,-0.03765869140625
1772709135784184000,2.51718408203125,-0.9971771240234375,0.0608062744140625,-0.0370025634765625
1772709135794209000,2.527208984375,-0.9927215576171875,0.060546875,-0.038604736328125
1772709135804234000,2.53723388671875,-0.9927215576171875,0.0638580322265625,-0.038787841796875
1772709135814259000,2.547259033203125,-0.9971771240234375,0.0632476806640625,-0.03802490234375
1772709135824284200,2.5572841796875,-0.997406005859375,0.06097412109375,-0.0374908447265625
1772709135834309000,2.56730908203125,-0.9932861328125,0.060089111328125,-0.0361175537109375
1772709135844334000,2.577333984375,-0.992919921875,0.0604248046875,-0.03912353515625
1772709135854359000,2.587359130859375,-0.993865966796875,0.0617828369140625,-0.0413818359375
1772709135864384300,2.59738427734375,-0.9951019287109375,0.062347412109375,-0.0391387939453125
1772709135874409000,2.607408935546875,-0.99371337890625,0.0611724853515625,-0.037689208984375
1772709135884434000,2.617433837890625,-0.9961700439453125,0.0593109130859375,-0.03802490234375
1772709135894459100,2.627459228515625,-0.995513916015625,0.0627899169921875,-0.0384063720703125
1772709135904484000,2.637484130859375,-0.9938507080078125,0.0643157958984375,-0.0402984619140625
1772709135914509000,2.647509033203125,-0.993194580078125,0.06353759765625,-0.0369415283203125
1772709135924534000,2.657533935546875,-0.9935760498046875,0.0613861083984375,-0.0354766845703125
1772709135934559200,2.667559326171875,-0.994354248046875,0.060577392578125,-0.0369415283203125
1772709135944584200,2.677584228515625,-0.9962005615234375,0.061004638671875,-0.0390625
1772709135954609200,2.687609130859375,-0.9964141845703125,0.0615081787109375,-0.036712646484375
1772709135964634000,2.697634033203125,-0.993988037109375,0.0619659423828125,-0.0371246337890625
1772709135974659000,2.7076591796875,-0.993438720703125,0.06201171875,-0.038970947265625
1772709135984684000,2.71768408203125,-0.9934234619140625,0.0625,-0.038238525390625
1772709135994709000,2.727708984375,-0.9962158203125,0.0626983642578125,-0.03753662109375
1772709136004734000,2.73773388671875,-0.9952850341796875,0.0623626708984375,-0.0376739501953125
1772709136014759200,2.74775927734375,-0.9951171875,0.062164306640625,-0.037078857421875
1772709136024784100,2.7577841796875,-0.995208740234375,0.06158447265625,-0.03826904296875
1772709136034809000,2.76780908203125,-0.9938201904296875,0.0602569580078125,-0.0387725830078125
1772709136044834000,2.777833984375,-0.99395751953125,0.0599517822265625,-0.03765869140625
1772709136054859300,2.787859375,-0.9941864013671875,0.063018798828125,-0.037200927734375
1772709136064884200,2.79788427734375,-0.9949951171875,0.0623626708984375,-0.037750244140625
1772709136074909200,2.8079091796875,-0.994293212890625,0.0625457763671875,-0.03759765625
1772709136084934100,2.81793408203125,-0.9951171875,0.061859130859375,-0.036773681640625
1772709136094959400,2.82795947265625,-0.9961700439453125,0.0628662109375,-0.037353515625
1772709136104984300,2.837984375,-0.995513916015625,0.0618896484375,-0.038787841796875
1772709136115009300,2.84800927734375,-0.9957427978515625,0.0614166259765625,-0.0381622314453125
1772709136125034000,2.858033935546875,-0.9949493408203125,0.0614776611328125,-0.037567138671875
1772709136135059200,2.86805908203125,-0.9947662353515625,0.061004638671875,-0.037872314453125
1772709136145084200,2.878084228515625,-0.9952545166015625,0.0611572265625,-0.0365142822265625
1772709136155109000,2.888109130859375,-0.9963531494140625,0.061553955078125,-0.036773681640625
1772709136165134000,2.898134033203125,-0.9952850341796875,0.0605926513671875,-0.03704833984375
1772709136175159300,2.9081591796875,-0.9943695068359375,0.0605010986328125,-0.0378570556640625
1772709136185184300,2.918184326171875,-0.994598388671875,0.0608978271484375,-0.0373992919921875
1772709136195209200,2.928209228515625,-0.992889404296875,0.0624237060546875,-0.0367889404296875
1772709136205234200,2.938234130859375,-0.9926300048828125,0.06109619140625,-0.03619384765625
1772709136215259100,2.948259033203125,-0.99493408203125,0.060394287109375,-0.037384033203125
1772709136225284000,2.9582841796875,-0.995361328125,0.0619659423828125,-0.0381317138671875
1772709136235309000,2.96830908203125,-0.99383544921875,0.0606536865234375,-0.037200927734375
1772709136245334300,2.978334228515625,-0.995086669921875,0.06121826171875,-0.0384521484375
1772709136255359200,2.988359130859375,-0.9951019287109375,0.063201904296875,-0.0381317138671875
1772709136265384200,2.99838427734375,-0.9957275390625,0.0641937255859375,-0.03863525390625
1772709136275409200,3.0084091796875,-0.9947662353515625,0.063262939453125,-0.0385284423828125
1772709136285434400,3.018434326171875,-0.9943084716796875,0.0623016357421875,-0.0365447998046875
1772709136295459300,3.028459228515625,-0.9954376220703125,0.0611114501953125,-0.03662109375
1772709136305484300,3.038484375,-0.99322509765625,0.059356689453125,-0.0371551513671875
1772709136315508200,3.04850830078125,-0.9929656982421875,0.05950927734375,-0.0379486083984375
1772709136325533200,3.058533203125,-0.9924468994140625,0.06280517578125,-0.03851318359375
1772709136335558100,3.06855810546875,-0.9976959228515625,0.0628814697265625,-0.03875732421875
1772709136345583000,3.0785830078125,-0.998291015625,0.0606689453125,-0.0366973876953125
1772709136355608300,3.0886083984375,-0.993072509765625,0.058807373046875,-0.0361328125
1772709136365633300,3.09863330078125,-0.99102783203125,0.0589752197265625,-0.037384033203125
1772709136375658200,3.108658203125,-0.99530029296875,0.06207275390625,-0.0387725830078125
1772709136385683200,3.11868310546875,-0.9967498779296875,0.06182861328125,-0.0367431640625
1772709136395708200,3.128708251953125,-0.995880126953125,0.0615081787109375,-0.036041259765625
1772709136405733000,3.138733154296875,-0.9942626953125,0.060516357421875,-0.0369110107421875
1772709136415758000,3.148758056640625,-0.9947509765625,0.0618438720703125,-0.03826904296875
1772709136425783000,3.158782958984375,-0.994476318359375,0.06396484375,-0.0360565185546875
1772709136435808300,3.168808349609375,-0.9935760498046875,0.06365966796875,-0.0358428955078125
1772709136445833200,3.178833251953125,-0.996124267578125,0.0631103515625,-0.0371551513671875
1772709136455858200,3.188858154296875,-0.9954376220703125,0.0629425048828125,-0.0364532470703125
1772709136465883100,3.198883056640625,-0.9940338134765625,0.0627899169921875,-0.038360595703125
1772709136475908400,3.208908447265625,-0.9944000244140625,0.0601959228515625,-0.03668212890625
1772709136485933300,3.218933349609375,-0.993499755859375,0.05865478515625,-0.036590576171875
1772709136495958000,3.2289580078125,-0.9933929443359375,0.059967041015625,-0.0379638671875
1772709136505983200,3.238983154296875,-0.9966888427734375,0.0600433349609375,-0.036865234375
1772709136516008200,3.24900830078125,-0.99578857421875,0.0612030029296875,-0.036712646484375
1772709136526033200,3.259033203125,-0.993804931640625,0.0615692138671875,-0.0360565185546875
1772709136536058000,3.26905810546875,-0.995391845703125,0.0614471435546875,-0.035400390625
1772709136546083300,3.279083251953125,-0.9951324462890625,0.062652587890625,-0.0380859375
1772709136556108300,3.2891083984375,-0.99603271484375,0.063079833984375,-0.0377960205078125
1772709136566133200,3.29913330078125,-0.9939117431640625,0.0626068115234375,-0.03717041015625
1772709136576158200,3.309158203125,-0.9945068359375,0.061065673828125,-0.038177490234375
1772709136586183200,3.31918310546875,-0.9959259033203125,0.0615997314453125,-0.0394439697265625
1772709136596208000,3.3292080078125,-0.9938812255859375,0.062408447265625,-0.0391082763671875
1772709136606233000,3.339233154296875,-0.993743896484375,0.0623626708984375,-0.03826904296875
1772709136616258000,3.349258056640625,-0.995574951171875,0.06207275390625,-0.03802490234375
1772709136626283300,3.359283203125,-0.996002197265625,0.0623931884765625,-0.036865234375
1772709136636308200,3.36930810546875,-0.99462890625,0.061248779296875,-0.036376953125
1772709136646333200,3.379333251953125,-0.9946441650390625,0.060760498046875,-0.0388641357421875
1772709136656358100,3.389358154296875,-0.9957122802734375,0.0608062744140625,-0.036956787109375
1772709136666383400,3.39938330078125,-0.99432373046875,0.0630950927734375,-0.0384063720703125
1772709136676408300,3.409408203125,-0.9944610595703125,0.061614990234375,-0.036407470703125
1772709136686433000,3.41943310546875,-0.993499755859375,0.061431884765625,-0.03515625
1772709136696458000,3.4294580078125,-0.993621826171875,0.0628204345703125,-0.0372772216796875
1772709136706483200,3.439483154296875,-0.9943389892578125,0.05902099609375,-0.0366058349609375
1772709136716508200,3.449508056640625,-0.992767333984375,0.0624542236328125,-0.0356597900390625
1772709136726533000,3.459533203125,-0.99493408203125,0.062225341796875,-0.037322998046875
1772709136736558000,3.46955810546875,-0.9967803955078125,0.058868408203125,-0.0362701416015625
1772709136746583300,3.479583251953125,-0.991180419921875,0.0604705810546875,-0.0357208251953125
1772709136756608300,3.489608154296875,-0.9929046630859375,0.0616912841796875,-0.037078857421875
1772709136766633200,3.49963330078125,-1.000213623046875,0.06109619140625,-0.0374603271484375
1772709136776658200,3.509658203125,-0.99407958984375,0.06231689453125,-0.036529541015625
1772709136786683100,3.51968310546875,-0.992431640625,0.0625,-0.0379791259765625
1772709136796708000,3.5297080078125,-0.9967041015625,0.05889892578125,-0.0360260009765625
1772709136806733000,3.539733154296875,-0.9923858642578125,0.0616302490234375,-0.0385589599609375
1772709136816758300,3.54975830078125,-0.9931640625,0.06280517578125,-0.036590576171875
1772709136826783200,3.559783203125,-0.99755859375,0.061248779296875,-0.0383758544921875
1772709136836808200,3.56980810546875,-0.994964599609375,0.0598297119140625,-0.0369110107421875
1772709136846833200,3.579833251953125,-0.9910125732421875,0.060760498046875,-0.0378265380859375
1772709136856858400,3.5898583984375,-0.992706298828125,0.0587158203125,-0.0373992919921875
1772709136866883300,3.59988330078125,-0.995697021484375,0.06182861328125,-0.041046142578125
1772709136876908300,3.609908203125,-0.9968719482421875,0.063262939453125,-0.0377044677734375
1772709136886933000,3.61993310546875,-0.996673583984375,0.0591583251953125,-0.036956787109375
1772709136896958200,3.629958251953125,-0.993011474609375,0.0608673095703125,-0.0358123779296875
1772709136906983200,3.639983154296875,-0.99249267578125,0.0617218017578125,-0.037841796875
1772709136917008100,3.650008056640625,-0.99700927734375,0.061737060546875,-0.0387115478515625
1772709136927033000,3.660033203125,-0.9971923828125,0.0630035400390625,-0.0390777587890625
1772709136937058300,3.670058349609375,-0.9942169189453125,0.0601806640625,-0.037384033203125
1772709136947083300,3.680083251953125,-0.99456787109375,0.0594482421875,-0.0384979248046875
1772709136957108200,3.690108154296875,-0.9944000244140625,0.06158447265625,-0.0392608642578125
1772709136967133200,3.70013330078125,-0.9940338134765625,0.064666748046875,-0.0374603271484375
1772709136977158400,3.710158447265625,-0.995330810546875,0.0646209716796875,-0.035797119140625
1772709136987183000,3.72018310546875,-0.994964599609375,0.0627288818359375,-0.0356903076171875
1772709136997208000,3.7302080078125,-0.9930267333984375,0.0626983642578125,-0.037506103515625
1772709137007233000,3.74023291015625,-0.9938507080078125,0.061370849609375,-0.0370025634765625
1772709137017258200,3.75025830078125,-0.9954071044921875,0.0599517822265625,-0.0355072021484375
1772709137027283200,3.760283203125,-0.994903564453125,0.06036376953125,-0.038116455078125
1772709137037308700,3.77030859375,-0.9957275390625,0.059844970703125,-0.0378875732421875
1772709137047333600,3.780333740234375,-0.993438720703125,0.061767578125,-0.0366363525390625
1772709137057358600,3.790358642578125,-0.992401123046875,0.0637054443359375,-0.0370635986328125
1772709137067383600,3.800383544921875,-0.9947052001953125,0.0618896484375,-0.035369873046875
1772709137077408500,3.810408447265625,-0.9964447021484375,0.06243896484375,-0.0383148193359375
1772709137087433500,3.82043359375,-0.9934539794921875,0.0630035400390625,-0.03802490234375
1772709137097458700,3.830458740234375,-0.993988037109375,0.061798095703125,-0.0383148193359375
1772709137107483600,3.840483642578125,-0.9944610595703125,0.0568695068359375,-0.04052734375
1772709137117508600,3.850508544921875,-0.994171142578125,0.061126708984375,-0.038330078125
1772709137127533600,3.860533447265625,-0.9994659423828125,0.0658111572265625,-0.0345306396484375
1772709137137558800,3.870558837890625,-0.993194580078125,0.063812255859375,-0.0384674072265625
1772709137147583700,3.880583740234375,-0.99078369140625,0.0616912841796875,-0.0388641357421875
1772709137157608400,3.8906083984375,-0.992401123046875,0.0583648681640625,-0.037200927734375
1772709137167633400,3.90063330078125,-0.99810791015625,0.0586090087890625,-0.036163330078125
1772709137177658600,3.91065869140625,-0.99566650390625,0.062530517578125,-0.0363922119140625
1772709137187683600,3.92068359375,-0.9948577880859375,0.0628204345703125,-0.0406951904296875
1772709137197708500,3.93070849609375,-0.9925537109375,0.0599212646484375,-0.0407257080078125
1772709137207733500,3.9407333984375,-0.9917144775390625,0.06280517578125,-0.0375518798828125
1772709137217758700,3.9507587890625,-0.9938507080078125,0.063262939453125,-0.03497314453125
1772709137227783700,3.96078369140625,-0.996612548828125,0.0631561279296875,-0.0387725830078125
1772709137237808600,3.97080859375,-0.9962005615234375,0.0628662109375,-0.038818359375
1772709137247833600,3.98083349609375,-0.992889404296875,0.0624542236328125,-0.0375213623046875
1772709137257858600,3.990858642578125,-0.9927978515625,0.0618133544921875,-0.037078857421875
1772709137267883500,4.000883544921875,-0.9945831298828125,0.0623779296875,-0.037384033203125
1772709137277908500,4.010908447265625,-0.994293212890625,0.06146240234375,-0.0387420654296875
1772709137287933700,4.02093359375,-0.995208740234375,0.061553955078125,-0.0376129150390625
1772709137297958700,4.030958740234375,-0.995086669921875,0.060821533203125,-0.0378265380859375
1772709137307983600,4.040983642578125,-0.9947967529296875,0.06207275390625,-0.0386199951171875
1772709137318008600,4.051008544921875,-0.99560546875,0.0625457763671875,-0.036956787109375
1772709137328033800,4.06103369140625,-0.995697021484375,0.0612335205078125,-0.037994384765625
1772709137338058800,4.071058837890625,-0.993408203125,0.0611419677734375,-0.039276123046875
1772709137348083500,4.08108349609375,-0.9936370849609375,0.0611419677734375,-0.038177490234375
1772709137358108400,4.0911083984375,-0.9948272705078125,0.06231689453125,-0.0380401611328125
1772709137368133600,4.101133544921875,-0.9942626953125,0.0598602294921875,-0.037261962890625
1772709137378158600,4.11115869140625,-0.9929046630859375,0.059173583984375,-0.0389862060546875
1772709137388183600,4.12118359375,-0.9921875,0.0623626708984375,-0.0389556884765625
1772709137398208500,4.13120849609375,-0.9954986572265625,0.0643463134765625,-0.039794921875
1772709137408233700,4.141233642578125,-0.9992828369140625,0.0616302490234375,-0.0376129150390625
1772709137418258700,4.1512587890625,-0.996002197265625,0.0578765869140625,-0.035736083984375
1772709137428283600,4.16128369140625,-0.9909820556640625,0.0589752197265625,-0.038299560546875
1772709137438308600,4.17130859375,-0.9932098388671875,0.0614471435546875,-0.04132080078125
1772709137448333600,4.18133349609375,-0.9951324462890625,0.062225341796875,-0.0429229736328125
1772709137458358500,4.191358642578125,-0.9953460693359375,0.0610809326171875,-0.039764404296875
1772709137468383500,4.201383544921875,-0.993499755859375,0.062164306640625,-0.0367279052734375
1772709137478408400,4.211408447265625,-0.99505615234375,0.062408447265625,-0.038665771484375
1772709137488433700,4.22143359375,-0.996185302734375,0.0637054443359375,-0.039886474609375
1772709137498458600,4.231458740234375,-0.994781494140625,0.0648651123046875,-0.037994384765625
1772709137508483600,4.241483642578125,-0.9937286376953125,0.06292724609375,-0.0358734130859375
1772709137518508800,4.2515087890625,-0.9910888671875,0.061676025390625,-0.0371246337890625
1772709137528533800,4.26153369140625,-0.9937744140625,0.06103515625,-0.03857421875
1772709137538558700,4.271558837890625,-0.9957275390625,0.061553955078125,-0.0383453369140625
1772709137548583400,4.28158349609375,-0.9965972900390625,0.0611724853515625,-0.038177490234375
1772709137558608600,4.291608642578125,-0.994293212890625,0.06060791015625,-0.038604736328125
1772709137568633600,4.301633544921875,-0.9920196533203125,0.0600738525390625,-0.0383758544921875
1772709137578658600,4.311658447265625,-0.9928741455078125,0.0620269775390625,-0.038604736328125
1772709137588683500,4.32168359375,-0.9942626953125,0.061859130859375,-0.0384979248046875
1772709137598708700,4.331708740234375,-0.995025634765625,0.0615234375,-0.03802490234375
1772709137608733700,4.341733642578125,-0.9951019287109375,0.061614990234375,-0.039031982421875
1772709137618758700,4.351758544921875,-0.9948272705078125,0.0624847412109375,-0.040283203125
1772709137628783600,4.36178369140625,-0.99371337890625,0.061126708984375,-0.0397491455078125
1772709137638808600,4.37180859375,-0.994476318359375,0.0594024658203125,-0.0389862060546875
1772709137648833500,4.38183349609375,-0.9940032958984375,0.059417724609375,-0.0379180908203125
1772709137658858500,4.3918583984375,-0.994049072265625,0.0592193603515625,-0.037872314453125
1772709137668883500,4.401883544921875,-0.9940948486328125,0.0632781982421875,-0.0394287109375
1772709137678908700,4.41190869140625,-0.9929962158203125,0.0624237060546875,-0.0399627685546875
1772709137688933600,4.42193359375,-0.996185302734375,0.06292724609375,-0.0394439697265625
1772709137698958600,4.43195849609375,-0.994842529296875,0.0626373291015625,-0.039642333984375
1772709137708983600,4.441983642578125,-0.993255615234375,0.061767578125,-0.03961181640625
1772709137719008800,4.4520087890625,-0.9928131103515625,0.063507080078125,-0.038818359375
1772709137729033700,4.46203369140625,-0.99456787109375,0.063262939453125,-0.0373382568359375
1772709137739058400,4.472058349609375,-0.994537353515625,0.0635528564453125,-0.03851318359375
1772709137749083400,4.48208349609375,-0.994659423828125,0.06219482421875,-0.0383148193359375
1772709137759108600,4.492108642578125,-0.99566650390625,0.06219482421875,-0.037750244140625
1772709137769133600,4.502133544921875,-0.9946136474609375,0.0630645751953125,-0.03985595703125
1772709137779158500,4.512158447265625,-0.9953460693359375,0.062042236328125,-0.0400543212890625
1772709137789183700,4.522183837890625,-0.993560791015625,0.061676025390625,-0.0371856689453125
1772709137799208700,4.532208740234375,-0.995391845703125,0.0596160888671875,-0.0375823974609375
1772709137809233700,4.542233642578125,-0.9951934814453125,0.061248779296875,-0.0390777587890625
1772709137819258600,4.552258544921875,-0.993927001953125,0.06134033203125,-0.0386505126953125
1772709137829283800,4.562283935546875,-0.994293212890625,0.0640716552734375,-0.037322998046875
1772709137839308500,4.57230859375,-0.9946136474609375,0.0644073486328125,-0.0378570556640625
1772709137849333500,4.58233349609375,-0.9936676025390625,0.06439208984375,-0.0391845703125
1772709137859358500,4.5923583984375,-0.994232177734375,0.0639801025390625,-0.0387115478515625
1772709137869383700,4.6023837890625,-0.9947967529296875,0.06231689453125,-0.037811279296875
1772709137879408600,4.61240869140625,-0.9952850341796875,0.0614013671875,-0.039520263671875
1772709137889433600,4.62243359375,-0.9954071044921875,0.0608367919921875,-0.03851318359375
1772709137899458600,4.63245849609375,-0.9926605224609375,0.0603790283203125,-0.040374755859375
1772709137909483800,4.64248388671875,-0.991455078125,0.0622711181640625,-0.0403594970703125
1772709137919508700,4.6525087890625,-0.9964141845703125,0.0641326904296875,-0.0401153564453125
1772709137929533700,4.66253369140625,-0.9976959228515625,0.06231689453125,-0.0375823974609375
1772709137939558400,4.672558349609375,-0.9936370849609375,0.0604095458984375,-0.035247802734375
1772709137949583600,4.68258349609375,-0.9927215576171875,0.060394287109375,-0.0382080078125
1772709137959608600,4.692608642578125,-0.993682861328125,0.0629730224609375,-0.0410308837890625
1772709137969633500,4.702633544921875,-0.9957122802734375,0.063079833984375,-0.0413055419921875
1772709137979658500,4.712658447265625,-0.994842529296875,0.061187744140625,-0.0369415283203125
1772709137989683700,4.72268359375,-0.9935302734375,0.05999755859375,-0.03692626953125
1772709137999708700,4.732708740234375,-0.9952392578125,0.0624847412109375,-0.0387725830078125
1772709138009733600,4.742733642578125,-0.9965667724609375,0.0657806396484375,-0.0398712158203125
1772709138019758600,4.752758544921875,-0.99481201171875,0.0658111572265625,-0.036376953125
1772709138029783600,4.762783447265625,-0.995147705078125,0.062530517578125,-0.036102294921875
1772709138039808800,4.772808837890625,-0.9937591552734375,0.0627288818359375,-0.03643798828125
1772709138049833700,4.782833740234375,-0.99468994140625,0.061676025390625,-0.0366058349609375
1772709138059858700,4.792858642578125,-0.995452880859375,0.0613555908203125,-0.0374298095703125
1772709138069883600,4.802883544921875,-0.9960174560546875,0.0611724853515625,-0.0384368896484375
1772709138079908600,4.81290869140625,-0.995208740234375,0.0615234375,-0.0390777587890625
1772709138089933600,4.82293359375,-0.994232177734375,0.061553955078125,-0.0369720458984375
1772709138099958800,4.832958740234375,-0.9940948486328125,0.0623016357421875,-0.036895751953125
1772709138109983700,4.842983642578125,-0.995697021484375,0.0632171630859375,-0.037872314453125
1772709138120008700,4.8530087890625,-0.9969024658203125,0.064208984375,-0.0380859375
1772709138130033700,4.86303369140625,-0.9955291748046875,0.0624542236328125,-0.038238525390625
1772709138140059000,4.873058837890625,-0.994384765625,0.0620269775390625,-0.037933349609375
1772709138150083800,4.883083740234375,-0.994140625,0.061614990234375,-0.0383148193359375
1772709138160108800,4.89310888671875,-0.9928741455078125,0.0624542236328125,-0.03857421875
1772709138170133500,4.903133544921875,-0.994598388671875,0.0620269775390625,-0.038848876953125
1772709138180158700,4.91315869140625,-0.994903564453125,0.0610809326171875,-0.038177490234375
1772709138190183700,4.92318359375,-0.994873046875,0.0617828369140625,-0.0367889404296875
1772709138200208600,4.933208740234375,-0.9952239990234375,0.06256103515625,-0.03790283203125
1772709138210233600,4.943233642578125,-0.9954681396484375,0.060028076171875,-0.0385589599609375
1772709138220258800,4.9532587890625,-0.9952239990234375,0.059295654296875,-0.039093017578125
1772709138230283800,4.96328369140625,-0.99346923828125,0.0611114501953125,-0.038055419921875
1772709138240308700,4.973308837890625,-0.994293212890625,0.0623016357421875,-0.039764404296875
1772709138250333700,4.983333740234375,-0.995697021484375,0.061981201171875,-0.0387420654296875
1772709138260358700,4.993358642578125,-0.995330810546875,0.0615997314453125,-0.0372772216796875
1772709138270383600,5.003383544921875,-0.9951171875,0.0628204345703125,-0.0370025634765625
1772709138280408600,5.01340869140625,-0.99517822265625,0.0621490478515625,-0.037353515625
1772709138290433500,5.02343359375,-0.994171142578125,0.06146240234375,-0.03875732421875
1772709138300458800,5.033458740234375,-0.9949188232421875,0.06280517578125,-0.0368194580078125
1772709138310483700,5.043483642578125,-0.994659423828125,0.0625762939453125,-0.0368804931640625
1772709138320508700,5.0535087890625,-0.9931488037109375,0.0615234375,-0.03778076171875
1772709138330533600,5.06353369140625,-0.994873046875,0.0618438720703125,-0.0377960205078125
1772709138340558800,5.073558837890625,-0.9943389892578125,0.0623779296875,-0.0363922119140625
1772709138350583800,5.083583740234375,-0.99603271484375,0.0627288818359375,-0.03668212890625
1772709138360608500,5.0936083984375,-0.9940032958984375,0.062408447265625,-0.03741455078125
1772709138370633700,5.1036337890625,-0.995758056640625,0.063201904296875,-0.038421630859375
1772709138380658700,5.11365869140625,-0.9947967529296875,0.0623626708984375,-0.03759765625
1772709138390683600,5.12368359375,-0.9954833984375,0.062957763671875,-0.0370330810546875
1772709138400708600,5.13370849609375,-0.9929656982421875,0.06060791015625,-0.037506103515625
1772709138410733800,5.14373388671875,-0.9930572509765625,0.05950927734375,-0.038330078125
1772709138420758800,5.1537587890625,-0.992706298828125,0.0618438720703125,-0.0379486083984375
1772709138430783700,5.16378369140625,-0.9943084716796875,0.0645599365234375,-0.0390472412109375
1772709138440808700,5.17380859375,-0.9988250732421875,0.0644683837890625,-0.036529541015625
1772709138450834000,5.183833984375,-0.9970703125,0.0591888427734375,-0.0363311767578125
1772709138460858600,5.193858642578125,-0.9919891357421875,0.060089111328125,-0.03509521484375
1772709138470883600,5.203883544921875,-0.99127197265625,0.06329345703125,-0.0385589599609375
1772709138480908500,5.213908447265625,-0.9947509765625,0.06365966796875,-0.039581298828125
1772709138490933800,5.223933837890625,-0.9964599609375,0.061492919921875,-0.0388641357421875
1772709138500958700,5.233958740234375,-0.9955291748046875,0.06097412109375,-0.0370635986328125
1772709138510983700,5.243983642578125,-0.994354248046875,0.0603485107421875,-0.037445068359375
1772709138521008600,5.254008544921875,-0.9953765869140625,0.0616302490234375,-0.0395050048828125
1772709138531033900,5.264033935546875,-0.994232177734375,0.063323974609375,-0.03668212890625
1772709138541058800,5.274058837890625,-0.9940338134765625,0.0625762939453125,-0.0366363525390625
1772709138551083800,5.284083740234375,-0.994293212890625,0.062042236328125,-0.0373687744140625
1772709138561108500,5.2941083984375,-0.9939422607421875,0.061431884765625,-0.036773681640625
1772709138571133700,5.3041337890625,-0.9964752197265625,0.0596923828125,-0.0369720458984375
1772709138581158700,5.31415869140625,-0.9942779541015625,0.06121826171875,-0.0361175537109375
1772709138591808800,5.324808837890625,-0.994171142578125,0.0600433349609375,-0.0369415283203125
1772709138601833500,5.33483349609375,-0.99493408203125,0.060577392578125,-0.037322998046875
1772709138611858700,5.344858642578125,-0.9942474365234375,0.060638427734375,-0.0365753173828125
1772709138621883600,5.354883544921875,-0.99444580078125,0.0623931884765625,-0.0351715087890625
1772709138631908600,5.36490869140625,-0.99481201171875,0.0639495849609375,-0.0363006591796875
1772709138641933600,5.37493359375,-0.9943084716796875,0.0623321533203125,-0.036834716796875
1772709138651958800,5.384958740234375,-0.99371337890625,0.062042236328125,-0.0379791259765625
1772709138661983700,5.394983642578125,-0.9927978515625,0.062103271484375,-0.0366973876953125
1772709138672008700,5.4050087890625,-0.9944915771484375,0.0617828369140625,-0.0372314453125
1772709138682033700,5.41503369140625,-0.99530029296875,0.06134033203125,-0.036834716796875
1772709138692059000,5.425058837890625,-0.9956207275390625,0.0620574951171875,-0.037689208984375
1772709138702083600,5.43508349609375,-0.9942169189453125,0.062835693359375,-0.0378875732421875
1772709138712108500,5.445108642578125,-0.9941558837890625,0.062713623046875,-0.0369873046875
1772709138722133800,5.4551337890625,-0.9942474365234375,0.06146240234375,-0.037078857421875
1772709138732158700,5.46515869140625,-0.9947509765625,0.0616302490234375,-0.0374908447265625
1772709138742183700,5.47518359375,-0.99383544921875,0.0613861083984375,-0.0381927490234375
1772709138752208600,5.485208740234375,-0.9947052001953125,0.0610198974609375,-0.0361175537109375
1772709138762233900,5.49523388671875,-0.994415283203125,0.0610809326171875,-0.03704833984375
1772709138772258800,5.5052587890625,-0.9945220947265625,0.0634613037109375,-0.03680419921875
1772709138782283800,5.51528369140625,-0.99493408203125,0.0608673095703125,-0.036529541015625
1772709138792308700,5.525308837890625,-0.9940643310546875,0.0607757568359375,-0.03582763671875
1772709138802333700,5.535333740234375,-0.994598388671875,0.0620269775390625,-0.035614013671875
1772709138812358700,5.545358642578125,-0.996246337890625,0.0623931884765625,-0.0374908447265625
1772709138822383600,5.555383544921875,-0.995880126953125,0.0631561279296875,-0.0370635986328125
1772709138832408600,5.56540869140625,-0.99530029296875,0.06207275390625,-0.035858154296875
1772709138842433800,5.575433837890625,-0.993682861328125,0.0616455078125,-0.0371551513671875
1772709138852458800,5.585458740234375,-0.994903564453125,0.0615386962890625,-0.0380706787109375
1772709138862483700,5.595483642578125,-0.9950103759765625,0.0608062744140625,-0.0362396240234375
1772709138872508700,5.6055087890625,-0.9949798583984375,0.0608978271484375,-0.0359649658203125
1772709138882534000,5.615533935546875,-0.994781494140625,0.062255859375,-0.037750244140625
1772709138892558600,5.62555859375,-0.994720458984375,0.05999755859375,-0.037445068359375
1772709138902583600,5.63558349609375,-0.9933013916015625,0.0632171630859375,-0.035858154296875
1772709138912608500,5.6456083984375,-0.99359130859375,0.0631256103515625,-0.0372314453125
1772709138922633700,5.6556337890625,-0.99481201171875,0.0618743896484375,-0.0359344482421875
1772709138932658700,5.66565869140625,-0.9939727783203125,0.0605010986328125,-0.0367431640625
1772709138943310800,5.676310791015625,-0.9944000244140625,0.06048583984375,-0.0375518798828125
1772709138953335800,5.686335693359375,-0.9940338134765625,0.062408447265625,-0.03790283203125
1772709138963360800,5.69636083984375,-0.9964141845703125,0.06268310546875,-0.0356597900390625
1772709138973385500,5.706385498046875,-0.99639892578125,0.0607147216796875,-0.0357666015625
1772709138983410700,5.71641064453125,-0.9930877685546875,0.0612945556640625,-0.035614013671875
1772709138993435600,5.726435546875,-0.99224853515625,0.062713623046875,-0.0383148193359375
1772709139003460600,5.736460693359375,-0.9955291748046875,0.0617218017578125,-0.0373077392578125
1772709139013485600,5.746485595703125,-0.9958343505859375,0.06195068359375,-0.0364837646484375
1772709139023510800,5.7565107421875,-0.9957275390625,0.0599212646484375,-0.0360107421875
1772709139033535700,5.76653564453125,-0.995086669921875,0.0601654052734375,-0.038360595703125
1772709139043561200,5.776561279296875,-0.993560791015625,0.0628509521484375,-0.038970947265625
1772709139053586000,5.7865859375,-0.9950714111328125,0.0652618408203125,-0.0357513427734375
1772709139063611100,5.796611083984375,-0.9959716796875,0.063934326171875,-0.0351104736328125
1772709139073636000,5.806635986328125,-0.9967803955078125,0.0617523193359375,-0.0367431640625
1772709139083661000,5.8166611328125,-0.9937591552734375,0.0627593994140625,-0.0373992919921875
1772709139093686000,5.82668603515625,-0.9947357177734375,0.0610809326171875,-0.036590576171875
1772709139103711200,5.836711181640625,-0.9933929443359375,0.0592498779296875,-0.0357513427734375
1772709139113736200,5.846736083984375,-0.993682861328125,0.059906005859375,-0.0368804931640625
1772709139123761200,5.85676123046875,-0.9950408935546875,0.0606536865234375,-0.038299560546875
1772709139133786000,5.8667861328125,-0.995086669921875,0.0590057373046875,-0.0360260009765625
1772709139143811000,5.87681103515625,-0.99462890625,0.0616302490234375,-0.0367584228515625
1772709139153836000,5.8868359375,-0.9948272705078125,0.0625457763671875,-0.0373992919921875
1772709139163861000,5.896861083984375,-0.993438720703125,0.061553955078125,-0.0376434326171875
1772709139173886000,5.906885986328125,-0.9954376220703125,0.0616912841796875,-0.037384033203125
1772709139183911200,5.9169111328125,-0.9937896728515625,0.062164306640625,-0.037017822265625
1772709139193936100,5.92693603515625,-0.994903564453125,0.063140869140625,-0.0386962890625
1772709139203961000,5.936961181640625,-0.9942626953125,0.0624542236328125,-0.03692626953125
1772709139213986000,5.946986083984375,-0.99517822265625,0.0617828369140625,-0.0360260009765625
1772709139224011300,5.95701123046875,-0.9945220947265625,0.061248779296875,-0.0377044677734375
1772709139234036200,5.9670361328125,-0.9948577880859375,0.0630950927734375,-0.0400390625
1772709139244061000,5.97706103515625,-0.99749755859375,0.062530517578125,-0.03857421875
1772709139254086100,5.987086181640625,-0.9948883056640625,0.059844970703125,-0.0374603271484375
1772709139264111000,5.997111083984375,-0.993896484375,0.0601348876953125,-0.0384521484375
1772709139274136000,6.007135986328125,-0.994354248046875,0.062164306640625,-0.03619384765625
1772709139284161000,6.0171611328125,-0.9947052001953125,0.0624542236328125,-0.0369873046875
1772709139294186200,6.027186279296875,-0.9951019287109375,0.0630950927734375,-0.038787841796875
1772709139304211200,6.037211181640625,-0.9951629638671875,0.0613861083984375,-0.0369110107421875
1772709139314236200,6.047236083984375,-0.994659423828125,0.0608978271484375,-0.037841796875
1772709139324261000,6.05726123046875,-0.994476318359375,0.06201171875,-0.037506103515625
1772709139334286300,6.067286376953125,-0.9951019287109375,0.0618743896484375,-0.0367584228515625
1772709139344311000,6.07731103515625,-0.9950714111328125,0.062469482421875,-0.0376739501953125
1772709139354336000,6.0873359375,-0.99432373046875,0.060882568359375,-0.0371551513671875
1772709139364361000,6.09736083984375,-0.9960784912109375,0.06024169921875,-0.0382843017578125
1772709139374386200,6.10738623046875,-0.9943389892578125,0.0612335205078125,-0.038116455078125
1772709139384411100,6.1174111328125,-0.9950408935546875,0.0610504150390625,-0.03790283203125
1772709139394436000,6.12743603515625,-0.995697021484375,0.0612335205078125,-0.0380401611328125
1772709139404461000,6.1374609375,-0.994293212890625,0.0620574951171875,-0.03778076171875
1772709139414486300,6.147486328125,-0.9935150146484375,0.0626068115234375,-0.036712646484375
1772709139424511200,6.15751123046875,-0.9948272705078125,0.0623779296875,-0.037384033203125
1772709139434536200,6.1675361328125,-0.9940643310546875,0.0628662109375,-0.0384521484375
1772709139444561000,6.177560791015625,-0.9946746826171875,0.061187744140625,-0.03765869140625
1772709139454586000,6.187586181640625,-0.9946136474609375,0.0605926513671875,-0.037506103515625
1772709139464611000,6.197611083984375,-0.9947662353515625,0.0588226318359375,-0.0386810302734375
1772709139474636000,6.207635986328125,-0.993072509765625,0.06024169921875,-0.0388031005859375
1772709139484661000,6.217660888671875,-0.9943084716796875,0.064239501953125,-0.0378265380859375
1772709139494686200,6.227686279296875,-0.9973907470703125,0.0636444091796875,-0.037750244140625
1772709139504711200,6.237711181640625,-0.996917724609375,0.06036376953125,-0.0355987548828125
1772709139514736000,6.247736083984375,-0.992523193359375,0.061614990234375,-0.03631591796875
1772709139524761000,6.257760986328125,-0.9918670654296875,0.0621337890625,-0.0388336181640625
1772709139534786300,6.267786376953125,-0.99676513671875,0.0628509521484375,-0.0413055419921875
1772709139544811000,6.27781103515625,-0.9971771240234375,0.060821533203125,-0.039398193359375
1772709139554836000,6.2878359375,-0.993438720703125,0.0609893798828125,-0.0372314453125
1772709139564861200,6.297861083984375,-0.993499755859375,0.0600738525390625,-0.0391693115234375
1772709139574886100,6.30788623046875,-0.99591064453125,0.060943603515625,-0.0397186279296875
1772709139584911000,6.3179111328125,-0.9951934814453125,0.063446044921875,-0.0380401611328125
1772709139594936000,6.32793603515625,-0.993133544921875,0.0623016357421875,-0.036773681640625
1772709139604961300,6.337961181640625,-0.9936370849609375,0.060882568359375,-0.03729248046875
1772709139614986200,6.347986328125,-0.9937286376953125,0.0615997314453125,-0.03778076171875
1772709139625011200,6.35801123046875,-0.9954681396484375,0.0621337890625,-0.0370330810546875
1772709139635036000,6.368035888671875,-0.99542236328125,0.0603485107421875,-0.03631591796875
1772709139645061000,6.37806103515625,-0.9948272705078125,0.061279296875,-0.037841796875
1772709139655086000,6.388086181640625,-0.99468994140625,0.060577392578125,-0.0376129150390625
1772709139665111000,6.398111083984375,-0.9946746826171875,0.0621337890625,-0.0384674072265625
1772709139675136000,6.408135986328125,-0.9932098388671875,0.0631256103515625,-0.0382843017578125
1772709139685161200,6.4181611328125,-0.994293212890625,0.063232421875,-0.0389404296875
1772709139695186200,6.428186279296875,-0.9949188232421875,0.0638885498046875,-0.03839111328125
1772709139705211100,6.438211181640625,-0.9952545166015625,0.0623016357421875,-0.03802490234375
1772709139715236000,6.448236083984375,-0.9947509765625,0.0614776611328125,-0.037872314453125
1772709139725261300,6.45826123046875,-0.9930572509765625,0.06134033203125,-0.03887939453125
1772709139735286000,6.4682861328125,-0.9932098388671875,0.061065673828125,-0.0377044677734375
1772709139745311000,6.47831103515625,-0.9938812255859375,0.0616302490234375,-0.0373077392578125
1772709139755336000,6.4883359375,-0.993438720703125,0.061920166015625,-0.0379486083984375
1772709139765361200,6.498361083984375,-0.9942169189453125,0.063507080078125,-0.038543701171875
1772709139775386000,6.50838623046875,-0.99560546875,0.061279296875,-0.0388641357421875
1772709139785411000,6.5184111328125,-0.9958648681640625,0.061553955078125,-0.0377044677734375
1772709139795436000,6.52843603515625,-0.993865966796875,0.062744140625,-0.03662109375
1772709139805461200,6.538461181640625,-0.994873046875,0.0618438720703125,-0.0381317138671875
1772709139815486200,6.548486328125,-0.9951934814453125,0.062225341796875,-0.037811279296875
1772709139825511200,6.55851123046875,-0.994110107421875,0.0612945556640625,-0.0383148193359375
1772709139835536100,6.5685361328125,-0.9948577880859375,0.0631256103515625,-0.0384979248046875
1772709139845561000,6.57856103515625,-0.9945831298828125,0.06207275390625,-0.037841796875
1772709139855586000,6.5885859375,-0.996124267578125,0.061614990234375,-0.037139892578125
1772709139865611000,6.598611083984375,-0.9948577880859375,0.062835693359375,-0.0372467041015625
1772709139875636200,6.60863623046875,-0.9951171875,0.0613555908203125,-0.0386505126953125
1772709139885661200,6.6186611328125,-0.9940643310546875,0.061004638671875,-0.0383453369140625
1772709139895686100,6.62868603515625,-0.993682861328125,0.0616912841796875,-0.03814697265625
1772709139905711000,6.638711181640625,-0.9938812255859375,0.06231689453125,-0.03900146484375
1772709139915736300,6.648736328125,-0.9959259033203125,0.0615997314453125,-0.039520263671875
1772709139925761300,6.65876123046875,-0.9936065673828125,0.063385009765625,-0.03985595703125
1772709139935786000,6.668785888671875,-0.9949951171875,0.062103271484375,-0.0399932861328125
1772709139945811000,6.67881103515625,-0.994232177734375,0.0612030029296875,-0.0380401611328125
1772709139955836200,6.688836181640625,-0.9935302734375,0.0625152587890625,-0.03948974609375
1772709139965861000,6.698861083984375,-0.9954071044921875,0.0616912841796875,-0.039306640625
1772709139975886000,6.708885986328125,-0.9953155517578125,0.0611572265625,-0.0371246337890625
1772709139985911000,6.7189111328125,-0.99322509765625,0.0604248046875,-0.0381011962890625
1772709139995936300,6.728936279296875,-0.99249267578125,0.0626373291015625,-0.0385589599609375
1772709140005961200,6.738961181640625,-0.9940643310546875,0.06585693359375,-0.038787841796875
1772709140015986200,6.748986083984375,-0.9986572265625,0.0606536865234375,-0.038970947265625
1772709140026011000,6.759010986328125,-0.9953155517578125,0.0595703125,-0.03607177734375
1772709140036036000,6.7690361328125,-0.9926910400390625,0.059234619140625,-0.0370330810546875
1772709140046060000,6.77906005859375,-0.992706298828125,0.0615386962890625,-0.04083251953125
1772709140056085000,6.7890849609375,-0.994842529296875,0.0621337890625,-0.042724609375
1772709140066110200,6.799110107421875,-0.994537353515625,0.062347412109375,-0.04034423828125
1772709140076135200,6.80913525390625,-0.994110107421875,0.0627288818359375,-0.0373382568359375
1772709140086160100,6.81916015625,-0.99395751953125,0.064300537109375,-0.0392303466796875
1772709140096185000,6.82918505859375,-0.9954071044921875,0.0660552978515625,-0.0414886474609375
1772709140106210300,6.839210205078125,-0.9962158203125,0.0650787353515625,-0.0381317138671875
1772709140116235300,6.8492353515625,-0.994171142578125,0.0640716552734375,-0.0381011962890625
1772709140126260200,6.85926025390625,-0.9942626953125,0.06353759765625,-0.038330078125
1772709140136285200,6.86928515625,-0.99542236328125,0.0629119873046875,-0.039276123046875
1772709140146310100,6.87931005859375,-0.9953155517578125,0.063079833984375,-0.039703369140625
1772709140156335000,6.889335205078125,-0.994476318359375,0.0635986328125,-0.039093017578125
1772709140166360000,6.899360107421875,-0.9943695068359375,0.0621490478515625,-0.03936767578125
1772709140176385300,6.90938525390625,-0.994781494140625,0.0617828369140625,-0.03863525390625
1772709140186410200,6.91941015625,-0.993927001953125,0.0619354248046875,-0.03851318359375
1772709140196435200,6.929435302734375,-0.99517822265625,0.0638580322265625,-0.0384368896484375
1772709140206460200,6.939460205078125,-0.9949188232421875,0.063385009765625,-0.0391693115234375
1772709140216485400,6.9494853515625,-0.9951629638671875,0.0619049072265625,-0.0396728515625
1772709140226510300,6.95951025390625,-0.994537353515625,0.0621490478515625,-0.0392303466796875
1772709140236535000,6.96953515625,-0.9943084716796875,0.061798095703125,-0.0371856689453125
1772709140246560000,6.97956005859375,-0.99322509765625,0.06109619140625,-0.0377197265625
1772709140256585200,6.989585205078125,-0.9947662353515625,0.0630645751953125,-0.0388336181640625
1772709140266610200,6.999610107421875,-0.9933929443359375,0.0623931884765625,-0.0376129150390625
1772709140276635100,7.00963525390625,-0.9936981201171875,0.0633392333984375,-0.03851318359375
1772709140286660000,7.01966015625,-0.99493408203125,0.0642242431640625,-0.0374603271484375
1772709140296685300,7.029685302734375,-0.996978759765625,0.0628814697265625,-0.0379486083984375
1772709140306710300,7.039710205078125,-0.99560546875,0.06060791015625,-0.0376434326171875
1772709140316735200,7.0497353515625,-0.99462890625,0.061492919921875,-0.038055419921875
1772709140326760200,7.05976025390625,-0.98828125,0.0628662109375,-0.0355072021484375
1772709140336785200,7.06978515625,-0.9841461181640625,0.059967041015625,-0.0384368896484375
1772709140346810000,7.07981005859375,-0.999542236328125,0.0627593994140625,-0.04345703125
1772709140356835000,7.0898349609375,-1.0042877197265625,0.063323974609375,-0.041778564453125
1772709140366860000,7.099860107421875,-1.002288818359375,0.061920166015625,-0.033935546875
1772709140376885200,7.10988525390625,-0.9907684326171875,0.0630950927734375,-0.0374298095703125
1772709140386910200,7.11991015625,-0.986541748046875,0.060394287109375,-0.04058837890625
1772709140396935200,7.12993505859375,-0.991607666015625,0.0605621337890625,-0.0401611328125
1772709140406960000,7.139960205078125,-0.9990234375,0.063323974609375,-0.038055419921875
1772709140416985300,7.1499853515625,-1.0050506591796875,0.0632171630859375,-0.036407470703125
1772709140427010300,7.16001025390625,-0.9965667724609375,0.061767578125,-0.0389251708984375
1772709140437035000,7.170034912109375,-0.986602783203125,0.0608062744140625,-0.03753662109375
1772709140447060200,7.180060302734375,-0.985931396484375,0.0614166259765625,-0.038604736328125
1772709140457085200,7.190085205078125,-0.992767333984375,0.0614776611328125,-0.038909912109375
1772709140467110100,7.200110107421875,-0.9987640380859375,0.0638885498046875,-0.0392913818359375
1772709140477135000,7.210135009765625,-0.9996185302734375,0.063079833984375,-0.0390472412109375
1772709140487160300,7.220160400390625,-0.997161865234375,0.060638427734375,-0.0385589599609375
1772709140497185300,7.230185302734375,-0.9910125732421875,0.0611572265625,-0.0392303466796875
1772709140507210200,7.240210205078125,-0.9898681640625,0.0599822998046875,-0.0378265380859375
1772709140517235200,7.250235107421875,-0.9922637939453125,0.061859130859375,-0.0374908447265625
1772709140527260400,7.260260498046875,-0.9960479736328125,0.063873291015625,-0.0388641357421875
1772709140537285000,7.27028515625,-0.9996337890625,0.064178466796875,-0.038360595703125
1772709140547310000,7.28031005859375,-0.99749755859375,0.0604705810546875,-0.0359039306640625
1772709140557335000,7.2903349609375,-0.9917144775390625,0.0603179931640625,-0.036651611328125
1772709140567360300,7.3003603515625,-0.9899749755859375,0.0611419677734375,-0.0401611328125
1772709140577385200,7.31038525390625,-0.9954071044921875,0.061767578125,-0.04150390625
1772709140587410200,7.32041015625,-0.9981231689453125,0.0607452392578125,-0.0400390625
1772709140597435100,7.33043505859375,-0.995941162109375,0.06060791015625,-0.037811279296875
1772709140607460400,7.34046044921875,-0.9939727783203125,0.0624237060546875,-0.0380706787109375
1772709140617485300,7.3504853515625,-0.9952392578125,0.05975341796875,-0.0396881103515625
1772709140627510000,7.360510009765625,-0.994781494140625,0.063018798828125,-0.0386199951171875
1772709140637535000,7.370534912109375,-0.994171142578125,0.0641937255859375,-0.037628173828125
1772709140647560200,7.380560302734375,-0.994049072265625,0.0631866455078125,-0.03759765625
1772709140657585200,7.390585205078125,-0.994354248046875,0.06304931640625,-0.03741455078125
1772709140667610000,7.400610107421875,-0.992095947265625,0.0621795654296875,-0.037841796875
1772709140677635000,7.410635009765625,-0.9951171875,0.0601959228515625,-0.038360595703125
1772709140687660300,7.420660400390625,-0.9969482421875,0.0589752197265625,-0.0390625
1772709140697685200,7.430685302734375,-0.9989776611328125,0.0622711181640625,-0.0396881103515625
1772709140707710200,7.440710205078125,-1.001617431640625,0.06097412109375,-0.0370025634765625
1772709140717735200,7.450735107421875,-0.99566650390625,0.0634765625,-0.036895751953125
1772709140727760100,7.460760009765625,-0.989349365234375,0.062286376953125,-0.038482666015625
1772709140737785000,7.47078515625,-0.9904937744140625,0.0612030029296875,-0.03875732421875
1772709140747810000,7.48081005859375,-0.9950103759765625,0.0609893798828125,-0.038818359375
1772709140757835300,7.490835205078125,-0.999847412109375,0.0614776611328125,-0.038238525390625
1772709140767860200,7.500860107421875,-0.9982452392578125,0.0612945556640625,-0.0391082763671875
1772709140777885200,7.51088525390625,-0.9941253662109375,0.0619964599609375,-0.0385284423828125
1772709140787910100,7.52091015625,-0.989990234375,0.060455322265625,-0.03662109375
1772709140797935400,7.530935302734375,-0.9889373779296875,0.0605621337890625,-0.035552978515625
1772709140807960300,7.540960205078125,-0.9927978515625,0.0637359619140625,-0.0369110107421875
1772709140817985300,7.5509853515625,-0.9909820556640625,0.0689697265625,-0.0468292236328125
1772709140828010000,7.561010009765625,-1.0076904296875,0.04974365234375,-0.0305328369140625
1772709140838035200,7.57103515625,-0.9940643310546875,0.06744384765625,-0.0296478271484375
1772709140848060200,7.58106005859375,-0.998138427734375,0.0617218017578125,-0.0536651611328125
1772709140858085000,7.591085205078125,-0.9942474365234375,0.0556488037109375,-0.027801513671875
1772709140868109300,7.601109375,-0.9794921875,0.0610504150390625,-0.0356903076171875
1772709140878135300,7.61113525390625,-0.988067626953125,0.0604705810546875,-0.0336456298828125
1772709140888160300,7.62116015625,-1.00494384765625,0.0585174560546875,-0.0414276123046875
1772709140898184200,7.63118408203125,-1.0081024169921875,0.0630340576171875,-0.0405120849609375
1772709140908209200,7.641209228515625,-0.998687744140625,0.0672454833984375,-0.032257080078125
1772709140918234000,7.651234130859375,-0.9902496337890625,0.059173583984375,-0.0372467041015625
1772709140928259000,7.661259033203125,-0.9866943359375,0.056610107421875,-0.039794921875
1772709140938284000,7.671283935546875,-0.98968505859375,0.0633087158203125,-0.0383148193359375
1772709140948309200,7.681309326171875,-1.00030517578125,0.0630340576171875,-0.0347137451171875
1772709140958334200,7.691334228515625,-1.0010223388671875,0.0608978271484375,-0.0369110107421875
1772709140968359200,7.701359130859375,-0.993499755859375,0.062286376953125,-0.036651611328125
1772709140978384400,7.71138427734375,-0.988800048828125,0.060546875,-0.0388641357421875
1772709140988409300,7.721409423828125,-0.9935455322265625,0.061492919921875,-0.03851318359375
1772709140998434300,7.731434326171875,-0.996978759765625,0.062469482421875,-0.0369110107421875
1772709141008459000,7.741458984375,-0.9977874755859375,0.0638427734375,-0.03765869140625
1772709141018484200,7.751484130859375,-0.9948577880859375,0.0607147216796875,-0.03839111328125
1772709141028509200,7.76150927734375,-0.9923095703125,0.05975341796875,-0.0373077392578125
1772709141038534100,7.7715341796875,-0.992645263671875,0.0607452392578125,-0.0378875732421875
1772709141048559600,7.7815595703125,-0.994293212890625,0.060150146484375,-0.037689208984375
1772709141058584600,7.79158447265625,-0.9956207275390625,0.063018798828125,-0.0373992919921875
1772709141068609800,7.80160986328125,-0.9959869384765625,0.06304931640625,-0.0389251708984375
1772709141078634500,7.811634521484375,-0.996002197265625,0.0578155517578125,-0.038482666015625
1772709141088659500,7.821659423828125,-0.9913482666015625,0.060791015625,-0.035552978515625
1772709141098684700,7.8316845703125,-0.994537353515625,0.0605621337890625,-0.0391845703125
1772709141108709600,7.841709716796875,-0.9993743896484375,0.0612945556640625,-0.0393829345703125
1772709141118734600,7.851734619140625,-0.9959564208984375,0.0627899169921875,-0.0362701416015625
1772709141128759600,7.861759521484375,-0.992584228515625,0.0615997314453125,-0.03826904296875
1772709141138784800,7.87178466796875,-0.9941864013671875,0.0594940185546875,-0.0391693115234375
1772709141148809700,7.881809814453125,-0.99432373046875,0.059539794921875,-0.03900146484375
1772709141158834700,7.891834716796875,-0.9948577880859375,0.0627288818359375,-0.0380859375
1772709141168859600,7.901859619140625,-0.9953765869140625,0.064605712890625,-0.03765869140625
1772709141178884600,7.911884521484375,-0.99591064453125,0.06402587890625,-0.03839111328125
1772709141188909600,7.92190966796875,-0.9953765869140625,0.062286376953125,-0.0391693115234375
1772709141198934500,7.9319345703125,-0.996124267578125,0.0591278076171875,-0.0375823974609375
1772709141208959500,7.94195947265625,-0.9965667724609375,0.0594940185546875,-0.037445068359375
1772709141218984700,7.951984619140625,-0.9917755126953125,0.0614013671875,-0.0353240966796875
1772709141229009700,7.962009765625,-0.989471435546875,0.0610198974609375,-0.03741455078125
1772709141239034600,7.97203466796875,-0.9913177490234375,0.05767822265625,-0.0382232666015625
1772709141249059600,7.9820595703125,-0.995361328125,0.059600830078125,-0.036865234375
1772709141259084800,7.992084716796875,-0.9979248046875,0.06292724609375,-0.03509521484375
1772709141269109500,8.002109619140626,-0.997772216796875,0.063018798828125,-0.0368804931640625
1772709141279134500,8.012134521484375,-0.99658203125,0.0611724853515625,-0.04083251953125
1772709141289159400,8.022159423828125,-0.9927520751953125,0.0600128173828125,-0.041259765625
1772709141299184600,8.0321845703125,-0.9954833984375,0.060791015625,-0.037200927734375
1772709141309209600,8.042209716796876,-0.9979705810546875,0.063690185546875,-0.036712646484375
1772709141319234600,8.052234619140625,-0.9944915771484375,0.0612945556640625,-0.0382537841796875
1772709141329259500,8.062259521484375,-0.991485595703125,0.058502197265625,-0.038116455078125
1772709141339284700,8.07228466796875,-0.989776611328125,0.06060791015625,-0.0366363525390625
1772709141349309700,8.082309814453126,-0.994171142578125,0.0632171630859375,-0.0381927490234375
1772709141359334700,8.092334716796875,-1.0012664794921875,0.0588836669921875,-0.04071044921875
1772709141369359600,8.102359619140625,-0.9970245361328125,0.060546875,-0.0399932861328125
1772709141379384600,8.112384521484374,-0.993896484375,0.061248779296875,-0.038299560546875
1772709141389409500,8.122409423828126,-0.993988037109375,0.060699462890625,-0.0382843017578125
1772709141399434500,8.1324345703125,-0.9949951171875,0.06146240234375,-0.04144287109375
1772709141409459700,8.142459716796875,-0.9957122802734375,0.062042236328125,-0.038665771484375
1772709141419484700,8.152484619140624,-0.9929962158203125,0.06109619140625,-0.0346527099609375
1772709141429509600,8.162509521484376,-0.9893646240234375,0.0643463134765625,-0.03619384765625
1772709141439534600,8.17253466796875,-0.9948883056640625,0.0606536865234375,-0.0399627685546875
1772709141449559800,8.182559814453125,-0.995574951171875,0.0596160888671875,-0.0369110107421875
1772709141459584800,8.192584716796874,-0.9940185546875,0.0622100830078125,-0.0367889404296875
1772709141469609500,8.202609375,-0.998199462890625,0.0596923828125,-0.03948974609375
1772709141479634400,8.212634521484375,-0.9945526123046875,0.062591552734375,-0.037811279296875
1772709141489659600,8.22265966796875,-0.9933624267578125,0.064727783203125,-0.0382537841796875
1772709141499684600,8.2326845703125,-0.9949493408203125,0.0604248046875,-0.0395965576171875
1772709141509709600,8.24270947265625,-0.99468994140625,0.0612945556640625,-0.0395355224609375
1772709141519734500,8.252734619140625,-0.99554443359375,0.0644073486328125,-0.0380096435546875
1772709141529759700,8.262759765625,-0.99896240234375,0.0631103515625,-0.038604736328125
1772709141539784700,8.27278466796875,-0.9952850341796875,0.060546875,-0.0373382568359375
1772709141549809700,8.2828095703125,-0.9890289306640625,0.0618438720703125,-0.037139892578125
1772709141559834600,8.292834716796875,-0.9892730712890625,0.0600738525390625,-0.0376129150390625
1772709141569859600,8.302859619140625,-0.996307373046875,0.0596160888671875,-0.040679931640625
1772709141579884500,8.312884521484374,-0.997406005859375,0.0615692138671875,-0.0379486083984375
1772709141589909500,8.322909423828126,-0.9963531494140625,0.0619659423828125,-0.03839111328125
1772709141599934500,8.3329345703125,-0.9959259033203125,0.05908203125,-0.0394287109375
1772709141609959700,8.342959716796875,-0.989990234375,0.0617828369140625,-0.03900146484375
1772709141619984600,8.352984619140624,-0.9931182861328125,0.064910888671875,-0.0364227294921875
1772709141630009600,8.363009521484376,-1.00189208984375,0.0622406005859375,-0.038848876953125
1772709141640034600,8.37303466796875,-0.9994964599609375,0.0573272705078125,-0.0373992919921875
1772709141650059800,8.383059814453125,-0.99102783203125,0.05963134765625,-0.0350341796875
1772709141660084700,8.393084716796874,-0.9867706298828125,0.0628662109375,-0.0382232666015625
1772709141670109400,8.403109375,-0.992401123046875,0.0618438720703125,-0.0407867431640625
1772709141680134700,8.413134765625,-0.995574951171875,0.05682373046875,-0.0419769287109375
1772709141690159600,8.42315966796875,-0.9951019287109375,0.0601043701171875,-0.036865234375
1772709141700184600,8.4331845703125,-0.997589111328125,0.06243896484375,-0.037567138671875
1772709141710209500,8.44320947265625,-0.9966278076171875,0.0635986328125,-0.0401153564453125
1772709141720234800,8.45323486328125,-0.99163818359375,0.0635986328125,-0.039459228515625
1772709141730259700,8.463259765625,-0.990997314453125,0.0601654052734375,-0.03826904296875
1772709141740284700,8.47328466796875,-0.9934539794921875,0.061309814453125,-0.036651611328125
1772709141750309600,8.4833095703125,-0.996734619140625,0.0615692138671875,-0.0377197265625
1772709141760334600,8.49333447265625,-0.9985504150390625,0.06195068359375,-0.0402984619140625
1772709141770359600,8.503359619140625,-0.9972991943359375,0.0592803955078125,-0.038726806640625
1772709141780384500,8.513384521484374,-0.99444580078125,0.060028076171875,-0.037933349609375
1772709141790409500,8.523409423828125,-0.993743896484375,0.0602569580078125,-0.0386962890625
1772709141800434700,8.5334345703125,-0.9942626953125,0.0609130859375,-0.0390472412109375
1772709141810459600,8.543459716796875,-0.9942474365234375,0.061309814453125,-0.040008544921875
1772709141820483600,8.553483642578126,-0.9945068359375,0.060791015625,-0.037872314453125
1772709141830508800,8.5635087890625,-0.9957733154296875,0.0626220703125,-0.0388946533203125
1772709141840533500,8.573533447265625,-0.9969482421875,0.0610809326171875,-0.03985595703125
1772709141850558500,8.583558349609374,-0.9954071044921875,0.0608978271484375,-0.0384979248046875
1772709141860583400,8.59358349609375,-0.992950439453125,0.0602569580078125,-0.038543701171875
1772709141870608600,8.603608642578125,-0.993621826171875,0.0599365234375,-0.0384674072265625
1772709141880633600,8.613633544921875,-0.9960479736328125,0.060821533203125,-0.039093017578125
1772709141890658600,8.623658447265624,-0.9958038330078125,0.06201171875,-0.0394134521484375
1772709141900683500,8.63368359375,-0.9978485107421875,0.0630950927734375,-0.0414886474609375
1772709141910708700,8.643708740234375,-0.996307373046875,0.061004638671875,-0.0398406982421875
1772709141920733700,8.653733642578125,-0.993682861328125,0.06219482421875,-0.037750244140625
1772709141930758700,8.663758544921874,-0.9904022216796875,0.0631561279296875,-0.039154052734375
1772709141940783600,8.67378369140625,-0.9935760498046875,0.0614471435546875,-0.03973388671875
1772709141950808600,8.68380859375,-0.994720458984375,0.0609130859375,-0.0410919189453125
1772709141960833500,8.69383349609375,-0.994476318359375,0.0613861083984375,-0.0369720458984375
1772709141970858500,8.7038583984375,-0.994537353515625,0.0606689453125,-0.0390472412109375
1772709141980883700,8.7138837890625,-0.99298095703125,0.0604400634765625,-0.0394744873046875
1772709141990908700,8.72390869140625,-0.9912567138671875,0.0615081787109375,-0.0404815673828125
1772709142000933600,8.73393359375,-0.9937591552734375,0.0601348876953125,-0.0396575927734375
1772709142010958600,8.74395849609375,-0.993988037109375,0.06719970703125,-0.0311126708984375
1772709142020983800,8.75398388671875,-0.9745330810546875,0.0784149169921875,-0.033966064453125
1772709142031008800,8.7640087890625,-0.969329833984375,0.07293701171875,-0.046844482421875
1772709142041033500,8.774033447265625,-1.0111846923828125,0.033203125,-0.0404510498046875
1772709142051058700,8.78405859375,-1.0374603271484375,0.0272369384765625,-0.04925537109375
1772709142061084000,8.794083984375,-1.0160369873046875,0.058441162109375,-0.04608154296875
1772709142071108600,8.804108642578125,-0.9912109375,0.0649871826171875,-0.046051025390625
1772709142081133600,8.814133544921875,-0.9853363037109375,0.055267333984375,-0.0414581298828125
1772709142091158500,8.824158447265624,-0.9802703857421875,0.048736572265625,-0.0404815673828125
1772709142101183700,8.834183837890626,-0.9900360107421875,0.049896240234375,-0.0433197021484375
1772709142111208700,8.844208740234375,-1.00860595703125,0.060089111328125,-0.0299530029296875
1772709142121233700,8.854233642578125,-1.0074005126953125,0.074981689453125,-0.0288543701171875
