time,seconds_elapsed,z,y,x
1772708616194907000,0.055906982421875,-0.1286712884902954,-0.18646687269210815,-0.36125585436820984
1772708616204932000,0.06593212890625,-0.15000705420970917,-0.20543920993804932,-0.352817565202713
1772708616214957000,0.07595703125,-0.17463889718055725,-0.18860004842281342,-0.33886900544166565
1772708616224983000,0.085983154296875,-0.19458118081092834,-0.141279399394989,-0.3309713900089264
1772708616235008000,0.096008056640625,-0.20958437025547028,-0.08803242444992065,-0.35867732763290405
1772708616245033000,0.106032958984375,-0.20717737078666687,-0.05232912302017212,-0.4012910723686218
1772708616255058200,0.11605810546875,-0.20756804943084717,-0.03533549606800079,-0.42963457107543945
1772708616265084000,0.126083984375,-0.22564567625522614,-0.01830792799592018,-0.44398701190948486
1772708616275109000,0.136109130859375,-0.2557514011859894,0.013544278219342232,-0.43394264578819275
1772708616285134000,0.146134033203125,-0.2582462430000305,0.04732509329915047,-0.4034086763858795
1772708616295159000,0.156158935546875,-0.2512168288230896,0.07205094397068024,-0.35323551297187805
1772708616305185000,0.16618505859375,-0.28163987398147583,0.16904646158218384,-0.27047187089920044
1772708616315210000,0.1762099609375,-0.3250659108161926,0.19050514698028564,-0.17434346675872803
1772708616325235000,0.18623486328125,-0.34295493364334106,0.16260793805122375,-0.07626153528690338
1772708616335260000,0.196260009765625,-0.3226802945137024,0.12206504493951797,0.0249756071716547
1772708616345284900,0.206284912109375,-0.27644291520118713,0.08270600438117981,0.12169080227613449
1772708616355310800,0.216310791015625,-0.24706317484378815,-0.019684014841914177,0.23209108412265778
1772708616365336000,0.226336181640625,-0.2484816312789917,-0.22488616406917572,0.3406358063220978
1772708616375361000,0.236361083984375,-0.24906672537326813,-0.35171493887901306,0.4067234694957733
1772708616385386000,0.246385986328125,-0.18096119165420532,-0.26604408025741577,0.38371020555496216
1772708616395412000,0.256411865234375,-0.10566004365682602,-0.15378890931606293,0.24325187504291534
1772708616405437000,0.26643701171875,-0.11125072091817856,-0.06263206899166107,0.05562973394989967
1772708616415462100,0.276462158203125,-0.1131700649857521,-0.042730532586574554,-0.11377526819705963
1772708616425487000,0.286487060546875,-0.09955809265375137,-0.07441630214452744,-0.1855131834745407
1772708616435513000,0.29651318359375,-0.15353690087795258,-0.25149041414260864,-0.20549914240837097
1772708616445538000,0.3065380859375,-0.2706490159034729,-0.4368588924407959,-0.2705286145210266
1772708616455563000,0.31656298828125,-0.3660500943660736,-0.44590166211128235,-0.3557276427745819
1772708616465588000,0.326587890625,-0.45130038261413574,-0.3462057113647461,-0.4264724552631378
1772708616475614000,0.336614013671875,-0.4556773006916046,-0.30868014693260193,-0.53103107213974
1772708616485639200,0.34663916015625,-0.3927350342273712,-0.312989205121994,-0.6069045662879944
1772708616495663900,0.356663818359375,-0.32715070247650146,-0.25726816058158875,-0.6210185289382935
1772708616505688800,0.366688720703125,-0.2539633512496948,-0.1292361468076706,-0.5861496925354004
1772708616515715600,0.376715576171875,-0.16890808939933777,0.07660223543643951,-0.5054370164871216
1772708616525740500,0.386740478515625,-0.08241885900497437,0.370108962059021,-0.39778339862823486
1772708616535765800,0.396765869140625,-0.03852437436580658,0.6524637341499329,-0.34382086992263794
1772708616545790700,0.406790771484375,-0.0737365186214447,0.788899302482605,-0.45488157868385315
1772708616555816700,0.416816650390625,-0.19619904458522797,0.7857866287231445,-0.6729723811149597
1772708616565841700,0.426841552734375,-0.13193561136722565,1.2118091583251953,-0.6353525519371033
1772708616575866600,0.43686669921875,-0.01575840637087822,1.2670170068740845,-0.4451809823513031
1772708616585891800,0.446891845703125,0.17289209365844727,0.9444026350975037,-0.4245908260345459
1772708616595917800,0.456917724609375,0.23380523920059204,0.96799236536026,-0.2634570896625519
1772708616605942800,0.46694287109375,0.11678007245063782,1.006702184677124,-0.02169308438897133
1772708616615967700,0.4769677734375,0.021207474172115326,0.8794422149658203,0.11202636361122131
1772708616625992700,0.48699267578125,-0.004039053805172443,0.7484887838363647,0.1382947564125061
1772708616636018000,0.497017822265625,0.02760036662220955,0.6877135634422302,0.12871696054935455
1772708616646044000,0.5070439453125,0.08115298300981522,0.6548261046409607,0.14743804931640625
1772708616656068900,0.51706884765625,0.1080879271030426,0.5851753950119019,0.17921727895736694
1772708616666093600,0.527093505859375,0.11025118082761765,0.49608612060546875,0.1975262314081192
1772708616676118500,0.537118408203125,0.11612904071807861,0.40507203340530396,0.1848658323287964
1772708616686144500,0.54714453125,0.1387377828359604,0.24702784419059753,0.18508096039295197
1772708616696169700,0.557169677734375,0.2060619592666626,0.174386665225029,0.12895244359970093
1772708616706194700,0.567194580078125,0.2528451085090637,0.08774466812610626,0.018303608521819115
1772708616716219600,0.5772197265625,0.296861857175827,-0.05773157253861427,-0.07335973531007767
1772708616726245600,0.58724560546875,0.3201111853122711,-0.20310339331626892,-0.16657017171382904
1772708616736270600,0.5972705078125,0.32635390758514404,-0.46194934844970703,-0.3154855966567993
1772708616746295800,0.6072958984375,0.33049970865249634,-0.812388002872467,-0.5190398097038269
1772708616756320800,0.61732080078125,0.32862669229507446,-1.2779557704925537,-0.7231098413467407
1772708616766346800,0.6273466796875,0.30869731307029724,-1.8687032461166382,-0.9031543731689453
1772708616776371700,0.637371826171875,0.21732638776302338,-1.899743676185608,-1.0819358825683594
1772708616786396700,0.647396728515625,-0.03491199016571045,-1.0539655685424805,-0.8763183355331421
1772708616796422000,0.657421875,-0.23963770270347595,-1.5370749235153198,-0.7297680377960205
1772708616806447900,0.66744775390625,-0.3968757390975952,-1.5681915283203125,-0.4828580617904663
1772708616816472800,0.677472900390625,-0.5290049910545349,-1.347790241241455,-0.13989457488059998
1772708616826497800,0.687497802734375,-0.5777819752693176,-1.0904089212417603,0.1725940853357315
1772708616836522800,0.697522705078125,-0.5783979892730713,-0.7865722179412842,0.4295467734336853
1772708616846548700,0.707548828125,-0.6187928915023804,-0.478693425655365,0.6164712309837341
1772708616856573700,0.71757373046875,-0.6963638663291931,-0.182206392288208,0.7463634610176086
1772708616866598700,0.7275986328125,-0.7579545974731445,0.10833349823951721,0.8294711112976074
1772708616876623600,0.73762353515625,-0.7820026874542236,0.4192706048488617,0.8492006063461304
1772708616886648600,0.747648681640625,-0.7780338525772095,0.7123043537139893,0.8133283853530884
1772708616896674600,0.757674560546875,-0.7705428600311279,0.9989606738090515,0.737513542175293
1772708616906699800,0.76769970703125,-0.7702918648719788,1.3203299045562744,0.6520527601242065
1772708616916724700,0.777724853515625,-0.8223047256469727,1.6011855602264404,0.5630765557289124
1772708616926749700,0.787749755859375,-0.9034320116043091,1.7709602117538452,0.49803441762924194
1772708616936775700,0.797775634765625,-0.966729462146759,1.827304482460022,0.46190065145492554
1772708616946800600,0.807800537109375,-1.008142352104187,1.7293033599853516,0.4590127170085907
1772708616956825900,0.817825927734375,-1.0323456525802612,1.4823108911514282,0.4828469455242157
1772708616966850800,0.827850830078125,-1.0650193691253662,1.182214617729187,0.5567233562469482
1772708616976876800,0.837876708984375,-1.1262472867965698,0.9661271572113037,0.6626663208007812
1772708616986901800,0.84790185546875,-1.2200394868850708,0.8816913366317749,0.7590575218200684
1772708616996926700,0.8579267578125,-1.3477486371994019,0.8508721590042114,0.8060221076011658
1772708617006952000,0.867951904296875,-1.5063966512680054,0.7718708515167236,0.7808988690376282
1772708617016977700,0.877977783203125,-1.703857183456421,0.8386672139167786,0.6316145658493042
1772708617027003000,0.8880029296875,-1.8679555654525757,1.012574553489685,0.40869271755218506
1772708617037027600,0.898027587890625,-1.9351390600204468,1.3307045698165894,0.08864814788103104
1772708617047052500,0.908052490234375,-1.8995164632797241,1.841733455657959,-0.3287808895111084
1772708617057078500,0.91807861328125,-1.7033872604370117,2.218372344970703,-0.6851102709770203
1772708617067103700,0.928103759765625,-1.406350016593933,2.1841797828674316,-0.8315352201461792
1772708617077128700,0.938128662109375,-1.2062753438949585,1.801087498664856,-0.7372359037399292
1772708617087153700,0.948153564453125,-1.1521587371826172,1.0491585731506348,-0.544526219367981
1772708617097178600,0.9581787109375,-1.2562305927276611,-0.14484113454818726,-0.449704647064209
1772708617107204600,0.96820458984375,-1.5635955333709717,-1.8280519247055054,-0.6879078149795532
1772708617117229800,0.978229736328125,-1.9932513236999512,-3.8710930347442627,-1.2520757913589478
1772708617127254800,0.9882548828125,-2.366130828857422,-5.88746452331543,-2.047304153442383
1772708617137279700,0.99827978515625,-2.2658498287200928,-3.485137462615967,-2.79134202003479
1772708617147305700,1.0083056640625,-1.1027498245239258,-1.4455366134643555,-2.2686309814453125
1772708617157330700,1.01833056640625,-0.17588107287883759,1.1982719898223877,-1.4028295278549194
1772708617167355600,1.028355712890625,0.48325008153915405,2.062762975692749,-1.4218981266021729
1772708617177380900,1.038380859375,0.8820837736129761,1.4788684844970703,-1.2866135835647583
1772708617187406800,1.04840673828125,1.2284985780715942,1.0385113954544067,-0.7185160517692566
1772708617197431800,1.058431884765625,1.4532036781311035,0.7353739142417908,0.10629690438508987
1772708617207456500,1.06845654296875,1.5618815422058105,0.29076656699180603,1.0106509923934937
1772708617217481700,1.078481689453125,1.797761082649231,-0.08502089232206345,1.817582130432129
1772708617227507700,1.0885078125,2.1841351985931396,-0.5347502827644348,2.4215166568756104
1772708617237532700,1.09853271484375,2.509718894958496,-0.9871209859848022,2.7927145957946777
1772708617247557600,1.1085576171875,2.5572152137756348,-1.216663122177124,2.842141628265381
1772708617257582600,1.11858251953125,2.0996806621551514,-1.1642369031906128,2.49000883102417
1772708617267608600,1.128608642578125,1.2921185493469238,-1.2622491121292114,1.697930932044983
1772708617277633800,1.1386337890625,0.5678408741950989,-1.7926857471466064,0.7350811958312988
1772708617287658800,1.14865869140625,0.12478605657815933,-2.6539134979248047,-0.02234187349677086
1772708617297683700,1.15868359375,-0.008730719797313213,-3.4897496700286865,-0.3658289313316345
1772708617307708700,1.168708740234375,0.13407686352729797,-4.071675777435303,-0.3600179851055145
1772708617317734700,1.178734619140625,0.3647793233394623,-4.3115763664245605,-0.1770162284374237
1772708617327759600,1.188759521484375,0.5444921255111694,-4.014847755432129,0.1222393587231636
1772708617337784800,1.198784912109375,0.5630602240562439,-3.1882214546203613,0.44358116388320923
1772708617347809800,1.208809814453125,0.44728541374206543,-2.20000958442688,0.7360135912895203
1772708617357835800,1.218835693359375,0.3569594919681549,-1.287287712097168,1.052319884300232
1772708617367860700,1.22886083984375,0.3376953601837158,-0.48384347558021545,1.3524422645568848
1772708617377885700,1.2388857421875,0.316617488861084,0.13176989555358887,1.5578747987747192
1772708617387910700,1.24891064453125,0.23375467956066132,0.5113497376441956,1.6401523351669312
1772708617397937000,1.25893701171875,0.07523852586746216,0.7093666791915894,1.601230502128601
1772708617407961600,1.268961669921875,-0.13474412262439728,0.8244190812110901,1.459608554840088
1772708617417986600,1.278986572265625,-0.3273774981498718,0.8119238018989563,1.288999319076538
1772708617428011800,1.28901171875,-0.4602416753768921,0.6943240761756897,1.2361925840377808
1772708617438037800,1.299037841796875,-0.4897550940513611,0.5505048632621765,1.361613392829895
1772708617448062700,1.309062744140625,-0.4317173361778259,0.44833987951278687,1.5640145540237427
1772708617458087700,1.319087646484375,-0.35500603914260864,0.4260108768939972,1.6945459842681885
1772708617468112600,1.329112548828125,-0.3367680609226227,0.4426719844341278,1.6871123313903809
1772708617478137900,1.339137939453125,-0.4103943407535553,0.4311425983905792,1.538101077079773
1772708617488163600,1.34916357421875,-0.571790337562561,0.3345419764518738,1.283449411392212
1772708617498188800,1.359188720703125,-0.7639885544776917,0.2790643274784088,1.026780366897583
1772708617508213800,1.3692138671875,-0.9014140963554382,0.35642632842063904,0.863815188407898
1772708617518238200,1.37923828125,-0.9706690907478333,0.5267831683158875,0.7877252101898193
1772708617528264200,1.38926416015625,-0.9753626585006714,0.7425710558891296,0.7607622146606445
1772708617538289400,1.399289306640625,-0.9093183875083923,0.9972164034843445,0.8083968758583069
1772708617548314400,1.409314453125,-0.7754089832305908,1.2211024761199951,0.9514147639274597
1772708617558339300,1.41933935546875,-0.586427628993988,1.3421027660369873,1.1851524114608765
1772708617568365300,1.429365234375,-0.3785884380340576,1.3140032291412354,1.4785561561584473
1772708617578390300,1.439390380859375,-0.2041950821876526,1.1452131271362305,1.771195650100708
1772708617588415500,1.44941552734375,-0.07280979305505753,0.9138088226318359,2.013718843460083
1772708617598440400,1.4594404296875,-0.011420467868447304,0.6837154626846313,2.159763813018799
1772708617608466400,1.469466552734375,-0.025110110640525818,0.44765394926071167,2.184375762939453
1772708617618491400,1.479491455078125,-0.07805188745260239,0.26058632135391235,2.0962252616882324
1772708617628516400,1.489516357421875,-0.10279083997011185,0.2534210681915283,1.9915492534637451
1772708617638541300,1.499541259765625,-0.12312301248311996,0.5335714817047119,1.9041019678115845
1772708617648566300,1.509566162109375,-0.2873987853527069,1.1304560899734497,1.7740060091018677
1772708617658592300,1.51959228515625,-0.576958417892456,1.6145684719085693,1.6118063926696777
1772708617668617200,1.5296171875,-0.7230582237243652,1.3977172374725342,1.6380752325057983
1772708617678642200,1.53964208984375,-0.5694843530654907,0.6097549796104431,1.9889709949493408
1772708617688667400,1.54966748046875,-0.19691532850265503,-0.4694598913192749,2.4372618198394775
1772708617698693400,1.559693359375,-0.0655333399772644,-1.3724629878997803,2.4370925426483154
1772708617708718300,1.56971826171875,-0.3474114239215851,-1.9175801277160645,1.7715386152267456
1772708617718743300,1.579743408203125,-0.7916900515556335,-1.9327889680862427,0.7734535336494446
1772708617728768300,1.589768310546875,-0.915431022644043,-1.2565630674362183,0.0020080707035958767
1772708617738794200,1.599794189453125,-0.6009154319763184,0.1356605440378189,-0.2869534492492676
1772708617748819500,1.6098193359375,-0.22140224277973175,1.4050183296203613,-0.34933656454086304
1772708617758844400,1.619844482421875,-0.06872561573982239,1.9181013107299805,-0.4671497344970703
1772708617768869400,1.629869384765625,-0.23251695930957794,2.022977590560913,-0.7236021161079407
1772708617778895400,1.639895263671875,-0.34672075510025024,1.8017703294754028,-1.0930975675582886
1772708617788920300,1.64992041015625,-0.15308012068271637,1.2897605895996094,-1.3965405225753784
1772708617798945500,1.659945556640625,0.06518349796533585,0.9336586594581604,-1.4947643280029297
1772708617808970200,1.66997021484375,0.04226675257086754,0.6947689056396484,-1.494908332824707
1772708617818996500,1.67999658203125,-0.22468185424804688,0.20503541827201843,-1.540515422821045
1772708617829021200,1.690021240234375,-0.5254494547843933,-0.5874187350273132,-1.6265575885772705
1772708617839046100,1.700046142578125,-0.6824969053268433,-1.5679682493209839,-1.698026180267334
1772708617849071400,1.7100712890625,-0.5838407874107361,-2.400996685028076,-1.566589593887329
1772708617859096300,1.720096435546875,-0.2992258071899414,-2.713153123855591,-1.1718010902404785
1772708617869122300,1.730122314453125,0.01117156632244587,-2.5066773891448975,-0.6986852884292603
1772708617879147300,1.740147216796875,0.21718065440654755,-1.938683032989502,-0.3083186149597168
1772708617889172200,1.750172119140625,0.385851114988327,-1.2465286254882812,0.01615843176841736
1772708617899197400,1.760197509765625,0.530089795589447,-0.6898773312568665,0.31695955991744995
1772708617909223400,1.770223388671875,0.5499156713485718,-0.3847581446170807,0.515233039855957
1772708617919248400,1.780248291015625,0.3907049894332886,-0.33879971504211426,0.5124683976173401
1772708617929273300,1.7902734375,0.1352211833000183,-0.4989553391933441,0.27575603127479553
1772708617939298300,1.80029833984375,-0.08532317727804184,-0.7435464859008789,-0.0828404650092125
1772708617949324300,1.81032421875,-0.10402289032936096,-0.8636029958724976,-0.3510010242462158
1772708617959349500,1.820349609375,0.15783534944057465,-0.9155729413032532,-0.35718250274658203
1772708617969374500,1.83037451171875,0.5630591511726379,-1.0027323961257935,-0.08161177486181259
1772708617979399400,1.8403994140625,0.9020204544067383,-1.0576547384262085,0.39482536911964417
1772708617989425400,1.85042529296875,1.075175166130066,-1.0570621490478516,0.9339345693588257
1772708617999450400,1.860450439453125,1.0047656297683716,-0.9024730920791626,1.3480578660964966
1772708618009475300,1.870475341796875,0.7169840335845947,-0.6695054173469543,1.5229462385177612
1772708618019500300,1.880500244140625,0.35922056436538696,-0.44118571281433105,1.4327481985092163
1772708618029525200,1.890525146484375,0.05762026831507683,-0.2067634016275406,1.1371043920516968
1772708618039551200,1.90055126953125,-0.11444737017154694,0.011605686508119106,0.7237996459007263
1772708618049576200,1.910576171875,-0.15156331658363342,0.19894051551818848,0.2772519290447235
1772708618059601400,1.920601318359375,-0.08621519804000854,0.34914442896842957,-0.1507073938846588
1772708618069626400,1.93062646484375,-0.001297452487051487,0.45982107520103455,-0.4841628670692444
1772708618079652400,1.94065234375,0.09869332611560822,0.575404167175293,-0.616510808467865
1772708618089677300,1.95067724609375,0.18554000556468964,0.6582587361335754,-0.5130363702774048
1772708618099702300,1.960702392578125,0.1587504744529724,0.6416824460029602,-0.22295500338077545
1772708618109727500,1.9707275390625,0.056202083826065063,0.5575370192527771,0.2121032029390335
1772708618119753500,1.98075341796875,-0.09338022023439407,0.4303686320781708,0.6859213709831238
1772708618129778400,1.9907783203125,-0.2965638041496277,0.23362946510314941,1.0569932460784912
1772708618139803400,2.000803466796875,-0.5036629438400269,0.11866585910320282,1.224685549736023
1772708618149828400,2.010828369140625,-0.6568942070007324,0.14670976996421814,1.2225209474563599
1772708618159853300,2.020853271484375,-0.7138328552246094,0.2386293113231659,1.0827068090438843
1772708618169879600,2.030879638671875,-0.6971992254257202,0.4858747720718384,0.8638542890548706
1772708618179904300,2.040904296875,-0.5810856819152832,0.8905136585235596,0.6752308011054993
1772708618189929200,2.05092919921875,-0.2790161371231079,1.3275117874145508,0.5167413949966431
1772708618199954200,2.0609541015625,0.24306541681289673,1.6357325315475464,0.3968120813369751
1772708618209980200,2.070980224609375,0.8054026961326599,1.758457064628601,0.399370938539505
1772708618220005400,2.08100537109375,1.2145882844924927,1.5425971746444702,0.5485609769821167
1772708618230030300,2.0910302734375,1.4969565868377686,0.9958921670913696,0.7989500164985657
1772708618240055300,2.10105517578125,1.727346658706665,0.10585899651050568,1.2657432556152344
1772708618250081300,2.111081298828125,1.9631131887435913,-0.8587080836296082,1.9907563924789429
1772708618260106200,2.121106201171875,1.9316329956054688,-1.2644712924957275,2.6042189598083496
1772708618270131500,2.13113134765625,1.3649494647979736,-0.9210770726203918,2.5719921588897705
1772708618280156400,2.141156494140625,0.5170032978057861,-0.20078550279140472,1.9706071615219116
1772708618290182400,2.151182373046875,-0.032729946076869965,0.6360563039779663,1.4238418340682983
1772708618300207400,2.161207275390625,-0.024667223915457726,1.3652616739273071,1.025179147720337
1772708618310232300,2.171232421875,0.16169661283493042,1.6648752689361572,0.5374303460121155
1772708618320257500,2.181257568359375,0.052126169204711914,1.3932209014892578,-0.08592139929533005
1772708618330282200,2.1912822265625,-0.3782652020454407,0.6274460554122925,-0.6425119638442993
1772708618340308500,2.20130859375,-0.650824785232544,-0.30520039796829224,-0.8469130396842957
1772708618350333200,2.211333251953125,-0.5774879455566406,-0.9043161273002625,-0.5409289598464966
1772708618360358100,2.221358154296875,-0.24754148721694946,-1.1807849407196045,0.03391781076788902
1772708618370383400,2.23138330078125,0.11059427261352539,-1.1804462671279907,0.5174155831336975
1772708618380409300,2.241409423828125,0.14251437783241272,-1.1294282674789429,0.7105450630187988
1772708618390434300,2.251434326171875,-0.1219295933842659,-1.237995982170105,0.6714681386947632
1772708618400459300,2.261459228515625,-0.5205265283584595,-1.34187650680542,0.61252760887146
1772708618410484200,2.271484130859375,-0.8566036820411682,-1.4136111736297607,0.5380358695983887
1772708618420510200,2.28151025390625,-0.963996946811676,-1.4999687671661377,0.23502910137176514
1772708618430535400,2.291535400390625,-0.794609010219574,-1.4969754219055176,-0.27357932925224304
1772708618440560400,2.301560302734375,-0.37248334288597107,-1.237581729888916,-0.8643456697463989
1772708618450585300,2.31158544921875,0.20468154549598694,-0.7107705473899841,-1.2998074293136597
1772708618460611300,2.321611328125,0.9319751262664795,-0.012038860470056534,-1.271540641784668
1772708618470636300,2.33163623046875,1.5596559047698975,0.36940115690231323,-0.6869161128997803
1772708618480661500,2.34166162109375,1.6811343431472778,0.4173159599304199,0.26883405447006226
1772708618490686500,2.3516865234375,1.3258864879608154,0.23581141233444214,1.2749913930892944
1772708618500711400,2.36171142578125,0.8516122102737427,-0.08907587081193924,1.9930142164230347
1772708618510737400,2.3717373046875,0.5681377649307251,-0.34683364629745483,2.297574520111084
1772708618520762000,2.38176220703125,0.48450812697410583,-0.2904060482978821,2.1566381454467773
1772708618530787300,2.391787353515625,0.5004547238349915,-0.0777454525232315,1.677895426750183
1772708618540812300,2.401812255859375,0.6241742372512817,0.07328721135854721,1.0687295198440552
1772708618550838300,2.41183837890625,0.7567128539085388,0.15768688917160034,0.494879812002182
1772708618560863200,2.42186328125,0.8479686975479126,0.20940068364143372,0.07381328195333481
1772708618570888200,2.43188818359375,0.8946914672851562,0.29153671860694885,-0.08815750479698181
1772708618580913400,2.441913330078125,0.8684921264648438,0.3769272565841675,-0.02796100452542305
1772708618590939400,2.451939453125,0.7648270726203918,0.41573113203048706,0.18943631649017334
1772708618600964400,2.46196435546875,0.5008108615875244,0.3183569014072418,0.49160388112068176
1772708618610989000,2.471989013671875,0.07404392957687378,0.1549501270055771,0.6852619647979736
1772708618621014000,2.482013916015625,-0.35920682549476624,0.06419811397790909,0.6604610085487366
1772708618631039200,2.492039306640625,-0.6769945025444031,0.15421047806739807,0.4541114568710327
1772708618641065200,2.502065185546875,-0.8228411674499512,0.42105311155319214,0.13510552048683167
1772708618651090200,2.512090087890625,-0.8149001002311707,0.7557063102722168,-0.21420755982398987
1772708618661115100,2.522115234375,-0.7148597836494446,1.111730933189392,-0.5101202130317688
1772708618671140000,2.53214013671875,-0.5988918542861938,1.310253620147705,-0.6849234104156494
1772708618681166000,2.542166015625,-0.5657275319099426,1.223609209060669,-0.7041754126548767
1772708618691191300,2.55219140625,-0.6158539652824402,0.9739411473274231,-0.5126264095306396
1772708618701216300,2.56221630859375,-0.6684489846229553,0.6269240975379944,-0.1319293975830078
1772708618711241200,2.5722412109375,-0.7498401403427124,0.24249781668186188,0.3478025197982788
1772708618721267200,2.58226708984375,-0.8855031728744507,-0.08975841850042343,0.8028365969657898
1772708618731292200,2.592292236328125,-0.9929599761962891,-0.2906041741371155,1.1290788650512695
1772708618741317400,2.6023173828125,-0.9709417819976807,-0.33374789357185364,1.3106813430786133
1772708618751342300,2.61234228515625,-0.8169761300086975,-0.3206220269203186,1.3342581987380981
1772708618761368300,2.622368408203125,-0.6566892266273499,-0.2940889596939087,1.188877820968628
1772708618771393300,2.632393310546875,-0.526695728302002,-0.2310785949230194,0.9429308772087097
1772708618781418200,2.642418212890625,-0.4962453544139862,-0.1351267546415329,0.7018750905990601
1772708618791443200,2.652443115234375,-0.541573166847229,0.043721869587898254,0.5484516620635986
1772708618801468200,2.66246826171875,-0.4474831521511078,0.21488642692565918,0.5406607985496521
1772708618811494100,2.672494140625,-0.22966676950454712,0.24168844521045685,0.6998441219329834
1772708618821519000,2.68251904296875,0.03543279692530632,0.09472190588712692,0.9857262372970581
1772708618831544000,2.6925439453125,0.2908440828323364,-0.1844721883535385,1.3634052276611328
1772708618841569300,2.7025693359375,0.5076227188110352,-0.6001250743865967,1.59425687789917
1772708618851595300,2.71259521484375,0.6509556770324707,-1.121046543121338,1.407270908355713
1772708618861620200,2.7226201171875,0.651914119720459,-1.3802334070205688,0.9247981905937195
1772708618871645200,2.732645263671875,0.3862297236919403,-1.0379337072372437,0.3230871558189392
1772708618881670100,2.742670166015625,0.05062561109662056,-0.1760098934173584,-0.15648292005062103
1772708618891696000,2.752696044921875,-0.20382285118103027,0.6794761419296265,-0.581558108329773
1772708618901721300,2.762721435546875,-0.42188674211502075,1.1345568895339966,-1.248181700706482
1772708618911746300,2.772746337890625,-0.5538927912712097,1.3679566383361816,-1.9863685369491577
1772708618921771300,2.782771240234375,-0.34946855902671814,1.3843567371368408,-2.5722012519836426
1772708618931797200,2.79279736328125,0.19888408482074738,1.0944968461990356,-2.745180606842041
1772708618941822200,2.802822265625,0.7378772497177124,0.580639123916626,-2.383668899536133
1772708618951847400,2.812847412109375,0.9068924784660339,0.1857549548149109,-1.7209763526916504
1772708618961872100,2.8228720703125,0.6962060928344727,-0.23690654337406158,-1.2687056064605713
1772708618971897000,2.83289697265625,0.49912533164024353,-0.8311026096343994,-1.2905116081237793
1772708618981923000,2.842923095703125,0.5233675837516785,-1.3603144884109497,-1.5906095504760742
1772708618991948000,2.852947998046875,0.5973792672157288,-1.6798644065856934,-1.8025494813919067
1772708619001973200,2.86297314453125,0.5981403589248657,-1.8903274536132812,-1.7833850383758545
1772708619011998200,2.872998291015625,0.4938412308692932,-1.954095482826233,-1.6312196254730225
1772708619022024200,2.883024169921875,0.31608161330223083,-1.782828688621521,-1.5144476890563965
1772708619032049200,2.893049072265625,0.15837448835372925,-1.3979568481445312,-1.4829318523406982
1772708619042074000,2.90307421875,0.10672035813331604,-0.9046046733856201,-1.4427570104599
1772708619052099300,2.913099365234375,0.10665426403284073,-0.3540459871292114,-1.2764947414398193
1772708619062125300,2.923125244140625,0.1853213757276535,0.1078537330031395,-0.991180419921875
1772708619072150300,2.933150390625,0.269283652305603,0.3682893216609955,-0.7140347957611084
1772708619082175200,2.94317529296875,0.3092305362224579,0.3991748094558716,-0.5616250038146973
1772708619092200200,2.9532001953125,0.3246448338031769,0.28582480549812317,-0.5584700107574463
1772708619102225400,2.963225341796875,0.32410287857055664,0.13728781044483185,-0.659426212310791
1772708619112251400,2.97325146484375,0.32705679535865784,0.0027776737697422504,-0.7880673408508301
1772708619122276400,2.9832763671875,0.3526660203933716,-0.09598778188228607,-0.8132779002189636
1772708619132301000,2.993301025390625,0.4431721866130829,-0.1512388437986374,-0.6708354353904724
1772708619142326000,3.003325927734375,0.5472320318222046,-0.23348045349121094,-0.4331914484500885
1772708619152352000,3.01335205078125,0.6027447581291199,-0.32419058680534363,-0.1701434850692749
1772708619162377200,3.023377197265625,0.6119441390037537,-0.4737339913845062,0.07376638799905777
1772708619172402200,3.033402099609375,0.5454309582710266,-0.6467973589897156,0.27375075221061707
1772708619182427100,3.04342724609375,0.40092548727989197,-0.8190045356750488,0.405221164226532
1772708619192453000,3.053453125,0.20107980072498322,-0.945780336856842,0.4283880591392517
1772708619202478000,3.06347802734375,-0.005026489030569792,-0.9637705087661743,0.31690892577171326
1772708619212503300,3.07350341796875,-0.18603847920894623,-0.8309124708175659,0.10662228614091873
1772708619222528300,3.0835283203125,-0.3374810218811035,-0.5873940587043762,-0.17774897813796997
1772708619232554200,3.09355419921875,-0.4284631311893463,-0.24259404838085175,-0.48647570610046387
1772708619242579200,3.1035791015625,-0.41300612688064575,0.18332982063293457,-0.7192213535308838
1772708619252604200,3.113604248046875,-0.32914963364601135,0.5810595750808716,-0.7955446243286133
1772708619262629400,3.12362939453125,-0.26446598768234253,0.9241732954978943,-0.7287179231643677
1772708619272654300,3.133654296875,-0.24791808426380157,1.1013375520706177,-0.5682454705238342
1772708619282680300,3.143680419921875,-0.2643745541572571,1.0400872230529785,-0.367928147315979
1772708619292705300,3.153705322265625,-0.322383850812912,0.7717853784561157,-0.15046826004981995
1772708619302730200,3.163730224609375,-0.4034171998500824,0.4053024351596832,0.08892673999071121
1772708619312755200,3.173755126953125,-0.49019572138786316,0.110935740172863,0.3415237367153168
1772708619322781200,3.18378125,-0.5927708148956299,-0.05845515429973602,0.5692256093025208
1772708619332806100,3.19380615234375,-0.7119361758232117,-0.04060226306319237,0.7086613178253174
1772708619342831000,3.2038310546875,-0.7723066210746765,0.1964515596628189,0.7581406831741333
1772708619352856000,3.21385595703125,-0.7136868834495544,0.5845819115638733,0.7310938239097595
1772708619362882000,3.223882080078125,-0.5548692941665649,0.996372401714325,0.6615895628929138
1772708619372907300,3.2339072265625,-0.3859236240386963,1.2942936420440674,0.63179612159729
1772708619382932200,3.24393212890625,-0.2630317807197571,1.3459384441375732,0.7213054895401001
1772708619392957200,3.253957275390625,-0.1676001250743866,1.0480310916900635,0.996669352054596
1772708619402983200,3.263983154296875,-0.004427711945027113,0.48487961292266846,1.4607315063476562
1772708619413008100,3.274008056640625,0.22227045893669128,-0.19491122663021088,2.0048604011535645
1772708619423033300,3.284033447265625,0.4664839208126068,-0.9415952563285828,2.4188759326934814
1772708619433058300,3.294058349609375,0.49738848209381104,-1.3831456899642944,2.3994510173797607
1772708619443083300,3.304083251953125,0.2543337345123291,-1.167259693145752,1.8537213802337646
1772708619453109200,3.314109130859375,-0.08687612414360046,-0.32635948061943054,1.1727713346481323
1772708619463134200,3.32413427734375,-0.2942087948322296,1.09409499168396,0.8299114108085632
1772708619473159400,3.334159423828125,-0.3761917054653168,2.331486701965332,0.513677716255188
1772708619483184000,3.34418408203125,-0.45284971594810486,2.647569179534912,-0.1100848987698555
1772708619493210400,3.35421044921875,-0.4677134156227112,2.1959006786346436,-0.7819685339927673
1772708619503235000,3.364235107421875,-0.5540546774864197,1.530763864517212,-1.2650090456008911
1772708619513260000,3.374260009765625,-0.5933082699775696,1.0840469598770142,-1.489398717880249
1772708619523285500,3.384285400390625,-0.26537996530532837,0.6110732555389404,-1.4091336727142334
1772708619533311500,3.3943115234375,0.12694314122200012,0.19251783192157745,-1.2404279708862305
1772708619543336700,3.404336669921875,0.36411628127098083,0.06337688863277435,-1.2024030685424805
1772708619553361700,3.414361572265625,0.5008837580680847,-0.048150498420000076,-1.3439961671829224
1772708619563386600,3.42438671875,0.46666988730430603,-0.3045916259288788,-1.5455645322799683
1772708619573412600,3.43441259765625,0.26100996136665344,-0.6772112250328064,-1.6152687072753906
1772708619583437600,3.4444375,0.02999003417789936,-1.0346490144729614,-1.4666754007339478
1772708619593462800,3.454462890625,-0.09203170984983444,-1.22585928440094,-1.1853989362716675
1772708619603487700,3.46448779296875,-0.09129854291677475,-1.0636341571807861,-0.8963474631309509
1772708619613512400,3.474512451171875,-0.03457595035433769,-0.6237837672233582,-0.6952639222145081
1772708619623538700,3.48453857421875,0.10255447775125504,-0.10758324712514877,-0.5271047353744507
1772708619633563400,3.4945634765625,0.29960644245147705,0.2896381914615631,-0.30369237065315247
1772708619643588600,3.504588623046875,0.4257635772228241,0.3696802854537964,0.010343052446842194
1772708619653613600,3.514613525390625,0.46366551518440247,0.07130182534456253,0.3467346429824829
1772708619663639600,3.5246396484375,0.4377729296684265,-0.2907485365867615,0.5322209000587463
1772708619673664500,3.53466455078125,0.3290087580680847,-0.5449356436729431,0.46768394112586975
1772708619683689500,3.544689453125,0.17539310455322266,-0.7217791676521301,0.16453978419303894
1772708619693714700,3.554714599609375,0.002540281042456627,-0.7858375906944275,-0.27400070428848267
1772708619703740700,3.56474072265625,-0.12996289134025574,-0.7220389246940613,-0.6843680143356323
1772708619713765600,3.574765625,-0.15565834939479828,-0.5478124618530273,-0.7953163385391235
1772708619723790600,3.58479052734375,-0.06468129903078079,-0.18271945416927338,-0.5199965834617615
1772708619733815600,3.594815673828125,0.0315513014793396,0.2091473639011383,-0.06141965836286545
1772708619743840800,3.6048408203125,0.08392636477947235,0.46589791774749756,0.3245570659637451
1772708619753866800,3.61486669921875,0.047657545655965805,0.5779032707214355,0.5639019012451172
1772708619763891700,3.6248916015625,-0.04252694174647331,0.52975994348526,0.6555058360099792
1772708619773916700,3.634916748046875,-0.1448129117488861,0.3655852675437927,0.6226826906204224
1772708619783941600,3.644941650390625,-0.26203328371047974,0.14228478074073792,0.5247758626937866
1772708619793967600,3.654967529296875,-0.37703973054885864,-0.04386921599507332,0.3697242736816406
1772708619803992600,3.66499267578125,-0.4984830617904663,-0.12506073713302612,0.1446535885334015
1772708619814017500,3.675017578125,-0.6512028574943542,-0.08525313436985016,-0.13823182880878448
1772708619824042500,3.68504248046875,-0.8437438011169434,0.11473295092582703,-0.4405658543109894
1772708619834068500,3.695068359375,-1.006880760192871,0.418239027261734,-0.689224362373352
1772708619844093400,3.705093505859375,-1.0722155570983887,0.6529445052146912,-0.8185655474662781
1772708619854118700,3.71511865234375,-1.0100812911987305,0.7751182913780212,-0.7953909039497375
1772708619864143600,3.7251435546875,-0.866230845451355,0.7492656111717224,-0.61565762758255
1772708619874168600,3.73516845703125,-0.6576424241065979,0.4850425720214844,-0.30853506922721863
1772708619884194600,3.745194580078125,-0.533304750919342,0.09855824708938599,0.04351646080613136
1772708619894219500,3.755219482421875,-0.48753079771995544,-0.27572745084762573,0.33597683906555176
1772708619904244700,3.76524462890625,-0.45088598132133484,-0.6324424147605896,0.5304032564163208
1772708619914269700,3.775269775390625,-0.410014808177948,-0.7300456762313843,0.6680265069007874
1772708619924295700,3.785295654296875,-0.28574904799461365,-0.40009570121765137,0.750701904296875
1772708619934320600,3.795320556640625,-0.08741752058267593,0.25534141063690186,0.7505183219909668
1772708619944345600,3.805345703125,0.07523158192634583,0.9801065921783447,0.7031446695327759
1772708619954370800,3.815370849609375,0.16028019785881042,1.378095030784607,0.6667949557304382
1772708619964396800,3.825396728515625,0.13038116693496704,1.3261884450912476,0.6432243585586548
1772708619974421800,3.835421875,0.03978371620178223,0.8936982154846191,0.6165592074394226
1772708619984446500,3.845446533203125,0.036527469754219055,0.26258501410484314,0.6712046265602112
1772708619994471400,3.855471435546875,0.19139021635055542,-0.384422242641449,0.9150452017784119
1772708620004496600,3.86549658203125,0.4850010573863983,-0.885637104511261,1.3091444969177246
1772708620014522600,3.875522705078125,0.6986777782440186,-1.0802987813949585,1.5443108081817627
1772708620024547600,3.885547607421875,0.660906195640564,-0.9162731170654297,1.488502860069275
1772708620034572500,3.895572509765625,0.503279983997345,-0.3878597617149353,1.4147840738296509
1772708620044597500,3.905597412109375,0.32693126797676086,0.23403653502464294,1.3526557683944702
1772708620054623500,3.91562353515625,0.22139620780944824,0.7204588651657104,1.011279821395874
1772708620064648700,3.925648681640625,0.11338558793067932,0.7763162851333618,0.2328847497701645
1772708620074673700,3.935673583984375,-0.11432946473360062,0.45507878065109253,-0.7071880102157593
1772708620084698600,3.94569873046875,-0.4594325125217438,0.15875205397605896,-1.4103996753692627
1772708620094724600,3.955724609375,-0.5011360049247742,-0.158704474568367,-1.7299895286560059
1772708620104749600,3.96574951171875,-0.23897521197795868,-0.3601393401622772,-1.7139266729354858
1772708620114774800,3.97577490234375,0.022448766976594925,-0.28154247999191284,-1.4640207290649414
1772708620124799700,3.9857998046875,0.2233235388994217,-0.20381784439086914,-1.1233958005905151
1772708620134825700,3.99582568359375,0.25935542583465576,-0.28083565831184387,-0.7782109975814819
1772708620144850700,4.0058505859375,0.033396851271390915,-0.5562754273414612,-0.4725775718688965
1772708620154875400,4.01587548828125,-0.25415271520614624,-1.0512723922729492,-0.3386878967285156
1772708620164900600,4.025900634765625,-0.4790111482143402,-1.626304030418396,-0.42253461480140686
1772708620174925600,4.035925537109375,-0.6583477258682251,-2.0010268688201904,-0.6868082284927368
1772708620184951600,4.04595166015625,-0.7463926076889038,-1.9332355260849,-1.0497384071350098
1772708620194976500,4.0559765625,-0.7724976539611816,-1.3612453937530518,-1.3941794633865356
1772708620205001500,4.06600146484375,-0.7475427389144897,-0.4553728699684143,-1.6262060403823853
1772708620215026700,4.076026611328125,-0.5755448341369629,0.3799780011177063,-1.6045063734054565
1772708620225052700,4.086052734375,-0.27646759152412415,0.8633742332458496,-1.2925764322280884
1772708620235077600,4.09607763671875,-0.02813570387661457,1.0752851963043213,-0.8403519988059998
1772708620245102600,4.1061025390625,0.05931531637907028,1.0252132415771484,-0.4520029127597809
1772708620255127600,4.11612744140625,0.04063214734196663,0.5932868123054504,-0.23046568036079407
1772708620265153500,4.126153564453125,-0.004774746019393206,0.023598281666636467,-0.1121576726436615
1772708620275178800,4.1361787109375,-0.02459806017577648,-0.47042152285575867,0.0035022860392928123
1772708620285203700,4.14620361328125,-0.0351865217089653,-0.7292360663414001,0.17911884188652039
1772708620295228700,4.156228759765625,-0.010165082290768623,-0.702587366104126,0.4252522587776184
1772708620305253600,4.166253662109375,0.02432391792535782,-0.42027047276496887,0.672821044921875
1772708620315279600,4.176279541015625,0.05382922291755676,-0.05000745505094528,0.8559783697128296
1772708620325304600,4.1863046875,0.16291122138500214,0.2172335684299469,0.9333750009536743
1772708620335329500,4.19632958984375,0.395976185798645,0.3653622567653656,0.9275466799736023
1772708620345354500,4.2063544921875,0.6129481792449951,0.47781237959861755,0.9113306999206543
1772708620355380500,4.21638037109375,0.6736252903938293,0.4988388121128082,0.8963796496391296
1772708620365405400,4.226405517578125,0.4109763503074646,0.40272057056427,0.9025190472602844
1772708620375430700,4.2364306640625,-0.14456188678741455,0.24551895260810852,0.9354780912399292
1772708620385455600,4.24645556640625,-0.7217761874198914,0.020976921543478966,0.9560592770576477
1772708620395481600,4.256481689453125,-1.1093058586120605,-0.29057034850120544,0.9372515082359314
1772708620405506600,4.266506591796875,-1.2570233345031738,-0.619022011756897,0.8921045660972595
1772708620415531500,4.276531494140625,-1.234986424446106,-0.7708680033683777,0.8386680483818054
1772708620425556700,4.286556640625,-1.1212058067321777,-0.7026708126068115,0.7774502038955688
1772708620435581700,4.296581787109375,-0.9788759350776672,-0.4812779426574707,0.6822964549064636
1772708620445607700,4.306607666015625,-0.8303753733634949,-0.25377580523490906,0.5521615743637085
1772708620455632600,4.316632568359375,-0.6628553867340088,-0.16353987157344818,0.40641558170318604
1772708620465657600,4.32665771484375,-0.5654358863830566,-0.09960269927978516,0.2929135262966156
1772708620475682800,4.336682861328125,-0.5727012753486633,-0.10019449889659882,0.24211890995502472
1772708620485708800,4.346708740234375,-0.6416665315628052,-0.21948733925819397,0.2340567260980606
1772708620495733800,4.356733642578125,-0.7602654695510864,-0.41376203298568726,0.2263299524784088
1772708620505758500,4.366758544921875,-0.8939295411109924,-0.5708581805229187,0.224893718957901
1772708620515783400,4.376783447265625,-1.0124181509017944,-0.5069947838783264,0.2781306207180023
1772708620525809400,4.386809326171875,-1.1422920227050781,-0.21898140013217926,0.37973180413246155
1772708620535834600,4.396834716796875,-1.2757457494735718,0.10226140916347504,0.49337950348854065
1772708620545859300,4.406859375,-1.3564749956130981,0.3513750731945038,0.5738351941108704
1772708620555884300,4.41688427734375,-1.3537224531173706,0.49326425790786743,0.5821315050125122
1772708620565909500,4.426909423828125,-1.2460380792617798,0.42313897609710693,0.673517107963562
1772708620575935500,4.436935546875,-1.1793746948242188,0.7564938068389893,0.7993261814117432
1772708620585960400,4.44696044921875,-1.0949926376342773,1.1478029489517212,0.8134348392486572
1772708620595985400,4.4569853515625,-0.789164662361145,1.1653048992156982,0.727306604385376
1772708620606010400,4.46701025390625,-0.2897687256336212,1.0992037057876587,0.4674621820449829
1772708620616036400,4.477036376953125,-0.005260457284748554,1.3264936208724976,-0.4870360791683197
1772708620626061300,4.487061279296875,-0.07990726828575134,1.4718950986862183,-1.8001936674118042
1772708620636086500,4.49708642578125,0.0025550671853125095,1.7823070287704468,-2.436340093612671
1772708620646111500,4.507111572265625,0.2841353714466095,1.949296474456787,-2.61016845703125
1772708620656137500,4.517137451171875,0.5543325543403625,1.8870854377746582,-2.577194929122925
1772708620666162400,4.527162353515625,0.6579079031944275,1.8796656131744385,-2.398350715637207
1772708620676187400,4.5371875,0.5095760822296143,1.8597232103347778,-2.2046592235565186
1772708620686212600,4.547212646484375,0.32100456953048706,1.5211111307144165,-1.8912688493728638
1772708620696237600,4.557237548828125,0.22601252794265747,0.8193017840385437,-1.4204635620117188
1772708620706263600,4.567263671875,0.08866477757692337,0.03744563087821007,-0.9146376848220825
1772708620716288500,4.57728857421875,-0.09703461080789566,-0.46415573358535767,-0.6080707907676697
1772708620726313500,4.5873134765625,-0.17237383127212524,-0.5270244479179382,-0.5715489983558655
1772708620736338400,4.59733837890625,-0.08042795956134796,-0.01092587411403656,-0.7348459959030151
1772708620746364400,4.607364501953125,0.062270063906908035,0.8285664319992065,-1.033368468284607
1772708620756389400,4.617389404296875,0.15577180683612823,1.5809366703033447,-1.4696465730667114
1772708620766414300,4.627414306640625,0.19881035387516022,1.8508036136627197,-1.9331176280975342
1772708620776439600,4.637439453125,0.1315135657787323,1.6609805822372437,-2.1843371391296387
1772708620786465300,4.64746533203125,0.06207216903567314,1.243070363998413,-2.060609817504883
1772708620796490500,4.657490478515625,0.15734006464481354,0.7166134715080261,-1.566064715385437
1772708620806515500,4.667515380859375,0.3401103913784027,0.1548611968755722,-0.8282510638237
1772708620816540400,4.67754052734375,0.5280615091323853,-0.41350528597831726,-0.01604912243783474
1772708620826565600,4.687565673828125,0.770828902721405,-1.0106818675994873,0.7746021151542664
1772708620836591400,4.69759130859375,1.0122700929641724,-1.528060793876648,1.470401644706726
1772708620846616600,4.707616455078125,1.2145189046859741,-1.9095284938812256,1.9941290616989136
1772708620856641500,4.7176416015625,1.3371247053146362,-2.148184061050415,2.2669179439544678
1772708620866666500,4.72766650390625,1.3350636959075928,-2.2190897464752197,2.311528205871582
1772708620876692500,4.7376923828125,1.2458800077438354,-2.160449504852295,2.185015916824341
1772708620886717400,4.747717529296875,1.067554235458374,-2.127506971359253,1.963241696357727
1772708620896742400,4.757742431640625,0.7083093523979187,-1.9904319047927856,1.7356863021850586
1772708620906767400,4.767767333984375,0.5288594365119934,-1.6222271919250488,1.53212308883667
1772708620916793300,4.77779345703125,0.6386541128158569,-1.1864509582519531,1.1997171640396118
1772708620926818300,4.787818359375,0.7138534784317017,-0.8058158159255981,0.801887571811676
1772708620936843500,4.797843505859375,0.7743049263954163,-0.46329978108406067,0.43693751096725464
1772708620946868500,4.807868408203125,0.8529683351516724,0.0025417041033506393,0.0989067479968071
1772708620956893400,4.8178935546875,0.8506713509559631,0.3694603145122528,-0.16480125486850739
1772708620966919400,4.82791943359375,0.7820318341255188,0.565615713596344,-0.26693400740623474
1772708620976944400,4.8379443359375,0.7250706553459167,0.5611799359321594,-0.17785634100437164
1772708620986969300,4.84796923828125,0.6611995100975037,0.3600979745388031,0.028694698587059975
1772708620996994600,4.85799462890625,0.5907310843467712,0.08801080286502838,0.3065209984779358
1772708621007020500,4.8680205078125,0.5276232361793518,-0.1394447237253189,0.6067606806755066
1772708621017045500,4.87804541015625,0.455910861492157,-0.29050132632255554,0.8628143668174744
1772708621027070500,4.888070556640625,0.3471886217594147,-0.4019783139228821,1.0367363691329956
1772708621037095400,4.898095458984375,0.21652700006961823,-0.5743791460990906,1.169946312904358
1772708621047121400,4.908121337890625,0.13209865987300873,-0.8023534417152405,1.2756295204162598
1772708621057146600,4.918146728515625,0.09266915172338486,-0.9903169274330139,1.2772928476333618
1772708621067171600,4.928171630859375,0.007951070554554462,-1.087311863899231,1.122707486152649
1772708621077196300,4.9381962890625,-0.13904936611652374,-0.9793421626091003,0.8545836806297302
1772708621087222300,4.94822216796875,-0.20431198179721832,-0.6557369232177734,0.6224383115768433
1772708621097247500,4.95824755859375,-0.18377597630023956,-0.3637670576572418,0.40590110421180725
1772708621107272400,4.9682724609375,-0.11704114824533463,-0.14900735020637512,0.1725703775882721
1772708621117297400,4.97829736328125,-0.002974306233227253,0.05582841485738754,-0.011009939014911652
1772708621127322400,4.988322265625,0.0972612127661705,0.1778336763381958,-0.1687830537557602
1772708621137348400,4.998348388671875,0.1810270994901657,0.17874999344348907,-0.24796001613140106
1772708621147373300,5.008373291015625,0.4174966514110565,0.22569407522678375,-0.21496450901031494
1772708621157398500,5.0183984375,0.543660044670105,0.02250528335571289,0.08074971288442612
1772708621167423500,5.028423583984375,0.7388431429862976,-0.3396420180797577,0.6398319005966187
1772708621177449500,5.038449462890625,0.972276508808136,-0.802763044834137,1.4061388969421387
1772708621187474400,5.048474365234375,1.0245184898376465,-1.016920804977417,2.063668727874756
1772708621197499400,5.05849951171875,0.661890983581543,-1.3463315963745117,1.9100022315979004
1772708621207524600,5.068524658203125,0.033707261085510254,-1.1782962083816528,1.312886118888855
1772708621217550600,5.078550537109375,-0.4363880753517151,-0.47286370396614075,0.7788482904434204
1772708621227575600,5.088575439453125,-0.5965577960014343,0.47178828716278076,0.4713967740535736
1772708621237600500,5.0986005859375,-0.4567999839782715,1.336987018585205,0.30975601077079773
1772708621247625500,5.10862548828125,-0.22924993932247162,1.94615638256073,0.23806850612163544
1772708621257651500,5.1186513671875,-0.13167214393615723,2.18451189994812,0.21296235918998718
1772708621267676400,5.128676513671875,-0.08301752060651779,1.8099108934402466,0.05026691406965256
1772708621277701400,5.138701416015625,0.16102632880210876,1.1110543012619019,-0.13340072333812714
1772708621287726300,5.148726318359375,0.42021554708480835,0.4119361340999603,-0.22548803687095642
1772708621297752300,5.15875244140625,0.5550603270530701,-0.049161769449710846,-0.3469702899456024
1772708621307777300,5.16877734375,0.5759482979774475,-0.24798032641410828,-0.5686358213424683
1772708621317802500,5.178802490234375,0.44188791513442993,-0.18873484432697296,-0.8290729522705078
1772708621327827500,5.188827392578125,0.2404075264930725,-0.008522995747625828,-0.993436872959137
1772708621337852400,5.198852294921875,0.17001663148403168,-0.023953814059495926,-0.9549835324287415
1772708621347878400,5.20887841796875,0.1966429203748703,-0.3759869635105133,-0.7075023651123047
1772708621357903400,5.2189033203125,0.17923077940940857,-0.9340174794197083,-0.40203046798706055
1772708621367928600,5.228928466796875,0.13539010286331177,-1.364847183227539,-0.09785725921392441
1772708621377953500,5.23895361328125,0.13703377544879913,-1.5291682481765747,0.16327165067195892
1772708621387979500,5.2489794921875,0.23547112941741943,-1.503821611404419,0.33871379494667053
1772708621398004500,5.25900439453125,0.3632497191429138,-1.3397495746612549,0.45150524377822876
1772708621408029400,5.269029541015625,0.414235919713974,-1.0323984622955322,0.5201082825660706
1772708621418054400,5.279054443359375,0.34757667779922485,-0.6669389009475708,0.4960229694843292
1772708621428080600,5.28908056640625,0.1280302256345749,-0.32962849736213684,0.32170549035072327
1772708621438105300,5.299105224609375,-0.16303934156894684,-0.07019668072462082,0.050801537930965424
1772708621448130300,5.30913037109375,-0.35159778594970703,0.09768526256084442,-0.22379380464553833
1772708621466300400,5.327300537109375,-0.3275701701641083,0.03908132389187813,-0.6127808690071106
1772708621476325600,5.33732568359375,-0.19540002942085266,-0.010135723277926445,-0.5495551228523254
1772708621486350600,5.3473505859375,-0.09309284389019012,-0.11022503674030304,-0.23560625314712524
1772708621496376600,5.35737646484375,-0.16184359788894653,-0.2783621549606323,0.19636812806129456
1772708621506401500,5.367401611328125,-0.22564254701137543,-0.5652649998664856,0.6312644481658936
1772708621516426500,5.377426513671875,-0.16650328040122986,-0.8152890205383301,0.9393391013145447
1772708621526451700,5.38745166015625,-0.042224206030368805,-0.9673251509666443,1.1022629737854004
1772708621536477400,5.3974775390625,0.03982911631464958,-1.0092419385910034,1.1203365325927734
1772708621546502700,5.407502685546875,0.032018598169088364,-0.9891692399978638,1.027653455734253
1772708621556527600,5.417527587890625,-0.05731171369552612,-0.9659890532493591,0.8442546725273132
1772708621566552600,5.427552490234375,-0.25973671674728394,-0.9639357328414917,0.6325349807739258
1772708621576578600,5.43757861328125,-0.5622059106826782,-0.9221092462539673,0.4626327455043793
1772708621586603500,5.447603515625,-0.8204987049102783,-0.7592247128486633,0.30992311239242554
1772708621596628700,5.457628662109375,-0.8885024785995483,-0.5059359073638916,0.14734897017478943
1772708621606653700,5.46765380859375,-0.7554839849472046,-0.21833449602127075,-0.0016636713407933712
1772708621616679700,5.4776796875,-0.48987311124801636,0.114786796271801,-0.1560249924659729
1772708621626704600,5.48770458984375,-0.20711275935173035,0.5335097312927246,-0.435535192489624
1772708621636729600,5.4977294921875,-0.1100614070892334,0.6096737384796143,-0.6961046457290649
1772708621646754600,5.507754638671875,-0.34262728691101074,0.45714324712753296,-0.7933792471885681
1772708621656779500,5.517779541015625,-0.8799370527267456,0.38590922951698303,-0.9082637429237366
1772708621666805500,5.527805419921875,-1.1898053884506226,0.0714421197772026,-0.8636083602905273
1772708621676830500,5.53783056640625,-1.0913848876953125,-0.20159919559955597,-0.5295844674110413
1772708621686855700,5.547855712890625,-0.9508206844329834,0.012367147020995617,-0.25297626852989197
1772708621696880600,5.557880615234375,-0.8614614009857178,0.39804160594940186,-0.2047012895345688
1772708621706906600,5.56790673828125,-0.6979489326477051,0.7256932854652405,-0.25984418392181396
1772708621716931600,5.577931640625,-0.3425789177417755,1.0055402517318726,-0.28850793838500977
1772708621726956500,5.58795654296875,0.19769789278507233,1.1686924695968628,-0.1729150414466858
1772708621736981500,5.5979814453125,0.8651633262634277,1.0677810907363892,0.08935040980577469
1772708621747007500,5.608007568359375,1.3653088808059692,0.7603554129600525,0.4371115565299988
1772708621757032700,5.61803271484375,1.4151332378387451,0.5012367367744446,0.9105080962181091
1772708621776456700,5.637456787109375,0.8120056986808777,-0.5213679671287537,2.5697429180145264
1772708621786482700,5.647482666015625,0.46102631092071533,-1.2635321617126465,3.0149219036102295
1772708621796507600,5.657507568359375,-0.01921037770807743,-1.1320723295211792,2.860279083251953
1772708621806532600,5.66753271484375,-0.30735668540000916,-0.4626774489879608,2.251319408416748
1772708621816557600,5.6775576171875,-0.3526829779148102,0.2318008840084076,1.0226340293884277
1772708621826583600,5.68758349609375,-0.45021647214889526,1.0894216299057007,-0.6297913193702698
1772708621836608800,5.69760888671875,-0.6019583940505981,1.9660269021987915,-2.20266056060791
1772708621846633700,5.7076337890625,-0.72450190782547,2.537309408187866,-3.3856985569000244
1772708621856658700,5.71765869140625,-0.741520881652832,2.819369316101074,-4.151625633239746
1772708621866684700,5.7276845703125,-0.4650599956512451,2.6443958282470703,-4.411103248596191
1772708621876709600,5.737709716796875,-0.10087411105632782,2.1291558742523193,-4.19252347946167
1772708621886734800,5.74773486328125,0.3101176917552948,1.3297783136367798,-3.5700929164886475
1772708621896759600,5.757759521484375,0.5373994708061218,0.35808834433555603,-2.5069994926452637
1772708621906785800,5.767785888671875,0.595282793045044,-0.7504274249076843,-1.0876636505126953
1772708621916810500,5.777810546875,0.43919116258621216,-1.730943202972412,0.3922068178653717
1772708621926835500,5.78783544921875,0.18037743866443634,-2.2148516178131104,1.504018783569336
1772708621936860700,5.797860595703125,-0.08508217334747314,-2.2410264015197754,1.9249464273452759
1772708621946886700,5.80788671875,-0.4514622986316681,-1.6601701974868774,1.742053508758545
1772708621956911600,5.81791162109375,-0.8091261386871338,-0.5538095235824585,1.1315621137619019
1772708621966936600,5.8279365234375,-1.0190237760543823,0.6184556484222412,0.3720565438270569
1772708621976961500,5.83796142578125,-0.9720494151115417,1.5513322353363037,-0.3217044174671173
1772708621986987500,5.847987548828125,-0.7003092169761658,1.9678127765655518,-0.8587809205055237
1772708621997012700,5.8580126953125,-0.3762837052345276,1.8121284246444702,-1.1583412885665894
1772708622007037700,5.86803759765625,-0.08616054803133011,1.2242577075958252,-1.1860253810882568
1772708622017062700,5.878062744140625,0.1028020903468132,0.4200980067253113,-0.9909229278564453
1772708622027088600,5.888088623046875,0.11598953604698181,-0.2562410533428192,-0.6627682447433472
1772708622037113600,5.898113525390625,-0.006499306298792362,-0.6319165229797363,-0.24515777826309204
1772708622047138800,5.908138916015625,-0.10933567583560944,-0.7428497076034546,0.22572186589241028
1772708622057163800,5.918163818359375,-0.1337650865316391,-0.59808748960495,0.6567206382751465
1772708622067188700,5.928188720703125,-0.026390964165329933,-0.34776413440704346,0.9910061955451965
1772708622077214700,5.938214599609375,0.1677764356136322,-0.10169851779937744,1.2004591226577759
1772708622087239400,5.948239501953125,0.3534104824066162,0.0483919121325016,1.2831727266311646
1772708622097264600,5.9582646484375,0.4731694459915161,0.011747650802135468,1.280834436416626
1772708622107289600,5.96828955078125,0.4906030297279358,-0.11561696231365204,1.208670735359192
1772708622117315600,5.978315673828125,0.44085070490837097,-0.2941499948501587,1.0768015384674072
1772708622127340500,5.988340576171875,0.3483000099658966,-0.47469738125801086,0.8991667628288269
1772708622137365500,5.998365478515625,0.19268886744976044,-0.5919451117515564,0.7235378623008728
1772708622147390700,6.008390625,-0.029709843918681145,-0.5065976977348328,0.5939838290214539
1772708622157416700,6.018416748046875,-0.2104850709438324,-0.2311425358057022,0.5033336877822876
1772708622167441700,6.028441650390625,-0.23964455723762512,0.14859546720981598,0.444183349609375
1772708622177466600,6.038466552734375,-0.16974112391471863,0.5102524757385254,0.3423007130622864
1772708622187491600,6.04849169921875,-0.11307544261217117,0.7670680284500122,0.13219115138053894
1772708622197517600,6.058517578125,-0.0036775891203433275,0.8091297745704651,-0.10156279802322388
1772708622207542800,6.068542724609375,0.16684621572494507,1.1836367845535278,-0.22555769979953766
1772708622217567700,6.078567626953125,0.2610737383365631,1.378615379333496,-0.38187915086746216
1772708622227592700,6.0885927734375,0.2373710721731186,0.9474628567695618,-0.540452241897583
1772708622237618700,6.09861865234375,0.24945251643657684,0.42634519934654236,-0.5655545592308044
1772708622247643600,6.1086435546875,0.15759851038455963,0.0689697414636612,-0.5580593943595886
1772708622257668600,6.118668701171875,-0.04244781658053398,0.05111880600452423,-0.7363669276237488
1772708622267693600,6.128693603515625,-0.2054726779460907,0.4298783540725708,-0.9070428013801575
1772708622277719800,6.1387197265625,-0.4443489909172058,0.9021424651145935,-0.9906492233276367
1772708622287744500,6.14874462890625,-0.6372958421707153,1.2023524045944214,-0.9263964891433716
1772708622297769500,6.15876953125,-0.6244860887527466,1.0773662328720093,-0.5439304113388062
1772708622307794700,6.168794677734375,-0.47374823689460754,0.5024933815002441,0.040310125797986984
1772708622317820700,6.178820556640625,-0.07444990426301956,-0.4484236538410187,0.7716894745826721
1772708622327845600,6.188845703125,0.350140243768692,-1.3181487321853638,1.59538733959198
1772708622337870600,6.19887060546875,0.6900902390480042,-1.8396971225738525,2.373933792114258
1772708622347895600,6.2088955078125,1.1137815713882446,-1.857015609741211,2.9285519123077393
1772708622357921500,6.218921630859375,1.459598183631897,-1.310884714126587,3.0041444301605225
1772708622367946800,6.22894677734375,1.7337956428527832,-0.393581748008728,2.774736166000366
1772708622377971700,6.2389716796875,1.9018040895462036,0.38149377703666687,2.4506542682647705
1772708622387996700,6.24899658203125,1.8165233135223389,0.5885894894599915,2.2023403644561768
1772708622398021600,6.259021728515625,1.400532841682434,0.17012687027454376,1.9272323846817017
1772708622408047600,6.269047607421875,0.8183533549308777,-0.10414037108421326,1.5428346395492554
1772708622418072600,6.279072509765625,0.24715664982795715,0.058492064476013184,1.0734959840774536
1772708622428097800,6.289097900390625,0.011127885431051254,0.2756747305393219,0.7130645513534546
1772708622438122500,6.29912255859375,0.16178834438323975,-0.037229206413030624,0.4965110123157501
1772708622448148700,6.309148681640625,0.4329569935798645,-0.5530230402946472,0.33157771825790405
1772708622458173400,6.31917333984375,0.7527565360069275,-1.0629159212112427,0.0774366557598114
1772708622468198700,6.32919873046875,0.9385032057762146,-0.9274560213088989,-0.452133446931839
1772708622478223600,6.3392236328125,1.05368971824646,-0.4667528569698334,-1.1638258695602417
1772708622488249600,6.34924951171875,1.3233935832977295,-0.5023175477981567,-1.7728744745254517
1772708622498274600,6.359274658203125,1.6995924711227417,-0.854826807975769,-2.1257693767547607
1772708622508299500,6.369299560546875,2.0885462760925293,-0.8485449552536011,-2.240826368331909
1772708622518324700,6.37932470703125,2.285215377807617,-0.10655070096254349,-2.362893581390381
1772708622528350500,6.3893505859375,2.057731866836548,1.0670745372772217,-2.504474401473999
1772708622538375700,6.399375732421875,1.3322045803070068,2.013714075088501,-2.640458106994629
1772708622548400600,6.409400634765625,0.4183535575866699,2.5800461769104004,-2.7179741859436035
1772708622558425600,6.419425537109375,-0.3231475353240967,2.8508691787719727,-2.627047538757324
1772708622568451600,6.42945166015625,-0.7353149056434631,2.6808457374572754,-2.2298777103424072
1772708622578476500,6.4394765625,-0.8539389371871948,1.958728551864624,-1.6569814682006836
1772708622588501800,6.449501708984375,-0.8179644346237183,1.0959181785583496,-1.0926682949066162
1772708622598526500,6.4595263671875,-0.6246231198310852,0.41439393162727356,-0.7096290588378906
1772708622608552700,6.469552734375,-0.26608917117118835,0.027502957731485367,-0.5286328792572021
1772708622618577400,6.479577392578125,0.1975652128458023,-0.05348140746355057,-0.4584593176841736
1772708622628602600,6.4896025390625,0.5880749225616455,0.057067740708589554,-0.3863355815410614
1772708622638627600,6.499627685546875,0.760392963886261,0.13953974843025208,-0.258464515209198
1772708622648652500,6.509652587890625,0.777056097984314,0.32970941066741943,-0.12287791818380356
1772708622658678500,6.519678466796875,0.7387554049491882,0.5367781519889832,0.01753051206469536
1772708622668703500,6.529703369140625,0.5844146013259888,0.47456857562065125,0.13637754321098328
1772708622678728700,6.539728759765625,0.33592674136161804,0.27642062306404114,0.23481522500514984
1772708622688753700,6.549753662109375,0.035514719784259796,0.019811728969216347,0.27428728342056274
1772708622698779600,6.559779541015625,-0.21673738956451416,-0.16161587834358215,0.25226691365242004
1772708622708804600,6.5698046875,-0.4031001031398773,-0.17786754667758942,0.19767318665981293
1772708622718829600,6.57982958984375,-0.5366321802139282,-0.05772295966744423,0.11813464015722275
1772708622728854800,6.589854736328125,-0.652015745639801,0.2609085738658905,0.001237318618223071
1772708622738880500,6.599880615234375,-0.7555082440376282,0.6538422703742981,-0.09782532602548599
1772708622748905700,6.60990576171875,-0.8414852023124695,0.8774892091751099,-0.060543738305568695
1772708622758930700,6.6199306640625,-0.8359839916229248,0.8324724435806274,0.1157766804099083
1772708622768955400,6.629955322265625,-0.7775968313217163,0.5036532878875732,0.3953944742679596
1772708622778981600,6.639981689453125,-0.6730035543441772,-0.0755440890789032,0.7224732637405396
1772708622789006600,6.650006591796875,-0.5737390518188477,-0.6747252345085144,0.975364625453949
1772708622799031600,6.660031494140625,-0.5011603236198425,-1.1608033180236816,1.126976728439331
1772708622809056500,6.670056396484375,-0.44617244601249695,-1.4900139570236206,1.151261568069458
1772708622819082500,6.68008251953125,-0.42581409215927124,-1.557423710823059,1.0643891096115112
1772708622829107500,6.690107421875,-0.39914119243621826,-1.230892539024353,0.889396071434021
1772708622839132700,6.700132568359375,-0.3597724735736847,-0.6143518686294556,0.6687087416648865
1772708622849157600,6.71015771484375,-0.32268768548965454,-0.08161230385303497,0.43652820587158203
1772708622859182600,6.7201826171875,-0.36090776324272156,0.0002561924047768116,0.2709098756313324
1772708622869208600,6.73020849609375,-0.5490686297416687,-0.5092789530754089,0.19100439548492432
1772708622879233500,6.740233642578125,-0.7917909622192383,-1.167977213859558,0.14527739584445953
1772708622889258500,6.750258544921875,-0.9766319990158081,-1.5839152336120605,0.12516459822654724
1772708622899283700,6.76028369140625,-0.9473950862884521,-1.7835620641708374,0.148530974984169
1772708622909309700,6.770309814453125,-0.5611259341239929,-1.8788883686065674,0.26209428906440735
1772708622919334700,6.780334716796875,0.034151770174503326,-1.8528861999511719,0.4417414367198944
1772708622929359600,6.790359619140625,0.628466784954071,-1.5737618207931519,0.6654839515686035
1772708622939384600,6.800384521484375,1.025146722793579,-0.8955478668212891,0.7976499795913696
1772708622949410600,6.81041064453125,1.0910370349884033,-0.04575631767511368,0.7310664057731628
1772708622959435500,6.820435546875,0.8074620366096497,0.4123470187187195,0.4518856704235077
1772708622969460500,6.83046044921875,0.36352431774139404,0.6400461792945862,0.07084113359451294
1772708622979485400,6.8404853515625,0.02946043573319912,0.6326562762260437,-0.3578357696533203
1772708622989511400,6.850511474609375,-0.26200443506240845,0.37482312321662903,-1.0243059396743774
1772708622999536600,6.86053662109375,-0.6245402693748474,0.6315036416053772,-1.8583213090896606
1772708623009561600,6.8705615234375,-0.9307470917701721,1.3927966356277466,-2.675175428390503
1772708623019586600,6.880586669921875,-0.7887507677078247,1.8285179138183594,-3.2341177463531494
1772708623029611500,6.890611572265625,-0.011632120236754417,1.6389015913009644,-3.1057817935943604
1772708623039637500,6.900637451171875,0.7618138194084167,1.0973234176635742,-2.5256121158599854
1772708623049662500,6.910662353515625,1.0792503356933594,0.3988243043422699,-1.944271206855774
1772708623059687700,6.920687744140625,1.0478217601776123,-0.015329714864492416,-1.4898796081542969
1772708623069712600,6.930712646484375,0.7322009205818176,-0.12347722053527832,-1.3641778230667114
1772708623079738600,6.940738525390625,0.18716460466384888,0.10389679670333862,-1.603063702583313
1772708623089763600,6.950763671875,-0.4287227988243103,0.7328038811683655,-2.0562305450439453
1772708623099788500,6.96078857421875,-1.000733494758606,1.5957063436508179,-2.408029317855835
1772708623109813800,6.970813720703125,-1.3901842832565308,2.2664012908935547,-2.6624691486358643
1772708623119839700,6.98083984375,-1.459877610206604,2.478121042251587,-2.745025157928467
1772708623129864700,6.99086474609375,-1.2927833795547485,2.114326000213623,-2.584789514541626
1772708623139889400,7.000889404296875,-0.9783691167831421,1.3572816848754883,-2.127748489379883
1772708623149914600,7.01091455078125,-0.5088669061660767,0.4540514647960663,-1.3455926179885864
1772708623159940600,7.020940673828125,0.0298174899071455,-0.45834869146347046,-0.28773850202560425
1772708623169965600,7.030965576171875,0.43164321780204773,-1.224096655845642,0.8184978365898132
1772708623179990500,7.040990478515625,0.5149773359298706,-1.5764771699905396,1.6636861562728882
1772708623190015500,7.051015380859375,0.34620803594589233,-1.4762698411941528,2.1858761310577393
1772708623200040700,7.061040771484375,0.0587146021425724,-1.213716745376587,2.3240764141082764
1772708623210066400,7.07106640625,-0.22021450102329254,-0.8840104937553406,2.1397674083709717
1772708623220091600,7.081091552734375,-0.4317832589149475,-0.5112103223800659,1.7782560586929321
1772708623230116600,7.09111669921875,-0.5655742883682251,-0.09344052523374557,1.3076987266540527
1772708623240141600,7.1011416015625,-0.6106504797935486,0.39871570467948914,0.7899396419525146
1772708623250167600,7.11116748046875,-0.5559456944465637,0.7220407128334045,0.27426138520240784
1772708623260192500,7.121192626953125,-0.3979496657848358,0.8746127486228943,-0.11287910491228104
1772708623270217700,7.1312177734375,-0.14545056223869324,0.9439612030982971,-0.24885506927967072
1772708623280242700,7.14124267578125,0.10560189932584763,0.7371755242347717,-0.10583850741386414
1772708623290268700,7.1512685546875,0.15488049387931824,0.5793968439102173,0.2531556189060211
1772708623300293600,7.161293701171875,0.00609466340392828,0.36525192856788635,0.5259798169136047
1772708623310318600,7.171318603515625,-0.22420965135097504,0.1728971302509308,0.7172781229019165
1772708623320343600,7.181343505859375,-0.4275236427783966,-0.043072402477264404,0.7663775682449341
1772708623330369500,7.19136962890625,-0.5314047336578369,-0.14258061349391937,0.7114173769950867
1772708623340394500,7.20139453125,-0.5358656048774719,-0.054862212389707565,0.5571988224983215
1772708623350419500,7.21141943359375,-0.42888641357421875,0.14319682121276855,0.4161413013935089
1772708623360444700,7.221444580078125,-0.2503504157066345,0.3182958960533142,0.34557291865348816
1772708623370469600,7.2314697265625,-0.12226594984531403,0.3025004267692566,0.3107813894748688
1772708623380495600,7.24149560546875,-0.12576109170913696,0.03884562849998474,0.32272300124168396
1772708623390520600,7.2515205078125,-0.25478458404541016,-0.39867740869522095,0.3470538854598999
1772708623400545500,7.261545654296875,-0.4355332851409912,-0.7413489818572998,0.3437328636646271
1772708623410570500,7.271570556640625,-0.585885226726532,-0.8876484036445618,0.3719594478607178
1772708623420596500,7.281596435546875,-0.6869121193885803,-0.8736231327056885,0.4377616345882416
1772708623430621700,7.29162158203125,-0.6475082635879517,-0.6377235054969788,0.5052970051765442
1772708623440646700,7.301646728515625,-0.4973227083683014,-0.29595717787742615,0.5393851399421692
1772708623450671600,7.311671630859375,-0.31769755482673645,0.035400521010160446,0.5191256999969482
1772708623460696600,7.321696533203125,-0.07694251090288162,0.38645288348197937,0.49629905819892883
1772708623470722600,7.33172265625,0.1396835446357727,0.5852532982826233,0.5226800441741943
1772708623480747500,7.34174755859375,0.26793715357780457,0.513687252998352,0.5981768369674683
1772708623490772500,7.3517724609375,0.32424649596214294,0.24556952714920044,0.7241494059562683
1772708623500797400,7.36179736328125,0.325264573097229,-0.12243752181529999,0.8174222111701965
1772708623510823400,7.371823486328125,0.471154123544693,-0.2949027717113495,0.8482528328895569
1772708623520848600,7.3818486328125,0.8553173542022705,-0.19411593675613403,1.0416816473007202
1772708623530873900,7.391873779296875,1.403787612915039,0.09811645746231079,1.4333420991897583
1772708623540898800,7.40189892578125,1.994291067123413,0.5741091370582581,1.6942394971847534
1772708623550924800,7.4119248046875,2.342883825302124,1.2983834743499756,1.2549278736114502
1772708623560949800,7.42194970703125,2.2025132179260254,2.161377429962158,0.29480037093162537
1772708623570974700,7.431974609375,1.5762832164764404,2.8414461612701416,-0.33375996351242065
1772708623581000000,7.442,0.7631583213806152,2.784810781478882,-0.23700304329395294
1772708623591026000,7.45202587890625,0.18990753591060638,1.6184873580932617,0.10704328119754791
1772708623601051000,7.46205078125,-0.09575636684894562,0.07401778548955917,0.27415555715560913
1772708623611075800,7.472075927734375,-0.08597511053085327,-1.0012681484222412,0.14669454097747803
1772708623621100800,7.482100830078125,0.31598493456840515,-1.6222872734069824,-0.1675303429365158
1772708623631126000,7.4921259765625,0.8218367099761963,-1.7968021631240845,-0.40635305643081665
1772708623641152000,7.502152099609375,1.0917772054672241,-1.077362060546875,-0.7366167306900024
1772708623651177000,7.512177001953125,1.109117031097412,0.15650388598442078,-1.1923840045928955
1772708623661201700,7.52220166015625,0.9904524087905884,1.1412076950073242,-1.585866093635559
1772708623671226600,7.5322265625,0.7410287261009216,1.4901819229125977,-1.7021032571792603
1772708623681252600,7.542252685546875,0.4341675043106079,1.1384453773498535,-1.5526180267333984
1772708623691277800,7.55227783203125,0.22011086344718933,0.08540114015340805,-1.0822752714157104
1772708623701302800,7.562302734375,0.1647987812757492,-1.3307549953460693,-0.4631442129611969
1772708623711327700,7.57232763671875,0.08979829400777817,-2.505995512008667,0.25286129117012024
1772708623721353700,7.582353759765625,-0.04024524241685867,-2.901296854019165,0.8562418222427368
1772708623731378700,7.592378662109375,-0.2823936939239502,-2.669370651245117,1.0415579080581665
1772708623741404000,7.60240380859375,-0.5566946864128113,-1.8400874137878418,0.805560290813446
1772708623751428900,7.612428955078125,-0.8511934280395508,-0.6416651606559753,0.25937047600746155
1772708623761453800,7.622453857421875,-1.131941318511963,0.5910473465919495,-0.4468698501586914
1772708623771479800,7.632479736328125,-1.2702124118804932,1.4887126684188843,-1.0516679286956787
1772708623781504800,7.6425048828125,-1.1989244222640991,1.7619082927703857,-1.4477733373641968
1772708623791530000,7.652530029296875,-0.9129599928855896,1.427896499633789,-1.5626006126403809
1772708623801555000,7.662554931640625,-0.6288597583770752,0.6613126993179321,-1.4557552337646484
1772708623811581000,7.672580810546875,-0.458360493183136,-0.2092674821615219,-1.1689916849136353
1772708623821606000,7.68260595703125,-0.336296409368515,-0.8368794918060303,-0.7631995677947998
1772708623831630800,7.692630859375,-0.2633329927921295,-1.1477733850479126,-0.3475898504257202
1772708623841655800,7.70265576171875,-0.24386107921600342,-1.1433254480361938,-0.026456575840711594
1772708623851682000,7.71268212890625,-0.22332200407981873,-0.8247386813163757,0.1874416023492813
1772708623861706800,7.722706787109375,-0.1384604275226593,-0.38929101824760437,0.3103708028793335
1772708623871731700,7.732731689453125,-0.11190737783908844,-0.11482056975364685,0.32103198766708374
1772708623881756700,7.742756591796875,-0.12388227880001068,0.06027348339557648,0.27594706416130066
1772708623891782000,7.752781982421875,-0.12648338079452515,0.048222143203020096,0.21033050119876862
1772708623901807900,7.762807861328125,-0.15247347950935364,-0.05435599014163017,0.10086521506309509
1772708623911832800,7.772832763671875,-0.16713152825832367,-0.14951366186141968,0.00919361412525177
1772708623921857800,7.78285791015625,-0.15355800092220306,-0.1915939450263977,-0.06093470752239227
1772708623931882800,7.7928828125,-0.14327473938465118,-0.13449735939502716,-0.07110585272312164
1772708623941908700,7.80290869140625,-0.1717766374349594,0.02016863413155079,0.012481579557061195
1772708623951934000,7.812933837890625,-0.22231490910053253,0.2797013819217682,0.1901000440120697
1772708623961959000,7.822958984375,-0.32028332352638245,0.45106247067451477,0.40050435066223145
1772708623971984000,7.83298388671875,-0.4361249804496765,0.48187097907066345,0.5608136057853699
1772708623982008800,7.8430087890625,-0.49001359939575195,0.44257795810699463,0.6466479897499084
1772708623992034800,7.853034912109375,-0.5087819695472717,0.35480043292045593,0.6394377946853638
1772708624002060000,7.86306005859375,-0.4884309768676758,0.16074731945991516,0.5469771027565002
1772708624012084700,7.873084716796875,-0.4174918234348297,-0.1083584576845169,0.4054969251155853
1772708624022109700,7.883109619140625,-0.367361456155777,-0.32310056686401367,0.2285607010126114
1772708624032135700,7.8931357421875,-0.39036449790000916,-0.44157740473747253,0.06212218105792999
1772708624042160600,7.90316064453125,-0.4282573163509369,-0.38449546694755554,-0.09876057505607605
1772708624052185900,7.913185791015625,-0.48592409491539,-0.09608710557222366,-0.2125726193189621
1772708624062210800,7.9232109375,-0.5592360496520996,0.2677258253097534,-0.213708758354187
1772708624072236800,7.93323681640625,-0.612040638923645,0.542044997215271,-0.050169095396995544
1772708624082261800,7.94326171875,-0.6109716892242432,0.6899440884590149,0.28167030215263367
1772708624092286700,7.95328662109375,-0.6019577383995056,0.6554527282714844,0.6654778718948364
1772708624102312000,7.96331201171875,-0.6865423321723938,0.5338250398635864,0.9442699551582336
1772708624112337000,7.9733369140625,-0.7815830707550049,0.2971664369106293,1.0636847019195557
1772708624122363000,7.98336279296875,-0.7224498391151428,-0.02065652795135975,1.1187266111373901
1772708624132387800,7.993387939453125,-0.475130558013916,-0.4455673396587372,1.2685734033584595
1772708624142412800,8.003412841796875,-0.17978909611701965,-0.8792868256568909,1.4500830173492432
1772708624152438000,8.01343798828125,-0.03245797008275986,-0.9095607995986938,1.4674491882324219
1772708624162464000,8.023464111328124,-0.09077204763889313,-0.3845750689506531,1.1213072538375854
1772708624172489000,8.033489013671876,-0.11390026658773422,0.4653504192829132,0.3158770203590393
1772708624182513700,8.043513671875,-0.12094404548406601,1.6002899408340454,-0.47438153624534607
1772708624192538600,8.05353857421875,-0.09624002873897552,2.3062946796417236,-1.006414532661438
1772708624202564600,8.063564697265624,-0.03292428329586983,2.173539161682129,-1.336735486984253
1772708624212589800,8.07358984375,-0.047957297414541245,1.3219428062438965,-1.5647228956222534
1772708624222614800,8.08361474609375,-0.3348371088504791,0.4243369698524475,-1.7735507488250732
1772708624232639700,8.0936396484375,-0.8774207234382629,0.0610027015209198,-2.037553071975708
1772708624242664700,8.103664794921874,-1.371726393699646,0.034761201590299606,-2.42915415763855
1772708624252690700,8.113690673828126,-1.5264382362365723,0.01065240241587162,-2.8389780521392822
1772708624262716000,8.1237158203125,-1.1736774444580078,-0.018862832337617874,-3.0088655948638916
1772708624272740900,8.133740966796875,-0.6799772381782532,0.09685365110635757,-2.964149236679077
1772708624282765800,8.143765869140625,-0.22289736568927765,0.2670290172100067,-2.6268250942230225
1772708624292791800,8.153791748046874,0.2006951868534088,0.11554336547851562,-1.9287456274032593
1772708624302816800,8.163816650390626,0.5262917280197144,-0.20326468348503113,-0.9919934272766113
1772708624312842000,8.173842041015625,0.6669476628303528,-0.6753206253051758,-0.004363093990832567
1772708624322867000,8.183866943359375,0.6892227530479431,-1.1588218212127686,0.8051145672798157
1772708624332892000,8.193891845703124,0.6940308213233948,-1.2764533758163452,1.2868833541870117
1772708624342918000,8.20391796875,0.7076462507247925,-1.0556585788726807,1.398988962173462
1772708624352942800,8.21394287109375,0.6512719392776489,-0.7267330288887024,1.1887953281402588
1772708624362967800,8.2239677734375,0.5144577622413635,-0.5852589011192322,0.817638635635376
1772708624372992800,8.23399267578125,0.3860476016998291,-0.6648903489112854,0.4194371998310089
1772708624383018800,8.244018798828124,0.3477169871330261,-0.8174665570259094,0.12329106777906418
1772708624393043700,8.254043701171875,0.4702985882759094,-0.6399530172348022,0.09353530406951904
1772708624403068700,8.264068603515625,0.5911590456962585,-0.1959066241979599,0.16429536044597626
1772708624413094000,8.274093994140625,0.6949738264083862,0.24848201870918274,0.2240724116563797
1772708624423118800,8.284118896484374,0.7999785542488098,0.5051729083061218,0.3524284064769745
1772708624433144800,8.294144775390626,0.8484686017036438,0.23288176953792572,0.3355463743209839
1772708624443169800,8.304169677734375,0.7286013960838318,-0.1606132984161377,0.2693507671356201
1772708624453194800,8.31419482421875,0.5517811179161072,-0.34215670824050903,0.1590503603219986
1772708624463220000,8.324219970703124,0.3383423686027527,-0.20313893258571625,-0.0011538981925696135
1772708624473246000,8.334245849609376,0.13402731716632843,0.1747252643108368,-0.16812051832675934
1772708624483271000,8.34427099609375,0.04579231142997742,0.5502948760986328,-0.24853427708148956
1772708624493295900,8.3542958984375,0.06026685610413551,0.7667714953422546,-0.22524571418762207
1772708624503320800,8.36432080078125,0.07877103984355927,0.8116739392280579,-0.14248578250408173
1772708624513346800,8.374346923828124,0.02803036756813526,0.6444138288497925,-0.07488249987363815
1772708624523372000,8.3843720703125,-0.046584513038396835,0.2511150538921356,-0.04854966700077057
1772708624533396000,8.39439599609375,-0.06410544365644455,-0.17724214494228363,-0.0057958136312663555
1772708624543421000,8.4044208984375,-0.027387671172618866,-0.5062679648399353,0.05568439140915871
1772708624553446100,8.414446044921876,0.02139424905180931,-0.6472748517990112,0.08331894874572754
1772708624563472100,8.42447216796875,0.04148682579398155,-0.4546118974685669,0.06635265052318573
1772708624573497000,8.4344970703125,0.016476543620228767,-0.13491085171699524,-0.022468559443950653
1772708624583522000,8.44452197265625,-0.03455687686800957,0.02927241288125515,-0.13040246069431305
1772708624593547000,8.454547119140624,-0.07826946675777435,0.1409454047679901,-0.21738290786743164
1772708624603573000,8.464572998046876,-0.09420254826545715,0.23064620792865753,-0.24554438889026642
1772708624613598200,8.47459814453125,-0.10897190868854523,0.2364516258239746,-0.24091075360774994
1772708624623623200,8.484623046875,-0.09674926847219467,0.23585569858551025,-0.12359773367643356
1772708624633648000,8.494648193359374,-0.11914805322885513,0.013052985072135925,0.09299714863300323
1772708624643674000,8.504674072265624,-0.1661214679479599,-0.3502437174320221,0.36546581983566284
1772708624653699000,8.514698974609376,-0.1795794814825058,-0.644079327583313,0.6075181365013123
1772708624663724300,8.524724365234375,-0.16368329524993896,-0.7434025406837463,0.700218141078949
1772708624673749200,8.534749267578125,-0.0751504898071289,-0.4138786792755127,0.7542504668235779
1772708624683774200,8.544774169921874,0.00038413237780332565,-0.06594914197921753,0.6937268376350403
1772708624693800200,8.55480029296875,0.012436799705028534,0.107205331325531,0.5771626830101013
1772708624703825200,8.5648251953125,-0.010483916848897934,0.19323879480361938,0.4781770706176758
1772708624713850000,8.57485009765625,-0.024629030376672745,0.2025715708732605,0.3981671929359436
1772708624723875000,8.584875,-0.03025313839316368,0.033172380179166794,0.337935209274292
1772708624733901000,8.594901123046874,-0.061080291867256165,-0.12955528497695923,0.2818056344985962
1772708624743926000,8.604926025390625,-0.08599615097045898,-0.13488642871379852,0.2809615135192871
1772708624753951000,8.614950927734375,-0.091832734644413,-0.13879461586475372,0.2875392735004425
1772708624763976200,8.62497607421875,-0.07517369836568832,-0.1068616509437561,0.2889437675476074
1772708624774001200,8.635001220703124,-0.08510356396436691,-0.04128396511077881,0.24624425172805786
1772708624784027100,8.645027099609376,-0.1282397359609604,0.024925343692302704,0.1645270586013794
1772708624794052000,8.655052001953125,-0.1961924284696579,0.0017252149991691113,0.030707206577062607
1772708624804077000,8.6650771484375,-0.21501439809799194,-0.06365329027175903,-0.12121443450450897
1772708624814102300,8.675102294921874,-0.14636875689029694,-0.10987938195466995,-0.24689646065235138
1772708624824128300,8.685128173828126,-0.028905579820275307,-0.06889726221561432,-0.2803186774253845
1772708624834153200,8.6951533203125,0.04906831681728363,-0.03442530333995819,-0.24857328832149506
1772708624844178200,8.70517822265625,0.07345645874738693,-0.05973203852772713,-0.1710546910762787
1772708624854203100,8.715203125,0.034791089594364166,-0.1380726397037506,-0.09959222376346588
1772708624864228000,8.72522802734375,-0.06145918369293213,-0.34741392731666565,-0.07873115688562393
1772708624874254300,8.73525439453125,-0.1933644860982895,-0.6523831486701965,-0.0782557800412178
1772708624884279000,8.745279052734375,-0.23920126259326935,-1.0186760425567627,-0.05847973749041557
1772708624894304000,8.755303955078125,-0.11489235609769821,-1.1340161561965942,-0.002997569739818573
1772708624904329000,8.765328857421874,0.019777705892920494,-0.769993782043457,0.07365190237760544
1772708624914355000,8.77535498046875,0.19730642437934875,-0.12070291489362717,0.13104195892810822
1772708624924380200,8.785380126953125,0.3409760892391205,0.37252333760261536,0.055268511176109314
1772708624934405000,8.795405029296875,0.4596755802631378,0.6565241813659668,-0.07116799056529999
1772708624944430000,8.80543017578125,0.5784758925437927,0.7935688495635986,-0.1691431701183319
1772708624954455000,8.815455078125,0.5937813520431519,0.7488266825675964,-0.2154395580291748
1772708624964481000,8.82548095703125,0.54549241065979,0.49850091338157654,-0.1958937644958496
1772708624974506200,8.83550634765625,0.4992713928222656,0.2215888947248459,-0.10322241485118866
