time,seconds_elapsed,z,y,x
1772708525562701000,0.053701171875,-0.05841244384646416,0.2552616000175476,-0.16620388627052307
1772708525572727000,0.06372705078125,-0.044674262404441833,0.27768221497535706,-0.1818837821483612
1772708525582753000,0.0737529296875,-0.018821625038981438,0.25647544860839844,-0.2184883952140808
1772708525592778000,0.083778076171875,0.019119631499052048,0.19931229948997498,-0.2727945148944855
1772708525602804000,0.093803955078125,0.05700070038437843,0.12692226469516754,-0.33631837368011475
1772708525612830000,0.103829833984375,0.08982522785663605,0.06257842481136322,-0.3966677188873291
1772708525622855000,0.11385498046875,0.11476626247167587,0.026075275614857674,-0.43712300062179565
1772708525632881000,0.123880859375,0.12724237143993378,-0.0016314524691551924,-0.455443412065506
1772708525642907000,0.133906982421875,0.12344896793365479,0.04234106466174126,-0.4573182761669159
1772708525652932900,0.143932861328125,0.1234138160943985,0.11768268793821335,-0.47277846932411194
1772708525662957800,0.153957763671875,0.1338840276002884,0.2172393798828125,-0.5077683925628662
1772708525672983800,0.16398388671875,0.1573864221572876,0.33884942531585693,-0.570022702217102
1772708525683009800,0.174009765625,0.19283390045166016,0.3291584551334381,-0.6492624282836914
1772708525693035800,0.184035888671875,0.24198412895202637,0.2892427146434784,-0.6851112246513367
1772708525703061000,0.19406103515625,0.28229454159736633,0.26118364930152893,-0.670517086982727
1772708525713086700,0.204086669921875,0.2898334264755249,0.2612329423427582,-0.6269888281822205
1772708525723112700,0.21411279296875,0.287883460521698,0.44420912861824036,-0.5652580857276917
1772708525733138700,0.224138671875,0.24692402780056,0.8111868500709534,-0.49683958292007446
1772708525743164000,0.234163818359375,0.18517997860908508,1.3249132633209229,-0.402317076921463
1772708525753190000,0.24418994140625,0.11965768784284592,1.9168951511383057,-0.26031413674354553
1772708525763216100,0.254216064453125,0.04579811543226242,2.4824934005737305,-0.09875374287366867
1772708525773242000,0.2642421875,-0.020551614463329315,2.8829619884490967,0.004381166305392981
1772708525783267000,0.27426708984375,-0.09504316002130508,3.081989288330078,0.03431669622659683
1772708525793293000,0.28429296875,-0.1912916600704193,3.1748485565185547,0.02840341255068779
1772708525803319000,0.294319091796875,-0.3206195533275604,3.2030560970306396,0.025437183678150177
1772708525813345000,0.304344970703125,-0.48880723118782043,3.1377453804016113,0.027484089136123657
1772708525823370000,0.314369873046875,-0.6959982514381409,2.9748728275299072,0.0189041830599308
1772708525833396000,0.32439599609375,-0.971396267414093,2.7259857654571533,0.01696513406932354
1772708525843422000,0.334421875,-1.181579351425171,2.4427547454833984,0.027248399332165718
1772708525853447000,0.344447021484375,-1.3276561498641968,2.134213447570801,0.03689170628786087
1772708525863473000,0.354472900390625,-1.4190040826797485,1.7740519046783447,0.04782078415155411
1772708525873499000,0.364498779296875,-1.4451830387115479,1.3542746305465698,0.05705582723021507
1772708525883524900,0.37452490234375,-1.3973667621612549,0.8172077536582947,0.037284255027770996
1772708525893549800,0.3845498046875,-1.3484071493148804,0.24946388602256775,-0.010160491801798344
1772708525903575800,0.394575927734375,-1.1586614847183228,-0.45360904932022095,-0.0567447729408741
1772708525913601800,0.404601806640625,-1.0244091749191284,-1.161847710609436,-0.23573316633701324
1772708525923627800,0.414627685546875,-0.884955108165741,-1.8911583423614502,-0.42805466055870056
1772708525933653000,0.424653076171875,-0.9750320315361023,-2.5060155391693115,-0.6093080639839172
1772708525943679000,0.434678955078125,-1.0226906538009644,-2.7800986766815186,-0.5551095604896545
1772708525953705000,0.444705078125,-0.9831604957580566,-2.7679598331451416,-0.2927969694137573
1772708525963730700,0.454730712890625,-0.9390766620635986,-2.7267496585845947,0.008110657334327698
1772708525973756000,0.464755859375,-0.9298373460769653,-2.439086675643921,0.19674581289291382
1772708525983782000,0.474781982421875,-0.9407256841659546,-1.346318244934082,0.14076218008995056
1772708525993808100,0.48480810546875,-0.8607046008110046,-1.005234956741333,0.0154340835288167
1772708526003834000,0.494834228515625,-0.8213103413581848,-0.41423073410987854,-0.20437684655189514
1772708526013859000,0.504859130859375,-0.7489067316055298,-0.7100826501846313,-0.5138412117958069
1772708526023885000,0.514885009765625,-0.6494935750961304,-1.1100268363952637,-0.7451279759407043
1772708526033911000,0.5249111328125,-0.521613359451294,-1.2400695085525513,-1.0246155261993408
1772708526043937000,0.53493701171875,-0.3999580442905426,-1.1460272073745728,-1.2987037897109985
1772708526053962000,0.5449619140625,-0.2650202214717865,-1.2884654998779297,-1.4308499097824097
1772708526063988000,0.554988037109375,-0.27664411067962646,-1.2970497608184814,-1.5568112134933472
1772708526074014000,0.565013916015625,-0.3716158866882324,-1.3522917032241821,-1.7634810209274292
1772708526084039000,0.575038818359375,-0.29553231596946716,-1.588557481765747,-1.852160096168518
1772708526094065000,0.58506494140625,-0.011359713971614838,-1.4963386058807373,-1.5259321928024292
1772708526104091000,0.5950908203125,0.3483563959598541,-1.1638996601104736,-0.774375319480896
1772708526114116900,0.605116943359375,0.5386695861816406,-0.7267204523086548,0.18491844832897186
1772708526124141800,0.615141845703125,0.36061224341392517,-0.553659200668335,1.0008840560913086
1772708526134167800,0.625167724609375,-0.16484567523002625,-0.7886552214622498,1.3171123266220093
1772708526144193800,0.63519384765625,-0.5520325303077698,-1.6774349212646484,1.4756979942321777
1772708526154219800,0.6452197265625,-0.5901450514793396,-2.4170031547546387,1.7166112661361694
1772708526164245000,0.655244873046875,-0.4113675653934479,-2.460010051727295,1.9148178100585938
1772708526174271000,0.66527099609375,-0.16899274289608002,-2.101592540740967,1.830491304397583
1772708526184297000,0.675296875,0.11367303878068924,-1.6772027015686035,1.5235809087753296
1772708526194323000,0.685322998046875,0.4942949414253235,-1.2407598495483398,1.1475281715393066
1772708526204348000,0.695347900390625,0.9549120664596558,-0.727750837802887,0.8520573377609253
1772708526214374000,0.705373779296875,1.347700595855713,-0.34691986441612244,0.6565786600112915
1772708526224400000,0.71539990234375,1.5334912538528442,-0.36230841279029846,0.5091138482093811
1772708526234426000,0.725426025390625,1.5004593133926392,-0.6131126880645752,0.44740360975265503
1772708526244450800,0.735450927734375,1.2792140245437622,-0.8296854496002197,0.5189704895019531
1772708526254477000,0.74547705078125,0.9825977683067322,-0.9711267352104187,0.6599401235580444
1772708526264503000,0.7555029296875,0.6558539867401123,-1.2552224397659302,0.6906487345695496
1772708526274529000,0.765529052734375,0.38945746421813965,-1.699091911315918,0.5363020300865173
1772708526284554000,0.775553955078125,0.23955240845680237,-2.152909994125366,0.28428125381469727
1772708526294580000,0.785580078125,0.2121540755033493,-2.5326786041259766,-0.031036479398608208
1772708526304606000,0.79560595703125,0.18774352967739105,-2.8326661586761475,-0.411655992269516
1772708526314631000,0.805630859375,0.0959014967083931,-2.957453727722168,-0.8325939178466797
1772708526324657000,0.815656982421875,-0.03996126353740692,-2.840589761734009,-1.270861268043518
1772708526334683000,0.825682861328125,-0.16705423593521118,-2.4863903522491455,-1.6979409456253052
1772708526344708900,0.835708984375,-0.3137485980987549,-1.940725326538086,-2.0306472778320312
1772708526354733800,0.84573388671875,-0.4360058009624481,-1.28208589553833,-2.1547257900238037
1772708526364759800,0.855759765625,-0.4350321590900421,-0.5803198218345642,-2.061741828918457
1772708526374785800,0.865785888671875,-0.32178735733032227,-0.0020242687314748764,-1.7826361656188965
1772708526384811800,0.875811767578125,-0.22123011946678162,0.30779537558555603,-1.3897995948791504
1772708526394837000,0.8858369140625,-0.1798720359802246,0.35404062271118164,-0.9794166088104248
1772708526404863000,0.895863037109375,-0.1639266163110733,0.2169533520936966,-0.6303257346153259
1772708526414889000,0.905888916015625,-0.15376506745815277,0.023900272324681282,-0.3727823495864868
1772708526424915000,0.9159150390625,-0.14694470167160034,-0.15034210681915283,-0.20012883841991425
1772708526434940000,0.92593994140625,-0.1435752809047699,-0.27639591693878174,-0.13382863998413086
1772708526444966000,0.9359658203125,-0.1766783595085144,-0.24334394931793213,-0.1665887087583542
1772708526454992000,0.945991943359375,-0.25677400827407837,-0.029200496152043343,-0.325655072927475
1772708526465016800,0.956016845703125,-0.2800593376159668,0.18448595702648163,-0.5670951008796692
1772708526475042800,0.966042724609375,-0.1710444539785385,0.41714078187942505,-0.6736093163490295
1772708526485068800,0.97606884765625,0.07047735899686813,0.5894920229911804,-0.6382590532302856
1772708526495094800,0.9860947265625,0.2991883158683777,0.8128742575645447,-0.6335257887840271
1772708526505119700,0.99611962890625,0.38733306527137756,0.8970850110054016,-0.7935037612915039
1772708526515145700,1.006145751953125,0.32155245542526245,0.8597093820571899,-1.0728487968444824
1772708526525171700,1.016171630859375,0.2103005051612854,0.7866349220275879,-1.264732003211975
1772708526535197700,1.02619775390625,0.10540764778852463,0.6216902136802673,-1.236792802810669
1772708526545222700,1.03622265625,-0.01047367975115776,0.15875263512134552,-0.9257190227508545
1772708526555248600,1.04624853515625,-0.21306486427783966,0.017948906868696213,-0.5359992384910583
1772708526565274600,1.056274658203125,-0.3319145441055298,0.24472346901893616,-0.30902788043022156
1772708526575300600,1.066300537109375,-0.3580971658229828,0.2533917725086212,-0.15754061937332153
1772708526585325800,1.076325927734375,-0.378149151802063,0.003983023576438427,-0.057378605008125305
1772708526595351800,1.086351806640625,-0.3446945250034332,-0.28137895464897156,-0.03778199851512909
1772708526605377800,1.096377685546875,-0.293527752161026,-0.38435378670692444,-0.09510547667741776
1772708526615402800,1.10640283203125,-0.2373393177986145,-0.3024293780326843,-0.17327751219272614
1772708526625428700,1.1164287109375,-0.15977555513381958,-0.16152498126029968,-0.20963072776794434
1772708526635455000,1.126455078125,-0.08213774859905243,-0.039137549698352814,-0.23024944961071014
1772708526645481000,1.13648095703125,-0.07885833084583282,0.06675107032060623,-0.18941760063171387
1772708526655506000,1.146505859375,-0.13149091601371765,0.15094690024852753,0.010382333770394325
1772708526665532000,1.156531982421875,-0.15599359571933746,0.3171215057373047,0.45471104979515076
1772708526675558000,1.166557861328125,-0.08045037090778351,0.6631374955177307,1.132878065109253
1772708526685584000,1.176583984375,0.07069467753171921,1.1306612491607666,1.8706634044647217
1772708526695608800,1.18660888671875,0.19856874644756317,1.5357017517089844,2.4158356189727783
1772708526705634800,1.196634765625,0.2373606264591217,1.6257532835006714,2.5659148693084717
1772708526715660800,1.206660888671875,0.13086506724357605,1.4720854759216309,2.4282455444335938
1772708526725686800,1.216686767578125,0.048235438764095306,1.283703327178955,2.298311233520508
1772708526735711700,1.226711669921875,0.1432674080133438,1.3437727689743042,2.1981112957000732
1772708526745737700,1.23673779296875,0.17140743136405945,1.4711965322494507,1.6906020641326904
1772708526755763700,1.246763671875,-0.13240757584571838,1.3811371326446533,0.6177452206611633
1772708526765788700,1.25678857421875,-0.4094144105911255,1.3524264097213745,-0.5937267541885376
1772708526775814700,1.266814697265625,-0.28688156604766846,1.2929025888442993,-1.4966243505477905
1772708526785840600,1.276840576171875,0.15493471920490265,0.8097628951072693,-2.1634562015533447
1772708526795866600,1.28686669921875,0.45970579981803894,0.3607805669307709,-2.8869259357452393
1772708526805891800,1.296891845703125,1.1137113571166992,-0.3243176341056824,-3.236504316329956
1772708526815917800,1.306917724609375,2.1833677291870117,-1.5386016368865967,-2.865156412124634
1772708526825943800,1.31694384765625,2.779472827911377,-2.694326877593994,-1.8274552822113037
1772708526835969800,1.3269697265625,2.7192022800445557,-3.5319156646728516,-0.5302449464797974
1772708526845994800,1.336994873046875,1.9244816303253174,-3.750058650970459,0.6204976439476013
1772708526856020700,1.347020751953125,0.9155377745628357,-3.5003297328948975,1.4981977939605713
1772708526866047000,1.357046875,0.23350942134857178,-3.000596046447754,2.014493227005005
1772708526876071700,1.36707177734375,-0.08908406645059586,-2.815584421157837,1.9883346557617188
1772708526886098000,1.377097900390625,-0.138880655169487,-2.623422622680664,1.6600044965744019
1772708526896124000,1.3871240234375,-0.0807046964764595,-2.549532890319824,1.2489488124847412
1772708526906150000,1.39714990234375,-0.06892900168895721,-2.5443007946014404,0.7566690444946289
1772708526916174800,1.4071748046875,-0.11478676646947861,-2.402722120285034,0.2416030317544937
1772708526926200800,1.417200927734375,-0.19001014530658722,-2.0678367614746094,-0.18598371744155884
1772708526936226800,1.427226806640625,-0.27930301427841187,-1.5363140106201172,-0.4751984775066376
1772708526946252800,1.437252685546875,-0.38730883598327637,-0.8642759323120117,-0.6293161511421204
1772708526956277800,1.44727783203125,-0.4816124439239502,-0.17101968824863434,-0.6637833118438721
1772708526966303700,1.4573037109375,-0.5554177165031433,0.4009745717048645,-0.6338571310043335
1772708526976329700,1.467329833984375,-0.6200512647628784,0.7025139331817627,-0.5670014023780823
1772708526986355700,1.477355712890625,-0.6094257831573486,0.7229901552200317,-0.5176194310188293
1772708526996381000,1.487380859375,-0.5101519227027893,0.6676930785179138,-0.46640101075172424
1772708527006407000,1.497406982421875,-0.3741147518157959,0.6119174361228943,-0.43511471152305603
1772708527016432600,1.5074326171875,-0.25713059306144714,0.5869977474212646,-0.3821585476398468
1772708527026457900,1.517457763671875,-0.1439473181962967,0.6370025873184204,-0.29339325428009033
1772708527036483800,1.52748388671875,-0.05853015556931496,0.8482943177223206,-0.20739154517650604
1772708527046509800,1.537509765625,-0.01637524552643299,1.1487454175949097,-0.12519226968288422
1772708527056535800,1.547535888671875,0.019575832411646843,1.3603335618972778,-0.05043947324156761
1772708527066560800,1.557560791015625,0.08648562431335449,1.4720417261123657,0.04424256086349487
1772708527076586800,1.567586669921875,0.18008242547512054,1.4864239692687988,0.1830848604440689
1772708527086612700,1.57761279296875,0.2735266089439392,1.4046560525894165,0.3130955994129181
1772708527096638700,1.587638671875,0.3253410756587982,1.2112627029418945,0.4307146370410919
1772708527106663700,1.59766357421875,0.3711559772491455,0.9222508072853088,0.4876524806022644
1772708527116689700,1.607689697265625,0.37722957134246826,0.7072581052780151,0.48951536417007446
1772708527126716000,1.6177158203125,0.309705913066864,0.6738373041152954,0.4555390179157257
1772708527136740600,1.62774072265625,0.2131175994873047,0.6095131635665894,0.39983928203582764
1772708527146766800,1.637766845703125,0.11118724197149277,0.42442238330841064,0.3327270746231079
1772708527156792800,1.647792724609375,0.008883506059646606,0.19482381641864777,0.24749261140823364
1772708527166818800,1.65781884765625,-0.08046527951955795,-0.0718235895037651,0.13754481077194214
1772708527176843800,1.66784375,-0.12977424263954163,-0.3139858841896057,-0.004573978949338198
1772708527186869800,1.677869873046875,-0.1838609129190445,-0.4406847059726715,-0.18243078887462616
1772708527196895700,1.687895751953125,-0.24058730900287628,-0.4671221673488617,-0.37804609537124634
1772708527206921700,1.697921630859375,-0.28379976749420166,-0.4463860094547272,-0.5516530275344849
1772708527216947000,1.707947021484375,-0.37742024660110474,-0.3551993668079376,-0.6799143552780151
1772708527226973000,1.717972900390625,-0.5582132339477539,-0.23236240446567535,-0.6947587728500366
1772708527236999000,1.7279990234375,-0.7208045125007629,-0.1165551096200943,-0.5262837409973145
1772708527247023900,1.73802392578125,-0.8060523271560669,0.0015624766238033772,-0.14902916550636292
1772708527257049900,1.7480498046875,-0.8022186756134033,0.17137494683265686,0.2913293242454529
1772708527267075800,1.758075927734375,-0.8116289377212524,0.40916913747787476,0.7090903520584106
1772708527277101800,1.768101806640625,-0.874940037727356,0.6487974524497986,1.0743058919906616
1772708527287126800,1.778126708984375,-0.976929783821106,0.8328186869621277,1.432258129119873
1772708527297152800,1.78815283203125,-1.0816034078598022,1.009669303894043,1.8954769372940063
1772708527307178800,1.7981787109375,-1.104758858680725,1.1938631534576416,2.4112415313720703
1772708527317203700,1.80820361328125,-1.049772024154663,1.5604007244110107,2.7296416759490967
1772708527327229700,1.818229736328125,-0.9371978044509888,1.9800975322723389,2.5008747577667236
1772708527337255700,1.828255615234375,-0.8994400501251221,1.8726834058761597,1.5682172775268555
1772708527347281700,1.83828173828125,-0.903336226940155,1.488821029663086,0.6017090082168579
1772708527357306600,1.848306640625,-0.6348121166229248,0.9022190570831299,0.16305869817733765
1772708527367332600,1.85833251953125,-0.28383997082710266,-0.17862114310264587,-0.022532738745212555
1772708527377358600,1.868358642578125,-0.196470707654953,-1.1566579341888428,-0.4903542697429657
1772708527387384800,1.878384765625,0.20687301456928253,-1.4998563528060913,-1.1197348833084106
1772708527397409800,1.888409912109375,1.0574328899383545,-1.5625487565994263,-1.6275362968444824
1772708527407435800,1.898435791015625,2.0622622966766357,-1.4941598176956177,-1.6453908681869507
1772708527417461800,1.908461669921875,2.451115608215332,-1.6353076696395874,-1.5571644306182861
1772708527427487000,1.918487060546875,1.6995497941970825,-1.9288047552108765,-1.7884050607681274
1772708527437513200,1.92851318359375,0.5085108876228333,-2.2449827194213867,-2.146388053894043
1772708527447539200,1.938539306640625,-0.3397514522075653,-2.380258560180664,-2.398895263671875
1772708527457565200,1.948565185546875,-0.8204839825630188,-2.3203585147857666,-2.662003755569458
1772708527467590100,1.958590087890625,-1.0463136434555054,-1.914631724357605,-2.9248526096343994
1772708527477616000,1.9686162109375,-1.1603100299835205,-1.4662225246429443,-3.126175880432129
1772708527487642000,1.97864208984375,-1.0633968114852905,-1.2744767665863037,-3.185795545578003
1772708527497668000,1.988668212890625,-0.7708799242973328,-1.2460304498672485,-3.0225090980529785
1772708527507693000,1.998693115234375,-0.5333086848258972,-1.1354483366012573,-2.5864150524139404
1772708527517719000,2.008718994140625,-0.47538331151008606,-0.9220521450042725,-1.9181936979293823
1772708527527745000,2.0187451171875,-0.5665579438209534,-0.5020607113838196,-1.1267235279083252
1772708527537770000,2.02877001953125,-0.6833865642547607,0.055382031947374344,-0.20610655844211578
1772708527547796000,2.0387958984375,-0.8019883036613464,0.48040148615837097,0.5979750156402588
1772708527557822000,2.048822021484375,-0.9220779538154602,0.7130728363990784,1.1554409265518188
1772708527567848000,2.058847900390625,-0.9581353068351746,0.6762533187866211,1.4125078916549683
1772708527577873000,2.068872802734375,-0.8950561881065369,0.5734406113624573,1.3671307563781738
1772708527587899000,2.07889892578125,-0.7448970675468445,0.5255908370018005,1.1427483558654785
1772708527597924900,2.0889248046875,-0.48074397444725037,0.40828683972358704,0.8196623921394348
1772708527607950800,2.098950927734375,-0.20511053502559662,0.2811802625656128,0.41228264570236206
1772708527617976000,2.10897607421875,-0.013598366640508175,0.31767863035202026,0.03669942542910576
1772708527628002000,2.119001953125,0.13071885704994202,0.4952872395515442,-0.09420958906412125
1772708527638028000,2.129028076171875,0.33812665939331055,0.608791172504425,0.11898896843194962
1772708527648053000,2.139052978515625,0.5954332947731018,0.6783433556556702,0.4104514420032501
1772708527658079000,2.149078857421875,0.8355907797813416,0.589756190776825,0.561199426651001
1772708527668105000,2.15910498046875,0.9901379942893982,0.49383077025413513,0.5529569387435913
1772708527678131200,2.169131103515625,1.1903635263442993,0.4315130412578583,0.5521164536476135
1772708527688156000,2.179156005859375,1.4340059757232666,0.4027692973613739,0.5776113867759705
1772708527698182100,2.18918212890625,1.6262558698654175,0.38141578435897827,0.519440770149231
1772708527708208000,2.1992080078125,1.7609648704528809,0.31890714168548584,0.3253970146179199
1772708527718233000,2.209233154296875,1.8504502773284912,0.21904340386390686,0.03955140337347984
1772708527728259000,2.219259033203125,1.9154458045959473,0.16023866832256317,-0.19406640529632568
1772708527738285000,2.22928515625,1.9309818744659424,0.1147521510720253,-0.3316498398780823
1772708527748311000,2.23931103515625,1.8532354831695557,0.07879894226789474,-0.3899882435798645
1772708527758336000,2.2493359375,1.7254040241241455,0.02273727022111416,-0.33675670623779297
1772708527768362000,2.259362060546875,1.560488224029541,-0.05504860356450081,-0.17097733914852142
1772708527778388000,2.269387939453125,1.3522632122039795,-0.1435166895389557,0.047995489090681076
1772708527788414000,2.2794140625,1.0557050704956055,-0.16116544604301453,0.27669018507003784
1772708527798439000,2.28943896484375,0.719753623008728,-0.1274293214082718,0.47733938694000244
1772708527808465000,2.29946484375,0.4810188114643097,-0.04969538375735283,0.7165067195892334
1772708527818491000,2.309490966796875,0.4264463782310486,0.024819329380989075,1.0354032516479492
1772708527828516000,2.31951611328125,0.5415322184562683,0.094759002327919,1.4118127822875977
1772708527838542000,2.3295419921875,0.6455364227294922,0.20349372923374176,1.7226494550704956
1772708527848568000,2.339568115234375,0.5783387422561646,0.2931365370750427,1.8811403512954712
1772708527858594000,2.349593994140625,0.31348174810409546,0.32130637764930725,1.9500459432601929
1772708527868619000,2.359618896484375,-0.08473805338144302,0.2638886272907257,2.0402767658233643
1772708527878645000,2.36964501953125,-0.5011008977890015,0.16493728756904602,2.1630325317382812
1772708527888671000,2.3796708984375,-0.8463629484176636,0.20239411294460297,2.2347772121429443
1772708527898696000,2.389696044921875,-1.016687035560608,0.5783669352531433,2.204709768295288
1772708527908722000,2.399721923828125,-0.7684932351112366,1.1253395080566406,2.0192747116088867
1772708527918748000,2.409747802734375,-0.1640661656856537,1.758316159248352,1.5378400087356567
1772708527928774100,2.419774169921875,0.223180890083313,1.8637629747390747,0.4094839096069336
1772708527938798800,2.429798828125,-0.1342526078224182,1.147651195526123,-1.1595573425292969
1772708527948825000,2.4398251953125,-1.1677695512771606,0.22028683125972748,-2.237131118774414
1772708527958851000,2.44985107421875,-2.1971940994262695,-0.5938742756843567,-2.4756531715393066
1772708527968877000,2.459876953125,-2.765948534011841,-0.5939480066299438,-2.10268235206604
1772708527978902000,2.469902099609375,-2.5265328884124756,0.19365601241588593,-1.7272759675979614
1772708527988928000,2.479927978515625,-0.977521538734436,1.2227208614349365,-1.358601450920105
1772708527998954000,2.4899541015625,1.2174941301345825,1.5269715785980225,-0.724615752696991
1772708528008979200,2.499979248046875,2.4741594791412354,0.6943308115005493,0.26324227452278137
1772708528019005200,2.510005126953125,2.407348394393921,-1.0538256168365479,1.3761690855026245
1772708528029031000,2.520031005859375,1.8252003192901611,-2.982992172241211,2.2274258136749268
1772708528039057000,2.530056884765625,1.22200345993042,-4.133327007293701,2.6318368911743164
1772708528049082000,2.54008203125,0.8121581077575684,-3.8634698390960693,2.5739574432373047
1772708528059108000,2.550108154296875,0.5732763409614563,-2.717984676361084,2.146179676055908
1772708528069134000,2.560134033203125,0.38570722937583923,-1.3991771936416626,1.4177426099777222
1772708528079159000,2.570158935546875,0.0928652286529541,-0.17167001962661743,0.6235994100570679
1772708528089185000,2.58018505859375,-0.2829209268093109,0.7285156846046448,-0.019098060205578804
1772708528099211000,2.5902109375,-0.8064081072807312,1.3553428649902344,-0.3511124849319458
1772708528109237000,2.600237060546875,-1.405227541923523,1.7174009084701538,-0.35453811287879944
1772708528119262000,2.610261962890625,-1.904918909072876,1.8321112394332886,-0.1161029040813446
1772708528129288000,2.620287841796875,-2.2414777278900146,1.7384330034255981,0.258816123008728
1772708528139314000,2.63031396484375,-2.421391010284424,1.5344377756118774,0.6959934234619141
1772708528149339000,2.6403388671875,-2.4035871028900146,1.346421241760254,1.1831239461898804
1772708528159364900,2.65036474609375,-2.2222583293914795,1.1917171478271484,1.6693867444992065
1772708528169390800,2.660390869140625,-1.9656808376312256,0.9791721701622009,2.0079970359802246
1772708528179416800,2.670416748046875,-1.728874921798706,0.6470125913619995,2.1411705017089844
1772708528189441800,2.68044189453125,-1.5359121561050415,0.11696603149175644,2.046027183532715
1772708528199467800,2.6904677734375,-1.3065425157546997,-0.44268208742141724,1.86098051071167
1772708528209494000,2.700493896484375,-1.1257346868515015,-0.7119961380958557,1.8391377925872803
1772708528219520000,2.71052001953125,-0.7851736545562744,-1.255333423614502,1.3076571226119995
1772708528229545200,2.720545166015625,-0.6502403616905212,-0.9922227263450623,1.046648621559143
1772708528239571200,2.7305712890625,-0.5471488237380981,-0.44511353969573975,0.800146758556366
1772708528249597200,2.74059716796875,-0.42556673288345337,0.20941421389579773,0.8333960175514221
1772708528259622100,2.7506220703125,-0.210495725274086,0.8758164644241333,0.9715731143951416
1772708528269648100,2.760648193359375,0.011120827868580818,1.270262598991394,1.0334197282791138
1772708528279674000,2.770674072265625,0.2600315809249878,1.4362246990203857,1.000775694847107
1772708528289700000,2.7807001953125,0.5626835823059082,1.5387526750564575,0.8937951922416687
1772708528299725000,2.79072509765625,0.8918763995170593,1.730249047279358,0.6301550269126892
1772708528309751000,2.8007509765625,1.1649534702301025,1.9609328508377075,0.18040120601654053
1772708528319777000,2.810777099609375,1.2751511335372925,2.086350440979004,-0.47613778710365295
1772708528329802000,2.820802001953125,1.1794275045394897,2.0140020847320557,-1.2825480699539185
1772708528339828000,2.830827880859375,0.9243168830871582,1.786586880683899,-2.076247453689575
1772708528349854000,2.84085400390625,0.5853867530822754,1.5526926517486572,-2.715049982070923
1772708528359880000,2.8508798828125,0.30151963233947754,1.3825569152832031,-3.1302974224090576
1772708528369905000,2.86090478515625,0.12036795914173126,1.3094606399536133,-3.293189764022827
1772708528379931000,2.870930908203125,-0.030552582815289497,1.3199310302734375,-3.265918731689453
1772708528389956900,2.880956787109375,-0.08132308721542358,1.2095444202423096,-3.1419382095336914
1772708528399982000,2.890982177734375,-0.012916863895952702,1.0511068105697632,-2.913973808288574
1772708528410008000,2.901008056640625,0.1386023610830307,0.8789970874786377,-2.596247911453247
1772708528420034000,2.911033935546875,0.2568645477294922,0.5468806624412537,-2.251213550567627
1772708528430060300,2.921060302734375,0.2814878821372986,0.14557397365570068,-1.8749090433120728
1772708528440085500,2.93108544921875,0.21501056849956512,-0.07562045753002167,-1.4654573202133179
1772708528450111500,2.941111572265625,0.12032374739646912,-0.17147400975227356,-1.0853729248046875
1772708528460137500,2.951137451171875,-0.009358614683151245,-0.17118319869041443,-0.7936856746673584
1772708528470163500,2.96116357421875,-0.15764901041984558,-0.05301395058631897,-0.5559511184692383
1772708528480188400,2.9711884765625,-0.28605812788009644,-0.06459630280733109,-0.3780330419540405
1772708528490214400,2.98121435546875,-0.428652822971344,-0.22882331907749176,-0.32763832807540894
1772708528500240400,2.991240478515625,-0.6291097402572632,-0.3859335780143738,-0.3265751898288727
1772708528510265300,3.001265380859375,-0.8223971724510193,-0.6777324080467224,-0.3660581409931183
1772708528520291300,3.011291259765625,-0.9399011731147766,-0.9710676074028015,-0.33319926261901855
1772708528530317300,3.0213173828125,-0.9483127593994141,-1.0924973487854004,-0.1454613208770752
1772708528540343300,3.03134326171875,-0.950480580329895,-1.5203834772109985,0.14185833930969238
1772708528550368300,3.0413681640625,-1.1362876892089844,-2.5117385387420654,0.2580680251121521
1772708528560394200,3.051394287109375,-1.323480486869812,-3.444641351699829,0.2517821788787842
1772708528570420200,3.061420166015625,-1.4246838092803955,-4.067269802093506,-0.04902986064553261
1772708528580445200,3.071445068359375,-1.2346097230911255,-4.284456253051758,-0.6170282959938049
1772708528590471200,3.08147119140625,-0.7584773302078247,-3.4911327362060547,-1.138628602027893
1772708528600497400,3.091497314453125,-0.04902186989784241,-1.7918131351470947,-1.601044774055481
1772708528610523400,3.1015234375,1.2482500076293945,-0.3760436773300171,-1.8686256408691406
1772708528620548600,3.111548583984375,2.726414918899536,-0.059671320021152496,-1.852914571762085
1772708528630574600,3.12157470703125,3.2338128089904785,-0.30422860383987427,-1.7119827270507812
1772708528640600300,3.131600341796875,2.4728527069091797,-1.1489797830581665,-1.6139280796051025
1772708528650625500,3.14162548828125,1.2178795337677002,-2.217341184616089,-1.256759524345398
1772708528660651500,3.151651611328125,0.15559332072734833,-3.4943270683288574,-0.9203823208808899
1772708528670677500,3.161677490234375,-0.5745631456375122,-4.220053195953369,-0.8579756617546082
1772708528680703500,3.171703369140625,-0.939500629901886,-4.289274215698242,-1.1007603406906128
1772708528690728400,3.181728515625,-1.1260654926300049,-3.647214889526367,-1.4317278861999512
1772708528700754400,3.19175439453125,-1.0702123641967773,-2.7315945625305176,-1.9410326480865479
1772708528710780400,3.201780517578125,-0.8474047780036926,-1.7211240530014038,-2.332127571105957
1772708528720805400,3.211805419921875,-0.5439996719360352,-0.8330077528953552,-2.505225658416748
1772708528730831400,3.221831298828125,-0.2790337800979614,-0.07732914388179779,-2.3863022327423096
1772708528740857300,3.231857421875,-0.06549511849880219,0.4940057396888733,-2.041581153869629
1772708528750883300,3.24188330078125,0.07725883275270462,0.956907331943512,-1.5520201921463013
1772708528760908300,3.251908203125,0.16170847415924072,1.2714059352874756,-1.007358193397522
1772708528770934300,3.261934326171875,0.1306493580341339,1.3540546894073486,-0.44646909832954407
1772708528780960300,3.271960205078125,0.002924417145550251,1.1573269367218018,0.029089441522955894
1772708528790985500,3.2819853515625,-0.14315475523471832,0.7601306438446045,0.3943299949169159
1772708528801011200,3.29201123046875,-0.32991719245910645,0.42145827412605286,0.6608466506004333
1772708528811037200,3.302037109375,-0.5085146427154541,0.23787248134613037,0.8694235682487488
1772708528821063200,3.312063232421875,-0.6437057256698608,0.2358444780111313,1.064496397972107
1772708528831088400,3.32208837890625,-0.6775047183036804,0.31282660365104675,1.2307052612304688
1772708528841114400,3.3321142578125,-0.6446724534034729,0.325651615858078,1.3877460956573486
1772708528851140400,3.342140380859375,-0.5629972815513611,0.28881263732910156,1.5251563787460327
1772708528861165300,3.352165283203125,-0.416585236787796,0.2292395830154419,1.6177539825439453
1772708528871191300,3.36219140625,-0.2305983304977417,0.1539919674396515,1.6832677125930786
1772708528881217500,3.372217529296875,-0.05654077231884003,0.05879966542124748,1.7197511196136475
1772708528891243500,3.382243408203125,0.0812264159321785,-0.06780248135328293,1.748838186264038
1772708528901268500,3.3922685546875,0.22939670085906982,-0.2054562121629715,1.7612048387527466
1772708528911294500,3.40229443359375,0.3664538860321045,-0.31119462847709656,1.7164251804351807
1772708528921320400,3.412320556640625,0.44242483377456665,-0.37649402022361755,1.604498028755188
1772708528931345400,3.422345458984375,0.4854191541671753,-0.4638667404651642,1.3911783695220947
1772708528941371400,3.432371337890625,0.4887275993824005,-0.40848442912101746,1.0710980892181396
1772708528951397400,3.4423974609375,0.5020327568054199,-0.15843091905117035,0.7021360397338867
1772708528961423400,3.45242333984375,0.5343275666236877,0.1662968248128891,0.3366813361644745
1772708528971448300,3.4624482421875,0.5347014665603638,0.5338293313980103,0.02646969072520733
1772708528981474300,3.472474365234375,0.4985693097114563,0.8971065878868103,-0.18130667507648468
1772708528991500300,3.482500244140625,0.4386191666126251,1.144290566444397,-0.29285290837287903
1772708529001525500,3.492525390625,0.33050522208213806,1.185913324356079,-0.27064746618270874
1772708529011551500,3.502551513671875,0.2059078961610794,0.930675745010376,-0.17194299399852753
1772708529021577500,3.512577392578125,0.07702048122882843,0.5546208620071411,-0.0038448055274784565
1772708529031603500,3.522603515625,-0.06589086353778839,0.1272788643836975,0.17023058235645294
1772708529041628400,3.53262841796875,-0.2691670060157776,-0.24585796892642975,0.2837803065776825
1772708529051654400,3.542654296875,-0.5034780502319336,-0.4675978124141693,0.31106388568878174
1772708529061680400,3.552680419921875,-0.7238775491714478,-0.5353187918663025,0.26762932538986206
1772708529071705300,3.562705322265625,-0.9353356957435608,-0.5006290078163147,0.21632671356201172
1772708529081731300,3.5727314453125,-1.0672532320022583,-0.13713335990905762,0.28293901681900024
1772708529091757300,3.58275732421875,-1.1148484945297241,0.5844629406929016,0.44504696130752563
1772708529101783300,3.592783203125,-1.092442512512207,1.3933205604553223,0.6640594601631165
1772708529111808300,3.602808349609375,-1.0598983764648438,2.09049654006958,0.8857614994049072
1772708529121834200,3.612834228515625,-1.0156306028366089,2.823629856109619,1.2945293188095093
1772708529131860500,3.622860595703125,-1.000443935394287,3.135960817337036,1.8121058940887451
1772708529141885200,3.63288525390625,-0.8281466960906982,2.3282358646392822,1.806437373161316
1772708529151911200,3.6429111328125,-0.6755099892616272,0.9017985463142395,0.8704382181167603
1772708529161937400,3.6529375,-0.32088959217071533,-0.4422636926174164,-0.5169467329978943
1772708529171963400,3.66296337890625,0.09115787595510483,-0.7722453474998474,-1.465797781944275
1772708529181988400,3.67298828125,0.3908742666244507,0.21578368544578552,-1.6119989156723022
1772708529192014300,3.683014404296875,0.769288957118988,1.4388949871063232,-1.1014800071716309
1772708529202040300,3.693040283203125,0.9966699481010437,1.5992226600646973,-0.6102662682533264
1772708529212065500,3.7030654296875,0.9582394361495972,0.6139553189277649,-0.3425999581813812
1772708529222091500,3.713091552734375,0.6108577847480774,-0.8980658650398254,0.23216266930103302
1772708529232117500,3.723117431640625,-0.043847084045410156,-2.851471424102783,1.2742767333984375
1772708529242143500,3.7331435546875,-0.8561162948608398,-4.724625587463379,2.5338048934936523
1772708529252168400,3.74316845703125,-1.5338490009307861,-6.304736137390137,3.5917885303497314
1772708529262194400,3.7531943359375,-1.420363426208496,-7.516533374786377,3.4133903980255127
1772708529272220400,3.763220458984375,-1.4195436239242554,-5.890823841094971,3.202098846435547
1772708529282245400,3.773245361328125,-1.104246973991394,-4.808317184448242,2.2446508407592773
1772708529292271400,3.783271240234375,-0.9401515126228333,-3.3982319831848145,1.3771001100540161
1772708529302297300,3.79329736328125,-0.6960853338241577,-2.599306344985962,0.5001096725463867
1772708529312323300,3.8033232421875,-0.42400693893432617,-2.3192923069000244,-0.589377760887146
1772708529322348300,3.813348388671875,-0.24073031544685364,-1.7130604982376099,-1.3948814868927002
1772708529332374300,3.823374267578125,0.24084563553333282,-0.9059464335441589,-1.9619566202163696
1772708529342400300,3.833400146484375,0.8651677966117859,0.13066427409648895,-2.3397693634033203
1772708529352425200,3.84342529296875,1.4355859756469727,1.2522611618041992,-2.472698926925659
1772708529362451200,3.853451171875,1.7710535526275635,2.2804317474365234,-2.4103541374206543
1772708529372477200,3.863477294921875,1.6913949251174927,3.1453468799591064,-2.2455737590789795
1772708529382503200,3.873503173828125,1.2572684288024902,3.62925386428833,-2.093064785003662
1772708529392528400,3.8835283203125,0.6066145896911621,3.9346272945404053,-1.9414057731628418
1772708529402554400,3.893554443359375,-0.01648736372590065,4.140974521636963,-1.6616729497909546
1772708529412580600,3.90358056640625,-0.45525166392326355,4.245040416717529,-1.2186760902404785
1772708529422605300,3.913605224609375,-0.6347053050994873,4.279234886169434,-0.6065027117729187
1772708529432631300,3.92363134765625,-0.5271357297897339,4.131503582000732,0.1172051876783371
1772708529442657300,3.9336572265625,-0.260799378156662,3.7249093055725098,0.828175961971283
1772708529452683300,3.943683349609375,0.09690417349338531,3.181107997894287,1.3320108652114868
1772708529462708200,3.953708251953125,0.3938463628292084,2.9496164321899414,1.6547231674194336
1772708529472734200,3.963734130859375,0.5446353554725647,2.9709646701812744,1.80522882938385
1772708529482760200,3.97376025390625,0.4904618561267853,2.9724209308624268,1.7932301759719849
1772708529492785200,3.98378515625,0.32487982511520386,2.8049843311309814,1.6902962923049927
1772708529502811100,3.99381103515625,0.17430655658245087,2.491464853286743,1.5415425300598145
1772708529512837000,4.003837158203125,0.10816136002540588,2.2439234256744385,1.3206367492675781
1772708529522862000,4.013862060546875,0.1996939331293106,2.0738656520843506,1.0117199420928955
1772708529532888000,4.02388818359375,0.413337767124176,1.9898804426193237,0.6134301424026489
1772708529542914000,4.0339140625,0.7190239429473877,1.9848991632461548,0.21651633083820343
1772708529552940300,4.043940185546875,1.1005829572677612,1.926963210105896,-0.15483485162258148
1772708529562965200,4.05396533203125,1.4335750341415405,1.871439814567566,-0.4768001139163971
1772708529572991200,4.0639912109375,1.5347754955291748,1.7938238382339478,-0.8102438449859619
1772708529583017500,4.074017578125,1.3633190393447876,1.5132789611816406,-1.0647821426391602
1772708529593042200,4.084042236328125,0.9414932131767273,1.0932388305664062,-1.2977969646453857
1772708529603068400,4.094068359375,0.43223556876182556,0.6742175817489624,-1.3220802545547485
1772708529613094400,4.104094482421875,-0.0060416474007070065,0.15926103293895721,-1.195909023284912
1772708529623120400,4.114120361328125,-0.31507620215415955,-0.4181325435638428,-0.978053092956543
1772708529633145300,4.124145263671875,-0.47422510385513306,-0.9312493801116943,-0.7431718707084656
1772708529643171300,4.13417138671875,-0.4905092716217041,-1.3721966743469238,-0.5330074429512024
1772708529653197300,4.144197265625,-0.41803425550460815,-1.6145936250686646,-0.3742026388645172
1772708529663222300,4.15422216796875,-0.30892616510391235,-1.5775647163391113,-0.2494092881679535
1772708529673248300,4.164248291015625,-0.21916989982128143,-1.260777235031128,-0.16846863925457
1772708529683274200,4.174274169921875,-0.2635938227176666,-0.7469034790992737,-0.14558516442775726
1772708529693300200,4.18430029296875,-0.4213525652885437,-0.08291592448949814,-0.14675801992416382
1772708529703325200,4.1943251953125,-0.5616137981414795,0.570399284362793,-0.13719673454761505
1772708529713351200,4.20435107421875,-0.7081526517868042,0.913421630859375,-0.14158615469932556
1772708529723377200,4.214377197265625,-0.9096916317939758,0.6989756226539612,-0.2224394679069519
1772708529733402400,4.22440234375,-1.1435275077819824,-0.018002435564994812,-0.2527816593647003
1772708529743428400,4.234428466796875,-1.3053406476974487,-0.6960403323173523,0.06471934169530869
1772708529753454300,4.244454345703125,-1.1648958921432495,-1.2179120779037476,0.7669059634208679
1772708529763480000,4.25447998046875,-0.7754179835319519,-1.6174216270446777,1.19695246219635
1772708529773505300,4.26450537109375,-0.5983438491821289,-2.242990255355835,0.2911998927593231
1772708529783531300,4.27453125,-0.8093730211257935,-3.0203211307525635,-1.8389478921890259
1772708529793557200,4.28455712890625,-1.2114660739898682,-3.752131938934326,-4.107123374938965
1772708529803582200,4.294582275390625,-1.4587105512619019,-4.000487327575684,-5.493350505828857
1772708529813608200,4.304608154296875,-1.3740941286087036,-3.61631441116333,-5.4885993003845215
1772708529823634200,4.31463427734375,-1.0305237770080566,-2.6871371269226074,-4.123778343200684
1772708529833659100,4.3246591796875,-0.43098360300064087,-2.508338451385498,-2.0441691875457764
1772708529843685000,4.33468505859375,-0.32812434434890747,-3.431234836578369,-0.3089176416397095
1772708529853711400,4.34471142578125,-0.7009655833244324,-5.066455364227295,0.7901793122291565
1772708529863737300,4.3547373046875,-1.0990314483642578,-6.1567182540893555,1.1146456003189087
1772708529873762300,4.36476220703125,-1.4807233810424805,-6.053565502166748,0.8911837339401245
1772708529883788300,4.374788330078125,-1.5321160554885864,-5.43361759185791,0.4323578178882599
1772708529893814300,4.384814208984375,-1.2607457637786865,-4.350508213043213,-0.10607343912124634
1772708529903839200,4.394839111328125,-0.8610905408859253,-3.288313150405884,-0.659378170967102
1772708529913865200,4.404865234375,-0.49135562777519226,-2.464987277984619,-1.106868028640747
1772708529923891200,4.41489111328125,-0.16919568181037903,-2.0891101360321045,-1.3529436588287354
1772708529933917200,4.424917236328125,0.19841508567333221,-1.7423012256622314,-1.3884334564208984
1772708529943942400,4.4349423828125,0.4650670289993286,-1.2778462171554565,-1.3309056758880615
1772708529953968400,4.444968505859375,0.4769977033138275,-0.7180966138839722,-1.1604764461517334
1772708529963994400,4.454994384765625,0.2001943439245224,-0.13657276332378387,-0.848572313785553
1772708529974019300,4.465019287109375,-0.2000153809785843,0.4582647681236267,-0.4179021716117859
1772708529984045300,4.47504541015625,-0.5902483463287354,1.051953911781311,0.07475093752145767
1772708529994071300,4.4850712890625,-0.9047722220420837,1.5250791311264038,0.552985668182373
1772708530004097300,4.49509716796875,-1.1169955730438232,1.765110969543457,0.9904255867004395
1772708530014122200,4.505122314453125,-1.2055834531784058,1.757582187652588,1.3341622352600098
1772708530024148200,4.515148193359375,-1.1383106708526611,1.613511323928833,1.4978179931640625
1772708530034174200,4.52517431640625,-0.9567661881446838,1.4538215398788452,1.4477388858795166
1772708530044199200,4.53519921875,-0.6386723518371582,1.448099970817566,1.2186193466186523
1772708530054225200,4.54522509765625,-0.34045079350471497,1.719257116317749,0.880989670753479
1772708530064251100,4.555251220703125,-0.10754963010549545,2.155888319015503,0.45537683367729187
1772708530074276000,4.565276123046875,0.0633440837264061,2.6211371421813965,0.08082027733325958
1772708530084302000,4.575302001953125,0.18840347230434418,2.943588972091675,-0.05866517871618271
1772708530094328000,4.585328125,0.31890687346458435,3.056178092956543,-0.017314009368419647
1772708530104354000,4.59535400390625,0.37193867564201355,2.8418190479278564,0.14592738449573517
1772708530114379300,4.605379150390625,0.36427515745162964,2.193847894668579,0.3721514642238617
1772708530124405200,4.6154052734375,0.29752010107040405,1.2980241775512695,0.5271378755569458
1772708530134431500,4.625431396484375,0.1402955949306488,0.5055254697799683,0.5878906846046448
1772708530144456200,4.635456298828125,0.01888926886022091,-0.04171469062566757,0.5999225974082947
1772708530154482400,4.645482421875,-0.013953099958598614,-0.3712151050567627,0.5900681018829346
1772708530164508400,4.65550830078125,0.04899710416793823,-0.5605900883674622,0.4780869483947754
1772708530174534400,4.665534423828125,0.16299451887607574,-0.45838648080825806,0.2978964149951935
1772708530184559400,4.675559326171875,0.29366597533226013,-0.16913895308971405,0.10046908259391785
1772708530194585300,4.68558544921875,0.3933057487010956,0.19813331961631775,-0.1228974238038063
1772708530204611300,4.695611328125,0.41998690366744995,0.709446132183075,-0.31519070267677307
1772708530214636300,4.70563623046875,0.3673652410507202,1.3189682960510254,-0.3782852590084076
1772708530224662300,4.715662353515625,0.25652846693992615,1.742247462272644,-0.3158903121948242
1772708530234688300,4.725688232421875,0.10747026652097702,1.908870816230774,-0.14510659873485565
1772708530244713200,4.735713134765625,-0.05230794474482536,1.8542519807815552,0.10093433409929276
1772708530254739200,4.7457392578125,-0.1684422791004181,1.63218355178833,0.37791746854782104
1772708530264765200,4.75576513671875,-0.19248263537883759,1.3727627992630005,0.6659420728683472
1772708530274791200,4.765791259765625,-0.14861850440502167,1.2119377851486206,0.924335241317749
1772708530284816400,4.77581640625,-0.1038462370634079,1.2852516174316406,1.1263115406036377
1772708530294842400,4.78584228515625,-0.1373959481716156,1.6385189294815063,1.248532772064209
1772708530304868000,4.7958681640625,-0.28537076711654663,2.1772620677948,1.3492306470870972
1772708530314893300,4.805893310546875,-0.5773916840553284,2.907698154449463,1.5091153383255005
1772708530324919300,4.815919189453125,-0.9761263132095337,3.5277843475341797,1.857852578163147
1772708530334945300,4.8259453125,-1.4021846055984497,3.791149139404297,2.49238657951355
1772708530344970200,4.83597021484375,-1.689963698387146,3.5352210998535156,3.2576253414154053
1772708530354996200,4.845996337890625,-1.8651072978973389,3.187288761138916,3.850036144256592
1772708530365022200,4.856022216796875,-1.9248745441436768,2.8077521324157715,4.2107744216918945
1772708530375048200,4.866048095703125,-1.522362470626831,1.9681633710861206,4.193586349487305
1772708530385073200,4.8760732421875,-0.19919778406620026,0.3494397699832916,3.2153162956237793
1772708530395099100,4.88609912109375,1.7976361513137817,-1.8783293962478638,0.40246275067329407
1772708530405125000,4.896125,3.280029773712158,-4.5051398277282715,-4.358532428741455
1772708530415150000,4.906150146484375,3.5775442123413086,-5.660587310791016,-9.052962303161621
1772708530425176000,4.916176025390625,2.860785722732544,-3.2988247871398926,-11.110377311706543
1772708530435202000,4.9262021484375,1.9313265085220337,1.2633771896362305,-10.012109756469727
1772708530445227300,4.936227294921875,2.0186803340911865,3.9199562072753906,-7.641439914703369
1772708530455253200,4.946253173828125,2.0729992389678955,3.5091347694396973,-5.1017045974731445
1772708530465279000,4.956279052734375,1.9436135292053223,1.0428805351257324,-2.3132951259613037
1772708530475305000,4.966304931640625,1.2792669534683228,-1.4434999227523804,0.24796798825263977
1772708530485330200,4.976330078125,0.3526885509490967,-3.2122695446014404,1.8064095973968506
1772708530495356200,4.986356201171875,-0.05928942188620567,-4.137711048126221,2.595829725265503
1772708530505382100,4.996382080078125,0.08897567540407181,-4.062005996704102,2.73978853225708
1772708530515407000,5.006406982421875,0.4249640703201294,-3.3308513164520264,2.269693374633789
1772708530525433000,5.01643310546875,0.6704404354095459,-2.363532304763794,1.4087624549865723
1772708530535459000,5.026458984375,0.8405695557594299,-1.4127064943313599,0.3947688937187195
1772708530545485000,5.036485107421875,0.9059770107269287,-0.4997810423374176,-0.6864494681358337
1772708530555510000,5.046510009765625,0.7824620008468628,0.5899234414100647,-1.6243106126785278
1772708530565536000,5.056535888671875,0.5125514268875122,1.6553971767425537,-2.3574633598327637
1772708530575562200,5.066562255859375,0.23829858005046844,2.4789202213287354,-2.7246689796447754
1772708530585587000,5.0765869140625,0.08289914578199387,3.008322238922119,-2.5692901611328125
1772708530595613200,5.08661328125,0.007456851191818714,3.2007155418395996,-1.9427741765975952
1772708530605639200,5.09663916015625,-0.010756241157650948,2.892591953277588,-1.0497565269470215
1772708530615664000,5.1066640625,-0.051773715764284134,2.226426601409912,-0.13347603380680084
1772708530625690000,5.116690185546875,-0.16733413934707642,1.469682216644287,0.6528158783912659
1772708530635716000,5.126716064453125,-0.31804773211479187,0.7956973910331726,1.2954150438308716
1772708530645742000,5.1367421875,-0.45998117327690125,0.2421274185180664,1.8044698238372803
1772708530655767300,5.146767333984375,-0.5511523485183716,-0.15642236173152924,2.1620922088623047
1772708530665793300,5.156793212890625,-0.5380690693855286,-0.37389129400253296,2.3399579524993896
1772708530675819300,5.1668193359375,-0.42956307530403137,-0.3901168704032898,2.3460333347320557
1772708530685844200,5.17684423828125,-0.2740030586719513,-0.20045213401317596,2.203878402709961
1772708530695870200,5.1868701171875,-0.1305162012577057,0.12321300804615021,1.9919158220291138
1772708530705896200,5.196896240234375,-0.017242636531591415,0.47304531931877136,1.773262858390808
1772708530715922200,5.206922119140625,0.04087819159030914,0.777879536151886,1.6133424043655396
1772708530725947100,5.216947021484375,0.03293105214834213,0.9616789221763611,1.4983892440795898
1772708530735973000,5.22697314453125,-0.058100853115320206,1.0132025480270386,1.4162245988845825
1772708530745999000,5.2369990234375,-0.2582451403141022,0.8917648196220398,1.3873766660690308
1772708530756024000,5.247024169921875,-0.48866474628448486,0.603487491607666,1.3914721012115479
1772708530766050000,5.257050048828125,-0.6633979678153992,0.2627416253089905,1.3875058889389038
1772708530776076000,5.267075927734375,-0.7550061345100403,-0.03686933591961861,1.3876805305480957
1772708530786101000,5.27710107421875,-0.8077329993247986,-0.2610076367855072,1.3494035005569458
1772708530796127000,5.287126953125,-0.8176173567771912,-0.4010038673877716,1.2603609561920166
1772708530806153000,5.297153076171875,-0.7593910694122314,-0.4960598349571228,1.149361252784729
1772708530816179000,5.307178955078125,-0.6210470199584961,-0.5899554491043091,1.0664029121398926
1772708530826204200,5.3172041015625,-0.49785691499710083,-0.6337066292762756,1.009340763092041
1772708530836855300,5.327855224609375,-0.4736543893814087,-0.5093716382980347,1.0833581686019897
1772708530846881000,5.337881103515625,-0.4620038568973541,-0.45459359884262085,1.2204420566558838
1772708530856907000,5.347906982421875,-0.4354444146156311,-0.3503284454345703,1.3899402618408203
1772708530866932200,5.35793212890625,-0.4223019778728485,-0.2251574844121933,1.5506870746612549
1772708530876958200,5.367958251953125,-0.35995709896087646,-0.30276280641555786,1.697269320487976
1772708530886984200,5.377984130859375,-0.23751188814640045,-0.3954293429851532,1.80427885055542
1772708530897010200,5.38801025390625,-0.08263708651065826,-0.48230406641960144,1.8613500595092773
1772708530907035100,5.39803515625,0.12997983396053314,-0.554255485534668,1.834307312965393
1772708530917061000,5.40806103515625,0.45270437002182007,-0.5200077891349792,1.6818370819091797
1772708530927087000,5.418087158203125,0.8185023069381714,-0.392377108335495,1.4365085363388062
1772708530937112000,5.428112060546875,0.9877416491508484,-0.13086454570293427,1.1141939163208008
1772708530947138000,5.438137939453125,0.6773632764816284,1.5513261556625366,0.8540126085281372
1772708530957164000,5.4481640625,0.2359882891178131,2.93475341796875,0.37916091084480286
1772708530967189000,5.45818896484375,0.01991431973874569,3.0481321811676025,0.17020662128925323
1772708530977215000,5.468215087890625,0.4028710126876831,1.7890924215316772,0.4007524847984314
1772708530987241000,5.478240966796875,0.6965737342834473,0.3613925576210022,0.3844797611236572
1772708530997267000,5.488266845703125,-0.08311885595321655,-0.26500236988067627,-0.5414235591888428
1772708531007292200,5.498292236328125,-1.5817946195602417,-0.001945439144037664,-2.060617446899414
1772708531017318000,5.50831787109375,-2.3277976512908936,0.8294556140899658,-3.0537259578704834
1772708531027344100,5.51834423828125,-1.7658108472824097,1.5935934782028198,-3.068753957748413
1772708531037369000,5.528369140625,-0.5535313487052917,1.7629058361053467,-2.622311592102051
1772708531047395300,5.538395263671875,0.6289640665054321,1.779757022857666,-1.9271807670593262
1772708531057421300,5.54842138671875,1.3858821392059326,1.8859825134277344,-1.0733524560928345
1772708531067446300,5.5584462890625,1.5292025804519653,1.5073957443237305,-0.380156934261322
1772708531077472300,5.56847216796875,1.1543892621994019,0.9027809500694275,-0.02099103480577469
1772708531087498200,5.578498291015625,0.5365073680877686,0.4177953898906708,0.03704776614904404
1772708531097524200,5.588524169921875,-0.043055858463048935,-0.04398823156952858,-0.03597158193588257
1772708531107549200,5.598549072265625,-0.46389123797416687,-0.5383734703063965,-0.12817901372909546
1772708531117575200,5.6085751953125,-0.632706880569458,-1.031175136566162,-0.15841200947761536
1772708531127601200,5.61860107421875,-0.5283328294754028,-1.3460137844085693,0.03092036582529545
1772708531137626000,5.628626220703125,-0.3156905770301819,-1.4730128049850464,0.3926926851272583
1772708531157052200,5.64805224609375,0.23019298911094666,-1.009590744972229,0.7796822190284729
1772708531167078100,5.658078125,0.4773961305618286,-0.467695027589798,0.779451310634613
1772708531177104100,5.668104248046875,0.6963574886322021,-0.06721365451812744,0.6707581281661987
1772708531187129000,5.678129150390625,0.8129962086677551,-0.07787695527076721,0.4953050911426544
1772708531197155300,5.6881552734375,0.7392394542694092,-0.269128680229187,0.3609784245491028
1772708531207181300,5.698181396484375,0.3948732912540436,-0.41347572207450867,0.32524627447128296
1772708531217207300,5.708207275390625,-0.13973605632781982,-0.5122265219688416,0.2803610861301422
1772708531227232300,5.718232177734375,-0.5762404203414917,-0.6446524858474731,0.1285659670829773
1772708531237258200,5.72825830078125,-0.6926309466362,-0.7753937244415283,-0.06856042146682739
1772708531247284200,5.7382841796875,-0.5015515089035034,-0.7177160382270813,-0.20158877968788147
1772708531257309200,5.74830908203125,-0.1773201823234558,-0.4874873757362366,-0.26555418968200684
1772708531267335200,5.758335205078125,0.17829516530036926,-0.17678436636924744,-0.2735828161239624
1772708531277361200,5.768361083984375,0.5188527703285217,0.07923063635826111,-0.23485565185546875
1772708531287386000,5.77838623046875,0.8001901507377625,0.28697559237480164,-0.13929185271263123
1772708531297412000,5.788412109375,0.9425161480903625,0.523389458656311,0.011030546389520168
1772708531307438000,5.79843798828125,0.91939777135849,0.7398144006729126,0.1981048285961151
1772708531317464000,5.808464111328125,0.7805395126342773,0.8428875207901001,0.37506628036499023
1772708531327489000,5.818489013671875,0.5505342483520508,0.7935754060745239,0.5225833058357239
1772708531337515000,5.828514892578125,0.25154969096183777,0.6519618034362793,0.6275757551193237
1772708531347541000,5.838541015625,-0.026458771899342537,0.45682427287101746,0.7213810682296753
1772708531357566200,5.848566162109375,-0.23647591471672058,0.3524206280708313,0.7873566746711731
1772708531367592200,5.85859228515625,-0.3656080663204193,0.3588460385799408,0.7884954214096069
1772708531377618200,5.8686181640625,-0.38146212697029114,0.44550424814224243,0.7485120296478271
1772708531387643100,5.87864306640625,-0.275931179523468,0.7081204056739807,0.69704270362854
1772708531397669000,5.888669189453125,-0.12343218922615051,1.02393639087677,0.635779082775116
1772708531407695000,5.898695068359375,-0.016380837187170982,1.1823484897613525,0.5757991075515747
1772708531417721000,5.90872119140625,0.002531600883230567,1.1845990419387817,0.49797651171684265
1772708531427746000,5.91874609375,-0.034618962556123734,1.0348255634307861,0.4268741011619568
1772708531437772300,5.928772216796875,-0.07315517216920853,0.7695494294166565,0.4202103316783905
1772708531447798500,5.938798583984375,-0.11768242716789246,0.45685940980911255,0.45886504650115967
1772708531457823200,5.9488232421875,-0.15239113569259644,0.1420237123966217,0.4616627097129822
1772708531467849500,5.958849365234375,-0.1540265828371048,-0.035285551100969315,0.3779832422733307
1772708531477875500,5.96887548828125,-0.04468970745801926,0.16555434465408325,0.22691650688648224
1772708531487901400,5.9789013671875,0.37257063388824463,0.9903148412704468,0.3806421458721161
1772708531497926400,5.988926513671875,0.944136381149292,1.78603196144104,0.8739514350891113
1772708531507952400,5.998952392578125,1.2304869890213013,1.074001669883728,0.9851123094558716
1772708531517978400,6.008978271484375,0.9925342798233032,-0.5169064998626709,0.44018298387527466
1772708531528003300,6.01900341796875,0.30781134963035583,-1.5478817224502563,-0.36631327867507935
1772708531538029300,6.029029296875,-0.20741043984889984,-1.3787914514541626,-0.7922259569168091
1772708531548055300,6.03905517578125,-0.23428839445114136,-0.5549737215042114,-0.7211909294128418
1772708531558080500,6.04908056640625,-0.030430875718593597,0.17917189002037048,-0.4812752902507782
1772708531568106500,6.0591064453125,0.17577369511127472,0.636142909526825,-0.25422483682632446
1772708531578132500,6.069132568359375,0.30791175365448,0.5360405445098877,-0.25734952092170715
1772708531588158500,6.079158447265625,0.3069194555282593,0.10713737457990646,-0.5746955275535583
1772708531598183400,6.089183349609375,0.1458360254764557,-0.08555218577384949,-0.8903999328613281
1772708531608209400,6.09920947265625,0.04270858317613602,0.08753224462270737,-0.8451924920082092
1772708531618235400,6.1092353515625,0.08886303007602692,0.3993425965309143,-0.46251383423805237
1772708531628260400,6.11926025390625,0.2029493898153305,0.5362711548805237,-0.0346732921898365
1772708531638286300,6.129286376953125,0.26804715394973755,0.3643569052219391,0.17641524970531464
1772708531648312300,6.139312255859375,0.27242061495780945,0.036805152893066406,0.15664739906787872
1772708531658337300,6.149337158203125,0.2357611209154129,-0.28824591636657715,-0.02522013522684574
1772708531668363300,6.15936328125,0.12705674767494202,-0.4556348919868469,-0.2585567235946655
1772708531678389200,6.16938916015625,0.014245781116187572,-0.3909139633178711,-0.4448767900466919
1772708531688415200,6.179415283203125,-0.04679813235998154,-0.1772639900445938,-0.5618481636047363
1772708531698440200,6.189440185546875,-0.09374406933784485,0.025292040780186653,-0.7143298387527466
1772708531708466200,6.199466064453125,-0.12756648659706116,0.1220577284693718,-0.9586815237998962
1772708531718492200,6.2094921875,-0.11432657390832901,0.02371731400489807,-1.2199010848999023
1772708531728517400,6.219517333984375,-0.04114716872572899,-0.21475011110305786,-1.3384383916854858
1772708531738543400,6.22954345703125,0.06266658008098602,-0.5574978590011597,-1.2775412797927856
1772708531748569600,6.239569580078125,0.11495960503816605,-1.0317511558532715,-1.1494336128234863
1772708531758595600,6.249595703125,0.02184617705643177,-1.4630067348480225,-1.1539692878723145
1772708531768620500,6.25962060546875,-0.14841556549072266,-1.6856554746627808,-1.4055695533752441
1772708531778646500,6.269646484375,-0.30344483256340027,-1.5888941287994385,-1.8027440309524536
1772708531788672500,6.279672607421875,-0.43851131200790405,-1.1089738607406616,-2.2265329360961914
1772708531798697500,6.289697509765625,-0.5249045491218567,-0.3545599579811096,-2.5765490531921387
1772708531808723500,6.299723388671875,-0.4891428053379059,0.39771515130996704,-2.7593393325805664
1772708531818749400,6.30974951171875,-0.35082805156707764,0.9245927929878235,-2.7343485355377197
1772708531828774400,6.3197744140625,-0.179096519947052,1.1524521112442017,-2.4960110187530518
1772708531838800400,6.32980029296875,-0.017002684995532036,1.1530259847640991,-2.0558292865753174
1772708531848826400,6.339826416015625,0.08295107632875443,1.0620784759521484,-1.46938157081604
1772708531858852400,6.349852294921875,0.12411236017942429,0.9733270406723022,-0.7993382215499878
1772708531868877300,6.359877197265625,0.1258825659751892,0.8594894409179688,-0.10755681991577148
1772708531878903300,6.3699033203125,0.061708372086286545,0.6895589828491211,0.5495883226394653
1772708531888929300,6.37992919921875,-0.036622725427150726,0.49064987897872925,1.1238185167312622
1772708531898954500,6.38995458984375,-0.1375485360622406,0.2976636290550232,1.5579137802124023
1772708531908980500,6.39998046875,-0.1990092396736145,0.16802096366882324,1.8274518251419067
1772708531919006500,6.41000634765625,-0.22410260140895844,0.1141742393374443,1.9428784847259521
1772708531929031400,6.420031494140625,-0.266072154045105,0.13729500770568848,1.9323302507400513
1772708531939057400,6.430057373046875,-0.3063093423843384,0.20758435130119324,1.84246027469635
1772708531949083400,6.44008349609375,-0.3698566257953644,0.2933453321456909,1.714782476425171
1772708531959109400,6.450109375,-0.42523783445358276,0.3740343153476715,1.5481221675872803
1772708531969134300,6.46013427734375,-0.44226503372192383,0.4497935175895691,1.3251715898513794
1772708531979160300,6.470160400390625,-0.30295056104660034,0.5737056136131287,1.1117192506790161
1772708531989186300,6.480186279296875,-0.12235547602176666,0.5443850159645081,0.9321210384368896
1772708531999211300,6.490211181640625,0.05210820958018303,0.507331132888794,0.795375406742096
1772708532009237200,6.5002373046875,0.15196716785430908,0.4624347388744354,0.596468985080719
1772708532019263200,6.51026318359375,0.1846737116575241,0.5598180294036865,0.34397974610328674
1772708532029288200,6.5202880859375,0.23478613793849945,0.7068300843238831,0.16033507883548737
1772708532039314200,6.530314208984375,0.2878600060939789,0.784007728099823,0.07990361750125885
1772708532049340400,6.54034033203125,0.2852748930454254,0.7729105949401855,0.013806892558932304
1772708532059366400,6.550366455078125,0.2085058093070984,0.717807948589325,-0.09481492638587952
1772708532069391600,6.5603916015625,0.12545379996299744,0.5687928795814514,-0.19981324672698975
1772708532079417300,6.570417236328125,0.11304213106632233,0.31443941593170166,-0.14406263828277588
1772708532089443300,6.580443359375,0.2302830070257187,0.08909764885902405,0.1352750062942505
1772708532099468500,6.590468505859375,0.42516353726387024,-0.00552126532420516,0.46804043650627136
1772708532109494500,6.60049462890625,0.5644671320915222,0.03406049683690071,0.629798173904419
1772708532119520500,6.6105205078125,0.5874901413917542,0.14337500929832458,0.5819283723831177
1772708532129545500,6.62054541015625,0.49033910036087036,0.1311473697423935,0.5094565749168396
1772708532139571500,6.630571533203125,0.4837866425514221,0.411767840385437,0.6132021546363831
1772708532149597400,6.640597412109375,0.5578382611274719,0.3580681383609772,0.6104982495307922
1772708532159623400,6.65062353515625,0.38832083344459534,0.09421757608652115,-0.03821582719683647
1772708532169648400,6.6606484375,-0.13331252336502075,0.1371394842863083,-1.029456615447998
1772708532179674400,6.67067431640625,-0.39284181594848633,0.6004975438117981,-1.8092824220657349
1772708532189700400,6.680700439453125,-0.30681586265563965,1.4002431631088257,-1.7755755186080933
1772708532199725300,6.690725341796875,0.019159046933054924,1.5803959369659424,-1.1798075437545776
