time,seconds_elapsed,z,y,x
1772709200747097900,0.046097900390625,0.0573211391121149,-0.06308240605257451,-0.023082477162778375
1772709200757122800,0.056122802734375,0.07672492776215076,-0.05079553673565387,-0.02255019691698253
1772709200767147800,0.066147705078125,0.02698445303738117,-0.030080665487051007,0.010762436228618026
1772709200777172700,0.0761728515625,-0.0078045362710952755,-0.01785831277370453,0.01151040505170822
1772709200787198000,0.086197998046875,0.006196516552567481,-0.03481068968363106,-0.008474836748093366
1772709200797222700,0.09622265625,0.030400983482599255,-0.02892828058153391,0.0024487448589876294
1772709200807246600,0.10624658203125,0.04997311443686485,-0.022103987519443032,0.004773571077361703
1772709200817271800,0.116271728515625,0.04364624950289726,-0.028519699780642983,0.02294431080110371
1772709200827296800,0.126296875,0.01636719743311405,-0.017335823269560933,0.01662007621563971
1772709200837321700,0.13632177734375,0.021115268743038176,-0.019541881946474313,0.0058262584680691355
1772709200847346700,0.1463466796875,0.006125789403915405,-0.008480755032226443,0.004906659405119717
1772709200857372000,0.156371826171875,0.00043722237348556514,-0.01550429699346423,-0.00819200121872127
1772709200867396900,0.16639697265625,0.022128829699754715,-0.04984137781597674,0.00020231763906776904
1772709200877421600,0.176421630859375,0.024789573341608046,-0.062468511937931175,0.006615691812708974
1772709200887445800,0.18644580078125,0.016371873608231544,-0.03861600025072694,0.008000497234612703
1772709200897470700,0.196470703125,0.011112345644831656,-0.030573271309584378,0.00825410666950047
1772709200907495700,0.20649560546875,0.016627309674024583,-0.03524206683821976,0.004461765181832015
1772709200917520600,0.216520751953125,0.0249877262622118,-0.0476362689871341,0.003855689047463238
1772709200927545900,0.2265458984375,0.017324644288420676,-0.03821647953912616,-0.00007774141132831573
1772709200937570800,0.23657080078125,0.011447861209511757,-0.032544059925898906,-0.003382080186344683
1772709200947595800,0.246595703125,0.012801029384136199,-0.03740991239659488,0.006401683735847472
1772709200957620700,0.256620849609375,0.006079027652740478,-0.039269641853868956,0.015203852742165326
1772709200967644700,0.266644775390625,0.015474632507562636,-0.04118643526062369,0.00931231048554182
1772709200977669600,0.276669677734375,0.03578209199905395,-0.03962904975079,0.0070670888420194386
1772709200987694800,0.28669482421875,0.02228372800052166,-0.027757848562672733,-0.0025454101664945483
1772709200997719800,0.2967197265625,0.020477555361390114,-0.01828990912400186,-0.005405402707494795
1772709201007744800,0.306744873046875,0.02570084296762943,-0.01572254285402596,-0.0011895385781303047
1772709201017769700,0.316769775390625,0.03570902676284313,-0.03355097194612026,0.005413695611804724
1772709201027794700,0.326794677734375,0.023439327776432036,-0.027178441239520904,0.00449150273296982
1772709201037819600,0.336819580078125,0.018670213678479194,-0.012138693017885088,0.005953318913839757
1772709201047843600,0.346843505859375,0.030353637209534642,-0.022227175507694482,0.007266922263056039
1772709201057868800,0.356868896484375,0.031251462832093235,-0.029430165689066052,0.012021496379002928
1772709201067893800,0.366893798828125,0.04453998347222805,-0.016980872352048752,0.002782251129671931
1772709201077918700,0.376918701171875,0.042567222094535825,0.0013643471557646988,-0.00864862241242081
1772709201087943700,0.386943603515625,0.010710779106616974,0.008387085399404168,0.0022257497580721974
1772709201097969400,0.396969482421875,0.007922609692811965,-0.02906900422647595,0.022370748696848748
1772709201107994400,0.406994384765625,0.017494155636429785,-0.035873642740026114,0.027457038985192774
1772709201118019300,0.417019287109375,0.010714870759844779,-0.030194135798886416,0.0044333062723278995
1772709201128043300,0.427043212890625,0.01833528263568878,-0.004139145631343126,-0.03085197865311056
1772709201138068200,0.437068115234375,0.021360183414816856,-0.02896919711381197,-0.031254166245833034
1772709201148093200,0.44709326171875,0.03618015140593052,-0.0425312739983201,-0.00928618966359645
1772709201158118100,0.4571181640625,0.02641805132627487,-0.029828371226415035,0.0019548238622024653
1772709201168143400,0.467143310546875,0.01071136362850666,-0.005375336362794041,-0.0017225860089063643
1772709201178168300,0.477168212890625,0.03265022371411323,-0.015960224067419766,0.015552775777690112
1772709201188193300,0.487193359375,0.05669511616826057,-0.031949601164087654,0.008340542843937874
1772709201198218200,0.49721826171875,0.04104512709379196,-0.04455868817269802,-0.007347622816450894
1772709201208243500,0.507243408203125,0.016219897916913032,-0.04228168315142393,-0.014114303939789533
1772709201218267100,0.51726708984375,0.01206336275935173,-0.0261590350639075,-0.006029672085680067
1772709201228292400,0.527292236328125,0.014371639701724052,-0.01694397440776229,0.00523099598865956
1772709201238317300,0.5373173828125,0.0070996028721332545,-0.03456577501185238,0.013182612580247223
1772709201248342300,0.54734228515625,0.028386721050739288,-0.04075052806138992,0.015080445558205246
1772709201258367200,0.5573671875,0.053254620325565334,-0.045328065109997984,0.020067074864357708
1772709201268392400,0.567392333984375,0.021399346381425856,-0.042676600753143425,0.019803163231164215
1772709201278417400,0.57741748046875,-0.0034790742874145505,-0.03964117858000099,0.05820826067756861
1772709201288442400,0.5874423828125,-0.02336509349644184,-0.006091229547187686,0.07461195419616996
1772709201298466300,0.59746630859375,-0.03820902688503265,0.017412395637109876,0.0334627822060138
1772709201308491300,0.6074912109375,0.027650807991623876,0.00882218888103962,0.004447188667207956
1772709201318516200,0.61751611328125,0.09275076441168785,0.050556759543716905,0.004684650684893131
1772709201328541200,0.627541259765625,0.04249591042399406,0.019595950221270322,-0.01144329463224858
1772709201338566400,0.63756640625,-0.03134206372499466,-0.03502557454332709,-0.016251644762046633
1772709201348591400,0.64759130859375,-0.0008364508241415023,-0.03706234106793999,-0.01928147744461894
1772709201358616300,0.6576162109375,0.03744739486277103,-0.05068367385901511,-0.020341873217746616
1772709201368641300,0.667641357421875,0.06477087059617043,-0.05412504648454487,-0.02947985004968941
1772709201378665200,0.677665283203125,0.014257657933235168,-0.06742467304058372,-0.028396621390245853
1772709201388690200,0.687690185546875,-0.00032031799554824825,-0.014412921560183166,0.0020503566585481164
1772709201398715100,0.697715087890625,0.0012853636354207992,0.023961598084867,0.022634002742916343
1772709201408740400,0.707740234375,0.019810031363368032,0.025083514786884187,0.02066482156179845
1772709201418765300,0.717765380859375,0.015042670831084251,-0.023716902608796952,0.0021315686685964464
1772709201428790300,0.727790283203125,0.05596972450315952,-0.0530754643663764,0.0008869754349812865
1772709201438815200,0.737815185546875,0.06949556103050708,-0.05070910056121647,0.014674531638436019
1772709201448840200,0.747840087890625,0.053662032082676885,-0.010764335924759507,0.04070204927716404
1772709201458864000,0.757864013671875,0.019881343033909798,-0.004390416978672146,0.00866199335064739
1772709201468889300,0.767889404296875,-0.009380407285690307,-0.006003405133262276,-0.014404665188491343
1772709201478914300,0.777914306640625,0.02154723041951656,-0.017173837640881536,-0.006728321874327957
1772709201488939300,0.787939208984375,0.048905777466297144,-0.019529314725846052,0.007364647016488015
1772709201498964200,0.797964111328125,0.057118894538283345,-0.022381270090863107,0.01793448328245431
1772709201508989400,0.807989501953125,0.0449777903676033,-0.04021517907567322,-0.005489172000810504
1772709201519014400,0.818014404296875,0.022063947769999502,-0.052998161346465344,-0.023601642198674378
1772709201529038000,0.8280380859375,0.011723755541443824,-0.03897518895193934,-0.03138838708475232
1772709201539063300,0.838063232421875,0.00017594108879566192,-0.025025427924096583,-0.019790924804098903
1772709201549088300,0.848088134765625,0.003285597541928291,-0.0017940438099205492,0.0037965427387505767
1772709201559113200,0.85811328125,0.02121229937672615,-0.004861906947940588,0.017046740662492812
1772709201569138200,0.86813818359375,0.02432663200497627,0.00784574506431818,0.0012394421344622969
1772709201579163400,0.878163330078125,0.0037882863670587537,-0.005980389583855867,0.001127761920914054
1772709201589188400,0.888188232421875,0.005109890359640121,0.009481018115952611,0.005174041637033224
1772709201599213300,0.89821337890625,0.01409457632601261,0.0066281129028648135,0.038324689153954386
1772709201609238300,0.90823828125,0.039082302588224406,-0.039927448175475,0.03677767890766263
1772709201619262200,0.91826220703125,0.05069558349251747,-0.05234612717851996,0.03320438699815422
1772709201629287200,0.928287109375,0.033092122262716295,-0.04313318541422486,-0.00007591478042304515
1772709201639312400,0.9383125,-0.005284077882766723,-0.03576170679815113,-0.003236497703194618
1772709201649337300,0.94833740234375,-0.01280453651547432,-0.0628575843207538,0.012700710814818739
1772709201659362300,0.9583623046875,0.042753684577345845,-0.06130450965985655,0.022689641920290885
1772709201669387300,0.96838720703125,0.03793313255310058,-0.03220262607708573,0.008446706632152199
1772709201679412500,0.97841259765625,0.007854805153608322,-0.005228986694663763,-0.03411039592716843
1772709201689436200,0.988436279296875,0.021408114209771154,-0.00333433205448091,-0.04232829877212643
1772709201699461000,0.998461181640625,0.04860416417121887,-0.04817928982265293,-0.026174963285401462
1772709201709486300,1.008486328125,0.04957388598620891,-0.044041824691742656,0.00628514468409121
1772709201719511300,1.01851123046875,0.03135024703145027,-0.026496742585673926,0.0034861616153270005
1772709201729536300,1.028536376953125,0.01031447326540947,-0.016648717788234353,-0.006347907721996307
1772709201739561200,1.038561279296875,0.008020809370279311,-0.014712489028647541,0.009920542044378816
1772709201749586400,1.04858642578125,0.03025836014151573,0.005299056256189942,0.04137720859237015
1772709201759611400,1.058611328125,0.0381155033826828,-0.008218304703757166,0.027300240988284347
1772709201769635300,1.06863525390625,0.03432137179672718,-0.019477876799553633,-0.00022032821979373692
1772709201779660300,1.078660400390625,0.03145546097159385,-0.04002762061432004,0.00025244039110839365
1772709201789685200,1.088685302734375,0.014812369206547736,-0.04571173066534102,0.01965966310724616
1772709201799710200,1.098710205078125,-0.002899228572845459,-0.033574352821707724,0.016325513715855777
1772709201809735400,1.1087353515625,-0.005659340935945511,-0.012827113673463463,0.016577259987220167
1772709201819760400,1.118760498046875,0.013131868773698806,-0.0008514291975647211,0.00868953894469887
1772709201829785300,1.128785400390625,0.0050040918976068495,-0.012600830636918544,-0.02822301838900894
1772709201839810300,1.138810302734375,0.0054202714830636975,-0.044666459396108985,-0.01840319677274674
1772709201849834200,1.148834228515625,0.03561082708537578,-0.03759242935664952,-0.0030802476955577728
1772709201859859200,1.158859130859375,0.030465865412354468,-0.02187361282967031,0.02064136762097478
1772709201869884200,1.16888427734375,0.010353051710128784,0.019129136427119373,0.01659819317739457
1772709201879909400,1.178909423828125,-0.002258592581748962,-0.00863587252870202,-0.015418299210444093
1772709201889934300,1.188934326171875,0.02644377028942108,-0.006073547760024667,-0.010844488488882779
1772709201899959300,1.198959228515625,0.036570027506351466,0.011028101427480577,0.023251440521515905
1772709201909984300,1.208984375,0.021238602861762046,0.01925393185056746,0.019220504505001006
1772709201920008200,1.21900830078125,0.0023345804274082184,0.020463746031746267,0.019570523519068954
1772709201930033200,1.229033203125,-0.01235270109474659,0.035440146693587304,0.0037847061704844235
1772709201940058000,1.23905810546875,0.012640870386362075,0.04284508918784558,0.008424275604635477
1772709201950083300,1.249083251953125,0.025840543699264525,0.03705445002242923,0.006053527885302901
1772709201960108300,1.2591083984375,0.023805238479375837,-0.013775062048062682,0.005255472842790186
1772709201970133200,1.26913330078125,0.04123217409849167,-0.07709566077068447,-0.016051482547447083
1772709201980158200,1.279158203125,0.058606502747535705,-0.06295490721538663,-0.013885280956886709
1772709201990183400,1.289183349609375,0.024742227068543433,-0.011934037291258573,0.01674856143351644
1772709202000207000,1.29920703125,-0.02961713962852955,-0.013302841426432132,-0.007463467748463153
1772709202010232300,1.309232421875,-0.02693476867675781,-0.022456673414632675,-0.01513542714845389
1772709202020257300,1.31925732421875,0.01796586480140686,-0.0690244363874197,-0.0033318113038316366
1772709202030282200,1.3292822265625,0.030228549525141715,-0.0800486653573811,0.007864011373370885
1772709202040307200,1.33930712890625,0.05127075303196907,-0.08772007676810026,0.01659307861085981
1772709202050332400,1.34933251953125,0.04593231461346149,-0.09212306096740067,0.012216032570414244
1772709202060357400,1.359357421875,0.029181670820713042,-0.04831124563924968,0.016789697161503137
1772709202070381000,1.369381103515625,0.007189034721255302,-0.013182649112865328,0.011513619922101497
1772709202080406300,1.37940625,0.003317746245861053,-0.018800050603225826,0.017853928859531878
1772709202090431200,1.38943115234375,0.027721535140275953,-0.02299509114027023,0.0005201879492029547
1772709202100456000,1.3994560546875,0.030404490613937376,-0.007856047262623905,0.023262181111238896
1772709202110481000,1.40948095703125,-0.0002811550289392471,-0.014866656677052378,0.02354735472816974
1772709202120506000,1.419506103515625,0.006913724911212921,0.01879530136287212,0.0373405004221946
1772709202130531000,1.429531005859375,0.031765257573127745,0.026808146622404456,0.027677915194258093
1772709202140556000,1.43955615234375,0.025505028134584426,0.013818608928844333,0.0297558905120939
1772709202150580200,1.449580322265625,0.021064415338635442,-0.013889116881787776,0.026046039676107465
1772709202160605200,1.459605224609375,0.045049102038145064,-0.02679433729276061,0.015446210130676626
1772709202170630000,1.4696298828125,0.050911856591701506,-0.007881400899589061,-0.013605550700053572
1772709202180655000,1.479655029296875,0.032684125983715055,-0.021681451258435843,-0.0013544468162581323
1772709202190680000,1.48968017578125,0.006392915907502174,-0.02448021513149142,0.012456965186819434
1772709202200705000,1.499705078125,0.00912146408855915,-0.03630998833067715,0.025043730765767394
1772709202210730000,1.50972998046875,-0.00030336686074733735,-0.07567373820878565,0.022785978434234855
1772709202220755200,1.519755126953125,0.006274842485785484,-0.08870543454363941,-0.007332315649464726
1772709202230779100,1.529779052734375,0.0333358678907156,-0.06870090352147817,0.006299502003006637
1772709202240804000,1.53980419921875,0.049155952835083006,-0.05000782042406499,0.003041998044401407
1772709202250829000,1.5498291015625,0.03339548912346363,-0.035482670661062,0.001901157446205616
1772709202260854000,1.55985400390625,0.01120937627851963,-0.03554433772042394,0.006414214423857629
1772709202270879000,1.56987890625,0.022862989193201063,-0.032990561584383245,-0.00027720950618386267
1772709202280904000,1.579904052734375,0.022231705552339553,-0.01658091324903071,0.002817578171379864
1772709202290929200,1.58992919921875,0.028629882156848904,-0.03311250746361911,-0.0217230253778398
1772709202300953000,1.599953125,0.018603578183054924,-0.046242768802121276,-0.030343444609083232
1772709202310978000,1.60997802734375,0.025048516538739202,-0.05606872789822519,-0.02829378207027912
1772709202321003300,1.620003173828125,0.03896422916650772,-0.06436185140386223,-0.009563618365488946
1772709202331028000,1.630028076171875,0.0371305839985609,-0.0344146761033684,-0.02088496711850166
1772709202341053000,1.640052978515625,0.023041268369555473,0.006249854175001382,0.022023615759611127
1772709202351078100,1.650078125,0.010321487528085708,0.009082812578603624,0.021818996565602718
1772709202361103000,1.66010302734375,0.02318330718874931,0.017397490328922866,0.03884853036496788
1772709202371128000,1.670128173828125,0.021384148812294005,0.021308526292815804,0.03356660790666938
1772709202381152300,1.68015234375,0.029034371304512023,0.0005464549016207457,0.01139982081670314
1772709202391177200,1.69017724609375,0.05151449865996837,-0.020228475971147415,0.013432605285942553
1772709202401202200,1.7002021484375,0.02697393164336681,0.012853855549916623,0.010509667043946683
1772709202411227000,1.710226806640625,-0.013597148197889328,0.06949943348802626,0.026170871632173656
1772709202421252000,1.720252197265625,-0.03392915760874748,0.04830430444180965,-0.0064626201428473
1772709202431277000,1.730277099609375,-0.011920739418268203,-0.06857106659673154,-0.10190459639988839
1772709202441302000,1.740302001953125,0.05903846442401409,-0.12777253956273196,-0.12154858701396733
1772709202451327000,1.750326904296875,0.1215133330374956,-0.13635763175226748,-0.0046601372981444
1772709202461351200,1.76035107421875,0.09924187999665736,-0.11883739182651042,0.1386227271400392
1772709202471376100,1.770376220703125,-0.0028109657675027848,-0.08400792437717318,0.17780403312332926
1772709202481401000,1.780401123046875,-0.06606558658182621,0.029915976444631814,0.10285882838480175
1772709202491426000,1.790426025390625,-0.050824762830138204,0.104334965351969,-0.04851166358217597
1772709202501451000,1.800450927734375,0.029977205112576483,0.07793941811844705,-0.08240461736638098
1772709202511476000,1.81047607421875,0.10843173314630984,-0.03489405711814761,-0.044500345581583674
1772709202521501200,1.820501220703125,0.08415887715518475,-0.07976948308981954,-0.0005973448386415839
1772709202531526100,1.830526123046875,-0.019597849917411803,-0.0706217885814607,0.0108196463085711
1772709202541550000,1.840550048828125,-0.05388999561965465,-0.06550028084926307,0.014888831976242363
1772709202551575300,1.8505751953125,0.026423896545171736,-0.032630934491753576,0.04007036377750337
1772709202561600300,1.860600341796875,0.04322305565476417,0.003062967767193913,0.05574037272669374
1772709202571625000,1.870625,0.02784194664955139,0.05140168593525886,0.01227609219457954
1772709202581650000,1.88064990234375,0.00954933411180973,0.057683542683720584,-0.04110394460894167
1772709202591675100,1.890675048828125,0.01842939065992832,-0.007922609692811965,-0.03298409531097859
1772709202601700000,1.9007001953125,0.06352408540546893,-0.058857408768683665,0.00422517994698137
1772709202611725000,1.91072509765625,0.06008125147521495,-0.07216850656680762,0.027171390444226562
1772709202621750000,1.92075,0.035223289072513576,-0.0938886824004352,0.003891564078442752
1772709202631774200,1.930774169921875,0.03296294292509556,-0.08011573924422263,-0.011834924298338592
1772709202641799000,1.940798828125,0.019460487273335457,-0.013923822868987917,-0.00560154633410275
1772709202651823900,1.950823974609375,-0.0013648586124181746,-0.0031252924136817455,-0.007189253916963934
1772709202661849000,1.96084912109375,-0.0029828152030706404,-0.040682796587422486,-0.04791599924396723
1772709202671874000,1.9708740234375,0.05005903915464878,-0.06383534331172705,-0.05609214530643075
1772709202681899000,1.98089892578125,0.07588730789422989,-0.0966261445403099,-0.03151263451892882
1772709202691924000,1.990924072265625,0.052907414323091505,-0.10920118314884603,-0.017620741158165035
1772709202701949200,2.00094921875,0.04274491674900055,-0.0812624250613153,-0.014452084526792168
1772709202711974100,2.01097412109375,0.010391045632958411,-0.02516987789608538,-0.01161247718669474
1772709202721998000,2.020998046875,-0.024339491486549375,-0.009376973219588398,-0.01000913364328444
1772709202732023000,2.03102294921875,-0.02775134575664997,0.0050330987963825465,0.025542145274579525
1772709202742048000,2.041048095703125,0.009656301617622374,0.01663863478563726,0.05897771068010479
1772709202752073000,2.051072998046875,0.03952653922438621,0.028912936881929634,0.05198774219490587
1772709202762098200,2.06109814453125,0.025556466060876845,0.022259470342099665,0.029865817159973083
1772709202772123100,2.071123046875,0.01116319904923439,0.009321443640068173,0.010986161981895566
1772709202782148000,2.081148193359375,0.013688333612680435,-0.01199606967680156,-0.0017197729973122476
1772709202792173000,2.091173095703125,-0.005965630406141281,-0.038763518962636585,0.012410130370408296
1772709202802198300,2.1011982421875,-0.02312193239033222,0.007115531093627214,0.007687010838650167
1772709202812222000,2.111221923828125,-0.042075639185309405,0.030175284967944024,0.015005992082506418
1772709202822247000,2.121246826171875,-0.02718494404554367,0.006112418465688824,0.022649236844666302
1772709202832272100,2.131272216796875,0.03617781331837177,-0.0010353343971073628,0.03524060553349554
1772709202842297000,2.141297119140625,0.06732347768843173,0.01518726693354547,0.04970573220495134
1772709202852322000,2.151322021484375,0.03233633545935154,0.016228081223368645,0.04642280154414475
1772709202862347000,2.161346923828125,-0.008279168045520782,0.007201455811411142,0.03591843172982335
1772709202872372200,2.171372314453125,0.025217443364858625,-0.029452742847055194,0.02001538120973855
1772709202882397200,2.181397216796875,0.05973112286329269,-0.06373261358961463,0.018551263473927975
1772709202892421000,2.191421142578125,0.0452782346189022,-0.04866268942542374,0.024132497672364115
1772709202902446000,2.201446044921875,0.028299627289175986,-0.07086202707812189,0.010441241450235247
1772709202912471000,2.211470947265625,0.0394704251229763,-0.07706482724100351,-0.0036204189868643878
1772709202922496000,2.22149609375,0.042830841466784474,-0.08365012391544878,-0.003858173265494406
1772709202932521200,2.231521240234375,0.019691957941651343,-0.0719205962203443,-0.006485160768218338
1772709202942546200,2.241546142578125,0.014959668722748756,-0.06363594828210771,-0.008587649472802878
1772709202952571100,2.251571044921875,0.030731238350272177,-0.056099049971252674,-0.01306742523536086
1772709202962596000,2.26159619140625,0.03272971869111061,-0.03141688252687454,-0.004789024374820291
1772709202972620000,2.2716201171875,0.024113866037130356,-0.02876797545328736,-0.004333535692282021
1772709202982645000,2.28164501953125,0.015517302605509757,-0.02955079639405012,-0.01243460722453892
1772709202992670000,2.291669921875,0.027885785791277883,-0.03755078217200935,-0.011910729480907321
1772709203002695200,2.301695068359375,0.03350421019494533,-0.05794584688171744,0.007557685370557009
1772709203012720000,2.31172021484375,0.03385492332875729,-0.01945033120550215,0.00354516179356724
1772709203022745000,2.3217451171875,0.010565233156085013,0.014584259539097547,0.002955781065672636
1772709203032770000,2.33177001953125,0.005702011033892631,0.012085793786868452,-0.006017141397669911
1772709203042795300,2.341795166015625,0.014471592944860457,-0.003293123261258006,-0.0023023586582392452
1772709203052819000,2.35181884765625,0.013351064482331275,-0.017526669666543603,0.026893231089971957
1772709203062844200,2.36184423828125,0.021050386813282966,-0.007143076687678694,0.021646416477672754
1772709203072869000,2.371869140625,0.030404490613937376,-0.022641382331773638,0.0056493309985846275
1772709203082894000,2.38189404296875,0.03064648267626762,-0.018386939757689832,0.0009168225839734077
1772709203092919000,2.3919189453125,0.02879179472029209,-0.02103679667934775,0.01415087309051305
1772709203102943500,2.401943603515625,0.01794014583826065,-0.0012337795786559582,0.029706644542887805
1772709203112968400,2.411968505859375,0.0023123685956001282,-0.0014830050993710755,0.004720671846345067
1772709203122993400,2.421993408203125,0.0078045362710952755,-0.016715791675075888,-0.003839614695496857
1772709203133017600,2.432017578125,0.03351239350140094,-0.03644282093010843,0.005259674093872308
1772709203143042600,2.44204248046875,0.03779518538713455,-0.038941652008518575,0.02258826390504837
1772709203153067500,2.452067626953125,0.01558861427605152,-0.04593735611476004,0.00725274760723114
1772709203163092700,2.4620927734375,0.026913725888729093,-0.0411480029463768,0.010896255208738147
1772709203173117400,2.472117431640625,0.015671616384387015,-0.035689883670955894,0.0061389046138152475
1772709203183142400,2.482142333984375,0.032710429468750954,-0.03359137702174485,0.004069624059088528
1772709203193167400,2.49216748046875,0.0352092605471611,-0.02593677061535418,0.003130151251889765
1772709203203191600,2.502191650390625,0.027237551015615463,-0.04952200966849923,-0.0024109335992485285
1772709203213216500,2.512216552734375,0.018396072912216184,-0.039466991056874394,0.013190394027903675
1772709203223241500,2.522241455078125,0.03049801411628723,-0.03600764438323677,0.02120641762521118
1772709203233266700,2.5322666015625,0.02894727754294872,-0.036354923450946805,-0.005916019110754132
1772709203243291600,2.542291748046875,0.017667174115777014,0.0037305648304522035,-0.018647563455253837
1772709203253316400,2.55231640625,0.01478957285284996,-0.004395020088553428,-0.016305128514952957
1772709203263341300,2.56234130859375,0.0017781155884265898,-0.037512495988234876,0.00656125821173191
1772709203273366500,2.572366455078125,0.030168928292393683,-0.051837520069256425,0.02537036890424788
1772709203283390500,2.582390380859375,0.034708325287699696,-0.04259169894866645,0.021209230636805295
1772709203293415400,2.59241552734375,-0.002653144857287407,-0.03373370810188353,-0.004358597068302333
1772709203303440600,2.602440673828125,0.016591069316864014,-0.029165961794927715,-0.012862258052080869
1772709203313465600,2.612465576171875,0.034034371548891065,-0.029907354746758937,-0.021891221551597118
1772709203323490600,2.622490478515625,0.030341362249851227,-0.014408829906955361,0.00924432328324765
1772709203333515500,2.632515625,0.02950023525059223,0.008331117428466678,0.025100246725976466
1772709203343540500,2.64254052734375,0.026451953595876692,-0.015607099780812858,0.01458312702793628
1772709203353564400,2.652564453125,0.03823942202329635,-0.025696897444874047,0.02948511074669659
1772709203363589600,2.662589599609375,0.052559623798727986,-0.018005466159433124,0.02482687314469367
1772709203373614600,2.672614501953125,0.03845043442547321,-0.004922258833050728,-0.0037413054201751944
1772709203383639600,2.6826396484375,0.017622165930271147,-0.011617372557520865,-0.002944748215004802
1772709203393664500,2.69266455078125,0.022094927430152893,-0.007373670573160052,-0.00902775792311877
1772709203403689700,2.702689697265625,0.012211246797442435,-0.007926189889386296,0.006086626437306404
1772709203413714400,2.71271435546875,0.018051789519190786,-0.02591558169685304,0.007286467213742435
1772709203423738400,2.72273828125,0.03227437613904476,-0.050881753714382645,0.016301877111941573
1772709203433763600,2.732763671875,0.04618775067925453,-0.04384506001062691,0.004773972936160862
1772709203443788500,2.74278857421875,0.012211246797442435,-0.029211043045669793,0.00012344371657818556
1772709203453813500,2.7528134765625,-0.006069675302505493,-0.01439275555498898,0.010613127418421207
1772709203463838500,2.76283837890625,0.008735095119476318,-0.016356383778154848,0.010479162307828664
1772709203473863700,2.77286376953125,0.027274960416555402,-0.02210522962845862,0.007850311641581356
1772709203483888600,2.782888671875,0.02965747163891792,-0.016394816092401742,0.004468377585709095
1772709203493912600,2.79291259765625,0.023240005812048912,-0.013538915204629302,0.0033942090155556796
1772709203503937500,2.8029375,0.011477671825885771,-0.01752710805796087,-0.01308605687059462
1772709203513962500,2.81296240234375,0.02694353650510311,-0.006435805201157927,-0.007195793255604803
1772709203523987500,2.822987548828125,0.04149813155829906,-0.001715644811466336,0.01581760072633624
1772709203534012700,2.8330126953125,0.018497195199131965,0.002270648345723748,0.007128098314255475
1772709203544037600,2.84303759765625,0.024402035328745842,-0.007939560827612876,-0.01926394178792834
1772709203554062600,2.8530625,0.027036475485563278,-0.01821903584487736,0.003532667638175189
1772709203564086500,2.86308642578125,0.02067161662876606,-0.047733007359877226,-0.005290799884498119
1772709203574111500,2.873111572265625,0.009327800315618515,-0.037095074293762444,-0.004893909521400929
1772709203584136400,2.883136474609375,0.0014046061009168624,-0.026477818689495322,-0.0002844794971868396
1772709203594161400,2.893161376953125,0.01729483367204666,-0.02786854239553213,0.004746938798762858
1772709203604186600,2.9031865234375,0.03333703693449497,-0.037998233678564426,0.021752068809233603
1772709203614211600,2.913211669921875,0.015829437294602393,-0.029841449903696773,0.02905223575476557
1772709203624235300,2.9232353515625,0.00429214423596859,-0.009677344405651092,0.01591744437161833
1772709203634260500,2.933260498046875,0.00986088427901268,-0.017765739119425417,0.004534428559243679
1772709203644285400,2.943285400390625,0.03416705801784992,-0.012443667313829064,-0.00141505442969501
1772709203654310400,2.953310302734375,0.020599135914444924,-0.0016335925512015819,0.023504392369277774
1772709203664335600,2.963335693359375,0.025265958681702613,-0.0037942777164280414,0.0084534651665017
1772709203674360600,2.973360595703125,0.02531096686720848,-0.020963950638845562,0.004575418156757951
1772709203684385500,2.983385498046875,0.027168577432632443,-0.01570223071835935,-0.0013218597209081052
1772709203694409700,2.99340966796875,0.03276888165771961,-0.019602672223001716,0.0012266557181254028
1772709203704434400,3.003434326171875,0.02218435927927494,-0.004976107912138104,0.011490933166258037
1772709203714459400,3.01345947265625,0.005917115089297294,-0.0033970220271497963,-0.004480141088739037
1772709203724484400,3.023484375,0.033192075505852695,-0.03594553893245756,0.0026281200138851997
1772709203734509600,3.033509521484375,0.018127777364850044,-0.024667042940482494,0.010665515192784369
1772709203744534500,3.043534423828125,0.014560440272092818,-0.011741875720024109,0.017650478709302843
1772709203754559500,3.0535595703125,0.024912322938442227,-0.033192660027742384,0.015434081301465629
1772709203764583700,3.063583740234375,0.03704407475888729,-0.04396634830273687,-0.011145553794689476
1772709203774608600,3.073608642578125,0.03181318836808204,-0.008343246257677673,-0.00789948454555124
1772709203784633300,3.08363330078125,0.019420155262947082,-0.004825447395071387,-0.0009345774363726377
1772709203794658300,3.093658203125,0.0042120647370815275,-0.009809081026539206,0.012199958218447863
1772709203804683500,3.10368359375,0.022972879308462143,-0.027398367600515484,0.029980456515587863
1772709203814708500,3.11370849609375,0.03301671893894672,-0.040524391155317425,0.01245612493660301
1772709203824732400,3.123732421875,0.012536825489997863,-0.029096695950999854,-0.013848456077836453
1772709203834757600,3.133757568359375,0.030695582515001294,-0.011912044655159115,-0.013568616223149001
1772709203844782600,3.143782470703125,0.04046995755434036,-0.03308876126185059,-0.0064680269703269
1772709203854807600,3.1538076171875,0.012643792995810508,-0.032453093706816434,0.0051303851583972574
1772709203864832500,3.16383251953125,0.004861468556523323,-0.014942936783656477,0.008369038286060095
1772709203874857500,3.173857421875,0.007575988212227821,-0.014792349331825971,0.007038995258696377
1772709203884881400,3.18388134765625,0.01405365979373455,-0.01822144699767232,0.013567849038168787
1772709203894906600,3.19390673828125,0.04895721539258956,-0.004762099835276604,-0.002812280941754579
1772709203904931600,3.203931640625,0.03026888153553009,-0.0038800563037395476,0.0071417615134269
1772709203914956500,3.21395654296875,0.018153496327996253,-0.002673310862481594,0.008909136512130498
1772709203924981500,3.2239814453125,0.02133154184222221,-0.010415303291380405,-0.00007872779201716184
1772709203935006700,3.2340068359375,0.02857084544599056,-0.02576389826647937,0.010930742000229657
1772709203945031400,3.244031494140625,0.020679215413331984,-0.03402129287160933,0.0066947849309071895
1772709203955055400,3.254055419921875,0.03148293350040912,-0.028639526768028733,-0.0006781549898907541
1772709203965080600,3.26408056640625,0.026266075634956358,-0.015099661715328692,-0.0029345190819352863
1772709203975105500,3.27410546875,0.011451952862739562,-0.008325856731459498,-0.01178198853470385
1772709203985130500,3.284130615234375,0.00428688353896141,-0.010302271370962261,0.014149082992225885
1772709203995155500,3.294155517578125,0.027934885630011556,-0.013021832527965306,0.004198474603146315
1772709204005180700,3.3041806640625,0.03272095086276531,-0.012209420166537165,0.011985219489224255
1772709204015204400,3.314204345703125,0.03512625843882561,-0.021136530726775526,0.008762275387346745
1772709204025229600,3.3242294921875,0.021527356675267218,-0.023949615386128425,0.004236906917393207
1772709204035254500,3.334254638671875,0.01136836623251438,-0.0177892661254853,0.0036309769134968517
1772709204045279500,3.344279541015625,0.01587327643632889,-0.00926072642877698,0.005396086889877915
1772709204055304400,3.354304443359375,0.023814590829610825,-0.011314809414371848,0.022000161818787455
1772709204065329700,3.36432958984375,0.030867431950569152,-0.019721695492789147,-0.0005398424977436662
1772709204075353600,3.374353515625,0.02519406248927116,-0.009528218258544802,-0.0028050109507516026
1772709204085378300,3.38437841796875,0.04316811059713364,-0.010082710336148739,0.007738302634470165
1772709204095403500,3.394403564453125,0.021660627666115758,-0.007168868716061115,-0.005273483423516154
1772709204105429000,3.404428955078125,0.025600305202603337,-0.017148995460569857,0.011187347109802067
1772709204115454000,3.414453857421875,0.03041384296417236,-0.01985927733257413,-0.0019470789471641183
1772709204125479000,3.42447900390625,0.026686346873641013,-0.018576909371837973,0.0037424379313364623
1772709204135504000,3.43450390625,0.037490649482607837,-0.0064813979085534806,-0.003901245222240686
1772709204145527800,3.44452783203125,0.040945758372545236,-0.01824190526381135,0.006232829974964261
1772709204155552800,3.454552734375,0.02824059057831764,-0.017096169294789434,0.00713419926147908
1772709204165578000,3.464577880859375,0.02735094826221466,-0.03442738945446908,0.002061389509215951
1772709204175603000,3.47460302734375,0.033784196180105204,-0.032111586792767044,0.004508819193951785
1772709204185628000,3.4846279296875,0.028566753792762755,-0.014533844526112078,-0.00029606033712625503
1772709204195652900,3.49465283203125,0.02452536944746971,-0.029872941020503637,0.011285510254651307
1772709204205676800,3.5046767578125,0.015704349610209466,-0.02406973463445902,0.009739888247847557
1772709204215701800,3.51470166015625,0.024822306567430494,-0.022933351015672086,0.003200549606978893
1772709204225726700,3.524726806640625,0.02167056453824043,-0.015139701464772224,0.008953560175746679
1772709204235752000,3.534751953125,0.024202713364362714,-0.002839242013916373,0.006112783791869879
1772709204245777000,3.54477685546875,0.0212099612891674,0.003943403863534331,0.00536371899023652
1772709204255801900,3.5548017578125,0.03139642426073551,0.002481295421719551,-0.006197429868020117
1772709204265826800,3.564826904296875,0.03710369599163532,-0.010404854962602256,0.006117569564841687
1772709204275850800,3.574850830078125,0.031299393627047534,-0.015286927915737032,0.00516483541727066
1772709204285875700,3.584875732421875,0.025935820767283436,-0.00804112150594592,0.008279533371701836
1772709204295901000,3.59490087890625,0.0289525382399559,-0.008773162107542157,0.013628237455897032
1772709204305926000,3.60492578125,0.02748246568739414,-0.025690248508378862,0.011335998332872986
1772709204315950800,3.614950927734375,0.03318272315561771,-0.026860461331531405,0.004275887220911681
1772709204325975800,3.624975830078125,0.031684009030461306,-0.00872377000786364,-0.005808613213524222
1772709204336000000,3.635,0.009705401456356047,-0.008793328112736344,-0.0018098989661782978
1772709204346025000,3.64502490234375,0.004349427381157875,-0.031227205173671245,0.009215279851853848
1772709204356049700,3.655049560546875,0.03577040156126022,-0.01721833436973393,0.015398023607395589
1772709204366075000,3.665074951171875,0.027079730105400084,-0.030286124931275842,0.002254245200194418
1772709204376099800,3.675099853515625,0.014667407777905463,-0.016308014591783285,-0.01651153780724853
1772709204386124800,3.685124755859375,0.03594166647493839,-0.014708981897309422,-0.009799984404630958
1772709204396149000,3.69514892578125,0.031173136898875235,-0.028877207981422542,-0.001470182150416076
1772709204406174000,3.705174072265625,0.016963994282484053,-0.019629779425635933,-0.0012107274966314434
1772709204416199000,3.715198974609375,0.012189034965634345,-0.027865985112264752,0.007469166836887598
1772709204426223900,3.725223876953125,0.008470306703448295,-0.030185514101013538,0.00560910858605057
1772709204436248800,3.735248779296875,0.04004033396542072,-0.022071619619801638,0.001986643772572279
1772709204446273800,3.745273681640625,0.021322189491987227,-0.006709215315058827,0.0070603668402880425
1772709204456298800,3.755298828125,0.02415069091618061,-0.006602320874482393,-0.008335501342639327
1772709204466323000,3.765322998046875,0.031031682601571083,-0.013684534220397471,-0.004992437992431223
1772709204476348000,3.775347900390625,0.030880875954031942,-0.030534035277739166,0.011435257456265389
1772709204486372900,3.785372802734375,0.03309796748161316,-0.03553951541483402,0.02051478209923953
1772709204496398000,3.795398193359375,0.013906944799423218,-0.0017994506374001502,0.022395554344542323
1772709204506423000,3.805423095703125,-0.0010854571491479873,-0.018598682812228796,0.007082030682824552
1772709204516447700,3.81544775390625,0.013842062869668006,-0.024099691381305455,0.0065629752447828645
1772709204526472000,3.825471923828125,0.030098201143741607,-0.0068929013188928365,0.017081154388748108
1772709204536497000,3.835496826171875,0.01730652410984039,-0.004488908917084336,0.011071684840880334
1772709204546521900,3.84552197265625,0.016522095733880995,-0.008556669812649489,-0.012662534228898584
1772709204556546800,3.855546875,0.04223521366119384,-0.019983195973187685,-0.004365793994069099
1772709204566572000,3.865572021484375,0.03473345972895622,-0.014825374818593263,0.01090937041863799
1772709204576597000,3.875596923828125,0.014795418071746825,-0.015194792652875185,0.012989099302142858
1772709204586621000,3.885620849609375,0.021208207723498344,-0.007526084655895829,0.0012331219915300607
1772709204596646000,3.89564599609375,0.03406652025282383,-0.014224413250759243,-0.001105403958633542
1772709204606670800,3.9056708984375,0.021026421415805817,-0.029443463562056422,0.006748378281667828
1772709204616695800,3.91569580078125,0.03131283763051033,-0.031919206025823946,0.009014167789183557
1772709204626721000,3.925720947265625,0.01975216369628906,0.005129691038653254,-0.015850553147867322
1772709204636746000,3.93574609375,0.027667174604535102,0.004013911816477775,-0.0008987754706293344
1772709204646770000,3.94577001953125,0.010320318484306335,-0.01019910325743258,-0.005390424334071576
1772709204656795000,3.955794921875,0.025574586239457128,-0.013034326683357357,-0.0019032763380557296
1772709204666819800,3.96581982421875,0.03003565730154514,-0.03487769050523638,0.015678082657791675
1772709204676844800,3.9758447265625,0.0370522580653429,-0.028700828501209617,0.0029998759357258674
1772709204686869800,3.985869873046875,0.038839141482114786,-0.00853730752505362,0.002221913833171129
1772709204696895000,3.99589501953125,0.02790332144796848,0.004332768507301807,0.014461436877027153
1772709204706920000,4.005919921875,0.009303250396251678,0.0013172200784087181,0.0060130132118239995
1772709204716944000,4.01594384765625,0.033515900632739064,-0.005779679379984736,-0.0002192322412505746
1772709204726968800,4.02596875,0.030355390775203703,-0.025195816054940222,0.001552197878062725
1772709204736993800,4.035993896484375,0.027490648993849752,-0.0038791795209050174,0.0017383680999279022
1772709204747018800,4.046018798828125,0.03076864775121212,0.004534282428771257,0.029548787100054322
1772709204757043700,4.056043701171875,0.012330489262938499,0.010598843164741993,0.025416947992332278
1772709204767069000,4.06606884765625,0.02038695446848869,0.02138115313760936,0.011474091629311442
1772709204777092900,4.0760927734375,0.021894436421990394,0.013435966286808251,-0.012586436785385012
1772709204787118000,4.0861181640625,0.039144846430420877,-0.011071648308262228,-0.012461860557645558
1772709204797143000,4.09614306640625,0.04233867403566837,-0.05566102388016879,-0.03142616181187331
1772709204807167700,4.106167724609375,0.03129705553948879,-0.04930412913411855,-0.023246508618071673
1772709204817192700,4.116192626953125,0.014244213929772376,-0.058734805302321905,-0.013877426443994045
1772709204827218000,4.126218017578125,0.0004851531684398651,-0.03249364491291344,-0.0054972091767936946
1772709204837243000,4.136242919921875,0.007054594686627388,-0.026018895940855144,0.00857815099209547
1772709204847266800,4.146266845703125,0.004323708418011665,-0.015913170055299998,0.004193031243048608
1772709204857292000,4.1562919921875,0.019256489133834837,-0.004159311636537313,0.007956183168850838
1772709204867317000,4.16631689453125,0.023578443986177443,-0.03445551957041025,0.009426109590940177
1772709204877342000,4.176342041015625,0.06363923621773719,-0.0020908347994089125,0.024668979169242083
1772709204887366700,4.18636669921875,0.042811552244424816,0.03320639629215002,0.009745002814382314
1772709204897391900,4.196391845703125,-0.01431026490330696,-0.0017402677960693836,0.0034844811148941517
1772709204907415800,4.206415771484375,0.02880699228942394,-0.016496303705498577,0.04463631998617202
1772709204917440800,4.216440673828125,0.03669336162507534,-0.020521905959770083,0.038254290798865255
1772709204927466000,4.226466064453125,0.011937690553069114,-0.005022577402368188,-0.010011179469898343
1772709204937491000,4.236490966796875,0.012067454412579537,0.013994915343821048,-0.033584070498123765
1772709204947516000,4.246515869140625,0.02225041025280952,-0.005103679814562201,-0.03178619076330214
1772709204957540900,4.256540771484375,0.027040567138791084,-0.007493132234364748,0.0058289984144270415
1772709204967564800,4.266564697265625,0.00770458302795887,0.0007253916651010513,0.01203103139232844
1772709204977589800,4.27658984375,-0.005916530567407608,-0.004225508740544319,0.010389328599907457
1772709204987615000,4.286614990234375,0.028937925192713737,-0.01016439727023244,0.01533383579738438
1772709204997640000,4.296639892578125,0.04133855708241462,-0.003632511283457279,0.012889803646132349
1772709205007665000,4.306664794921875,0.0437228218704462,0.0034120734658092257,0.015282288273237644
1772709205017689900,4.31668994140625,0.029649872854351996,-0.022957535608857868,0.009848426656238734
1772709205027715000,4.326715087890625,0.011379472148418427,-0.023427564273402094,0.0045129839124158026
1772709205037738800,4.33673876953125,0.012409399718046188,-0.012393471496552228,0.003998531584255397
1772709205047763700,4.346763671875,0.01583995868861675,-0.023243293747678397,-0.008517689509131014
1772709205057789000,4.356788818359375,0.03437222520112991,-0.029814781092479824,-0.011603709358349442
1772709205067814000,4.36681396484375,0.043916298615932464,-0.022776260757818818,0.005558839703537524
1772709205077838800,4.3768388671875,0.03401274423897266,-0.020011618350073694,0.007899667208641768
1772709205087863800,4.38686376953125,0.01676934849321842,-0.01707286148443818,-0.007237330842390656
1772709205097888000,4.396887939453125,0.016590484794974325,-0.025238778413832187,-0.0029996932726353404
1772709205107912700,4.40691259765625,0.0291354935914278,-0.03269808144383132,-0.004534940015897155
1772709205117938000,4.41693798828125,0.037622751429677005,-0.021248978125303984,0.0028176147039979693
1772709205127963000,4.426962890625,0.02799801399409771,-0.015319515011087059,0.015780081727541983
1772709205137987600,4.436987548828125,0.01523439401090145,-0.014426803955063223,-0.004169138910807669
1772709205148012500,4.447012451171875,0.01894318540096283,-0.007354454416036605,-0.009650492931343615
1772709205158036700,4.45703662109375,0.016374796217679975,0.008694836174324155,-0.003837057412229478
1772709205168061700,4.467061767578125,0.011570026284456253,0.0062158057749271385,0.009693820616416632
1772709205178086700,4.477086669921875,0.02487958971261978,-0.00166983290836215,-0.004275412296876311
1772709205188112000,4.48711181640625,0.028032500785589217,0.014033055397123097,-0.005862937216646969
1772709205198136800,4.49713671875,0.01863105071187019,-0.011228300174698233,0.008602737444080412
1772709205208161800,4.507161865234375,0.028676059386134146,-0.038285818448290224,0.021633374333009124
1772709205218186500,4.5171865234375,0.033144144710898396,-0.031012393379211425,0.02796575569231063
1772709205228210700,4.527210693359375,0.029637597894668577,-0.01741816779077053,0.011845482224971055
1772709205238235600,4.537235595703125,0.0027881694138050077,0.020623320507630705,-0.005751987655460834
1772709205248260900,4.5472607421875,-0.008927402821183204,0.0421647057082504,-0.010916238550841808
1772709205258285800,4.557285888671875,0.007668927192687988,0.006618833617866039,0.009970628263801335
1772709205268310800,4.567310791015625,0.027098434805870056,-0.008906067772209644,0.010144194732420146
1772709205278335700,4.577335693359375,0.0330523747742176,-0.027988223252445456,-0.005256166962534189
1772709205288359700,4.587359619140625,0.009229016116261481,-0.015587372167035936,0.005395977292023599
1772709205298384600,4.597384521484375,0.025955109989643094,-0.015122604199498891,0.008202778341062367
1772709205308409600,4.60740966796875,0.025619594424962994,-0.029171441687643525,0.008693374869599937
1772709205318434800,4.617434814453125,0.02737842079102993,-0.04339870448261499,0.010482048384658991
1772709205328459800,4.627459716796875,0.028234160837531087,-0.020587226280942558,-0.01083524573650211
1772709205338484700,4.637484619140625,0.042859483039379115,-0.02640994108505547,-0.0096247374355793
1772709205348509700,4.647509765625,0.03969546605050563,-0.025427140592783688,-0.013832125997543333
1772709205358533600,4.65753369140625,0.023389643415808677,-0.009102686322852969,-0.009049677493982016
1772709205368558600,4.66755859375,0.03342880687117576,-0.013464023337513207,0.0126288876876235
1772709205378583600,4.67758349609375,0.03852759131491184,-0.01879164810106158,0.005018741477467119
1772709205388608800,4.68760888671875,0.021633739659190177,-0.01121105677895248,0.004470679140649736
1772709205398633700,4.6976337890625,0.021515666237473488,-0.009682970428839326,-0.00333743732701987
1772709205408658700,4.70765869140625,0.019436521875858304,-0.01036160034276545,0.00946191155668348
1772709205418683000,4.717682861328125,0.03678513156175613,-0.0218789465919137,0.03337649216204881
1772709205428707600,4.72770751953125,0.03464928857684135,-0.006176131351664662,0.020293321368284524
1772709205438732500,4.737732666015625,0.013820435559749603,0.022452143369987607,0.010858224753290414
1772709205448757800,4.7477578125,0.012478957822918892,0.01773695141635835,0.0058470820603892205
1772709205458782700,4.75778271484375,0.009324877706170081,0.005081102656573057,0.019361995334923266
1772709205468807700,4.7678076171875,0.007902151426672934,-0.0021717910811305044,0.028093765986151993
1772709205478831900,4.777831787109375,0.005113982012867928,0.002681932560354471,-0.022139278028532862
1772709205488856800,4.78785693359375,0.01031271969974041,0.01657389898635447,-0.029528401899151503
1772709205498881800,4.7978818359375,0.03065525050461292,-0.01699051696322858,-0.028530367305129766
1772709205508906500,4.807906494140625,0.04004910179376602,-0.024882658452540635,-0.007121741638705134
1772709205518931700,4.817931640625,0.02862052980661392,-0.0035282471913844343,0.01642104651220143
1772709205528956700,4.827956787109375,0.0034480946272611615,0.0028725597616285083,0.004947283676452935
1772709205538980600,4.837980712890625,0.016612696626782417,-0.015548939852789044,-0.005483144118823111
1772709205549005800,4.848005859375,0.050128597259521485,-0.036909853919968004,0.016101422636397182
1772709205559030800,4.85803076171875,0.04978022221326828,-0.01548559229299426,0.01797700724992901
1772709205569055700,4.8680556640625,0.011118190863728523,-0.009711173610016704,0.020082930020615456
1772709205579080700,4.878080810546875,-0.0029980127722024916,-0.01928871090300381,-0.014189853394031523
1772709205589105700,4.888105712890625,0.009094576081633568,-0.0444829195227474,-0.00787066030986607
1772709205599130600,4.898130615234375,0.027909751188755032,-0.013132087969407439,0.026345716742426157
1772709205609154800,4.90815478515625,0.03786532801389694,-0.009600406711921096,0.0396621483027935
1772709205619179800,4.9181796875,0.026415713238716124,-0.008035568547993898,0.008288849189318716
1772709205629204700,4.928204833984375,0.026241525715589523,-0.008730930401012301,0.001614522524550557
1772709205639229700,4.938229736328125,0.04762216739654541,-0.01159033842012286,0.008667546308599412
1772709205649255000,4.9482548828125,0.047600540086627,-0.014920944147557019,0.01475015415791422
1772709205659280000,4.95827978515625,0.03589548924565315,-0.024574396220967173,0.010606405416689812
1772709205669303600,4.968303466796875,0.02555529701709747,-0.02067548908628523,0.013915456899441778
1772709205679328800,4.978328857421875,0.023622867649793624,-0.023300576892867682,-0.01721497336886823
1772709205689353700,4.988353759765625,0.021250877821445465,-0.009171879101544617,0.004865487144514918
1772709205699378700,4.998378662109375,0.04009703258872032,0.007124152791500091,-0.0007472381707280874
1772709205709403600,5.008403564453125,0.0320417364269495,-0.004093772119656205,0.0006872516117990017
1772709205719428900,5.018428955078125,0.022944822257757187,-0.010581161377578974,-0.004140351207740605
1772709205729453800,5.028453857421875,0.010550035586953162,-0.018982932889461516,-0.005063749662972987
1772709205739477800,5.038477783203125,0.003995791637897491,0.004032616516947746,0.0011646963978186248
1772709205749502700,5.048502685546875,0.020941081219911575,-0.0051629357211291785,-0.0019118249706923962
1772709205759527700,5.058527587890625,0.022916765207052228,-0.036193230083212256,0.0067281026786193245
1772709205769552600,5.068552734375,0.041326282122731206,-0.029286592499911782,0.009366196097247302
1772709205779577900,5.078577880859375,0.024390929412841794,-0.005056844998151064,0.00024915245547890664
1772709205789602800,5.088602783203125,0.02873158896565437,0.004332183985412121,-0.016517857950180768
1772709205799626800,5.098626708984375,0.047593525823950766,-0.008453355568647384,0.0057470557520166035
1772709205809651700,5.108651611328125,0.028138299247622487,-0.02297521739602089,0.006530059355869889
1772709205819676700,5.1186767578125,0.01929331401288509,-0.01792860153093934,0.01002743648495525
1772709205829701600,5.12870166015625,0.01764554680585861,-0.020948460808768866,0.00807074945922941
1772709205839726600,5.1387265625,0.036519758623838425,0.0052558747015893454,-0.005097761530429124
1772709205849751800,5.148751708984375,0.032335166415572165,-0.006489800410717725,0.022284385587647556
1772709205859775700,5.158775634765625,0.024692542707920075,-0.01467602947577834,0.015470212060771881
1772709205869800700,5.16880078125,0.024365210449695585,-0.003222542243078351,0.0033045579707249996
1772709205879826000,5.178825927734375,0.02077390795946121,-0.0050538493234664195,0.0007026683766394853
1772709205889850600,5.1888505859375,0.03139759330451488,-0.0010539660323411225,0.012029058630950749
1772709205899875600,5.19887548828125,0.027061025404930113,0.0013142244037240743,0.005942176465317607
1772709205909900500,5.208900634765625,0.023331191226840017,-0.010797726737707852,-0.002281206272356212
1772709205919925800,5.21892578125,0.024684943923354147,-0.029960473173484204,0.000630114597082138
1772709205929949700,5.22894970703125,0.05133271235227584,-0.03674837974794209,0.01414371269736439
1772709205939975000,5.238974853515625,0.032170331242680546,-0.02260083112567663,0.007031396474130452
1772709205949999900,5.248999755859375,0.007609890481829642,-0.014978300357982515,-0.004013656088151038
1772709205960024800,5.25902490234375,0.012837269741296767,-0.012599296266958116,-0.001821808599680662
1772709205970049500,5.269049560546875,0.026140987950563428,-0.028093510257825253,0.020268077329173684
1772709205980074800,5.27907470703125,0.041971594288945195,-0.01317746148109436,-0.003028444443084299
1772709205990099700,5.289099609375,0.04912964935004711,0.011090791400149465,-0.0047996918993070715
1772709206000123600,5.29912353515625,0.009346505016088484,-0.0003389496307820081,-0.007774214198067784
1772709206010148900,5.30914892578125,-0.015297522374987601,-0.01961260909512639,0.024527926730737087
1772709206020173800,5.319173828125,0.025686814442276953,-0.018931933354586362,0.03853679753467441
1772709206030198800,5.32919873046875,0.027286650854349136,-0.021996654687449334,-0.012238865456730126
1772709206040223500,5.339223388671875,0.01769698473215103,-0.007501973127946257,-0.015157127523608505
1772709206050248700,5.349248779296875,0.016356091517210007,-0.0229942143574357,-0.021156148742698132
1772709206060272600,5.359272705078125,0.030410335832834243,-0.029477877288311718,0.0007827478755265474
1772709206070297600,5.369297607421875,0.032041151905059816,-0.018650851390883325,0.00027297172248363493
1772709206080322800,5.37932275390625,0.02215221057534218,0.01036678797453642,0.010098346296697855
1772709206090347800,5.38934765625,0.028880057525634766,0.0007893237467855214,0.03138520874697715
1772709206100372700,5.399372802734375,0.026792145335674283,-0.021943317065015434,0.01876059537567198
1772709206110398200,5.409398193359375,0.035761049211025235,-0.005691854966059327,0.015057210813090204
1772709206120423400,5.41942333984375,0.028268647629022595,-0.016391674287244678,-0.001595963954553008
1772709206130447400,5.429447265625,0.006560673689842224,-0.0059172612197697155,0.009840900936909019
1772709206140472300,5.439472412109375,0.004022095122933387,-0.009141776224225759,0.0065484717953950165
1772709206150497500,5.44949755859375,0.017193126863241193,-0.023632220000028608,0.00023684096317738292
1772709206160522200,5.459522216796875,0.037231121763587,-0.03305675868839025,0.0025364596750587225
1772709206170547200,5.469547119140625,0.02899871546924114,-0.02958455253317952,0.005685973214544356
1772709206180572200,5.479572265625,0.03783259478807449,-0.020101634721085428,-0.0028561200834810734
1772709206190597400,5.489597412109375,0.017174422162771225,-0.021368878177925942,-0.00519102930445224
1772709206200621300,5.499621337890625,0.02226151616871357,-0.016354118755832314,0.00675648852288723
1772709206210646300,5.509646240234375,0.023915128594636917,-0.009714169284701347,0.00758252755086869
1772709206220671500,5.51967138671875,0.0210749367326498,-0.005179594594985246,0.005053776258230209
1772709206230696400,5.529696533203125,0.021377719071507453,-0.026896190232038496,0.005925773319788277
1772709206240721200,5.53972119140625,0.011055647021532057,-0.027590967563167212,-0.0015439780389890074
1772709206250746400,5.549746337890625,0.013739771538972854,-0.021944193847849965,-0.020714396324567494
1772709206260770300,5.559770263671875,0.020459435182809828,-0.0015423340711742638,0.0065143137974664565
1772709206270795300,5.569795166015625,0.020461188748478888,-0.005915069262683391,-0.006821991507150233
1772709206280820500,5.579820556640625,0.037078561550378794,-0.021136165400594473,0.0033387159686535596
1772709206290845400,5.589845458984375,0.05637479817271232,-0.0014992255818098783,0.012518339985236524
1772709206300870400,5.599870361328125,0.021370120286941525,-0.0017919979833066462,-0.007806435967236756
1772709206310895400,5.609895263671875,0.007168576455116271,-0.00805083918236196,-0.01337060943301767
1772709206320920300,5.61992041015625,0.01675531996786594,-0.01868139265961945,0.0033942090155556796
1772709206330944300,5.6299443359375,0.029158874467015265,-0.03053885758332908,0.011462656919844447
1772709206340969200,5.63996923828125,0.023311317482590674,-0.01474339562356472,0.0037426936596632
1772709206350994400,5.649994384765625,0.03437222520112991,-0.0047502632670104504,-0.000765139153599739
1772709206361019400,5.660019287109375,0.02210369525849819,-0.008981032704561949,0.011550152540206908
1772709206371044400,5.67004443359375,0.02239303359389305,-0.011812529803439975,0.006312580680288374
1772709206381069300,5.6800693359375,0.017136428239941597,-0.017450024233758448,0.00326641791742295
1772709206391094500,5.690094482421875,0.019070611172914503,-0.007481953253224491,-0.01350285751055926
1772709206401118200,5.7001181640625,0.03747311382591724,-0.008749196710065008,0.015189860749430954
1772709206411143400,5.710143310546875,0.017123568758368492,-0.011413009091839194,0.010124613249115646
1772709206421168400,5.72016845703125,0.016664134553074837,0.004029986168444156,0.016891440502926708
1772709206431193300,5.730193359375,0.021747136905789374,-0.019441709507629273,-0.002660159119963646
1772709206441218300,5.74021826171875,0.02998480389714241,-0.012443448118120431,-0.008255129582807422
1772709206451243500,5.750243408203125,0.03177811705470085,-0.011906783958151935,0.007716565726697444
1772709206461268500,5.7602685546875,0.027280221113562583,-0.004098521360009908,0.003363886942528188
1772709206471292200,5.770292236328125,0.02039572229683399,0.001050093574821949,-0.011634908214211464
1772709206481317400,5.7803173828125,0.031628479450941084,-0.013969707837328314,-0.006312105756253004
1772709206491342300,5.79034228515625,0.03926291985213756,-0.025481939519941807,-0.0024569281654432413
1772709206501367300,5.8003671875,0.035222120028734205,-0.021777020587399602,0.012902991921268403
1772709206511392300,5.810392333984375,0.01563011533021927,-0.010037409889698028,-0.010919343823380768
1772709206521417500,5.82041748046875,0.003962473890185356,-0.0049860447842627765,-0.002008307615108788
1772709206531442400,5.8304423828125,0.02208382151424885,-0.020543460204452274,0.007041260281018913
1772709206541466000,5.840466064453125,0.032252748829126356,-0.03655234571918845,-0.0020266104567795993
1772709206551491300,5.8504912109375,0.04568155472278595,0.010391191763430833,-0.0010796484628692268
1772709206561516300,5.860516357421875,0.009622399348020554,0.01403941207267344,0.00028707331307232376
1772709206571541200,5.870541259765625,-0.0008037175983190536,-0.024619988928362726,0.01747271098960191
1772709206581566200,5.880566162109375,0.043649172112345695,-0.03889014101698995,0.027944311045482752
1772709206591591400,5.89059130859375,0.035218612897396084,-0.028355668325349685,0.004087488509342074
1772709206601616400,5.900616455078125,0.019042554122209548,-0.0009125117350369691,-0.03628247926924377
1772709206611640600,5.910640625,0.014139584511518477,-0.001485343186929822,-0.030159064485505222
1772709206621665300,5.920665283203125,0.039894203492999075,-0.028817952074855564,-0.010534838017821312
1772709206631690200,5.930690185546875,0.03672667937278747,-0.01345978555381298,0.012948840356990694
1772709206641715200,5.940715087890625,0.022515198668837545,0.0004069003004580736,0.00763451346643269
1772709206651740400,5.950740478515625,0.01879413231909275,-0.009373685283958912,0.009608115094341337
1772709206661765400,5.960765380859375,0.047669513669610024,-0.00754310885593295,0.010647869938239454
1772709206671789300,5.970789306640625,0.025070143848657606,-0.012227759540826081,-0.0006224062146618962
1772709206681814500,5.980814453125,0.02492576694190502,-0.0006350099679082632,0.007821049014478922
1772709206691839500,5.990839599609375,0.030170097336173055,-0.00411371892914176,0.008151230816915631
1772709206701864200,6.0008642578125,0.0011316343784332275,-0.017065043504163623,0.009478351234830915
1772709206711889200,6.01088916015625,0.006229834300279617,-0.02923551989980042,0.00462597930021584
1772709206721914400,6.020914306640625,0.015963877329230308,-0.02161182008832693,-0.0012361176662147044
1772709206731939300,6.030939208984375,0.03077858462333679,-0.012291764687746762,0.0007678790999576449
1772709206741963300,6.04096337890625,0.033029578420519824,-0.023088687707856295,-0.003218669785559177
1772709206751988500,6.050988525390625,0.03677811729907989,-0.0014746756624430418,-0.00005790419969707727
1772709206762013400,6.061013427734375,0.015247838014364242,-0.008175488475337623,0.00659183601308614
1772709206772038400,6.071038330078125,0.032465514796972274,-0.016338555860519407,0.0011904884262010453
1772709206782063400,6.0810634765625,0.04087035504877567,-0.01941913234964013,0.005554455789364874
1772709206792088300,6.09108837890625,0.03221007873117924,-0.012557795212790369,0.008575959035009146
1772709206802113300,6.10111328125,0.03715630296170711,-0.003969122826680541,-0.012822948954999447
1772709206812138200,6.11113818359375,0.02518938631415367,-0.022610110410675406,-0.016248137630708516
1772709206822162400,6.121162353515625,0.01068038396835327,-0.02464877663142979,-0.00790339353568852
1772709206832187400,6.1311875,0.03835632640123367,-0.003065159724280238,0.00045048371385782957
1772709206842212400,6.14121240234375,0.022354455149173735,-0.009610855040699242,0.006439494995586574
1772709206852237300,6.1512373046875,0.01891512835025787,-0.012086670569702982,0.0193642603572458
1772709206862262300,6.16126220703125,0.03299333806335926,0.010347571817412972,0.019922844088077544
1772709206872287200,6.171287353515625,0.022834347620606422,-0.012280585706606506,-0.008529599142633378
1772709206882311400,6.1813115234375,0.024784312644600865,-0.03638166532739997,0.0019200082771480083
1772709206892336400,6.19133642578125,0.04900573070943355,-0.011127835474908351,0.01110467379502952
1772709206902361300,6.201361328125,0.027149872732162475,-0.004467793063819408,-0.003873991889134049
1772709206912386300,6.21138623046875,0.01668926899433136,0.012618512424081563,-0.002398220248147845
1772709206922411500,6.22141162109375,0.019099837267398834,-0.003813055482134223,-0.0011262275509536265
1772709206932436200,6.231436279296875,0.02897650363743305,-0.005165639134868979,0.006933963981643318
1772709206942461200,6.241461181640625,0.020294015488028526,-0.0026897505406290293,0.009007482320070266
1772709206952485400,6.2514853515625,0.030322657549381255,-0.01486154211051762,0.010294891782104968
1772709206962510300,6.26151025390625,0.033332360759377476,-0.02365165535286069,0.026830102725885808
1772709206972535300,6.271535400390625,0.028381460353732107,-0.010917407594621181,0.02285520774554461
1772709206982560500,6.281560546875,0.01938274586200714,-0.018474033519253134,0.003631269174441695
1772709206992585500,6.29158544921875,0.024900632500648497,-0.01051964044868946,0.0004629778692498803
1772709207002610400,6.3016103515625,0.048076340904831885,-0.006429083199426531,0.005550327603518962
1772709207012635100,6.31163525390625,0.029807109242677685,-0.02053060072287917,-0.005527165923640132
1772709207022659300,6.321659423828125,0.022912673553824422,-0.016653393963351845,-0.01511990078575909
1772709207032684300,6.331684326171875,0.015282909327745437,-0.006451441161707043,-0.0009690276952460408
1772709207042709200,6.341709228515625,0.021429156997799872,-0.019169176176562903,0.005541925101354718
1772709207052734500,6.351734375,0.020689736807346343,-0.031922713157162066,-0.0003856017841026187
1772709207062759400,6.361759521484375,0.029060090267658233,-0.011645137347280978,0.0033696956288069486
1772709207072784400,6.371784423828125,0.012435118681192398,-0.004335544986277818,-0.002116005773283541
1772709207082809300,6.381809326171875,0.004492050722241401,0.0016187603082507848,-0.005875102578476071
1772709207092833300,6.391833251953125,0.02155775181353092,-0.0032328444413840768,-0.00020370587855577467
1772709207102858200,6.401858154296875,0.025747604718804357,-0.027351386653631925,0.012706409903243183
1772709207112882400,6.41188232421875,0.04400105428993702,-0.051148295696079725,-0.0013974091751500963
1772709207122907400,6.421907470703125,0.05416296734213829,0.006909048736095428,-0.002619936707429588
1772709207132932400,6.431932373046875,0.010175357055664061,0.008504062842577695,-0.0105253030044958
1772709207142957600,6.44195751953125,-0.030194647255539893,-0.025142843758687375,0.017121522931754587
1772709207152982500,6.451982421875,0.04163257159292698,-0.02565634623877704,0.04745389815755188
1772709207163006500,6.46200634765625,0.04666530506312847,-0.026611747267469763,0.01408869457449764
1772709207173031700,6.47203173828125,0.008024901023507117,-0.023369696606323122,-0.015528298923559485
1772709207183056400,6.482056396484375,0.008041852158308029,-0.00807392779700458,-0.020232969483174382
1772709207193081300,6.492081298828125,0.01970657098889351,-0.033305180491507054,0.0009391805462539196
1772709207203106300,6.502106201171875,0.0379237802028656,-0.005677534179762005,0.019237820965982973
1772709207213131500,6.512131591796875,0.02247837378978729,-0.00031016192771494386,0.006188223648257553
1772709207223156500,6.522156494140625,0.031015900510549543,-0.0014298136074095964,0.002912014989182353
1772709207233180400,6.532180419921875,0.038651509955525395,0.0009651187051087617,0.020492643332667648
1772709207243205600,6.54220556640625,0.026669980260729788,0.009380334220454097,0.004753441604785621
1772709207253230600,6.552230712890625,0.023832711008191107,-0.004864098905026913,-0.010604432655312121
1772709207263255300,6.56225537109375,0.026548399707674978,-0.007357011699303985,0.007354783209599554
1772709207273280300,6.5722802734375,0.017583002963662147,-0.013368307878077029,-0.0040959640767425295
1772709207283305500,6.582305419921875,0.00784486828148365,-0.022645620115473865,0.0036992929093539713
1772709207293330400,6.592330322265625,0.022797522741556168,-0.02085201469697058,-0.005428966246172786
1772709207303354600,6.602354736328125,0.04986380884349346,-0.023808453349769113,0.012046850015968084
1772709207313379600,6.612379638671875,0.03982406086623668,-0.03050174044333398,0.016884974229522048
1772709207323404500,6.622404541015625,0.024986557218432424,-0.01298033147379756,0.009909911052510142
1772709207333429500,6.632429443359375,0.007459083834290504,-0.014077113734558224,0.01091780945342034
1772709207343454500,6.642454345703125,0.024207389539480206,-0.008007146171107888,0.0018436916379258035
1772709207353479400,6.6524794921875,0.04334522072970867,-0.015364742392301558,0.014015885066613554
1772709207363504400,6.66250439453125,0.02941781766414642,-0.020680238326638935,0.007101539100892841
1772709207373528600,6.672528564453125,0.02791734997332096,-0.017429273706674575,-0.010760207738913594
1772709207383553500,6.682553466796875,0.016248539489507673,-0.020627996682748197,0.008175671138428152
1772709207393578500,6.69257861328125,0.0054845688909292215,-0.019725714080780745,0.0007221037294715643
1772709207403603500,6.702603515625,0.010270049601793289,-0.025010449550673365,0.005725866833515465
1772709207413628700,6.712628662109375,0.02313888352513313,-0.022493644424155353,0.01188994242120534
1772709207423653400,6.7226533203125,0.030775077491998672,-0.013474763927236198,0.012530688010156154
1772709207433678300,6.73267822265625,0.028074001839756963,0.0012573065847158432,0.005382789016887545
1772709207443702500,6.74270263671875,0.009057751202583312,-0.019057605560868978,0.008307736552879214
1772709207453727500,6.7527275390625,-0.008314239358901977,-0.047164559822157025,-0.0073067062841728325
1772709207463752400,6.76275244140625,0.02278992395699024,-0.0295587605047971,0.0005232932217419147
1772709207473777400,6.77277734375,0.02304652906656265,-0.016574775769189,-0.004718699084967374
1772709207483802600,6.782802734375,0.03572363981008529,-0.017727014544233678,-0.004913965928740799
1772709207493827600,6.79282763671875,0.016249124011397362,-0.01864690586812794,0.006564253886416554
1772709207503852300,6.802852294921875,0.019369886380434034,-0.005023965641856193,0.0051436830313876265
1772709207522021600,6.821021728515625,0.019599603483080864,-0.005710048209875822,0.02341660448797047
1772709207532046600,6.831046630859375,0.013151157996058463,-0.02244176810644567,0.014624701147340238
1772709207542071600,6.841071533203125,0.02166238123178482,-0.033058731449767946,0.00048599341865628953
1772709207552096300,6.85109619140625,0.05274725532531738,-0.022657018292322754,0.0018561857933178543
1772709207562120400,6.861120361328125,0.018729834911227226,-0.014135931249707936,-0.006877411488816142
1772709207572145400,6.8711455078125,0.004625321713089943,-0.007113850593194365,0.007447064602933823
1772709207582170400,6.88117041015625,0.014925766453146933,-0.015590002515539526,-0.008967917494662105
1772709207592195600,6.891195556640625,0.019835750326514242,-0.012441183095797895,-0.0021727409292012453
1772709207602220500,6.901220458984375,0.025499767437577245,0.004314648328721523,-0.0029989991528913376
1772709207612245500,6.91124560546875,0.025032149925827977,-0.011602905640751122,-0.002701550576277077
1772709207622270500,6.9212705078125,0.01469020413160324,-0.014940306435152888,0.014401121524535118
1772709207632294400,6.93129443359375,0.02454056701660156,-0.02223163248710334,0.005861037520505487
1772709207642319400,6.9413193359375,0.020906594428420064,-0.01170205516628921,0.007623809409327805
1772709207652344600,6.951344482421875,0.03358078256249428,-0.016381591284647584,0.00751556326188147
1772709207662369500,6.96136962890625,0.01870996116697788,-0.017998598027229307,0.019107618715055286
1772709207672394500,6.97139453125,0.011915478721261023,-0.009459317740797996,-0.0033773309459909796
1772709207682419500,6.98141943359375,0.019190438160300253,0.0035683600060641765,0.0023600071296095847
1772709207692444700,6.991444580078125,0.015565233400464057,-0.015950214130058885,-0.003925758608989418
1772709207702468400,7.00146826171875,0.03259001795947552,-0.029967560501396654,0.006035444239340722
1772709207712493300,7.011493408203125,0.05694938319027423,-0.007337795542180538,-0.0009879881240427494
1772709207722518500,7.0215185546875,0.029104513931274414,0.0006670125413686036,-0.000924750162102282
1772709207732543500,7.03154345703125,0.0057423430442810055,-0.028098040302470324,0.01436225081887096
1772709207742568400,7.041568359375,0.016762334230542183,-0.03300393252260983,0.026772344656661153
1772709207752593400,7.051593505859375,0.015194062000513075,-0.01787109919004142,0.008051971693523228
1772709207762618600,7.06161865234375,0.008853753063082694,-0.00737352444268763,-0.029110614878498017
1772709207772643600,7.0716435546875,0.02213993561565876,-0.028597660387679934,-0.04797627806384116
1772709207782667500,7.08166748046875,0.035706688675284384,-0.026122137119621035,-0.012666954675689339
1772709207792692500,7.0916923828125,0.028897593182325362,-0.011506605659425259,0.006048559449240565
1772709207802717400,7.101717529296875,0.022696400454640386,-0.00273066707290709,0.007215155543200671
1772709207812742400,7.111742431640625,0.024620061993598938,0.008015767868980764,0.014040252322889864
1772709207822767600,7.121767578125,0.028650924944877622,-0.005891542256623506,0.010942213242314756
1772709207832792600,7.13179248046875,0.02981996872425079,-0.00614843962714076,0.009543233164586126
1772709207842817500,7.141817626953125,0.02273848603069782,-0.008302183594927192,0.0004785042319446802
1772709207853469400,7.152469482421875,0.021048633247613906,-0.004964125213399529,-0.0061263739258050915
1772709207863494400,7.162494384765625,0.013382044142484664,-0.012313611193373798,-0.005012677062861621
1772709207873519400,7.172519287109375,0.020317980885505675,0.045910687303543085,0.03227795633561909
1772709207883543600,7.18254345703125,0.21946225061416624,0.08214856024608015,-0.012184029996953904
1772709207893568500,7.192568603515625,0.34962066240012646,-0.029155367335677144,-0.06205152863487601
1772709207903593500,7.202593505859375,-0.08231587963700294,-0.16558153427951036,0.14715853682775049
1772709207913618700,7.21261865234375,-0.5371557428777217,-0.17452493838742375,0.059991600430384276
1772709207923643400,7.222643310546875,-0.30551380964815616,0.14929719282425938,-0.09450253998246043
1772709207933668400,7.23266845703125,0.19825170480310916,0.1345485365036875,-0.05720496538653969
1772709207943693300,7.242693359375,0.4232674978911876,-0.16053718343675136,0.01336702923644334
1772709207953718500,7.252718505859375,0.23955109891891477,-0.14088007761277258,0.06596252806615084
1772709207963742500,7.262742431640625,-0.08458557813465595,0.0423746951971203,-0.014132570248842239
1772709207973767400,7.272767333984375,-0.2381038227200508,0.0915440189704299,-0.04542747036386281
1772709207983792600,7.282792724609375,-0.08754267437458038,0.023119521237537265,0.011419475365243851
