time,seconds_elapsed,z,y,x
1772708525570220000,0.061219970703125,0.44530046600103373,-0.04579992040544748,-0.016812091656401754
1772708525580246000,0.07124609375,0.536116462957859,-0.1254942193672061,0.17465331400744616
1772708525590271000,0.08127099609375,0.6885439896970987,-0.2273597258657217,0.38113194521218535
1772708525600297000,0.091296875,0.8035065859168767,-0.33836890828460453,0.5095213745642453
1772708525610323000,0.101322998046875,0.8882330338269472,-0.34420974326729775,0.4922369892209768
1772708525620349000,0.111348876953125,0.8593646667391062,-0.2850327471554279,0.403640933335945
1772708525630374000,0.121373779296875,0.7414683551549911,-0.2617988788232207,0.325261735560745
1772708525640400000,0.13139990234375,0.7338754158079623,-0.22793197279572486,0.2996822539504617
1772708525650425900,0.14142578125,0.7339069799900054,-0.13621376630216836,0.28231771604306993
1772708525660451800,0.151451904296875,0.9155465726882219,-0.013840893825888633,0.3439597870942205
1772708525670476800,0.161476806640625,1.0930243695318698,0.04139934735894203,0.4572619758211076
1772708525680502800,0.171502685546875,1.3420827169865368,0.11563976482897996,0.5168371774703264
1772708525690528800,0.18152880859375,1.5299012905806302,0.07967004130333662,0.3672933894738555
1772708525700554800,0.1915546875,1.0029133059740065,-0.20318039337694643,0.30998920149654147
1772708525710580000,0.201580078125,0.46617023555040354,-0.4230658378392458,-0.28830153969302774
1772708525720606000,0.21160595703125,0.24959610759317874,-0.3133285750523209,-0.6600451135087758
1772708525730632000,0.2216318359375,0.11996551907360553,0.09126637107282877,-0.9200375274319201
1772708525740657000,0.231656982421875,-0.17989479485750198,0.645500966784358,-1.2494848050490022
1772708525750683000,0.241682861328125,-0.8753782284289598,1.0654098018974065,-1.3682947243466972
1772708525760708900,0.251708984375,-1.5269821882635355,0.9772460730150342,-1.5055508393086492
1772708525770735000,0.261735107421875,-1.8136948513299225,0.48857145245075223,-1.5536675122238695
1772708525780759800,0.271759765625,-1.7626649213165044,-0.1394847507968545,-1.4909459753729402
1772708525790786000,0.2817861328125,-1.493089855533838,-0.7812859862804412,-1.3755652998715637
1772708525800812000,0.29181201171875,-1.148866083741188,-1.2790803173676133,-1.3503178997598588
1772708525810838000,0.301838134765625,-0.689404990440607,-1.488632876124978,-1.4654942848607897
1772708525820863000,0.311863037109375,-0.27065233962535856,-1.6126123070150613,-1.6480319954425096
1772708525830889000,0.321888916015625,0.04301204325258732,-1.4147516473561526,-2.066611335517466
1772708525840915000,0.3319150390625,0.28850831431150437,-1.2635706135466693,-2.3930723638653753
1772708525850941000,0.34194091796875,0.6032961482614279,-1.4513748663544654,-1.9836919370293615
1772708525860966000,0.3519658203125,0.9919254634916782,-1.406246269339323,-1.4590291804999111
1772708525870992000,0.361991943359375,1.3735896158844232,-1.0831553019464015,-0.8749196710065007
1772708525881017900,0.372017822265625,1.8571341800838708,-0.7036544650673866,-0.5481318949222564
1772708525891043800,0.3820439453125,2.5914585087031123,-0.2694865107163787,-0.8929550939127803
1772708525901068800,0.39206884765625,3.0096669696390626,-0.42623920717835423,-0.4464981513530016
1772708525911094800,0.4020947265625,4.010836062294245,-0.3887020882055163,0.02696837868541479
1772708525921120800,0.412120849609375,5.080050517171621,0.017626549844443798,-0.38675796840041876
1772708525931146800,0.422146728515625,5.406255817192792,0.5839055113539099,-0.9421633614569902
1772708525941172000,0.432171875,4.581595384088159,0.34091420885324475,-1.0120862079888582
1772708525951198000,0.442197998046875,3.17547127982378,0.445943440079689,-0.9001455899387597
1772708525961224000,0.452223876953125,2.66113936317265,0.9082765816852449,-1.1814724683135747
1772708525971249000,0.462248779296875,2.9338346068024634,1.5957576183259485,-1.6625214163050055
1772708525981275000,0.47227490234375,2.3086820160418746,2.707206994603574,-1.485027545109391
1772708525991300900,0.48230078125,4.045663045525551,3.0590193218290804,-1.7891510694429278
1772708526001326800,0.492326904296875,4.903694417834282,2.3851962236627937,-1.8600819239735602
1772708526011351800,0.502351806640625,4.710366140908002,0.9971312154412268,-0.41332478054761884
1772708526021377800,0.512377685546875,4.5099540432006116,-0.16281418845802545,1.0537930138617753
1772708526031404000,0.522404052734375,4.166021363309025,-0.12197072141617536,0.9290496128618717
1772708526041430000,0.532429931640625,3.1363889772355553,-0.36566228114068505,0.4587064755409956
1772708526051455000,0.542455078125,3.2879426437497137,-0.7280299046501517,0.2712014979407191
1772708526061481000,0.55248095703125,3.1162282327383757,-0.657597355030477,0.24153759656101464
1772708526071507000,0.5625068359375,1.9752000030159949,-1.1975731237649916,-0.18167305657640098
1772708526081533000,0.572532958984375,0.337868265286088,-1.642265248609334,0.7380722829759121
1772708526091558000,0.582557861328125,-3.4177994422405957,-2.960559532120824,1.73500081545189
1772708526101584000,0.592583984375,-7.1295181179255245,-2.663506676825881,1.1987548808954656
1772708526111609900,0.60260986328125,-9.965185195964574,-1.2451561281949282,-0.029812516070157287
1772708526121635800,0.6126357421875,-11.351560059142113,0.6438404862262308,-0.38057080419808625
1772708526131661000,0.6226611328125,-12.940310429054499,2.013577226074785,-0.14268325457721948
1772708526141687000,0.63268701171875,-13.805469461286068,3.5156250256985424,-0.8474784141123294
1772708526151712800,0.642712646484375,-14.95790580472946,4.237005701592564,-1.3031798626184463
1772708526161738800,0.65273876953125,-16.5672605712533,3.388701358050108,-1.1064623816452919
1772708526171764000,0.662763916015625,-17.055298939740656,2.429429625403881,-1.3657697359137235
1772708526181790000,0.6727900390625,-16.75429822360277,1.63768975738734,-1.2639717416934668
1772708526191816000,0.68281591796875,-16.168777970528602,0.6709378981187939,-0.5086508753400296
1772708526201841000,0.6928408203125,-15.658502051270007,-0.08578735513985157,-0.18116554544568061
1772708526211867000,0.702866943359375,-15.124807847023009,-0.943446971526742,-0.17391524552386253
1772708526221892900,0.712892822265625,-13.754887275040149,-1.8441475649997592,-0.01909516109228134
1772708526231918800,0.7229189453125,-12.249682618820666,-2.6387866615891453,-0.11704769539814441
1772708526241943800,0.73294384765625,-11.36693064675331,-3.2643256213188168,-0.39727044845595955
1772708526251969800,0.7429697265625,-10.181897855609655,-3.275519215506315,-0.7611889546692371
1772708526261996000,0.75299609375,-7.822439007532596,-3.1545629318296906,-1.0820539165757597
1772708526272022000,0.76302197265625,-4.66145159561336,-3.071685326656699,-0.8074835267238318
1772708526282047000,0.773046875,-1.5800766495913265,-3.0354736110687255,-0.14697225700803102
1772708526292073000,0.783072998046875,0.9695049573689699,-2.8873411511749025,0.5415590558705851
1772708526302099000,0.793098876953125,3.0102216809123754,-2.5297826815128324,0.9682830143585801
1772708526312125000,0.803125,4.666768991243839,-1.8092378719210624,0.3325836028814316
1772708526322150000,0.81314990234375,5.923049155521393,-0.8094789383247494,-0.6115203712493181
1772708526332176000,0.82317578125,6.814017751792073,0.5053144974589348,-0.9273417860306798
1772708526342201900,0.833201904296875,7.287053781458735,1.663936251538992,-0.7001023255437612
1772708526352227800,0.843227783203125,7.158292376989126,3.010180764380097,-0.6286759425811469
1772708526362253000,0.853253173828125,6.879954159036278,4.286359515087306,0.18725114896968006
1772708526372279000,0.863279052734375,7.012717784884572,4.530690249498188,1.7563139448545873
1772708526382305000,0.873304931640625,7.7622449433326715,3.8268367547273634,2.8447897111713885
1772708526392330000,0.883330078125,8.770572091048955,3.0290234120160338,3.413476902866363
1772708526402356000,0.89335595703125,9.870084653556347,2.331954316688329,3.7739024523973463
1772708526412382000,0.9033818359375,10.83130401313901,1.9233087799981234,3.907025559207797
1772708526422408000,0.913407958984375,11.336593960678577,2.066817525614053,3.7997044176518915
1772708526432433000,0.923432861328125,11.591857007992267,2.4529700754672286,3.53720732743144
1772708526442459000,0.933458984375,11.706423298370838,2.9156536379456517,3.1280595403075218
1772708526452484900,0.94348486328125,11.494253542852402,3.427929206588864,2.8199644819945093
1772708526462510800,0.9535107421875,11.116152051377297,3.483051958873868,3.0159470728218554
1772708526472535800,0.963535888671875,10.279897626590728,2.9327576252207157,3.791085057866573
1772708526482561800,0.973561767578125,8.142966261917353,1.74502083581537,4.91684616035223
1772708526492587800,0.983587890625,8.069514656737447,0.5865919739589095,5.074040463101864
1772708526502613800,0.99361376953125,8.297719601255654,0.08121887818053364,4.705323470565676
1772708526512638700,1.003638671875,8.295794770672916,-0.025805472385883328,4.011754930704832
1772708526522664700,1.013664794921875,7.498899127328396,-0.3019106705896556,3.283872617831826
1772708526532690700,1.023690673828125,5.825535122230649,-0.6826309662610291,3.1665088056892157
1772708526542716000,1.0337158203125,4.417954973939061,-0.8125581996396184,2.905910827088356
1772708526552742000,1.043741943359375,3.1972569951742886,-0.5572577429249882,2.462541036888957
1772708526562768000,1.053767822265625,1.798669716155529,-0.8181918216124177,2.091808759007603
1772708526572793600,1.063793701171875,1.5931950743615626,-0.4306599462300539,2.2642715041682124
1772708526582818800,1.07381884765625,2.495980365154147,0.21301723919324575,2.5659245467349887
1772708526592844800,1.0838447265625,3.3087808491170403,0.6487579958189278,2.6629028657138347
1772708526602870800,1.093870849609375,3.752110891827941,0.8453037004217505,2.464592708721757
1772708526612896800,1.103896728515625,3.712456342309713,0.9973491690408438,2.0561014858104287
1772708526622921700,1.113921630859375,3.6007167997896667,1.4420646016955374,1.6636773083418608
1772708526632947700,1.12394775390625,3.642832186463475,2.0350937690950928,1.1269288310907781
1772708526642974000,1.133973876953125,3.482756775319576,2.5241636725872754,0.39750615690797564
1772708526653000000,1.144,2.5018226614415644,3.2194320021033285,-0.3988851901762187
1772708526663025000,1.15402490234375,1.0358604668080806,3.8719904861837624,-0.8807087758019566
1772708526673051000,1.16405078125,-0.48816053356230255,4.43969246623367,-1.0678343986958265
1772708526683076900,1.174076904296875,-0.9997311688065529,4.6367426862925285,-1.004580508533865
1772708526693101800,1.184101806640625,-0.1276221713066101,4.551751157705485,-1.1658129807583988
1772708526703127800,1.1941279296875,1.527902225717902,4.161497748404741,-1.6143389846771954
1772708526713153800,1.20415380859375,2.3464731097757814,3.101580698704719,-1.938460756422579
1772708526723179800,1.2141796875,0.6913543709427118,0.31979747880548237,-0.9496343549247831
1772708526733204700,1.224204833984375,-3.0042016899704933,-4.960190212038159,1.8854469591155647
1772708526743230700,1.234230712890625,-5.31890369695425,-8.653267900139094,3.071063979887962
1772708526753256700,1.244256591796875,-5.744603974950313,-7.780950812846422,0.5100459098950028
1772708526763282700,1.25428271484375,-8.14207603507936,-7.386773215839266,-0.4788162570359185
1772708526773308000,1.264307861328125,-12.669095779371261,-6.122929922831058,-0.030638189771957695
1772708526783334000,1.274333984375,-16.07426195001006,-1.6830419340252876,-0.19157958836173639
1772708526793360000,1.28435986328125,-17.83792465019226,0.7439706933647394,-0.43384884193185713
1772708526803385900,1.2943857421875,-20.369421149885653,1.2430045031189918,0.5105773498905822
1772708526813410800,1.304410888671875,-23.667642026543614,-0.27262013256698847,3.9298537693485613
1772708526823436800,1.314436767578125,-27.24124753204584,-3.9360061544984575,3.404954865975678
1772708526833462800,1.324462890625,-29.6812312846899,-7.441445301747321,-1.3119319088727235
1772708526843487700,1.33448779296875,-28.301864838969706,-7.997494545665383,-7.567402754712105
1772708526853513700,1.344513671875,-24.707190826475617,-7.309950088399648,-11.133750836431979
1772708526863539700,1.354539794921875,-19.031553420245647,-6.970023721539974,-9.95250925426483
1772708526873566000,1.36456591796875,-11.489897685730456,-6.234064485195279,-6.779379569131136
1772708526883590700,1.374590576171875,-4.040734941473603,-5.26543455709517,-3.3120039028167723
1772708526893616600,1.38461669921875,1.0165841039299965,-3.7579321453273296,-0.9404597724094986
1772708526903643000,1.394642822265625,4.28583899834454,-2.3388903995618224,-0.10657879875600337
1772708526913668900,1.4046689453125,6.6041194483369585,-0.8951771538764238,0.3416910384446382
1772708526923693800,1.41469384765625,8.194742626383901,0.5193364469401538,0.7919821523398161
1772708526933719800,1.4247197265625,8.98914177673757,1.7147615988910196,1.1611685159534215
1772708526943745800,1.434745849609375,9.14056158773899,2.286242951349169,1.5727996443256735
1772708526953770800,1.444770751953125,9.267193578964472,2.704476400595903,2.242697678002715
1772708526963796700,1.454796630859375,9.563458498752116,2.9049750075429674,3.2201611931607124
1772708526973822700,1.46482275390625,10.277419253778458,3.097843850263953,3.9524055006355043
1772708526983848700,1.4748486328125,11.065050809693336,3.6282957115888594,4.465053409722447
1772708526993874000,1.4848740234375,11.497530372565985,4.129379147349297,4.962453480795025
1772708527003900000,1.49489990234375,11.364753887236118,4.502151260495186,5.20180058157444
1772708527013926000,1.50492578125,10.932259126794337,4.288559363219142,4.9557916848182675
1772708527023952000,1.514951904296875,10.186039777719975,3.555876079805195,4.583850177277625
1772708527033976800,1.524976806640625,9.41367242643237,2.942436430931091,4.260813278159499
1772708527044002800,1.5350029296875,8.689232947489618,2.463564534717798,3.7588621196538208
1772708527054028800,1.54502880859375,8.077426160514355,1.732183127682656,3.546216855578124
1772708527064053800,1.5550537109375,7.70059074345231,0.9957172569900751,3.7095965689644217
1772708527074079700,1.565079833984375,7.485325360006094,0.49598655101284383,3.8090643666714428
1772708527084105700,1.575105712890625,7.43066905618906,0.1495889423124492,3.7467061101749537
1772708527094131700,1.585131591796875,7.549889309853315,-0.16339549547731874,3.500782261353731
1772708527104156700,1.59515673828125,7.7441978299885985,-0.40072555734589693,3.3799382058799265
1772708527114182700,1.6051826171875,7.886143710201978,-0.4417667389169335,3.1473160294413565
1772708527124208600,1.615208740234375,7.835073448178171,-0.5711680487252772,2.3565355079762638
1772708527134235000,1.62523486328125,7.620821625688672,-0.7509405323773622,1.7263805788837372
1772708527144259600,1.635259521484375,7.487544789621234,-0.6897830299727619,1.4845219336748123
1772708527154285800,1.645285888671875,7.469867678633332,-0.5363881195060909,1.3423236861355603
1772708527164311800,1.655311767578125,7.345890585830808,-0.23791019984409212,1.1829589074790476
1772708527174337000,1.6653369140625,7.146270515283942,0.3576492166854441,1.0862969609729944
1772708527184363000,1.675363037109375,6.848037510293722,0.9440094277150929,0.8013853559792041
1772708527194389000,1.685388916015625,6.546785449743271,1.3398368377558887,0.5463100863225758
1772708527204414700,1.695414794921875,6.021195641496777,1.7357967881351708,0.3553980767577886
1772708527214440000,1.70543994140625,5.204247974726558,2.276034422676265,-0.20807152641937135
1772708527224466000,1.7154658203125,3.8311803368896244,2.68078777423352,-1.175453646415472
1772708527234492000,1.725491943359375,2.1236703165620563,2.84068344489634,-1.7449787502393126
1772708527244518000,1.735517822265625,0.5613800835520029,3.0525825667798516,-1.8029742814816534
1772708527254542800,1.74554296875,-0.795484607502818,3.257022020307183,-1.6416713743694125
1772708527264568800,1.75556884765625,-1.8390122479379176,3.4467701006591316,-1.9352811034731565
1772708527274594800,1.7655947265625,-3.064212214297056,3.4718215398073196,-2.6134248413175345
1772708527284619800,1.775619873046875,-4.741139464834332,3.2866061344489452,-3.395517467805743
1772708527294645800,1.785645751953125,-6.874408215346932,3.268820302389562,-4.166355125308036
1772708527304671700,1.795671630859375,-9.738262692472338,2.817911933378875,-4.47914740152657
1772708527314697700,1.80569775390625,-12.152196058058738,0.3316200185462832,-3.150445851899683
1772708527324722700,1.81572265625,-13.62754099806547,-3.93894863769114,-0.3257777222588658
1772708527334748700,1.825748779296875,-12.926666519105433,-6.988360173219442,1.510128668618202
1772708527344774700,1.835774658203125,-12.107919693958758,-7.060477314925193,1.5591699090324342
1772708527354800600,1.845800537109375,-14.881957706558703,-7.501326062214374,2.354246520256251
1772708527364825600,1.85582568359375,-16.48857691063881,-5.530439830744267,1.063134038985148
1772708527374851600,1.8658515625,-14.895144520390033,-2.4838921602144834,-2.743315249817073
1772708527384877600,1.875877685546875,-13.907141198778152,-3.025970161925256,-3.5598756708353756
1772708527394902800,1.88590283203125,-15.008911184823512,-5.608252553743124,-0.7114888119548559
1772708527404928800,1.8959287109375,-17.410121262437105,-9.366346027112007,1.6769338264085352
1772708527414955000,1.905955078125,-18.41226884473562,-12.902960649347305,0.00010974398478865623
1772708527424981000,1.91598095703125,-15.252103855115175,-13.535380600762366,-6.3019344908505674
1772708527435006000,1.926005859375,-10.913519355010985,-11.45007654747367,-10.584340007615088
1772708527445032200,1.9360322265625,-7.611682625943422,-8.814418247038125,-8.631056652852893
1772708527455058200,1.94605810546875,-4.277888916122913,-6.281263458743691,-5.122654564145207
1772708527465084200,1.956084228515625,-0.582829114294052,-3.455971059724688,-2.5848078186422585
1772708527475109000,1.966109130859375,2.0047101751387117,-0.8345949671417474,-0.7670666145309806
1772708527485135000,1.976135009765625,3.950003115668893,1.214101941500604,1.449930220504105
1772708527495161000,1.9861611328125,5.307026212155819,3.282945858375728,3.2890772007375952
1772708527505186000,1.99618603515625,5.601801770168542,4.971251704278588,3.435970766486227
1772708527515212000,2.0062119140625,5.114799758991599,5.057534733980893,2.9145737337544557
1772708527525238000,2.016238037109375,4.4093993270397185,3.6516622663900256,2.8330905055493116
1772708527535264000,2.026263916015625,3.841327052372694,1.7816791261270641,3.4410695509299636
1772708527545289000,2.0362890625,4.696297868067026,0.6969752795644104,4.3427533102214335
1772708527555315000,2.04631494140625,6.803457779332995,0.8690371888391673,4.6751828915849325
1772708527565341000,2.0563408203125,9.201720113056897,1.8246106514893472,4.850542088839411
1772708527575367000,2.066366943359375,11.23300499138832,2.924629556083679,5.044377146244049
1772708527585391900,2.076391845703125,12.252919701045752,3.8262007949113843,5.236730440658331
1772708527595417900,2.08641796875,12.508036617887019,4.8689796628057955,5.3448178904116155
1772708527605443800,2.09644384765625,12.570524345982074,5.666131911259889,5.23029660821855
1772708527615469000,2.106468994140625,11.948064647567271,5.330817422109842,5.006079856553673
1772708527625495000,2.1164951171875,10.607419269907474,3.932219621697068,5.270032406279444
1772708527635521000,2.12652099609375,7.150866610902548,1.8787826789207756,6.315791166767478
1772708527645547000,2.136547119140625,6.474062743359804,0.8259624556139111,6.46709407339096
1772708527655572000,2.146572021484375,7.048834807926416,0.7947982326738536,6.36703795440197
1772708527665598000,2.156597900390625,7.151935116916895,1.0145844545453786,6.088363636362552
1772708527675624000,2.1666240234375,6.866316678828,0.5332235179953276,5.862249526643753
1772708527685649000,2.17664892578125,6.406409010803699,-0.3066885525159538,6.015196108821034
1772708527695675000,2.1866748046875,6.530046496388316,-0.7532906026348472,5.719100115859508
1772708527705701000,2.196701171875,7.150402500522136,-0.9782156486995518,5.116660292166471
1772708527715727000,2.20672705078125,7.4761775924324985,-0.8767071389451623,4.306237643250823
1772708527725752000,2.216751953125,7.027103453111648,-0.6749833741173148,3.331948374214768
1772708527735778000,2.226778076171875,6.087108667865396,-0.5167045640666037,2.495156189289689
1772708527745804000,2.236803955078125,5.33761015098989,-0.25969796102121473,1.4771505281239747
1772708527755829000,2.2468291015625,4.748000582775473,0.11165953608639538,0.6320227687910199
1772708527765855000,2.25685498046875,4.24514633795023,0.5672969794455915,-0.02127455095797777
1772708527775881000,2.266880859375,3.909063787037134,0.810047166666761,-0.5767392729863524
1772708527785907000,2.276906982421875,3.9088106890588996,0.8180521208807826,-0.9368085564255714
1772708527795932200,2.28693212890625,3.9905461384594436,0.8245260661352425,-0.926764424534142
1772708527805958100,2.296958251953125,3.940367856839299,1.1318083467606455,-0.33365561602711674
1772708527815984000,2.306984130859375,3.6286440866351124,1.6202864949047564,0.5512424281582236
1772708527826010000,2.317010009765625,3.4843203713744875,1.9888912592381238,1.122235850968957
1772708527836035000,2.32703515625,3.384222751331329,2.378011280594766,1.139171788200736
1772708527846061000,2.33706103515625,3.331495369750261,2.3014833367094396,0.3122615303426981
1772708527856087000,2.347087158203125,2.9678309844285247,1.7097389484234153,-1.088861112372577
1772708527866112000,2.357112060546875,1.9693577067285775,1.2143890878789125,-2.5217893446713684
1772708527876138000,2.367137939453125,0.4967869076102972,0.8814712846070527,-3.419331474113464
1772708527886164000,2.3771640625,-1.0138315903514623,0.3795505212396383,-3.959008552162349
1772708527896190000,2.38718994140625,-2.7078479228556156,0.2788812387883663,-4.091842905159294
1772708527906215000,2.39721484375,-5.088676891219616,-0.2023483264669776,-2.700236278808117
1772708527916241000,2.407240966796875,-7.257117492878437,-1.7538605603531001,-0.3909960443615913
1772708527926267000,2.417266845703125,-8.292477024427056,-3.382180724109709,-0.38355508070588107
1772708527936291800,2.427291748046875,-9.070389150360226,-5.578585145232081,-3.941725701189041
1772708527946317800,2.43731787109375,-14.304022209525108,-8.21790489078462,-8.243833112767339
1772708527956343800,2.44734375,-21.63981868684292,-3.431234093353152,-14.352328267532586
1772708527966370000,2.4573701171875,-29.201156442427635,0.7305695061303675,-14.982830987149477
1772708527976395000,2.46739501953125,-34.03260161660909,1.8512655803114175,-11.189880135411023
1772708527986421000,2.4774208984375,-34.84388292818069,2.1426957734189926,-1.6532959073200821
1772708527996447000,2.487447021484375,-33.98499815391302,0.03460691073983908,7.845784811806678
1772708528006473000,2.497472900390625,-31.920057674217222,-3.044801411384344,7.6692212071985
1772708528016498200,2.507498291015625,-28.410917918884753,-5.10707588674128,-0.11976780454441904
1772708528026524200,2.517524169921875,-23.34133385066986,-7.397589793407916,-4.15517731321156
1772708528036550100,2.527550048828125,-17.240945429992674,-8.675309051555395,-4.585723277673125
1772708528046575000,2.5375751953125,-12.185402746611834,-7.889336368763447,-5.30070168530941
1772708528056601000,2.54760107421875,-8.679170403158665,-7.9855182766675945,-4.568281729006767
1772708528066627000,2.557626953125,-5.162255337649584,-8.108594036716223,-3.9812981253817674
1772708528076653000,2.567653076171875,-2.235966323921084,-7.009664242532849,-4.136719865500926
1772708528086678000,2.577677978515625,-0.5129202962875365,-5.290554385304451,-4.410698134678602
1772708528096704000,2.5877041015625,0.4333066613465547,-3.827939163011312,-4.5948915035128595
1772708528106730000,2.59772998046875,1.024915878945589,-2.4216700973182914,-5.019862298190594
1772708528116755000,2.6077548828125,1.8618249682486057,-0.5145432213142513,-4.553545347645879
1772708528126781000,2.617781005859375,3.430256772753596,1.5385671198561788,-3.2552786837711927
1772708528136807000,2.627806884765625,5.226013231810927,4.0483693818747994,-1.893643855705112
1772708528146833000,2.6378330078125,6.75697367605567,5.928712003588676,-0.15251535115316509
1772708528156857900,2.64785791015625,8.059130625367164,6.964922599008679,2.0842307249687613
1772708528166883800,2.6578837890625,9.84832991786599,7.367449506688118,3.9299493386775253
1772708528176909800,2.667909912109375,12.228291455745696,7.587161932671069,4.8602159261137245
1772708528186935000,2.67793505859375,14.271408226168155,7.467441328269243,5.4056736333906645
1772708528196961000,2.6879609375,15.479939966320991,7.297364163070917,6.102991296651959
1772708528206987000,2.697987060546875,15.578919395989178,7.5392247079759835,6.358174848988652
1772708528217013200,2.70801318359375,15.346895769965649,7.644639723649621,6.162578042608499
1772708528227038000,2.718037841796875,15.200858821046351,7.757616699010133,5.43923454220891
1772708528237064000,2.72806396484375,13.542971202021837,7.618391768193245,4.273542703612149
1772708528247090200,2.738090087890625,11.269705951797961,6.683560064798593,4.10389983817786
1772708528257116200,2.7481162109375,9.62371101514101,6.253289410147071,4.766647415578365
1772708528267141000,2.75814111328125,10.343856011760234,6.2715428597182035,4.752113863313197
1772708528277167000,2.7681669921875,10.805984862965344,5.918645952126384,5.441214902371168
1772708528287193000,2.778193115234375,11.560528972792625,5.397245412263274,5.923858133816719
1772708528297218000,2.788218017578125,12.113009710574149,4.935398885130882,5.928264844343066
1772708528307244000,2.798244140625,12.6020686542809,4.53841675209701,5.3919677641212935
1772708528317270000,2.80827001953125,13.438455181014538,4.015076184082031,4.060574783453345
1772708528327296000,2.8182958984375,14.19288355550766,3.459565284824371,2.107299904258549
1772708528337321000,2.828321044921875,14.104641792953014,3.051702276813984,0.18778912830390035
1772708528347347000,2.838346923828125,13.031246837520598,3.053092854389548,-1.448774766858667
1772708528357373000,2.848373046875,11.3522182307899,3.1747499798119065,-1.9851659551046787
1772708528367398100,2.858398193359375,9.586556465744971,3.457399923484027,-1.921214584197849
1772708528377424100,2.868424072265625,8.224875898841024,4.305864133763313,-2.1155720580413937
1772708528387449900,2.878449951171875,7.41636463650465,4.966825120007991,-1.7367805384755133
1772708528397475800,2.888475830078125,6.868759395805001,5.116545141354203,-0.8615358002331107
1772708528407501000,2.8985009765625,6.347048474818468,4.7805046760171646,0.12113427059203385
1772708528417527000,2.908527099609375,6.243263690695167,4.2107329039558765,0.6951110931277275
1772708528427553000,2.918552978515625,6.184144562250375,3.7902898158356546,0.27972883206102994
1772708528437578500,2.92857861328125,5.707134368255734,3.4602430379554625,-0.6132658266771585
1772708528447604500,2.9386044921875,5.282611317345499,3.2956828826129434,-1.2504882830031216
1772708528457630500,2.94863037109375,5.249273111367225,3.183757169871032,-1.6213900722324848
1772708528467656400,2.958656494140625,5.069846518543362,2.9728818380773068,-1.8886038157112894
1772708528477681400,2.968681396484375,4.707391509011387,2.9016499547734855,-1.9724026273824273
1772708528487707400,2.978707275390625,4.3634757802546025,3.116887573429942,-2.0139942824430763
1772708528497733400,2.9887333984375,2.887286206117272,2.7771742647990583,-2.265129874563217
1772708528507759400,2.99875927734375,0.36723990572094917,1.7294046028800307,-2.322536207740754
1772708528517784300,3.008784423828125,-2.9046102658838033,0.833624076282978,-1.8273733942009507
1772708528527810300,3.018810302734375,-7.448276609072089,-0.36763898804113265,-0.6698418465103954
1772708528537836300,3.028836181640625,-12.51937517350316,-2.491899817842245,0.6907574279628693
1772708528547861200,3.038861328125,-16.13015744023323,-3.7783015641391273,1.049387253183499
1772708528557887200,3.04888720703125,-18.9683794634521,-3.208623315580189,-0.8014396434497087
1772708528567913200,3.058913330078125,-21.59245838525295,-2.5750164924681185,-2.6124542427197097
1772708528577939200,3.068939208984375,-22.690637068808076,1.0706177458040416,-6.611532354941963
1772708528587964400,3.07896435546875,-23.986882163727284,3.6707074508607387,-9.251164235183596
1772708528597990400,3.088990478515625,-26.06739196847677,2.0487590140931307,-8.31044581183791
1772708528608016400,3.099016357421875,-27.75772405951023,-1.895197514887899,-2.421187136106938
1772708528618041300,3.109041259765625,-28.182262307989596,-6.869421074584126,3.8899975597783922
1772708528628067600,3.119067626953125,-27.32767026247978,-10.665262387067079,1.8143528768472372
1772708528638093600,3.129093505859375,-24.302633874273297,-10.417778157061338,-6.33755116315484
1772708528648119600,3.13911962890625,-21.10373495711088,-9.688936059245467,-11.449514237415789
1772708528658144500,3.14914453125,-17.286193269473312,-10.589282724714279,-10.238936670649052
1772708528668170500,3.15917041015625,-11.904997074735164,-9.52111573306322,-7.300190910929441
1772708528678196500,3.169196533203125,-7.124258589962125,-7.75044227733612,-4.703844337923824
1772708528688221400,3.179221435546875,-3.7247926767915485,-5.418640082469582,-3.097115243728459
1772708528698247400,3.189247314453125,-1.4278513674259186,-2.7088030316233636,-1.828806203483045
1772708528708273400,3.1992734375,0.7315121938079595,-0.05356511104684323,0.19423750072568655
1772708528718299400,3.20929931640625,1.838004532200098,1.711993303221464,2.0542793849498033
1772708528728324400,3.219324462890625,2.3877099600493907,2.2541468543864784,3.1691435381069777
1772708528738350300,3.229350341796875,2.767961323034763,1.9363662683613596,3.929915728668868
1772708528748376300,3.239376220703125,3.3376082996726035,1.1155020857345312,4.508216844144464
1772708528758401300,3.2494013671875,4.058803097605705,0.2969526828560978,4.7455365307495
1772708528768427300,3.25942724609375,5.217604884427786,-0.10481686711739747,4.720738481840491
1772708528778453200,3.269453369140625,6.710359808918834,0.21966007474120705,4.112005110961198
1772708528788479200,3.279479248046875,8.158707436406612,1.0335643186949193,3.297548384223878
1772708528798504400,3.28950439453125,9.057968644726277,1.9867523475132882,2.506377548266947
1772708528808530400,3.299530517578125,9.051495064797997,2.970495819723606,1.7982769174456594
1772708528818556400,3.309556396484375,8.754777140545844,3.6691423935011027,1.6279378864407539
1772708528828581400,3.319581298828125,8.202638348069787,3.81870225584954,1.9816966715589164
1772708528838607400,3.329607421875,7.640304324793815,3.166119806371629,2.925229860064387
1772708528848633300,3.33963330078125,7.226893619528412,2.442809769850224,3.7255779819503423
1772708528858659300,3.349659423828125,7.1347174401342865,2.005246473972499,4.475885184860229
1772708528868684300,3.359684326171875,7.190685995593666,1.4925389436528085,5.284183681228757
1772708528878710300,3.369710205078125,7.361542912992834,0.840678890165314,5.864980997434258
1772708528888736500,3.379736572265625,7.514350378960371,0.04950177059806883,6.2900307025671
1772708528898761200,3.38976123046875,7.659576596018671,-0.6000054361529648,6.663802055883407
1772708528908787500,3.399787353515625,8.116592634254694,-0.9941661550905555,6.774473676910996
1772708528918813400,3.4098134765625,8.808148665249346,-1.336557377693802,6.4119456021428105
1772708528928839400,3.41983935546875,9.449640396392345,-1.5445349422194063,5.757738181811571
1772708528938864400,3.429864501953125,9.77294997497201,-1.175767680800706,4.737489417894184
1772708528948890400,3.439890380859375,9.532298221334814,-0.636323388594389,3.992171693834662
1772708528958916400,3.449916259765625,9.164779498672484,-0.10324600107148289,3.5155163046270608
1772708528968941600,3.459941650390625,8.68563053908348,0.48829263550937174,2.954754937495291
1772708528978967600,3.469967529296875,8.029137638163567,1.0074735996268689,2.3932772387877104
1772708528988993300,3.4799931640625,7.659702852746844,1.5729453364066779,2.1341978480562567
1772708528999019300,3.490019287109375,7.439828514200449,2.0079102863542735,1.9570883000031112
1772708529009044500,3.50004443359375,7.278099490630626,2.157508288756013,1.852941112308204
1772708529019070500,3.510070556640625,7.16438309507966,1.9783676732666788,2.0106810662418604
1772708529029096400,3.520096435546875,7.063304647305608,1.83182306708619,1.95074010002017
1772708529039121400,3.530121337890625,6.952402724653482,1.9461290990933775,1.3528265215799211
1772708529049147400,3.5401474609375,6.388693321371078,2.0813595534466205,0.5281131892442703
1772708529059173400,3.55017333984375,5.556686032634973,2.2793648822732266,-0.24314766210615635
1772708529069199400,3.560199462890625,4.164880376580357,2.7720073835551737,-1.2493342906624079
1772708529079224300,3.570224365234375,1.9225591306746004,3.2219735032796857,-2.2450950945332644
1772708529089250300,3.580250244140625,-0.6553472380161285,2.8013404455453155,-2.7045520961806178
1772708529099276300,3.5902763671875,-2.599161922687292,2.625730780661106,-3.2524536894783376
1772708529109301200,3.60030126953125,-4.501822174671292,3.1727620208650826,-3.773874687607586
1772708529119327200,3.6103271484375,-6.462528372910619,2.0800622071124613,-3.242780728986859
1772708529129353200,3.620353271484375,-8.94274067556858,-0.7021933064736425,-1.1468871848836542
1772708529139379200,3.630379150390625,-8.83456847014129,-4.724326569460332,3.0861212637662887
1772708529149404200,3.640404052734375,-5.348099980822205,-5.018371767371892,4.530682358452678
1772708529159430100,3.65043017578125,-3.6191233940958973,-2.5347344587013123,1.9961312934942543
1772708529169456400,3.660456298828125,-8.856533049190045,-3.7825107062667604,-0.6616217882409692
1772708529179481300,3.6704814453125,-16.422483851528167,-0.6309748671732842,-8.208298273527621
1772708529189507600,3.680507568359375,-23.438621673989296,2.195071857344359,-13.19941378518343
1772708529199533600,3.690533447265625,-26.056342166674135,0.4294955786257982,-12.655329119825362
1772708529209559600,3.7005595703125,-26.495643099999427,-6.586404343426227,-7.766419598668813
1772708529219584500,3.71058447265625,-27.088960875082016,-11.17703585140705,-5.025472539287805
1772708529229610500,3.720610595703125,-28.62896095035076,-12.255883227026462,-5.479931294256448
1772708529239636500,3.730636474609375,-28.744976855015754,-11.608533417505026,-5.745118354213237
1772708529249661400,3.740661376953125,-25.48726568340063,-8.71703690021634,-5.21692450094819
1772708529259687400,3.7506875,-19.39688427747488,-7.516388022267818,-2.1444681899189946
1772708529269713400,3.76071337890625,-12.50055824483037,-8.156933996993303,0.13687865995168685
1772708529279739400,3.770739501953125,-9.945747505044936,-7.128738950246572,-0.6770274471655487
1772708529289764400,3.780764404296875,-5.020014858403802,-6.31541298110485,0.38184827678799627
1772708529299790300,3.790790283203125,-3.158197488939762,-4.220377515135705,-0.1714841093868017
1772708529309816300,3.80081640625,0.0716641372412443,-3.064152300803363,0.3992150066524744
1772708529319841300,3.81084130859375,2.349339020600915,-0.829108936946094,0.17458733609914778
1772708529329867300,3.8208671875,2.7804022869348524,0.6071627605617046,0.9725058927506208
1772708529339893200,3.830893310546875,3.278479234355688,1.6645526298716664,2.5250790338665245
1772708529349919200,3.840919189453125,3.7083956687420603,2.7632740420013664,3.2333202422022818
1772708529359944400,3.8509443359375,4.271570234495401,2.5665602142900226,3.1996365837872025
1772708529369970400,3.860970458984375,5.246875987097621,1.7171218982815741,1.8923644834190605
1772708529379996400,3.870996337890625,6.614778789517283,1.1340277033105493,0.6870902837574482
1772708529390021400,3.881021484375,7.863390611124038,1.100384961427748,0.3142918671265244
1772708529400047400,3.89104736328125,8.34564104385972,1.6064264579869805,0.8152376479819416
1772708529410073300,3.9010732421875,8.3308894649297,2.587911629876494,2.116858298459649
1772708529420099300,3.911099365234375,8.025802356261014,4.286061116662621,3.26812442907989
1772708529430124300,3.921124267578125,7.914248691701888,5.650567262381315,4.433296919977665
1772708529440150300,3.931150390625,8.189622799152135,6.504840158939361,5.424345016112923
1772708529450176300,3.94117626953125,8.806245461976527,6.837175924539566,5.650497119754553
1772708529460201200,3.951201171875,9.393356199112533,6.693548959371447,5.2093280544698235
1772708529470227200,3.961227294921875,9.589678397157789,5.966801203486323,4.15005836276263
1772708529480253200,3.971253173828125,10.473965908229351,5.177917017161846,2.7293179963856935
1772708529490279200,3.981279052734375,11.783156993961333,4.631464161367714,1.5965030298657714
1772708529500304100,3.99130419921875,12.466488801968097,4.191587181720138,1.3552712843835353
1772708529510330000,4.001330078125,12.594265287053585,3.980563673627376,1.8671967244148253
1772708529520356000,4.011356201171875,12.723381496310234,3.635180502666533,2.460114102002978
1772708529530381300,4.02138134765625,12.82624332036972,3.314824513195455,3.1529861840322613
1772708529540407300,4.0314072265625,12.503811693668364,2.996107523103058,3.481139695511758
1772708529550433300,4.041433349609375,11.98497486681342,2.7450933654055,3.5134719393178817
1772708529560458200,4.051458251953125,11.360662234008311,2.8043548249304293,2.838216177999973
1772708529570484200,4.061484130859375,10.919842712813615,2.7225793357804418,1.258022185639292
1772708529580510200,4.07151025390625,10.448643250924349,2.9219164977326986,-0.67472874176912
1772708529590536400,4.081536376953125,9.943408248442411,2.8369921891629692,-2.407761398953199
1772708529600561200,4.09156103515625,9.801233820170163,2.3732260921448467,-4.014267205786704
1772708529610587400,4.10158740234375,8.715273397675157,2.0827032231405376,-4.094507155932486
1772708529620613400,4.11161328125,8.146359996008872,2.250304938136041,-3.40777664539814
1772708529630638300,4.121638427734375,7.959179135796427,2.490506609918177,-2.628560158868134
1772708529640664300,4.131664306640625,7.9026207977503535,2.6968650488093493,-1.4745401994951068
1772708529650690300,4.141690185546875,8.007599760094285,3.006300123554468,-0.7685627713728695
1772708529660716300,4.15171630859375,7.851410250473022,3.3862378905460235,-0.6774946262858808
1772708529670741200,4.1617412109375,7.56286043510735,3.9038784933537243,-1.0793947803691029
1772708529680767200,4.171767333984375,7.352942842429876,4.350856537178158,-2.1960240435026583
1772708529690793200,4.181793212890625,6.864859465757012,4.8027182613909245,-3.747857910558581
1772708529700818200,4.191818115234375,6.216861421459913,4.980027131408453,-4.156614360277355
1772708529710844200,4.20184423828125,6.0796834863007065,5.022042564839125,-3.824972422160208
1772708529720870100,4.2118701171875,6.0734717721790075,5.426392011770606,-3.3459017885044213
1772708529730896100,4.221896240234375,5.111378552371264,5.14944963209033,-2.889801988330483
1772708529740921300,4.23192138671875,1.9364871182620524,3.9183506708204745,-2.172351929883659
1772708529750947300,4.241947265625,-3.5187264988452194,1.1714460182093083,0.47415911541245875
1772708529760973300,4.251973388671875,-7.615314844965934,-3.3550565703406927,4.15383349738717
1772708529770998300,4.261998291015625,-6.6991399112462995,-6.556712969517707,5.482981329476833
1772708529781024300,4.272024169921875,-3.4074785392343996,-6.927597953742742,2.036801595926285
1772708529791050200,4.28205029296875,-3.892724062132835,-4.189945844253898,-4.227308191181719
1772708529801076200,4.292076171875,-10.647385369592904,0.2955607170410454,-9.556967967689037
1772708529811101200,4.30210107421875,-21.61326035026312,2.1278382498964667,-11.37131456092596
1772708529821127200,4.312127197265625,-32.722561805093285,1.9788225774273276,-10.10380105497241
1772708529831153200,4.322153076171875,-41.93579816842079,-2.802147085753083,-5.605040021437406
1772708529841178000,4.33217822265625,-43.45018683257103,-9.521455340281129,-1.9252540688470006
1772708529851204000,4.3422041015625,-39.4762796942234,-11.909716504472494,-4.854373045304417
1772708529861230000,4.35222998046875,-33.59408394261598,-10.14757122311592,-10.03132384778261
1772708529871255000,4.362255126953125,-28.818832364821432,-8.348775250232219,-14.140460125309229
1772708529881281000,4.372281005859375,-24.299818816852568,-6.942213339072466,-14.038848009049891
1772708529891307300,4.382307373046875,-19.740440525269506,-5.522463445037603,-11.015724176466465
1772708529901333200,4.392333251953125,-14.949975011730194,-4.314583154530823,-7.708232782638072
1772708529911358500,4.4023583984375,-10.403875888437032,-2.7571172729372977,-4.814036943262815
1772708529921384400,4.412384521484375,-6.671446433156729,-0.8712769305899739,-2.5159762744784353
1772708529931410400,4.422410400390625,-3.96841613971591,1.1494422031287104,-0.38108722928762434
1772708529941435400,4.432435302734375,-1.9095336448848246,3.1309523391395806,1.0337661248773335
1772708529951461400,4.44246142578125,-0.12701426854133605,4.199700345548987,1.363996442630887
1772708529961487400,4.4524873046875,1.426634392851591,3.850727917924523,1.1631360166341065
1772708529971513300,4.462513427734375,2.577362178811431,3.040103316695988,1.5574772797703742
1772708529981538300,4.472538330078125,3.771342246520519,3.0380916846126316,2.5354899532437325
1772708529991564300,4.482564208984375,4.942887195059657,3.0147976105257865,3.9283220297366377
1772708530001590300,4.49259033203125,6.355591262236237,2.6852105591118334,5.6434922094285485
1772708530011615200,4.502615234375,7.957384653595089,2.483471596714854,7.200355156692862
1772708530021641200,4.51264111328125,9.58732277394235,2.7580633216157553,8.17182176952362
1772708530031667200,4.522667236328125,11.1870533875525,3.5604295053258537,8.667825417801737
1772708530041692200,4.532692138671875,11.95546937086582,3.9062165809124707,8.95214037207663
1772708530051718100,4.54271826171875,12.013119595801829,4.113691456612944,8.568495859521628
1772708530061744000,4.552744140625,11.546360162186621,4.0553222697526214,7.479272051316499
1772708530071770000,4.56277001953125,10.663944874727726,3.67180518296957,6.545954844138026
1772708530081795300,4.57279541015625,8.988108926558494,2.8800892803505063,5.936117311409116
1772708530091821300,4.5828212890625,7.214284313324093,1.6143470218531786,5.57513705060482
1772708530101847300,4.592847412109375,6.327018663224577,0.9214911603063345,5.365870030790567
1772708530111872300,4.602872314453125,6.178517954540252,0.6499044624403119,5.138264221209288
1772708530121898200,4.612898193359375,6.611697190114856,-0.254898744045943,5.135110141092539
1772708530131924200,4.62292431640625,7.040235906407236,-1.0844298519268631,4.801874504043162
1772708530141950500,4.632950439453125,6.872032133865356,-1.6918293438538907,4.670938678143918
1772708530151975200,4.64297509765625,6.624189007419347,-1.5617777534432709,4.741958380001783
1772708530162001200,4.653001220703125,7.131252978894114,-0.5664550487287342,4.462947085092962
1772708530172027400,4.66302734375,7.817336715957522,0.22819471538513897,3.995922570800781
1772708530182052000,4.673052001953125,8.182113446435332,1.082960363896191,3.407513026025891
1772708530192078300,4.683078369140625,8.487669926181436,1.9709628038376568,2.7873423153311014
1772708530202104300,4.693104248046875,8.59545985429287,2.460778118869662,2.26753898153156
1772708530212129300,4.70312939453125,8.307412727752327,2.6886551466077564,1.9598475355833769
1772708530222155300,4.7131552734375,7.911086428278685,2.740564197543263,1.8878195334658026
1772708530232181200,4.72318115234375,7.841946841078996,2.427656478251517,2.162170727609098
1772708530242207200,4.733207275390625,8.188395303183794,2.114364289686829,2.4087808051288127
1772708530252232200,4.743232177734375,8.46693810379803,2.055489491391927,2.6056089068695902
1772708530262258200,4.753258056640625,8.449210139405727,1.9331024442598224,3.061483373855054
1772708530272284200,4.7632841796875,8.334887594655155,2.068768075159937,3.3112039846107364
1772708530282309400,4.773309326171875,8.25576846523285,2.416630495715886,2.690501066735387
1772708530292335400,4.78333544921875,8.275437042298913,2.63792040014863,1.6304380326934158
1772708530302361300,4.793361328125,8.158379519626498,3.114820996288955,0.04715586505904793
1772708530312387300,4.80338720703125,7.531119727453589,4.11548155490011,-1.9113368949145078
1772708530322412300,4.813412353515625,6.312220322543382,5.243865114843845,-3.8519998375564812
1772708530332438300,4.823438232421875,5.068024563813209,6.0559086429595945,-5.058134453439712
1772708530342464300,4.83346435546875,4.390767691805959,6.15077186948061,-4.871786829181016
1772708530352489200,4.8434892578125,4.284425039893389,5.028891992342472,-3.083035572710633
1772708530362515200,4.85351513671875,3.8274429039269684,2.852422690267861,0.5019636161284521
1772708530372541200,4.863541259765625,2.9546885942608117,0.17256810523122548,5.709709187179803
1772708530382566100,4.873566162109375,4.561888228577375,-2.774254285699129,13.33412036179304
1772708530392592100,4.883592041015625,10.867089612269401,-5.988567045092583,21.341275300729272
1772708530402618000,4.8936181640625,16.449488762831688,-9.386364732789993,21.15970877326727
1772708530412644000,4.90364404296875,10.462746595078706,-6.836839239931106,4.279131025138497
1772708530422669000,4.9136689453125,-11.61357784141302,1.3522232949897646,-17.33337003118992
1772708530432695000,4.923695068359375,-37.95759830131531,8.862184791341424,-28.95983541122675
1772708530442721000,4.933720947265625,-55.320049465560906,7.551451152342557,-23.05175469225645
1772708530452746200,4.943746337890625,-57.847138670206064,1.3894506173610686,-8.430710021597147
1772708530462772200,4.953772216796875,-54.59619626207351,-4.282684333705902,-0.29204437948316336
1772708530472798200,4.963798095703125,-49.8363129338026,-6.507852200236917,-1.8227109553478658
1772708530482823200,4.9738232421875,-40.6939042568922,-6.314353827440739,-5.832697268944979
1772708530492849200,4.98384912109375,-29.782514899647236,-7.3030731883674855,-4.214080753079056
1772708530502875100,4.993875244140625,-20.759612892127034,-8.313290095353127,-0.3901997794173658
1772708530512901000,5.003901123046875,-12.675878571379185,-8.584981714898348,1.8224775849834083
1772708530522926000,5.013926025390625,-5.595879394382238,-8.092455387341976,2.016626384512335
1772708530532952000,5.0239521484375,-0.2412275076985359,-6.603264292812347,1.6502559551022946
1772708530542978000,5.03397802734375,3.547759701105952,-4.548866834440827,1.2320607920393347
1772708530553003000,5.0440029296875,4.995106627118587,-2.2613877654254435,-0.32531068926900625
1772708530563029000,5.054029052734375,5.073174201661348,-0.61821680014804,-1.909339291356504
1772708530573055000,5.064054931640625,4.9972161666184665,0.6381355525828898,-2.5394617794841525
1772708530583081200,5.074081298828125,3.9460722059607503,1.269276423972845,-1.7023165433377025
1772708530593106000,5.08410595703125,2.62318694139719,0.7820818858984857,-0.519376340559125
1772708530603132000,5.0941318359375,2.382128945046663,-0.01527962139211595,0.5046821909047663
1772708530613158100,5.104158203125,3.4940018074333667,-0.5581595871355384,1.1453239541549234
1772708530623183000,5.11418310546875,5.065847804296016,-0.8845373211141675,1.3930617935955523
1772708530633209300,5.124209228515625,6.47558016218543,-1.3032161029756069,1.6780936639681459
1772708530643235300,5.1342353515625,7.700963668417931,-1.418130183878541,2.0282193532809614
1772708530653260300,5.14426025390625,8.749932038602232,-1.2280606164872645,2.3337338935814795
1772708530663286300,5.154286376953125,9.727133980214596,-0.8597364226609467,2.5321435654252764
1772708530673312300,5.164312255859375,10.556313352048397,0.10548956048088147,2.522965110452473
1772708530683338200,5.174338134765625,10.95038398154974,1.1362215600930154,2.3358076311156153
1772708530693363200,5.18436328125,10.787377193129062,1.8122228790812194,1.9405153508648276
1772708530703389200,5.19438916015625,10.37403955309987,2.105866364324093,1.5614887073688208
1772708530713415200,5.204415283203125,9.915321971642971,1.9877767221249638,1.2854618350982665
1772708530723440000,5.214440185546875,9.523021274423598,1.6840739074215292,0.9755338622696698
1772708530733466000,5.224466064453125,9.505269929155707,1.3070675177067517,0.6705564975857734
1772708530743492000,5.2344921875,9.547129879763721,0.8921753417119384,0.31901816499605773
1772708530753517000,5.24451708984375,9.419280329442024,0.6060512921884655,0.08193528282158076
1772708530763543000,5.25454296875,9.375242450273037,0.3468155418515205,0.6680580318335443
1772708530773569000,5.264569091796875,9.437721995061635,0.05306421231999993,1.4310276593744753
1772708530783595000,5.274594970703125,9.527726675635575,0.003471183241903782,1.7905737957224248
1772708530793620200,5.2846201171875,9.437866371968388,0.3337327729165554,1.9205812547303736
1772708530803646200,5.294646240234375,9.175134888470172,0.6356257617190479,2.2676091241583225
1772708530813672200,5.304672119140625,8.939092674455047,0.8114286110877991,2.852494586460292
1772708530823697200,5.314697265625,8.631499135923384,1.2238320390067994,2.6993039663940666
1772708530835602000,5.326601806640625,7.713960512635111,1.9182824762687085,1.4579993990607558
1772708530845628000,5.3366279296875,6.549343902054429,2.3888310730338094,-0.08182710973937064
1772708530855654100,5.346654052734375,5.96033639138639,2.3036282397836447,-0.06587240209728479
1772708530865679000,5.35667919921875,5.541912241873145,2.5854046154916284,0.19421594648100435
1772708530875705300,5.366705322265625,5.451842094847559,2.8953219207957384,0.37359789644554253
1772708530885731300,5.3767314453125,5.561353439924121,2.931123302017152,0.8043198019959032
1772708530895756300,5.38675634765625,5.543995477887988,2.9000442731425164,1.3762809007950125
1772708530905782300,5.3967822265625,5.265095534399151,2.7455080836862322,2.1202163767158986
1772708530915808300,5.406808349609375,4.622410794079303,2.3142589393913746,2.7139561766028404
1772708530925833200,5.416833251953125,3.5585330240547655,1.5861001476645469,2.6706369670972228
1772708530935859200,5.426859130859375,2.2154092735826967,0.8825853833287954,1.2788763192281125
1772708530945885200,5.43688525390625,-0.3332756767988205,0.29780718079358337,-1.651092405926436
1772708530955910100,5.44691015625,-3.0269261474758387,-0.6241586112871765,-3.507356671307981
1772708530965936000,5.45693603515625,-5.907452942460775,-2.827338225632906,-2.48037333843857
1772708530975962000,5.466962158203125,-7.765543400356173,-4.443230577231943,-1.534094796747714
1772708530985988000,5.476988037109375,-4.97637737672925,-2.6497195590138434,-3.14177008575201
1772708530996013000,5.487012939453125,-2.6437568512171503,-1.028634607207775,-6.6327855708509675
1772708531006039000,5.4970390625,-2.8000813853949307,-0.003423836968839168,-8.758833722460269
1772708531016065000,5.50706494140625,-5.6490761470407245,3.1522622536718843,-8.336969661626219
1772708531026090200,5.51709033203125,-10.869714115554094,5.060757787680625,-3.8259576338052748
1772708531036116200,5.5271162109375,-14.542619368720054,5.19454549587965,1.3386236625738441
1772708531046142200,5.53714208984375,-16.418575738173722,4.9372874753564595,3.5501597479850053
1772708531056167200,5.547167236328125,-15.771706405645608,4.324195324745774,2.6679873293712735
1772708531066193200,5.557193115234375,-12.690623720568418,3.4945039117366075,-0.31057576921284197
1772708531076219100,5.56721923828125,-8.793257385587692,2.017117236769199,-3.1119667759016156
1772708531086245000,5.5772451171875,-6.062465224996209,-0.6008350188449025,-3.9298283426463603
1772708531096270000,5.58727001953125,-4.446975316718221,-2.934057309642434,-3.1607918893471356
1772708531106296000,5.597296142578125,-3.339990810894966,-3.4562753033682703,-1.649931691583991
1772708531116322000,5.607322021484375,-3.010087825399637,-2.7194296395778657,0.49346514277644454
1772708531126347000,5.617346923828125,-3.5470728878855704,-1.721924914649129,2.168418097566068
1772708531136373000,5.627373046875,-4.744959315383434,-0.8604548000633716,2.3446720517031845
1772708531147027000,5.63802685546875,-4.4922406918555495,0.5718883258238434,1.1622152485273778
1772708531157052200,5.64805224609375,-4.38130954310894,1.1601371270790695,0.28066910858582705
1772708531167078100,5.658078125,-5.298989620694518,0.5150877034544944,-0.31747148354332894
1772708531177104100,5.668104248046875,-5.6421881410926575,-0.11019055951237677,-0.6668918375983834
1772708531187129000,5.678129150390625,-4.456795284464955,0.08501081780940294,-1.3664493887409568
1772708531197155300,5.6881552734375,-2.6943770313858986,0.2742489028126001,-2.194672921154648
1772708531207181300,5.698181396484375,-1.0826789166063069,-0.18863018223792313,-2.692583425967395
1772708531217207300,5.708207275390625,0.13493220205903053,-1.1652122383862733,-2.2844315180130303
1772708531227232300,5.718232177734375,1.17543844884634,-1.7838766361713407,-0.667494041275233
1772708531237258200,5.72825830078125,2.0210557452619073,-1.4838386275857687,1.58280256742388
1772708531247284200,5.7382841796875,2.258953231754899,-0.7055202589392662,3.5720156059622763
1772708531257309200,5.74830908203125,2.553333068448305,0.21102175452709196,4.518607597516477
1772708531267335200,5.758335205078125,2.8514480000168083,0.7980933286964893,4.81068091083318
1772708531277361200,5.768361083984375,3.0956179909080266,0.9664312490120529,4.7095711911380285
1772708531287386000,5.77838623046875,3.4190210929900404,1.3254179979115723,4.098625112645328
1772708531297412000,5.788412109375,3.648946285429597,1.8619196607947348,2.749472018881142
1772708531307438000,5.79843798828125,3.793479844048619,2.2411711990877983,1.0592577820736915
1772708531317464000,5.808464111328125,4.405768277060985,2.4870523778110742,-0.40779911246132106
1772708531327489000,5.818489013671875,5.23744121927619,2.4414210919708013,-1.5260601049825548
1772708531337515000,5.828514892578125,5.899643730014562,2.345382976451516,-2.016191207965463
1772708531347541000,5.838541015625,6.299105404904484,2.4779908272162077,-1.9332963593967258
1772708531357566200,5.848566162109375,6.351209101629257,2.5324364108920094,-1.601046080122888
1772708531367592200,5.85859228515625,6.301507205349207,2.6868027967393395,-1.323413672351837
1772708531377618200,5.8686181640625,6.192103412300348,3.163863259616494,-1.1010824421726166
1772708531387643100,5.87864306640625,5.896300849327445,3.44504780691117,-0.6297560659680516
1772708531397669000,5.888669189453125,5.771939725643396,3.7095188275530933,-0.3885820420224219
1772708531407695000,5.898695068359375,5.930183245185018,3.8537633400976654,-0.6460008791305124
1772708531417721000,5.90872119140625,6.092320265033841,3.688763332033157,-0.9590658348105847
1772708531427746000,5.91874609375,5.970600011247396,3.6286604532480236,-0.9729163001824169
1772708531437772300,5.928772216796875,5.36616346077919,3.4252392368525264,-0.7996930920433253
1772708531447798500,5.938798583984375,4.721864271000028,2.8753531917393205,-0.5920877218309789
1772708531457823200,5.9488232421875,4.1629789268732065,2.3365005818158386,-0.7338289463177323
1772708531467849500,5.958849365234375,3.4718940205216406,1.9334896900117395,-0.8693357333943247
1772708531477875500,5.96887548828125,1.8085896371454,1.437524327917397,-0.569091315516457
1772708531487901400,5.9789013671875,-1.276010700663924,0.10176292290687561,1.4413321957677603
1772708531497926400,5.988926513671875,-2.74791806743741,-1.8046251174286008,3.9528360010072587
1772708531507952400,5.998952392578125,0.686605715110898,-1.1875585102289914,2.55460118868798
1772708531517978400,6.008978271484375,4.879355510869622,0.647453562156856,-1.5300649567097424
1772708531528003300,6.01900341796875,4.282679657530784,-0.8620201496839522,-3.522859653127193
1772708531538029300,6.029029296875,-0.3742968384951353,-3.5261022883102298,-2.1376929966956375
1772708531548055300,6.03905517578125,-5.117108035933971,-3.7961706905677914,0.4649580102164298
1772708531558080500,6.04908056640625,-6.733917794638872,-1.9208163786605,0.7866055738680064
1772708531568106500,6.0591064453125,-6.750842041432857,-0.6390376159891485,0.5741716875206678
1772708531578132500,6.069132568359375,-6.061275722950697,-0.974780851945281,0.8678003405205905
1772708531588158500,6.079158447265625,-5.315496518859267,-2.317126019260287,0.32898725888989866
1772708531598183400,6.089183349609375,-6.066368077653646,-3.1780127810001373,-0.8104703605148941
1772708531608209400,6.09920947265625,-8.205024366423487,-3.1628026446476576,-1.0852583386402577
1772708531618235400,6.1092353515625,-9.967124639594555,-2.6940637276530266,-0.5966822830796241
1772708531628260400,6.11926025390625,-10.080827006620169,-2.3537857708767054,0.014824644166231155
1772708531638286300,6.129286376953125,-8.917425617048144,-2.7994553624510763,0.7298598965562879
1772708531648312300,6.139312255859375,-7.982422648739814,-3.895478913798928,1.218942513399571
1772708531658337300,6.149337158203125,-7.66860629017055,-4.880939272929727,1.236301206088066
1772708531668363300,6.15936328125,-8.263017121186852,-5.3418216312050815,0.6732877491805702
1772708531678389200,6.16938916015625,-9.21572058135867,-5.084978036701679,-0.00933013840317726
1772708531688415200,6.179415283203125,-9.712691028842329,-4.5554465050920845,0.03487469483055174
1772708531698440200,6.189440185546875,-9.217819014942645,-3.955228156840801,0.27116189658269285
1772708531708466200,6.199466064453125,-8.122389922356605,-3.367591350004077,0.4745511104047298
1772708531718492200,6.2094921875,-6.945744435808062,-2.767717577406764,0.7281407446134835
1772708531728517400,6.219517333984375,-6.184526839566231,-2.4091277188703417,1.1590295311633496
1772708531738543400,6.22954345703125,-5.711496070596575,-2.554303959307074,1.6909651282399891
1772708531748569600,6.239569580078125,-4.769039863672853,-2.961324086752534,1.6868951023221015
1772708531758595600,6.249595703125,-3.1512364177554844,-3.3438337500587103,0.8962911064676939
1772708531768620500,6.25962060546875,-1.5123714791089296,-3.443960888457298,-0.3099042996920645
1772708531778646500,6.269646484375,-0.4347551065891981,-3.2775665034249424,-1.2922360054083168
1772708531788672500,6.279672607421875,0.05275485410988331,-2.8170684682920575,-1.851248775307089
1772708531798697500,6.289697509765625,0.2808762119978666,-1.9361565711334348,-2.1302926573112604
1772708531808723500,6.299723388671875,0.44883565438985823,-0.8517841484822333,-1.735189323761314
1772708531818749400,6.30974951171875,0.8570008602172136,0.20782032813727855,-0.9751898711375891
1772708531828774400,6.3197744140625,1.4076923764944076,1.0367236595086753,-0.4929571201890707
1772708531838800400,6.32980029296875,1.9575024337619542,1.56837685944736,-0.2641434326553717
1772708531848826400,6.339826416015625,2.4938217258155344,1.6404278040491043,-0.2239944506837055
1772708531858852400,6.349852294921875,2.9947786125868556,1.5190340057380496,-0.5246732779234647
1772708531868877300,6.359877197265625,3.7207290806144475,1.3579489791601895,-0.856066282780841
1772708531878903300,6.3699033203125,4.75899076334536,1.2081934481091796,-1.2517663401149213
1772708531888929300,6.37992919921875,5.935334636598825,1.2610159606277942,-1.6291399557068944
1772708531898954500,6.38995458984375,7.1662781150460235,1.5830549347497522,-1.678959487017244
1772708531908980500,6.39998046875,8.21988232833743,1.9156423370234668,-1.4259770979866384
1772708531919006500,6.41000634765625,9.108926678547263,2.2103835543751713,-1.2858283303231
1772708531929031400,6.420031494140625,9.78272376548946,2.451811260820925,-1.2722814510077238
1772708531939057400,6.430057373046875,10.194982962632178,2.799398663827777,-1.2735137692816554
1772708531949083400,6.44008349609375,10.389037215745448,2.8893711956977843,-1.2927408861905336
1772708531959109400,6.450109375,10.372383018064498,2.7896397786185143,-1.4304187336958945
1772708531969134300,6.46013427734375,10.526809025144576,2.8967136674150824,-0.8437999447952955
1772708531979160300,6.470160400390625,10.111845245218277,3.0085040633395312,0.48227388667650517
1772708531989186300,6.480186279296875,9.461161322838068,2.653595523664355,1.2965700890898704
1772708531999211300,6.490211181640625,9.24373320840001,2.245074051745236,0.7158159544389695
1772708532009237200,6.5002373046875,8.829880020064115,2.098131678418815,0.7250633099295198
1772708532019263200,6.51026318359375,8.479072778227925,2.106417568466067,0.24004122052341698
1772708532029288200,6.5202880859375,7.793416911187768,2.134016354009509,0.03023980157151818
1772708532039314200,6.530314208984375,7.115428802296519,2.1239950184717773,-0.17622136704176664
1772708532049340400,6.54034033203125,6.758008864322305,1.9472782691285013,-0.6980063761778176
1772708532059366400,6.550366455078125,6.5908402800470585,2.155079600304365,-1.2128870127528906
1772708532069391600,6.5603916015625,6.1449348338902,2.908464310963452,-1.5776745568856596
1772708532079417300,6.570417236328125,4.9335564721345895,3.570419568942487,-1.4049834097966551
1772708532089443300,6.580443359375,3.1998101867884396,3.61546311802268,-0.4977620362527668
1772708532099468500,6.590468505859375,1.6910247494727373,3.2694960096940395,0.4416970346815884
1772708532109494500,6.60049462890625,0.9105711223632097,2.5088033141091466,0.893098155645281
1772708532119520500,6.6105205078125,0.5622013368070126,1.259339844109118,0.9916922392576932
1772708532129545500,6.62054541015625,-0.9304816914916038,-0.6033344344452023,1.2467667782619596
1772708532139571500,6.630571533203125,-3.8716748443633318,-3.44248380164206,2.663320214343071
1772708532149597400,6.640597412109375,-5.776565047356486,-6.378001831486821,3.9182705913215874
1772708532159623400,6.65062353515625,-3.073669193950295,-4.001154626235365,0.3528304182268679
1772708532169648400,6.6606484375,-1.7263292870879172,-2.0443103641211984,-2.6865233952760694
1772708532179674400,6.67067431640625,-4.516917452472448,-3.86289357201457,-0.8362723988346755
1772708532189700400,6.680700439453125,-9.13649565347433,-3.1518367217361924,1.3885811410501598
1772708532199725300,6.690725341796875,-11.89196925085783,-0.5208978510379791,2.3893992283105847
