time,seconds_elapsed,z,y,x
1772708525570220000,0.061219970703125,-0.05335831269621849,0.2677695155143738,-0.17372529208660126
1772708525580246000,0.07124609375,-0.030031951144337654,0.2595856189727783,-0.20545364916324615
1772708525590271000,0.08127099609375,0.005820560734719038,0.2083090990781784,-0.25505805015563965
1772708525600297000,0.091296875,0.0449458584189415,0.1364455670118332,-0.31672540307044983
1772708525610323000,0.101322998046875,0.07850424200296402,0.06927396357059479,-0.37940335273742676
1772708525620349000,0.111348876953125,0.10547061264514923,0.030498072504997253,-0.42632025480270386
1772708525630374000,0.121373779296875,0.12235459685325623,-0.010052798315882683,-0.4491562843322754
1772708525640400000,0.13139990234375,0.12102408707141876,0.02072002738714218,-0.45222583413124084
1772708525650425900,0.14142578125,0.12029936164617538,0.08926045894622803,-0.4626849293708801
1772708525660451800,0.151451904296875,0.1271146684885025,0.18338987231254578,-0.4939243197441101
1772708525670476800,0.161476806640625,0.1482698619365692,0.3009570240974426,-0.5494418740272522
1772708525680502800,0.171502685546875,0.17897504568099976,0.33494535088539124,-0.6283060908317566
1772708525690528800,0.18152880859375,0.22326500713825226,0.28896987438201904,-0.6792298555374146
1772708525700554800,0.1915546875,0.2731766402721405,0.26499155163764954,-0.6752274036407471
1772708525710580000,0.201580078125,0.2833126485347748,0.239732563495636,-0.6346741914749146
1772708525720606000,0.21160595703125,0.2861909866333008,0.37081679701805115,-0.5776543617248535
1772708525730632000,0.2216318359375,0.2577124536037445,0.6969208717346191,-0.5119973421096802
1772708525740657000,0.231656982421875,0.20023983716964722,1.1773916482925415,-0.4269362986087799
1772708525750683000,0.241682861328125,0.13269439339637756,1.760766863822937,-0.2973693013191223
1772708525760708900,0.251708984375,0.05952564999461174,2.3438820838928223,-0.13294918835163116
1772708525770735000,0.261735107421875,-0.007797513157129288,2.79548978805542,-0.009352690540254116
1772708525780759800,0.271759765625,-0.07892628014087677,3.039293050765991,0.03621053695678711
1772708525790786000,0.2817861328125,-0.16812407970428467,3.1504805088043213,0.033768631517887115
1772708525800812000,0.29181201171875,-0.29042285680770874,3.1973493099212646,0.027306202799081802
1772708525810838000,0.301838134765625,-0.44621536135673523,3.156740665435791,0.028591660782694817
1772708525820863000,0.311863037109375,-0.6407750248908997,3.017047643661499,0.026040617376565933
1772708525830889000,0.321888916015625,-0.9101819396018982,2.7877984046936035,0.017850322648882866
1772708525840915000,0.3319150390625,-1.140336036682129,2.50681209564209,0.02785502001643181
1772708525850941000,0.34194091796875,-1.2984232902526855,2.2072694301605225,0.03805489093065262
1772708525860966000,0.3519658203125,-1.4049835205078125,1.8629717826843262,0.047301389276981354
1772708525870992000,0.361991943359375,-1.4504643678665161,1.4563521146774292,0.05916006118059158
1772708525881017900,0.372017822265625,-1.4198992252349854,0.9657803177833557,0.049242980778217316
1772708525891043800,0.3820439453125,-1.3632056713104248,0.37876951694488525,0.0039465720765292645
1772708525901068800,0.39206884765625,-1.2137233018875122,-0.2796078324317932,-0.029684092849493027
1772708525911094800,0.4020947265625,-1.0714925527572632,-0.9779227375984192,-0.18327414989471436
1772708525921120800,0.412120849609375,-0.8993517160415649,-1.7282649278640747,-0.37580499053001404
1772708525931146800,0.422146728515625,-0.9481381177902222,-2.382387161254883,-0.5740147233009338
1772708525941172000,0.432171875,-1.0254769325256348,-2.755711317062378,-0.5928919911384583
1772708525951198000,0.442197998046875,-1.0006530284881592,-2.789301633834839,-0.3653998076915741
1772708525961224000,0.452223876953125,-0.9509848356246948,-2.738572359085083,-0.0593235120177269
1772708525971249000,0.462248779296875,-0.9338430762290955,-2.6424620151519775,0.17398899793624878
1772708525981275000,0.47227490234375,-0.9526847004890442,-1.5049049854278564,0.16924244165420532
1772708525991300900,0.48230078125,-0.880517840385437,-1.135754108428955,0.055112604051828384
1772708526001326800,0.492326904296875,-0.8368539810180664,-0.49854791164398193,-0.13436678051948547
1772708526011351800,0.502351806640625,-0.7740382552146912,-0.6189610958099365,-0.43568775057792664
1772708526021377800,0.512377685546875,-0.6820550560951233,-0.9938796162605286,-0.6910330057144165
1772708526031404000,0.522404052734375,-0.556790292263031,-1.3765404224395752,-0.9265856742858887
1772708526041430000,0.532429931640625,-0.43849611282348633,-1.0709381103515625,-1.258361577987671
1772708526051455000,0.542455078125,-0.29461103677749634,-1.304066777229309,-1.3865150213241577
1772708526061481000,0.55248095703125,-0.2583984136581421,-1.3095861673355103,-1.5213066339492798
1772708526071507000,0.5625068359375,-0.35695257782936096,-1.2955763339996338,-1.7035025358200073
1772708526081533000,0.572532958984375,-0.3416820168495178,-1.5710766315460205,-1.8571834564208984
1772708526091558000,0.582557861328125,-0.09888807684183121,-1.5502219200134277,-1.6488229036331177
1772708526101584000,0.592583984375,0.25746071338653564,-1.2761623859405518,-0.9898431897163391
1772708526111609900,0.60260986328125,0.5176250338554382,-0.8221968412399292,-0.05734961852431297
1772708526121635800,0.6126357421875,0.4470196068286896,-0.6098427772521973,0.8503853678703308
1772708526131661000,0.6226611328125,-0.03239775449037552,-0.6387721300125122,1.2598934173583984
1772708526141687000,0.63268701171875,-0.49294111132621765,-1.4420006275177002,1.4382283687591553
1772708526151712800,0.642712646484375,-0.6133899688720703,-2.300503969192505,1.6526916027069092
1772708526161738800,0.65273876953125,-0.46835580468177795,-2.511990785598755,1.8909717798233032
1772708526171764000,0.662763916015625,-0.23539820313453674,-2.2107582092285156,1.8824381828308105
1772708526181790000,0.6727900390625,0.02950722724199295,-1.7911213636398315,1.6153618097305298
1772708526191816000,0.68281591796875,0.38516944646835327,-1.362068772315979,1.241413950920105
1772708526201841000,0.6928408203125,0.8348154425621033,-0.8696378469467163,0.916630744934082
1772708526211867000,0.702866943359375,1.2625176906585693,-0.4135749638080597,0.7031372785568237
1772708526221892900,0.712892822265625,1.5052340030670166,-0.3320830166339874,0.5454645752906799
1772708526231918800,0.7229189453125,1.5258026123046875,-0.554339587688446,0.45294487476348877
1772708526241943800,0.73294384765625,1.3417127132415771,-0.791797935962677,0.4928930997848511
1772708526251969800,0.7429697265625,1.060321569442749,-0.9383016228675842,0.6303691267967224
1772708526261996000,0.75299609375,0.7325303554534912,-1.1722339391708374,0.7053589224815369
1772708526272022000,0.76302197265625,0.4421437084674835,-1.5885069370269775,0.5912485122680664
1772708526282047000,0.773046875,0.2586534917354584,-2.0520174503326416,0.3556253910064697
1772708526292073000,0.783072998046875,0.20889057219028473,-2.455095052719116,0.05804680287837982
1772708526302099000,0.793098876953125,0.19509592652320862,-2.774284839630127,-0.30780601501464844
1772708526312125000,0.803125,0.12076845020055771,-2.9559788703918457,-0.7225651144981384
1772708526322150000,0.81314990234375,-0.007153827231377363,-2.8976147174835205,-1.1557849645614624
1772708526332176000,0.82317578125,-0.1405700147151947,-2.6023080348968506,-1.5914733409881592
1772708526342201900,0.833201904296875,-0.2773403823375702,-2.0969481468200684,-1.9597443342208862
1772708526352227800,0.843227783203125,-0.41836196184158325,-1.461519718170166,-2.143688201904297
1772708526362253000,0.853253173828125,-0.45256227254867554,-0.7612461447715759,-2.100158214569092
1772708526372279000,0.863279052734375,-0.3568597137928009,-0.1291791945695877,-1.862066626548767
1772708526382305000,0.873304931640625,-0.24384954571723938,0.24721761047840118,-1.4904725551605225
1772708526392330000,0.883330078125,-0.18791061639785767,0.35763493180274963,-1.077133297920227
1772708526402356000,0.89335595703125,-0.16982536017894745,0.2540723383426666,-0.7066540122032166
1772708526412382000,0.9033818359375,-0.16038639843463898,0.06544938683509827,-0.4267706274986267
1772708526422408000,0.913407958984375,-0.15029995143413544,-0.11661495268344879,-0.23165439069271088
1772708526432433000,0.923432861328125,-0.1472838968038559,-0.2625489830970764,-0.13937900960445404
1772708526442459000,0.933458984375,-0.16477607190608978,-0.28028589487075806,-0.14483822882175446
1772708526452484900,0.94348486328125,-0.24289049208164215,-0.09668675810098648,-0.2702540159225464
1772708526462510800,0.9535107421875,-0.2869921624660492,0.12751731276512146,-0.5024917721748352
1772708526472535800,0.963535888671875,-0.217893585562706,0.3492411673069,-0.672888457775116
1772708526482561800,0.973561767578125,-0.00041292328387498856,0.5370712280273438,-0.645915150642395
1772708526492587800,0.983587890625,0.247369647026062,0.7515025734901428,-0.6187044382095337
1772708526502613800,0.99361376953125,0.37934446334838867,0.8904154896736145,-0.7337801456451416
1772708526512638700,1.003638671875,0.3440925180912018,0.8601608872413635,-0.9980610609054565
1772708526522664700,1.013664794921875,0.23509548604488373,0.8084976673126221,-1.2332552671432495
1772708526532690700,1.023690673828125,0.12862421572208405,0.6629977822303772,-1.2612422704696655
1772708526542716000,1.0337158203125,0.02204504981637001,0.26715031266212463,-1.0264381170272827
1772708526552742000,1.043741943359375,-0.16765302419662476,0.00019210577011108398,-0.6144970059394836
1772708526562768000,1.053767822265625,-0.3204425871372223,0.17875200510025024,-0.3511963486671448
1772708526572793600,1.063793701171875,-0.3555748164653778,0.2757333815097809,-0.18972532451152802
1772708526582818800,1.07381884765625,-0.381643682718277,0.07370944321155548,-0.07017442584037781
1772708526592844800,1.0838447265625,-0.3603462278842926,-0.22935505211353302,-0.034348443150520325
1772708526602870800,1.093870849609375,-0.3092699944972992,-0.38998281955718994,-0.07236134260892868
1772708526612896800,1.103896728515625,-0.25679996609687805,-0.3388320505619049,-0.15513789653778076
1772708526622921700,1.113921630859375,-0.18614844977855682,-0.20444706082344055,-0.20016023516654968
1772708526632947700,1.12394775390625,-0.10086897760629654,-0.0750856101512909,-0.2211441993713379
1772708526642974000,1.133973876953125,-0.07391192764043808,0.0367724783718586,-0.20806647837162018
1772708526653000000,1.144,-0.12301262468099594,0.12019892781972885,-0.056896477937698364
1772708526663025000,1.15402490234375,-0.15952642261981964,0.2526816129684448,0.3190563917160034
1772708526673051000,1.16405078125,-0.11484560370445251,0.5529026985168457,0.950474202632904
1772708526683076900,1.174076904296875,0.027954423800110817,1.0025640726089478,1.6960424184799194
1772708526693101800,1.184101806640625,0.16914066672325134,1.4532370567321777,2.317763090133667
1772708526703127800,1.1941279296875,0.23694473505020142,1.6245946884155273,2.567863702774048
1772708526713153800,1.20415380859375,0.1618889570236206,1.5196137428283691,2.475158929824829
1772708526723179800,1.2141796875,0.04867292195558548,1.3033051490783691,2.3235182762145996
1772708526733204700,1.224204833984375,0.10423863679170609,1.3059037923812866,2.2442092895507812
1772708526743230700,1.234230712890625,0.19074155390262604,1.447143793106079,1.8811661005020142
1772708526753256700,1.244256591796875,-0.043120477348566055,1.410048484802246,0.9234179854393005
1772708526763282700,1.25428271484375,-0.3717060685157776,1.334010124206543,-0.3060241639614105
1772708526773308000,1.264307861328125,-0.36422720551490784,1.3373183012008667,-1.305992841720581
1772708526783334000,1.274333984375,0.03932984918355942,0.9452877640724182,-1.9867669343948364
1772708526793360000,1.28435986328125,0.3842031955718994,0.4479514956474304,-2.711611270904541
1772708526803385900,1.2943857421875,0.8790661692619324,-0.08976442366838455,-3.210378885269165
1772708526813410800,1.304410888671875,1.9319878816604614,-1.232412338256836,-3.0229053497314453
1772708526823436800,1.314436767578125,2.684035301208496,-2.4321000576019287,-2.129405975341797
1772708526833462800,1.324462890625,2.798938512802124,-3.383230686187744,-0.8470767140388489
1772708526843487700,1.33448779296875,2.1764490604400635,-3.7237000465393066,0.3640519678592682
1772708526853513700,1.344513671875,1.1362977027893066,-3.633816719055176,1.3104491233825684
1772708526863539700,1.354539794921875,0.37430158257484436,-3.1091485023498535,1.9292616844177246
1772708526873566000,1.36456591796875,-0.044529613107442856,-2.862609386444092,2.0487921237945557
1772708526883590700,1.374590576171875,-0.15093860030174255,-2.672978401184082,1.7543203830718994
1772708526893616600,1.38461669921875,-0.0913764089345932,-2.5659544467926025,1.3571248054504395
1772708526903643000,1.394642822265625,-0.07769042253494263,-2.556759834289551,0.8904300332069397
1772708526913668900,1.4046689453125,-0.09889476746320724,-2.469231605529785,0.36526623368263245
1772708526923693800,1.41469384765625,-0.17482388019561768,-2.17838716506958,-0.08691935986280441
1772708526933719800,1.4247197265625,-0.25743716955184937,-1.6925901174545288,-0.4116891920566559
1772708526943745800,1.434745849609375,-0.3651188910007477,-1.0469378232955933,-0.5985171794891357
1772708526953770800,1.444770751953125,-0.4648119807243347,-0.34721115231513977,-0.6633407473564148
1772708526963796700,1.454796630859375,-0.5399336814880371,0.27352243661880493,-0.6412320137023926
1772708526973822700,1.46482275390625,-0.6143680810928345,0.6497669816017151,-0.5809372663497925
1772708526983848700,1.4748486328125,-0.6228393316268921,0.7253069877624512,-0.5272777676582336
1772708526993874000,1.4848740234375,-0.5452266931533813,0.6751947402954102,-0.4756595194339752
1772708527003900000,1.49489990234375,-0.40939751267433167,0.617808997631073,-0.4386053681373596
1772708527013926000,1.50492578125,-0.2899271249771118,0.5805037021636963,-0.39537733793258667
1772708527023952000,1.514951904296875,-0.17338477075099945,0.6062055826187134,-0.31699705123901367
1772708527033976800,1.524976806640625,-0.0751803070306778,0.7697457671165466,-0.22613249719142914
1772708527044002800,1.5350029296875,-0.028095891699194908,1.0688159465789795,-0.14194226264953613
1772708527054028800,1.54502880859375,0.003171413904055953,1.3136922121047974,-0.0637061819434166
1772708527064053800,1.5550537109375,0.0663439929485321,1.4446563720703125,0.016099434345960617
1772708527074079700,1.565079833984375,0.15083062648773193,1.486916184425354,0.15144488215446472
1772708527084105700,1.575105712890625,0.25273194909095764,1.4250138998031616,0.28212910890579224
1772708527094131700,1.585131591796875,0.30846649408340454,1.2669509649276733,0.4094999432563782
1772708527104156700,1.59515673828125,0.35873472690582275,0.9897609353065491,0.4808676242828369
1772708527114182700,1.6051826171875,0.3778113126754761,0.7368581295013428,0.4991476833820343
1772708527124208600,1.615208740234375,0.32897746562957764,0.6672255396842957,0.47025051712989807
1772708527134235000,1.62523486328125,0.2330838292837143,0.6304494142532349,0.4188576638698578
1772708527144259600,1.635259521484375,0.13225893676280975,0.4717060625553131,0.3530709147453308
1772708527154285800,1.645285888671875,0.03029986284673214,0.24601541459560394,0.27276259660720825
1772708527164311800,1.655311767578125,-0.0658237412571907,-0.008753213100135326,0.17103785276412964
1772708527174337000,1.6653369140625,-0.12310850620269775,-0.2701941132545471,0.03571249917149544
1772708527184363000,1.675363037109375,-0.17183290421962738,-0.42575761675834656,-0.13108180463314056
1772708527194389000,1.685388916015625,-0.2314474731683731,-0.47484153509140015,-0.32498353719711304
1772708527204414700,1.695414794921875,-0.27333685755729675,-0.460054874420166,-0.5086878538131714
1772708527214440000,1.70543994140625,-0.34711766242980957,-0.39457225799560547,-0.6509659290313721
1772708527224466000,1.7154658203125,-0.5150257349014282,-0.267214298248291,-0.7025127410888672
1772708527234492000,1.725491943359375,-0.6885160207748413,-0.15241262316703796,-0.5852733850479126
1772708527244518000,1.735517822265625,-0.796815037727356,-0.03845037892460823,-0.2573610246181488
1772708527254542800,1.74554296875,-0.8100911974906921,0.11361558735370636,0.18630632758140564
1772708527264568800,1.75556884765625,-0.8127468824386597,0.3536287248134613,0.6241078972816467
1772708527274594800,1.7655947265625,-0.8542281985282898,0.5783145427703857,0.9852278828620911
1772708527284619800,1.775619873046875,-0.9555510878562927,0.7856416702270508,1.34527587890625
1772708527294645800,1.785645751953125,-1.0544908046722412,0.9435250163078308,1.7597652673721313
1772708527304671700,1.795671630859375,-1.1114305257797241,1.1249439716339111,2.291032552719116
1772708527314697700,1.80569775390625,-1.073257565498352,1.4484509229660034,2.6900980472564697
1772708527324722700,1.81572265625,-0.9727274775505066,1.8987302780151367,2.6302108764648438
1772708527334748700,1.825748779296875,-0.8958327770233154,1.9469918012619019,1.8468602895736694
1772708527344774700,1.835774658203125,-0.9161266088485718,1.5586919784545898,0.7966544032096863
1772708527354800600,1.845800537109375,-0.7395507097244263,1.1095727682113647,0.23212890326976776
1772708527364825600,1.85582568359375,-0.34565532207489014,0.09617268294095993,0.03573222830891609
1772708527374851600,1.8658515625,-0.22690841555595398,-0.9665284752845764,-0.3356383442878723
1772708527384877600,1.875877685546875,0.05690892040729523,-1.457009196281433,-0.9598380327224731
1772708527394902800,1.88590283203125,0.8064824938774109,-1.5835003852844238,-1.538079023361206
1772708527404928800,1.8959287109375,1.8299013376235962,-1.5073413848876953,-1.6755300760269165
1772708527414955000,1.905955078125,2.4561808109283447,-1.5884360074996948,-1.5543477535247803
1772708527424981000,1.91598095703125,1.9731690883636475,-1.855535626411438,-1.7017982006072998
1772708527435006000,1.926005859375,0.7811309695243835,-2.183345317840576,-2.0622589588165283
1772708527445032200,1.9360322265625,-0.16475965082645416,-2.372732639312744,-2.342299699783325
1772708527455058200,1.94605810546875,-0.7377138733863831,-2.3685309886932373,-2.5848045349121094
1772708527465084200,1.956084228515625,-1.0006335973739624,-2.052546739578247,-2.8639581203460693
1772708527475109000,1.966109130859375,-1.15291166305542,-1.5605854988098145,-3.075822591781616
1772708527485135000,1.976135009765625,-1.1158621311187744,-1.305621862411499,-3.1862833499908447
1772708527495161000,1.9861611328125,-0.8511449694633484,-1.2593835592269897,-3.0829238891601562
1772708527505186000,1.99618603515625,-0.582184910774231,-1.1822224855422974,-2.714608907699585
1772708527515212000,2.0062119140625,-0.4782804846763611,-0.9845079779624939,-2.091439962387085
1772708527525238000,2.016238037109375,-0.5374876260757446,-0.6473238468170166,-1.3457058668136597
1772708527535264000,2.026263916015625,-0.660618782043457,-0.08084629476070404,-0.43240591883659363
1772708527545289000,2.0362890625,-0.7727437615394592,0.377115398645401,0.41943252086639404
1772708527555315000,2.04631494140625,-0.9042541980743408,0.6758602857589722,1.0535013675689697
1772708527565341000,2.0563408203125,-0.9635313749313354,0.6932321190834045,1.3761401176452637
1772708527575367000,2.066366943359375,-0.9181287884712219,0.585684061050415,1.4042603969573975
1772708527585391900,2.076391845703125,-0.7928614616394043,0.5363103747367859,1.2120877504348755
1772708527595417900,2.08641796875,-0.5590741038322449,0.4370216131210327,0.9138064384460449
1772708527605443800,2.09644384765625,-0.2709507346153259,0.29437923431396484,0.5231510996818542
1772708527615469000,2.106468994140625,-0.05805198848247528,0.2908763885498047,0.12413609027862549
1772708527625495000,2.1164951171875,0.08705247193574905,0.42188501358032227,-0.12142174690961838
1772708527635521000,2.12652099609375,0.2796785235404968,0.5770825743675232,0.057318128645420074
1772708527645547000,2.136547119140625,0.5224016904830933,0.6655945777893066,0.3457943797111511
1772708527655572000,2.146572021484375,0.782582700252533,0.6121249794960022,0.546829879283905
1772708527665598000,2.156597900390625,0.948908269405365,0.5063021779060364,0.5619430541992188
1772708527675624000,2.1666240234375,1.127909779548645,0.43761923909187317,0.5508329272270203
1772708527685649000,2.17664892578125,1.3709725141525269,0.3995964825153351,0.5772362947463989
1772708527695675000,2.1866748046875,1.5804938077926636,0.38218843936920166,0.5499866008758545
1772708527705701000,2.196701171875,1.7276591062545776,0.33238545060157776,0.3881215751171112
1772708527715727000,2.20672705078125,1.8276143074035645,0.23367860913276672,0.1159270778298378
1772708527725752000,2.216751953125,1.8971574306488037,0.16469529271125793,-0.14131857454776764
1772708527735778000,2.226778076171875,1.9335126876831055,0.11742257326841354,-0.30084243416786194
1772708527745804000,2.236803955078125,1.8741042613983154,0.08075084537267685,-0.3800349831581116
1772708527755829000,2.2468291015625,1.759150743484497,0.03133108466863632,-0.35927248001098633
1772708527765855000,2.25685498046875,1.600502848625183,-0.04183047264814377,-0.2149917483329773
1772708527775881000,2.266880859375,1.4069548845291138,-0.13332337141036987,-0.00402539037168026
1772708527785907000,2.276906982421875,1.1323896646499634,-0.1733916997909546,0.22292467951774597
1772708527795932200,2.28693212890625,0.7973544597625732,-0.14525912702083588,0.4319465756416321
1772708527805958100,2.296958251953125,0.520248293876648,-0.08055389672517776,0.6517007946968079
1772708527815984000,2.306984130859375,0.4181901514530182,0.002596928272396326,0.9517097473144531
1772708527826010000,2.317010009765625,0.5003273487091064,0.06687551736831665,1.3213772773742676
1772708527836035000,2.32703515625,0.6279300451278687,0.16694432497024536,1.659964680671692
1772708527846061000,2.33706103515625,0.6087771058082581,0.2685266137123108,1.85984468460083
1772708527856087000,2.347087158203125,0.3915201425552368,0.3191032409667969,1.9367165565490723
1772708527866112000,2.357112060546875,0.01656891405582428,0.27633073925971985,2.0146498680114746
1772708527876138000,2.367137939453125,-0.40530985593795776,0.18124550580978394,2.1390063762664795
1772708527886164000,2.3771640625,-0.7778376340866089,0.1653112769126892,2.2333362102508545
1772708527896190000,2.38718994140625,-1.0053095817565918,0.4430696666240692,2.2221732139587402
1772708527906215000,2.39721484375,-0.8829004168510437,0.9840825796127319,2.096111297607422
1772708527916241000,2.407240966796875,-0.3292100429534912,1.6069974899291992,1.7059576511383057
1772708527926267000,2.417266845703125,0.1832527071237564,1.9151060581207275,0.7674311399459839
1772708527936291800,2.427291748046875,0.024791056290268898,1.3659249544143677,-0.7792887091636658
1772708527946317800,2.43731787109375,-0.8831101059913635,0.44194522500038147,-2.042456865310669
1772708527956343800,2.44734375,-1.9831806421279907,-0.4386603832244873,-2.4870080947875977
1772708527966370000,2.4573701171875,-2.6792778968811035,-0.689365804195404,-2.2183353900909424
1772708527976395000,2.46739501953125,-2.7035775184631348,-0.0632883682847023,-1.8040969371795654
1772708527986421000,2.4774208984375,-1.4867727756500244,0.9903359413146973,-1.4659963846206665
1772708527996447000,2.487447021484375,0.6970885992050171,1.5477010011672974,-0.9158613085746765
1772708528006473000,2.497472900390625,2.2968244552612305,0.997157871723175,-0.001430874690413475
1772708528016498200,2.507498291015625,2.4999167919158936,-0.5566892623901367,1.119203805923462
1772708528026524200,2.517524169921875,1.986343502998352,-2.553006649017334,2.050553798675537
1772708528036550100,2.527550048828125,1.3564692735671997,-3.9768447875976562,2.578679323196411
1772708528046575000,2.5375751953125,0.8962609171867371,-4.0614423751831055,2.624574661254883
1772708528056601000,2.54760107421875,0.6180296540260315,-3.0488955974578857,2.2844455242156982
1772708528066627000,2.557626953125,0.4326837360858917,-1.7331886291503906,1.6251375675201416
1772708528076653000,2.567653076171875,0.17077405750751495,-0.45713528990745544,0.8186126947402954
1772708528086678000,2.577677978515625,-0.18039542436599731,0.5250206589698792,0.12057793885469437
1772708528096704000,2.5877041015625,-0.6625531911849976,1.2152012586593628,-0.29663988947868347
1772708528106730000,2.59772998046875,-1.268333077430725,1.64469313621521,-0.37772515416145325
1772708528116755000,2.6077548828125,-1.8006683588027954,1.8136407136917114,-0.18945783376693726
1772708528126781000,2.617781005859375,-2.1751627922058105,1.7718734741210938,0.15968312323093414
1772708528136807000,2.627806884765625,-2.3991549015045166,1.5814911127090454,0.5879153609275818
1772708528146833000,2.6378330078125,-2.4265918731689453,1.3786002397537231,1.0576785802841187
1772708528156857900,2.64785791015625,-2.282684087753296,1.22454035282135,1.5585319995880127
1772708528166883800,2.6578837890625,-2.0361874103546143,1.0346511602401733,1.9452201128005981
1772708528176909800,2.667909912109375,-1.7861472368240356,0.7402182221412659,2.1325671672821045
1772708528186935000,2.67793505859375,-1.5889118909835815,0.2561245262622833,2.0913755893707275
1772708528196961000,2.6879609375,-1.3702189922332764,-0.3167398273944855,1.9096673727035522
1772708528206987000,2.697987060546875,-1.176129937171936,-0.6538403034210205,1.8431278467178345
1772708528217013200,2.70801318359375,-0.8472447395324707,-1.211090326309204,1.4333094358444214
1772708528227038000,2.718037841796875,-0.702335774898529,-1.0784600973129272,1.145928978919983
1772708528237064000,2.72806396484375,-0.5829180479049683,-0.5813474655151367,0.8657692074775696
1772708528247090200,2.738090087890625,-0.4711497128009796,0.02962080016732216,0.8112407326698303
1772708528257116200,2.7481162109375,-0.2695717215538025,0.7230307459831238,0.9423010945320129
1772708528267141000,2.75814111328125,-0.04341873154044151,1.1886831521987915,1.0270503759384155
1772708528277167000,2.7681669921875,0.18404465913772583,1.4042603969573975,1.0254327058792114
1772708528287193000,2.778193115234375,0.47933250665664673,1.4972128868103027,0.9330253005027771
1772708528297218000,2.788218017578125,0.8087072372436523,1.6657705307006836,0.7154150605201721
1772708528307244000,2.798244140625,1.104638695716858,1.9003100395202637,0.3168157637119293
1772708528317270000,2.80827001953125,1.26376473903656,2.0648934841156006,-0.2929259240627289
1772708528327296000,2.8182958984375,1.2155919075012207,2.0446040630340576,-1.0683246850967407
1772708528337321000,2.828321044921875,0.9954163432121277,1.8444797992706299,-1.8854560852050781
1772708528347347000,2.838346923828125,0.6691511273384094,1.598878026008606,-2.566704034805298
1772708528357373000,2.848373046875,0.3526187837123871,1.4191101789474487,-3.045177459716797
1772708528367398100,2.858398193359375,0.16387471556663513,1.3024168014526367,-3.2730984687805176
1772708528377424100,2.868424072265625,-0.005252589471638203,1.3158892393112183,-3.2800979614257812
1772708528387449900,2.878449951171875,-0.08459721505641937,1.242613434791565,-3.175642490386963
1772708528397475800,2.888475830078125,-0.04366829991340637,1.0797041654586792,-2.9813392162323
1772708528407501000,2.8985009765625,0.09436440467834473,0.9266421794891357,-2.674036741256714
1772708528417527000,2.908527099609375,0.23159915208816528,0.6373022198677063,-2.3374340534210205
1772708528427553000,2.918552978515625,0.27989745140075684,0.22965136170387268,-1.9674246311187744
1772708528437578500,2.92857861328125,0.2334793657064438,-0.045494444668293,-1.5654959678649902
1772708528447604500,2.9386044921875,0.1441340297460556,-0.16041064262390137,-1.1714125871658325
1772708528457630500,2.94863037109375,0.02331624925136566,-0.1932988166809082,-0.8548058867454529
1772708528467656400,2.958656494140625,-0.12351900339126587,-0.09175382554531097,-0.6103039979934692
1772708528477681400,2.968681396484375,-0.26193198561668396,-0.04645957425236702,-0.4066120684146881
1772708528487707400,2.978707275390625,-0.39181169867515564,-0.19364850223064423,-0.3288160562515259
1772708528497733400,2.9887333984375,-0.5780153870582581,-0.3476404547691345,-0.3220730423927307
1772708528507759400,2.99875927734375,-0.784014105796814,-0.5996676087379456,-0.35408133268356323
1772708528517784300,3.008784423828125,-0.9237634539604187,-0.920545220375061,-0.35202574729919434
1772708528527810300,3.018810302734375,-0.9551858305931091,-1.0762126445770264,-0.20719747245311737
1772708528537836300,3.028836181640625,-0.9471820592880249,-1.3489108085632324,0.08284822851419449
1772708528547861200,3.038861328125,-1.0735894441604614,-2.266401767730713,0.24244347214698792
1772708528557887200,3.04888720703125,-1.2987864017486572,-3.2355620861053467,0.2778673470020294
1772708528567913200,3.058913330078125,-1.4134713411331177,-3.9602949619293213,0.06825124472379684
1772708528577939200,3.068939208984375,-1.3298794031143188,-4.290208339691162,-0.4683806598186493
1772708528587964400,3.07896435546875,-0.8890591263771057,-3.839761972427368,-1.0095057487487793
1772708528597990400,3.088990478515625,-0.2745956778526306,-2.2225120067596436,-1.4895458221435547
1772708528608016400,3.099016357421875,0.8653563261032104,-0.6646900177001953,-1.8255387544631958
1772708528618041300,3.109041259765625,2.4015369415283203,-0.0775970071554184,-1.877180814743042
1772708528628067600,3.119067626953125,3.2334704399108887,-0.20197302103042603,-1.740502119064331
1772708528638093600,3.129093505859375,2.757096529006958,-0.9068629741668701,-1.6494555473327637
1772708528648119600,3.13911962890625,1.5199596881866455,-1.9188698530197144,-1.356400728225708
1772708528658144500,3.14914453125,0.3926798105239868,-3.212428092956543,-0.984971821308136
1772708528668170500,3.15917041015625,-0.431762158870697,-4.112753391265869,-0.8373631834983826
1772708528678196500,3.169196533203125,-0.8751338720321655,-4.347681045532227,-1.0199377536773682
1772708528688221400,3.179221435546875,-1.1141754388809204,-3.840311050415039,-1.3201990127563477
1772708528698247400,3.189247314453125,-1.0983003377914429,-2.9956235885620117,-1.8146913051605225
1772708528708273400,3.1992734375,-0.9240210056304932,-1.9688220024108887,-2.24777889251709
1772708528718299400,3.20929931640625,-0.6206499338150024,-1.050310492515564,-2.485668659210205
1772708528728324400,3.219324462890625,-0.34221431612968445,-0.25546950101852417,-2.437659740447998
1772708528738350300,3.229350341796875,-0.11911074817180634,0.35613498091697693,-2.1407456398010254
1772708528748376300,3.239376220703125,0.04345205798745155,0.8436612486839294,-1.6784024238586426
1772708528758401300,3.2494013671875,0.1448240429162979,1.2043157815933228,-1.1429117918014526
1772708528768427300,3.25942724609375,0.14548131823539734,1.3570553064346313,-0.5759592056274414
1772708528778453200,3.269453369140625,0.03529313951730728,1.218846321105957,-0.07901562750339508
1772708528788479200,3.279479248046875,-0.10941584408283234,0.8628295660018921,0.31756821274757385
1772708528798504400,3.28950439453125,-0.2811371386051178,0.47915226221084595,0.6024710536003113
1772708528808530400,3.299530517578125,-0.4687805473804474,0.26534223556518555,0.8235650658607483
1772708528818556400,3.309556396484375,-0.6194820404052734,0.21292828023433685,1.0181833505630493
1772708528828581400,3.319581298828125,-0.6811110377311707,0.28742116689682007,1.1953994035720825
1772708528838607400,3.329607421875,-0.6611738204956055,0.3212270736694336,1.3503613471984863
1772708528848633300,3.33963330078125,-0.5904520153999329,0.2919006049633026,1.4971683025360107
1772708528858659300,3.349659423828125,-0.46476995944976807,0.23865549266338348,1.6038756370544434
1772708528868684300,3.359684326171875,-0.28177112340927124,0.1682359129190445,1.6708320379257202
1772708528878710300,3.369710205078125,-0.09793330729007721,0.07470358163118362,1.715341329574585
1772708528888736500,3.379736572265625,0.042904503643512726,-0.03988291695713997,1.746180534362793
1772708528898761200,3.38976123046875,0.18348263204097748,-0.17598536610603333,1.765160322189331
1772708528908787500,3.399787353515625,0.3324635922908783,-0.2977868914604187,1.737972378730774
1772708528918813400,3.4098134765625,0.42265480756759644,-0.36449986696243286,1.6433247327804565
1772708528928839400,3.41983935546875,0.47691431641578674,-0.4559142291545868,1.4572761058807373
1772708528938864400,3.429864501953125,0.4831535518169403,-0.45129311084747314,1.160608172416687
1772708528948890400,3.439890380859375,0.49290311336517334,-0.2390013486146927,0.7979764342308044
1772708528958916400,3.449916259765625,0.5237732529640198,0.07564608752727509,0.42854854464530945
1772708528968941600,3.459941650390625,0.5358242988586426,0.4283660352230072,0.09836717694997787
1772708528978967600,3.469967529296875,0.5049307942390442,0.8066417574882507,-0.1341722309589386
1772708528988993300,3.4799931640625,0.45277807116508484,1.088692545890808,-0.27234554290771484
1772708528999019300,3.490019287109375,0.3572302460670471,1.19791841506958,-0.2832180857658386
1772708529009044500,3.50004443359375,0.23540394008159637,1.0065436363220215,-0.1993522197008133
1772708529019070500,3.510070556640625,0.10282140225172043,0.6455351710319519,-0.0466114804148674
1772708529029096400,3.520096435546875,-0.029396021738648415,0.23032966256141663,0.13587044179439545
1772708529039121400,3.530121337890625,-0.2145085632801056,-0.17474165558815002,0.2645648121833801
1772708529049147400,3.5401474609375,-0.44943293929100037,-0.4311310946941376,0.31713560223579407
1772708529059173400,3.55017333984375,-0.6710906624794006,-0.5402759909629822,0.2844913601875305
1772708529069199400,3.560199462890625,-0.8901675939559937,-0.5316202044487,0.2278326004743576
1772708529079224300,3.570224365234375,-1.0557613372802734,-0.2693161070346832,0.26888546347618103
1772708529089250300,3.580250244140625,-1.1126184463500977,0.3825346529483795,0.39913055300712585
1772708529099276300,3.5902763671875,-1.1001838445663452,1.176195502281189,0.6012816429138184
1772708529109301200,3.60030126953125,-1.076804280281067,1.9248162508010864,0.8283395767211914
1772708529119327200,3.6103271484375,-1.0121352672576904,2.613738775253296,1.1537455320358276
1772708529129353200,3.620353271484375,-1.0228720903396606,3.1533563137054443,1.71012544631958
1772708529139379200,3.630379150390625,-0.884144127368927,2.6002845764160156,1.8910032510757446
1772708529149404200,3.640404052734375,-0.7203301787376404,1.2975988388061523,1.1993428468704224
1772708529159430100,3.65043017578125,-0.44886651635169983,-0.18404194712638855,-0.1814107894897461
1772708529169456400,3.660456298828125,0.004934807773679495,-0.829840362071991,-1.28665292263031
1772708529179481300,3.6704814453125,0.3063654899597168,-0.11734361201524734,-1.65455162525177
1772708529189507600,3.680507568359375,0.6733227372169495,1.183950662612915,-1.256765365600586
1772708529199533600,3.690533447265625,0.9626647233963013,1.6842041015625,-0.6956665515899658
1772708529209559600,3.7005595703125,0.9901008605957031,0.9076050519943237,-0.41995614767074585
1772708529219584500,3.71058447265625,0.72165846824646,-0.47146841883659363,0.04833373427391052
1772708529229610500,3.720610595703125,0.1400432586669922,-2.3595821857452393,0.9812787175178528
1772708529239636500,3.730636474609375,-0.6482351422309875,-4.289924144744873,2.2191085815429688
1772708529249661400,3.740661376953125,-1.416805624961853,-5.958040237426758,3.37546706199646
1772708529259687400,3.7506875,-1.4962525367736816,-7.458374500274658,3.5551083087921143
1772708529269713400,3.76071337890625,-1.4316014051437378,-6.32157564163208,3.3052453994750977
1772708529279739400,3.770739501953125,-1.1897135972976685,-5.078798770904541,2.516500473022461
1772708529289764400,3.780764404296875,-0.961561918258667,-3.8034396171569824,1.5479350090026855
1772708529299790300,3.790790283203125,-0.7900237441062927,-2.682612419128418,0.7767665982246399
1772708529309816300,3.80081640625,-0.4729163646697998,-2.422441244125366,-0.33199790120124817
1772708529319841300,3.81084130859375,-0.3104988932609558,-1.8962918519973755,-1.220285415649414
1772708529329867300,3.8208671875,0.08820322155952454,-1.1302425861358643,-1.8300845623016357
1772708529339893200,3.830893310546875,0.7054347395896912,-0.15390324592590332,-2.2594871520996094
1772708529349919200,3.840919189453125,1.300576090812683,0.9700984954833984,-2.456486225128174
1772708529359944400,3.8509443359375,1.719522476196289,2.024739980697632,-2.4347591400146484
1772708529369970400,3.860970458984375,1.7456881999969482,2.9524848461151123,-2.2860751152038574
1772708529379996400,3.870996337890625,1.3902393579483032,3.5305190086364746,-2.122034788131714
1772708529390021400,3.881021484375,0.7719374299049377,3.8561182022094727,-1.9835466146469116
1772708529400047400,3.89104736328125,0.12280285358428955,4.097011089324951,-1.7412748336791992
1772708529410073300,3.9010732421875,-0.3719453811645508,4.2173638343811035,-1.3416112661361694
1772708529420099300,3.911099365234375,-0.6212937235832214,4.272082328796387,-0.7732882499694824
1772708529430124300,3.921124267578125,-0.5764437317848206,4.182127952575684,-0.06755189597606659
1772708529440150300,3.931150390625,-0.3429897427558899,3.8476974964141846,0.6689690947532654
1772708529450176300,3.94117626953125,0.0031719240359961987,3.296194076538086,1.229735255241394
1772708529460201200,3.951201171875,0.3274288475513458,2.9621307849884033,1.5924285650253296
1772708529470227200,3.961227294921875,0.5231437683105469,2.9520487785339355,1.786462664604187
1772708529480253200,3.971253173828125,0.5149809718132019,2.9797236919403076,1.8138524293899536
1772708529490279200,3.981279052734375,0.36766260862350464,2.859313488006592,1.7235710620880127
1772708529500304100,3.99130419921875,0.20008693635463715,2.570028781890869,1.5905840396881104
1772708529510330000,4.001330078125,0.10900335758924484,2.285403251647949,1.3859927654266357
1772708529520356000,4.011356201171875,0.15690934658050537,2.1084110736846924,1.1049891710281372
1772708529530381300,4.02138134765625,0.34855547547340393,1.9918791055679321,0.716343104839325
1772708529540407300,4.0314072265625,0.6295248866081238,1.9798322916030884,0.3176855742931366
1772708529550433300,4.041433349609375,0.9972293972969055,1.9394323825836182,-0.06350279599428177
1772708529560458200,4.051458251953125,1.3642553091049194,1.873914361000061,-0.3933425545692444
1772708529570484200,4.061484130859375,1.5318384170532227,1.818170189857483,-0.7233803868293762
1772708529580510200,4.07151025390625,1.42604398727417,1.6095503568649292,-0.9968778491020203
1772708529590536400,4.081536376953125,1.0606201887130737,1.1851953268051147,-1.2546234130859375
1772708529600561200,4.09156103515625,0.5536781549453735,0.7820966839790344,-1.3297611474990845
1772708529610587400,4.10158740234375,0.09030946344137192,0.287497878074646,-1.234596610069275
1772708529620613400,4.11161328125,-0.2554585933685303,-0.2819102108478546,-1.0348883867263794
1772708529630638300,4.121638427734375,-0.4532526433467865,-0.8155887722969055,-0.7975897789001465
1772708529640664300,4.131664306640625,-0.5012509226799011,-1.2780145406723022,-0.5768943428993225
1772708529650690300,4.141690185546875,-0.44686785340309143,-1.5866665840148926,-0.4067201614379883
1772708529660716300,4.15171630859375,-0.3411684036254883,-1.6206735372543335,-0.27422386407852173
1772708529670741200,4.1617412109375,-0.23913869261741638,-1.367166519165039,-0.178732767701149
1772708529680767200,4.171767333984375,-0.24218948185443878,-0.9009299874305725,-0.1455526053905487
1772708529690793200,4.181793212890625,-0.3856816589832306,-0.2611391246318817,-0.14406947791576385
1772708529700818200,4.191818115234375,-0.5306821465492249,0.4135684669017792,-0.14014002680778503
1772708529710844200,4.20184423828125,-0.6730555295944214,0.8695870637893677,-0.1288926899433136
1772708529720870100,4.2118701171875,-0.8551658987998962,0.8040251731872559,-0.1987602412700653
1772708529730896100,4.221896240234375,-1.0958352088928223,0.17518144845962524,-0.25362056493759155
1772708529740921300,4.23192138671875,-1.2868001461029053,-0.5519012212753296,-0.06065759062767029
1772708529750947300,4.241947265625,-1.2343188524246216,-1.117488980293274,0.5728663802146912
1772708529760973300,4.251973388671875,-0.8766979575157166,-1.5219613313674927,1.1842631101608276
1772708529770998300,4.261998291015625,-0.6043540239334106,-2.0683131217956543,0.6665659546852112
1772708529781024300,4.272024169921875,-0.7352020740509033,-2.8309719562530518,-1.2382208108901978
1772708529791050200,4.28205029296875,-1.117195725440979,-3.593036413192749,-3.58436918258667
1772708529801076200,4.292076171875,-1.4296236038208008,-4.017908096313477,-5.267550945281982
1772708529811101200,4.30210107421875,-1.4297910928726196,-3.7605316638946533,-5.608862400054932
1772708529821127200,4.312127197265625,-1.1409199237823486,-2.945260763168335,-4.584892749786377
1772708529831153200,4.322153076171875,-0.577455997467041,-2.439594268798828,-2.549017906188965
1772708529841178000,4.33217822265625,-0.2806408703327179,-3.117858409881592,-0.6947894096374512
1772708529851204000,4.3422041015625,-0.6070631742477417,-4.651480674743652,0.5910923480987549
1772708529861230000,4.35222998046875,-0.9972370862960815,-6.016267776489258,1.0993441343307495
1772708529871255000,4.362255126953125,-1.4070051908493042,-6.159320831298828,0.9829951524734497
1772708529881281000,4.372281005859375,-1.56350576877594,-5.669798374176025,0.555955708026886
1772708529891307300,4.382307373046875,-1.35041344165802,-4.641761302947998,0.03869129717350006
1772708529901333200,4.392333251953125,-0.9688717722892761,-3.549464702606201,-0.5246299505233765
1772708529911358500,4.4023583984375,-0.5781943202018738,-2.629185438156128,-1.0054680109024048
1772708529921384400,4.412384521484375,-0.2596157491207123,-2.1711716651916504,-1.311696171760559
1772708529931410400,4.422410400390625,0.10471425950527191,-1.845160961151123,-1.3874942064285278
1772708529941435400,4.432435302734375,0.413819819688797,-1.416429877281189,-1.3492674827575684
1772708529951461400,4.44246142578125,0.5025269985198975,-0.8656261563301086,-1.2124462127685547
1772708529961487400,4.4524873046875,0.2838447093963623,-0.2904070317745209,-0.9341461658477783
1772708529971513300,4.462513427734375,-0.10173866152763367,0.29870840907096863,-0.5331558585166931
1772708529981538300,4.472538330078125,-0.499309778213501,0.9040848612785339,-0.045037176460027695
1772708529991564300,4.482564208984375,-0.8404223918914795,1.4138761758804321,0.43858540058135986
1772708530001590300,4.49259033203125,-1.0785619020462036,1.7254642248153687,0.8921888470649719
1772708530011615200,4.502615234375,-1.1976044178009033,1.768754482269287,1.2636140584945679
1772708530021641200,4.51264111328125,-1.1760923862457275,1.6557987928390503,1.4856593608856201
1772708530031667200,4.522667236328125,-1.0159612894058228,1.4718292951583862,1.479110836982727
1772708530041692200,4.532692138671875,-0.7265596985816956,1.4214228391647339,1.292769193649292
1772708530051718100,4.54271826171875,-0.4116690754890442,1.6190943717956543,0.9774826169013977
1772708530061744000,4.552744140625,-0.16053128242492676,2.0303783416748047,0.5653924345970154
1772708530071770000,4.56277001953125,0.023011645302176476,2.504577398300171,0.1610715687274933
1772708530081795300,4.57279541015625,0.1531444787979126,2.8719260692596436,-0.04192480072379112
1772708530091821300,4.5828212890625,0.2827166020870209,3.048201322555542,-0.03270520269870758
1772708530101847300,4.592847412109375,0.3713984489440918,2.9242844581604004,0.09591270238161087
1772708530111872300,4.602872314453125,0.3603402078151703,2.3875818252563477,0.32499727606773376
1772708530121898200,4.612898193359375,0.32523438334465027,1.5143133401870728,0.49791836738586426
1772708530131924200,4.62292431640625,0.18122632801532745,0.6732069253921509,0.5761289596557617
1772708530141950500,4.632950439453125,0.039350684732198715,0.06022130325436592,0.598923921585083
1772708530151975200,4.64297509765625,-0.018480921164155006,-0.30761608481407166,0.607897162437439
1772708530162001200,4.653001220703125,0.022089436650276184,-0.5416200757026672,0.516669750213623
1772708530172027400,4.66302734375,0.1256488561630249,-0.5211920738220215,0.3488495647907257
1772708530182052000,4.673052001953125,0.2560596168041229,-0.25049421191215515,0.16451874375343323
1772708530192078300,4.683078369140625,0.36916884779930115,0.0929185301065445,-0.05897560715675354
1772708530202104300,4.693104248046875,0.4187253713607788,0.5579642057418823,-0.2756045162677765
1772708530212129300,4.70312939453125,0.38295644521713257,1.1643633842468262,-0.3712197244167328
1772708530222155300,4.7131552734375,0.28496575355529785,1.6567325592041016,-0.33816012740135193
1772708530232181200,4.72318115234375,0.1447356939315796,1.8814945220947266,-0.19379524886608124
1772708530242207200,4.733207275390625,-0.0164120402187109,1.8792189359664917,0.03709424287080765
1772708530252232200,4.743232177734375,-0.14970165491104126,1.6886755228042603,0.3093385398387909
1772708530262258200,4.753258056640625,-0.19926780462265015,1.4299672842025757,0.5985110998153687
1772708530272284200,4.7632841796875,-0.16765102744102478,1.2231134176254272,0.8667694330215454
1772708530282309400,4.773309326171875,-0.11427759379148483,1.2356340885162354,1.087835431098938
1772708530292335400,4.78333544921875,-0.12268280237913132,1.5202876329421997,1.2258081436157227
1772708530302361300,4.793361328125,-0.2380484640598297,2.0181057453155518,1.3273359537124634
1772708530312387300,4.80338720703125,-0.4961079955101013,2.7108945846557617,1.4602924585342407
1772708530322412300,4.813412353515625,-0.8715265393257141,3.3905909061431885,1.7467707395553589
1772708530332438300,4.823438232421875,-1.3081586360931396,3.7677838802337646,2.316896438598633
1772708530342464300,4.83346435546875,-1.6380318403244019,3.6213088035583496,3.0750515460968018
1772708530352489200,4.8434892578125,-1.8321629762649536,3.2583582401275635,3.7300848960876465
1772708530362515200,4.85351513671875,-1.9302929639816284,2.9163835048675537,4.144608497619629
1772708530372541200,4.863541259765625,-1.7029423713684082,2.240065336227417,4.259777545928955
1772708530382566100,4.873566162109375,-0.6313610672950745,0.8217343688011169,3.6059532165527344
1772708530392592100,4.883592041015625,1.3010705709457397,-1.2854212522506714,1.3119717836380005
1772708530402618000,4.8936181640625,3.0057849884033203,-3.8695528507232666,-3.049349069595337
1772708530412644000,4.90364404296875,3.607301950454712,-5.676088809967041,-8.046956062316895
1772708530422669000,4.9136689453125,3.1288702487945557,-4.2317795753479,-10.911809921264648
1772708530432695000,4.923695068359375,2.0486819744110107,0.16866976022720337,-10.492950439453125
1772708530442721000,4.933720947265625,1.978226661682129,3.5089542865753174,-8.261716842651367
1772708530452746200,4.943746337890625,2.0589559078216553,3.893486261367798,-5.747615337371826
1772708530462772200,4.953772216796875,2.0191593170166016,1.7162879705429077,-3.026024580001831
1772708530472798200,4.963798095703125,1.4926366806030273,-0.8865252733230591,-0.30708110332489014
1772708530482823200,4.9738232421875,0.5539854764938354,-2.846409559249878,1.508437156677246
1772708530492849200,4.98384912109375,-0.015399444848299026,-4.016448020935059,2.4499964714050293
1772708530502875100,4.993875244140625,0.011912425979971886,-4.169888019561768,2.7733612060546875
1772708530512901000,5.003901123046875,0.34122106432914734,-3.554056167602539,2.4359397888183594
1772708530522926000,5.013926025390625,0.6141640543937683,-2.6173183917999268,1.648371934890747
1772708530532952000,5.0239521484375,0.8035856485366821,-1.6509225368499756,0.6591606736183167
1772708530542978000,5.03397802734375,0.9017110466957092,-0.7488670349121094,-0.4202730059623718
1772708530553003000,5.0440029296875,0.8254210352897644,0.30345872044563293,-1.4002622365951538
1772708530563029000,5.054029052734375,0.5868113040924072,1.3949116468429565,-2.1979176998138428
1772708530573055000,5.064054931640625,0.2904033064842224,2.29502010345459,-2.6747074127197266
1772708530583081200,5.074081298828125,0.10935936123132706,2.8938140869140625,-2.655712604522705
1772708530593106000,5.08410595703125,0.01403443980962038,3.1881749629974365,-2.1318717002868652
1772708530603132000,5.0941318359375,-0.011137374676764011,3.0067412853240967,-1.2805702686309814
1772708530613158100,5.104158203125,-0.037477366626262665,2.407198667526245,-0.3496042490005493
1772708530623183000,5.11418310546875,-0.13650722801685333,1.6450660228729248,0.4719187021255493
1772708530633209300,5.124209228515625,-0.283405601978302,0.9474257230758667,1.1515576839447021
1772708530643235300,5.1342353515625,-0.431561678647995,0.35944557189941406,1.6926758289337158
1772708530653260300,5.14426025390625,-0.5398674011230469,-0.08065751940011978,2.0935821533203125
1772708530663286300,5.154286376953125,-0.5553772449493408,-0.34383058547973633,2.314739942550659
1772708530673312300,5.164312255859375,-0.4669102430343628,-0.4116399884223938,2.3656606674194336
1772708530683338200,5.174338134765625,-0.31856128573417664,-0.2715534269809723,2.2514240741729736
1772708530693363200,5.18436328125,-0.16756272315979004,0.029466327279806137,2.0498342514038086
1772708530703389200,5.19438916015625,-0.04464445263147354,0.3813641667366028,1.8271968364715576
1772708530713415200,5.204415283203125,0.031876686960458755,0.7017807960510254,1.6497360467910767
1772708530723440000,5.214440185546875,0.03680487349629402,0.9225807785987854,1.5255988836288452
1772708530733466000,5.224466064453125,-0.02890702709555626,1.0070067644119263,1.4348269701004028
1772708530743492000,5.2344921875,-0.2045024335384369,0.9342859387397766,1.3918930292129517
1772708530753517000,5.24451708984375,-0.43760278820991516,0.6777539849281311,1.39723801612854
1772708530763543000,5.25454296875,-0.6304489970207214,0.34030887484550476,1.3915956020355225
1772708530773569000,5.264569091796875,-0.7436205744743347,0.02379271201789379,1.3924297094345093
1772708530783595000,5.274594970703125,-0.8004871606826782,-0.22018933296203613,1.365318775177002
1772708530793620200,5.2846201171875,-0.821122407913208,-0.38082242012023926,1.2900646924972534
1772708530803646200,5.294646240234375,-0.7855629920959473,-0.47980573773384094,1.1784117221832275
1772708530813672200,5.304672119140625,-0.6605011820793152,-0.57764732837677,1.0863656997680664
1772708530823697200,5.314697265625,-0.5268797874450684,-0.6402840614318848,1.0236929655075073
1772708530835602000,5.326601806640625,-0.4764600098133087,-0.5293975472450256,1.0718554258346558
1772708530845628000,5.3366279296875,-0.46895715594291687,-0.4689333736896515,1.2044328451156616
1772708530855654100,5.346654052734375,-0.44092097878456116,-0.373179167509079,1.3708326816558838
1772708530865679000,5.35667919921875,-0.4284299314022064,-0.23441140353679657,1.5341377258300781
1772708530875705300,5.366705322265625,-0.37530839443206787,-0.2966329753398895,1.6827034950256348
1772708530885731300,5.3767314453125,-0.25976237654685974,-0.3929203748703003,1.7964247465133667
1772708530895756300,5.38675634765625,-0.1093052327632904,-0.476701557636261,1.8598344326019287
1772708530905782300,5.3967822265625,0.09375543147325516,-0.5576520562171936,1.8460215330123901
1772708530915808300,5.406808349609375,0.40370261669158936,-0.5397015810012817,1.7095987796783447
1772708530925833200,5.416833251953125,0.7727113962173462,-0.42008593678474426,1.4767704010009766
1772708530935859200,5.426859130859375,0.9844100475311279,-0.19747869670391083,1.1552748680114746
1772708530945885200,5.43688525390625,0.7298470139503479,1.3053447008132935,0.8983584046363831
1772708530955910100,5.44691015625,0.2840711176395416,2.811044216156006,0.4424061179161072
1772708530965936000,5.45693603515625,0.010913949459791183,3.1103310585021973,0.1683046668767929
1772708530975962000,5.466962158203125,0.33045172691345215,1.9770556688308716,0.37034910917282104
1772708530985988000,5.476988037109375,0.7051356434822083,0.5006993412971497,0.43445050716400146
1772708530996013000,5.487012939453125,0.07293077558279037,-0.2458464801311493,-0.3752671182155609
1772708531006039000,5.4970390625,-1.4097211360931396,-0.08256223052740097,-1.8715370893478394
1772708531016065000,5.50706494140625,-2.3165409564971924,0.7017701268196106,-2.987464666366577
1772708531026090200,5.51709033203125,-1.8945810794830322,1.5196268558502197,-3.1003146171569824
1772708531036116200,5.5271162109375,-0.7173426747322083,1.763029932975769,-2.6879923343658447
1772708531046142200,5.53714208984375,0.4933526813983917,1.7548636198043823,-2.0245609283447266
1772708531056167200,5.547167236328125,1.3195024728775024,1.8848602771759033,-1.1751501560211182
1772708531066193200,5.557193115234375,1.540672779083252,1.5714179277420044,-0.44743040204048157
1772708531076219100,5.56721923828125,1.218177318572998,0.9662050008773804,-0.04259183630347252
1772708531086245000,5.5772451171875,0.6113238334655762,0.4646092355251312,0.04254823550581932
1772708531096270000,5.58727001953125,0.01781495288014412,0.010664391331374645,-0.02070796675980091
1772708531106296000,5.597296142578125,-0.42731767892837524,-0.48366329073905945,-0.11544479429721832
1772708531116322000,5.607322021484375,-0.6307435035705566,-0.979994535446167,-0.1595563292503357
1772708531126347000,5.617346923828125,-0.553954541683197,-1.3318984508514404,-0.005728607531636953
1772708531136373000,5.627373046875,-0.3511103689670563,-1.468571662902832,0.351814329624176
1772708531147027000,5.63802685546875,-0.05939570069313049,-1.4000115394592285,0.6558871865272522
1772708531157052200,5.64805224609375,0.22652816772460938,-1.0168797969818115,0.782831072807312
1772708531167078100,5.658078125,0.47373130917549133,-0.4749840795993805,0.7826001644134521
1772708531177104100,5.668104248046875,0.6926928162574768,-0.07450269162654877,0.6739057898521423
1772708531187129000,5.678129150390625,0.8093315362930298,-0.08516599237918854,0.498452752828598
1772708531197155300,5.6881552734375,0.7355746626853943,-0.27641773223876953,0.36412715911865234
1772708531207181300,5.698181396484375,0.3912084698677063,-0.4207647740840912,0.3283950090408325
1772708531217207300,5.708207275390625,-0.14340084791183472,-0.5195155739784241,0.28350967168807983
1772708531227232300,5.718232177734375,-0.5799052119255066,-0.6519415378570557,0.13171455264091492
1772708531237258200,5.72825830078125,-0.6962957978248596,-0.7826827764511108,-0.06541112810373306
1772708531247284200,5.7382841796875,-0.5052163600921631,-0.7250050902366638,-0.19843949377536774
1772708531257309200,5.74830908203125,-0.18098492920398712,-0.4947764277458191,-0.2624061107635498
1772708531267335200,5.758335205078125,0.17463041841983795,-0.18407340347766876,-0.27043473720550537
1772708531277361200,5.768361083984375,0.5151880979537964,0.07194160670042038,-0.23170828819274902
1772708531287386000,5.77838623046875,0.7965254783630371,0.2796865701675415,-0.1361444890499115
1772708531297412000,5.788412109375,0.9388512372970581,0.5161004066467285,0.014180051162838936
1772708531307438000,5.79843798828125,0.9157328605651855,0.7325253486633301,0.20125433802604675
1772708531317464000,5.808464111328125,0.7768748998641968,0.8355984687805176,0.3782133460044861
1772708531327489000,5.818489013671875,0.5468696355819702,0.7862863540649414,0.5257303714752197
1772708531337515000,5.828514892578125,0.24788494408130646,0.6446727514266968,0.6307238936424255
1772708531347541000,5.838541015625,-0.030123522505164146,0.44953522086143494,0.7245292067527771
1772708531357566200,5.848566162109375,-0.24014079570770264,0.3451315760612488,0.7905059456825256
1772708531367592200,5.85859228515625,-0.36927294731140137,0.3515569865703583,0.7916446924209595
1772708531377618200,5.8686181640625,-0.3851270079612732,0.4382151961326599,0.7516613006591797
1772708531387643100,5.87864306640625,-0.27959585189819336,0.7008313536643982,0.700190007686615
1772708531397669000,5.888669189453125,-0.12709683179855347,1.0166473388671875,0.6389261484146118
1772708531407695000,5.898695068359375,-0.020045477896928787,1.17505943775177,0.5789461731910706
1772708531417721000,5.90872119140625,-0.001132971839979291,1.1773099899291992,0.5011228919029236
1772708531427746000,5.91874609375,-0.03828353434801102,1.0275365114212036,0.4300204813480377
1772708531437772300,5.928772216796875,-0.07681985199451447,0.762260377407074,0.423357754945755
1772708531447798500,5.938798583984375,-0.1213471069931984,0.4495703876018524,0.46201246976852417
1772708531457823200,5.9488232421875,-0.15605583786964417,0.13473467528820038,0.4648103713989258
1772708531467849500,5.958849365234375,-0.15769128501415253,-0.04257458448410034,0.3811309039592743
1772708531477875500,5.96887548828125,-0.048354413360357285,0.15826530754566193,0.23006422817707062
1772708531487901400,5.9789013671875,0.3689059317111969,0.9830257892608643,0.38378986716270447
1772708531497926400,5.988926513671875,0.9404717087745667,1.7787429094314575,0.8770988583564758
1772708531507952400,5.998952392578125,1.2268222570419312,1.0667126178741455,0.9882597327232361
1772708531517978400,6.008978271484375,0.9888694882392883,-0.5241955518722534,0.4433317184448242
1772708531528003300,6.01900341796875,0.30414652824401855,-1.5551707744598389,-0.3631645441055298
1772708531538029300,6.029029296875,-0.21107549965381622,-1.3860805034637451,-0.7890750765800476
1772708531548055300,6.03905517578125,-0.23795345425605774,-0.562262773513794,-0.7180400490760803
1772708531558080500,6.04908056640625,-0.034095603972673416,0.17188285291194916,-0.4781273603439331
1772708531568106500,6.0591064453125,0.1721089631319046,0.6288538575172424,-0.25107690691947937
1772708531578132500,6.069132568359375,0.30424702167510986,0.5287514925003052,-0.2542014420032501
1772708531588158500,6.079158447265625,0.30325472354888916,0.09984833002090454,-0.5715474486351013
1772708531598183400,6.089183349609375,0.14217138290405273,-0.09284121543169022,-0.8872528672218323
1772708531608209400,6.09920947265625,0.03904394060373306,0.08024321496486664,-0.8420454263687134
1772708531618235400,6.1092353515625,0.0851982906460762,0.3920535445213318,-0.45936575531959534
1772708531628260400,6.11926025390625,0.1992846429347992,0.5289821028709412,-0.03152521327137947
1772708531638286300,6.129286376953125,0.26438239216804504,0.35706785321235657,0.17956340312957764
1772708531648312300,6.139312255859375,0.26875585317611694,0.029516112059354782,0.15979555249214172
1772708531658337300,6.149337158203125,0.2320963442325592,-0.29553496837615967,-0.022071698680520058
1772708531668363300,6.15936328125,0.12339197099208832,-0.46292394399642944,-0.25540828704833984
1772708531678389200,6.16938916015625,0.010581031441688538,-0.3982030153274536,-0.4417286515235901
1772708531688415200,6.179415283203125,-0.050462882965803146,-0.18455302715301514,-0.5587000250816345
1772708531698440200,6.189440185546875,-0.09740894287824631,0.018002988770604134,-0.711180567741394
1772708531708466200,6.199466064453125,-0.1312313675880432,0.11476867645978928,-0.9555322527885437
1772708531718492200,6.2094921875,-0.11799131333827972,0.016428273171186447,-1.2167530059814453
1772708531728517400,6.219517333984375,-0.04481191188097,-0.2220391482114792,-1.3352903127670288
1772708531738543400,6.22954345703125,0.059001874178647995,-0.5647869110107422,-1.2743935585021973
1772708531748569600,6.239569580078125,0.11129490286111832,-1.039040207862854,-1.146285891532898
1772708531758595600,6.249595703125,0.018181301653385162,-1.470295786857605,-1.150820016860962
1772708531768620500,6.25962060546875,-0.1520804464817047,-1.6929445266723633,-1.4024202823638916
1772708531778646500,6.269646484375,-0.307109534740448,-1.596183180809021,-1.7995964288711548
1772708531788672500,6.279672607421875,-0.4421760141849518,-1.1162629127502441,-2.2233853340148926
1772708531798697500,6.289697509765625,-0.5285692811012268,-0.36184900999069214,-2.5734009742736816
1772708531808723500,6.299723388671875,-0.492807537317276,0.3904260993003845,-2.7561912536621094
1772708531818749400,6.30974951171875,-0.35449281334877014,0.917303740978241,-2.7312002182006836
1772708531828774400,6.3197744140625,-0.1827612966299057,1.1451630592346191,-2.4928627014160156
1772708531838800400,6.32980029296875,-0.02066735364496708,1.1457369327545166,-2.0526819229125977
1772708531848826400,6.339826416015625,0.07928640395402908,1.054789423942566,-1.4662342071533203
1772708531858852400,6.349852294921875,0.12044751644134521,0.9660379886627197,-0.7961891889572144
1772708531868877300,6.359877197265625,0.12221772223711014,0.8522003889083862,-0.10440781712532043
1772708531878903300,6.3699033203125,0.05804355442523956,0.6822699308395386,0.5527371168136597
1772708531888929300,6.37992919921875,-0.04028754308819771,0.48336082696914673,1.1269673109054565
1772708531898954500,6.38995458984375,-0.14121320843696594,0.29037460684776306,1.5610612630844116
1772708531908980500,6.39998046875,-0.20267391204833984,0.16073192656040192,1.830599308013916
1772708531919006500,6.41000634765625,-0.22776739299297333,0.10688519477844238,1.9460270404815674
1772708531929031400,6.420031494140625,-0.2697369456291199,0.13000595569610596,1.9354788064956665
1772708531939057400,6.430057373046875,-0.3099742531776428,0.20029529929161072,1.8456097841262817
1772708531949083400,6.44008349609375,-0.3735215365886688,0.2860562801361084,1.7179319858551025
1772708531959109400,6.450109375,-0.42890262603759766,0.366745263338089,1.5512707233428955
1772708531969134300,6.46013427734375,-0.4459298253059387,0.4425044655799866,1.3283201456069946
1772708531979160300,6.470160400390625,-0.3066152334213257,0.5664165616035461,1.1148666143417358
1772708531989186300,6.480186279296875,-0.126020148396492,0.5370959639549255,0.9352684020996094
1772708531999211300,6.490211181640625,0.04844339191913605,0.5000420808792114,0.7985242009162903
1772708532009237200,6.5002373046875,0.1483023464679718,0.4551456868648529,0.5996177792549133
1772708532019263200,6.51026318359375,0.18100890517234802,0.552528977394104,0.3471284806728363
1772708532029288200,6.5202880859375,0.23112133145332336,0.6995410323143005,0.16348379850387573
1772708532039314200,6.530314208984375,0.2841951549053192,0.7767186760902405,0.08305269479751587
1772708532049340400,6.54034033203125,0.28161004185676575,0.765621542930603,0.016955969855189323
1772708532059366400,6.550366455078125,0.20484110713005066,0.7105188965797424,-0.09166727215051651
1772708532069391600,6.5603916015625,0.1217891052365303,0.5615038275718689,-0.19666559994220734
1772708532079417300,6.570417236328125,0.10937713086605072,0.30715036392211914,-0.1409122794866562
1772708532089443300,6.580443359375,0.22661800682544708,0.08180858939886093,0.13842536509037018
1772708532099468500,6.590468505859375,0.42149877548217773,-0.01281030848622322,0.47118881344795227
1772708532109494500,6.60049462890625,0.5608023405075073,0.02677145227789879,0.6329465508460999
1772708532119520500,6.6105205078125,0.5838252902030945,0.13608595728874207,0.5850775837898254
1772708532129545500,6.62054541015625,0.4866742193698883,0.12385831773281097,0.5126057863235474
1772708532139571500,6.630571533203125,0.480121910572052,0.4044787883758545,0.6163501739501953
1772708532149597400,6.640597412109375,0.5541735291481018,0.35077908635139465,0.6136462688446045
1772708532159623400,6.65062353515625,0.3846559524536133,0.08692852407693863,-0.0350663922727108
1772708532169648400,6.6606484375,-0.136977419257164,0.12985043227672577,-1.026307225227356
1772708532179674400,6.67067431640625,-0.39650648832321167,0.5932084918022156,-1.8061351776123047
1772708532189700400,6.680700439453125,-0.310480535030365,1.3929541110992432,-1.772428274154663
1772708532199725300,6.690725341796875,0.015494311228394508,1.5731068849563599,-1.1766595840454102
