time,seconds_elapsed,z,y,x
1772728980768653300,0.1056533203125,8.475378036499023,3.9218363761901855,-0.7992027401924133
1772728980778171100,0.115171142578125,8.496912956237793,4.019941806793213,-0.8015955686569214
1772728980787689200,0.124689208984375,8.561519622802734,4.029513359069824,-0.760917603969574
1772728980797207000,0.13420703125,8.635697364807129,4.022335052490234,-0.6795616149902344
1772728980806724900,0.143724853515625,8.707481384277344,4.0558342933654785,-0.6125625967979431
1772728980816243000,0.153242919921875,8.7505521774292,4.158725738525391,-0.5718846321105957
1772728980825760800,0.1627607421875,8.700303077697754,4.266402721405029,-0.5814558863639832
1772728980835278600,0.172278564453125,8.614161491394043,4.328616142272949,-0.5288137793540955
1772728980844796400,0.18179638671875,8.583054542541504,4.369294166564941,-0.5072783827781677
1772728980854314500,0.191314453125,8.597412109375,4.436293125152588,-0.5312066078186035
1772728980863832300,0.200832275390625,8.671588897705078,4.467400074005127,-0.5670989751815796
1772728980873350400,0.210350341796875,8.796015739440918,4.534399032592773,-0.6005984544754028
1772728980882868200,0.2198681640625,8.882157325744629,4.589433670043945,-0.6149554252624512
1772728980892386300,0.22938623046875,8.894122123718262,4.587040901184082,-0.550349235534668
1772728980901904100,0.238904052734375,8.848658561706543,4.6061835289001465,-0.4378865361213684
1772728980911422000,0.248421875,8.872586250305176,4.625326156616211,-0.42831525206565857
1772728980920940000,0.25793994140625,9.035298347473145,4.615755081176758,-0.4618147611618042
1772728980930457900,0.267457763671875,9.181260108947754,4.634897232055664,-0.5024927258491516
1772728980939975700,0.2769755859375,9.317651748657227,4.591826438903809,-0.5383850932121277
1772728980949493800,0.28649365234375,9.499505996704102,4.567898273468018,-0.4713860750198364
1772728980959011600,0.296011474609375,9.56650447845459,4.479363918304443,-0.31345975399017334
1772728980968529400,0.305529296875,9.595218658447266,4.369294166564941,-0.15553347766399384
1772728980978047500,0.315047607421875,9.540184020996094,4.311866283416748,0.009571290574967861
1772728980987565300,0.3245654296875,9.403793334960938,4.237689018249512,0.07896314561367035
1772728980997083400,0.33408349609375,9.21715259552002,4.216153621673584,0.03349951654672623
1772728981006601200,0.343601318359375,9.016156196594238,4.235296249389648,-0.05503492057323456
1772728981016119000,0.353119140625,8.882157325744629,4.314259052276611,-0.18903298676013947
1772728981025637000,0.36263720703125,8.733802795410156,4.3549370765686035,-0.2799602448940277
1772728981035155000,0.372155029296875,8.609375953674316,4.342973232269287,-0.2153540402650833
1772728981044672800,0.3816728515625,8.532805442810059,4.371686935424805,-0.11724831163883209
1772728981054190600,0.391190673828125,8.578269004821777,4.393222332000732,-0.05742774158716202
1772728981063708700,0.400708740234375,8.61176872253418,4.364508628845215,0.01196411345154047
1772728981073226500,0.4102265625,8.752944946289062,4.374079704284668,0.16749759018421173
1772728981082744600,0.41974462890625,8.82951545715332,4.405186653137207,0.1818545162677765
1772728981092262400,0.429262451171875,8.898907661437988,4.529613494873047,0.02153540402650833
1772728981101780200,0.4387802734375,8.9850492477417,4.706682205200195,-0.20099709928035736
1772728981111298000,0.448298095703125,9.040083885192871,4.8502516746521,-0.42831525206565857
1772728981120816000,0.457816162109375,9.157332420349121,4.9435715675354,-0.5599204897880554
1772728981130334000,0.467333984375,9.08554744720459,5.00578498840332,-0.5718846321105957
1772728981139852000,0.47685205078125,8.906085968017578,4.955535888671875,-0.607776939868927
1772728981149369900,0.486369873046875,8.702695846557617,4.9052863121032715,-0.5886343717575073
1772728981158887700,0.4958876953125,8.556734085083008,4.893322467803955,-0.5479564070701599
1772728981168405800,0.50540576171875,8.554341316223145,5.01296329498291,-0.6819544434547424
1772728981177923600,0.514923583984375,8.748159408569336,5.106283664703369,-0.8662018179893494
1772728981187441400,0.52444140625,8.901300430297852,5.087141036987305,-0.9284151792526245
1772728981196959500,0.53395947265625,9.133403778076172,4.852644443511963,-0.8135597109794617
1772728981206477300,0.543477294921875,9.509077072143555,4.565505504608154,-0.6101697683334351
1772728981215995100,0.5529951171875,9.975677490234375,4.285545349121094,-0.48813581466674805
1772728981225513200,0.56251318359375,10.191031455993652,4.029513359069824,-0.4163511395454407
1772728981235031000,0.572031005859375,10.315458297729492,3.8213376998901367,-0.3900300860404968
1772728981244549000,0.581549072265625,10.504491806030273,3.603590965270996,-0.4905286431312561
1772728981254067000,0.59106689453125,10.688738822937012,3.4097721576690674,-0.7369893789291382
1772728981263584800,0.600584716796875,10.676774978637695,3.263810157775879,-0.9547362327575684
1772728981273102800,0.610102783203125,10.695917129516602,3.160918712615967,-1.0719845294952393
1772728981282620700,0.61962060546875,10.803594589233398,3.1968109607696533,-1.1174482107162476
1772728981292138500,0.629138427734375,10.717453002929688,3.311666488647461,-1.1724830865859985
1772728981301656600,0.638656494140625,10.442277908325195,3.3643085956573486,-1.0863415002822876
1772728981311174400,0.64817431640625,10.1814603805542,3.345165967941284,-0.9762716293334961
1772728981320692200,0.657692138671875,10.02592658996582,3.3164522647857666,-0.8781659007072449
1772728981330210300,0.667210205078125,9.604789733886719,3.3068809509277344,-0.9427721500396729
1772728981339728100,0.67672802734375,8.671588897705078,3.311666488647461,-1.1222338676452637
1772728981349246000,0.686245849609375,8.563912391662598,3.3858439922332764,-0.9499505758285522
1772728981368281900,0.70528173828125,8.872586250305176,3.0580272674560547,-1.2921242713928223
1772728981377800000,0.714800048828125,8.508877754211426,3.160918712615967,-1.6941183805465698
1772728981387317800,0.72431787109375,8.470592498779297,3.0652058124542236,-1.679761528968811
1772728981396835600,0.733835693359375,8.551948547363281,2.8977081775665283,-1.490728497505188
1772728981406353700,0.743353759765625,8.489734649658203,2.8139593601226807,-1.423729419708252
1772728981415871500,0.75287158203125,8.484949111938477,2.9216363430023193,-1.430907964706421
1772728981425389300,0.762389404296875,8.252845764160156,2.981456995010376,-1.4835500717163086
1772728981434907400,0.771907470703125,8.23130989074707,2.8761727809906006,-1.5337992906570435
1772728981444425200,0.78142529296875,8.207381248474121,2.919243574142456,-1.576870083808899
1772728981453943000,0.790943115234375,8.398807525634766,3.1489546298980713,-1.797009825706482
1772728981463461000,0.800461181640625,8.755337715148926,3.452843189239502,-1.9669002294540405
1772728981472979000,0.80997900390625,9.040083885192871,3.6634113788604736,-1.923829436302185
1772728981482497000,0.8194970703125,9.346364974975586,3.6610186100006104,-1.5720844268798828
1772728981492014800,0.829014892578125,9.66939640045166,3.538984775543213,-1.2131611108779907
1772728981501532700,0.83853271484375,9.915857315063477,3.436093330383301,-0.9284151792526245
1772728981511050800,0.84805078125,10.016355514526367,3.3786656856536865,-0.7968099117279053
1772728981520568600,0.857568603515625,10.02592658996582,3.326023578643799,-0.7752745151519775
1772728981530086400,0.86708642578125,9.908679008483887,3.3020951747894287,-0.7513462901115417
1772728981539604200,0.876604248046875,9.731609344482422,3.294916868209839,-0.8470591902732849
1772728981549122300,0.886122314453125,9.564111709594727,3.314059257507324,-1.0193424224853516
1772728981558640000,0.89564013671875,9.370293617248535,3.407379388809204,-1.2131611108779907
1772728981568158000,0.905157958984375,9.166903495788574,3.4743785858154297,-1.2873386144638062
1772728981577676000,0.914676025390625,9.006584167480469,3.4408788681030273,-1.2921242713928223
1772728981587193900,0.92419384765625,8.817551612854004,3.4097721576690674,-1.3160524368286133
1772728981596712000,0.9337119140625,8.6907320022583,3.452843189239502,-1.3615161180496216
1772728981606229800,0.943229736328125,8.575876235961914,3.5533416271209717,-1.3591232299804688
1772728981615747600,0.95274755859375,8.4562349319458,3.627519130706787,-1.3256237506866455
1772728981625265700,0.962265625,8.47298526763916,3.634697675704956,-1.222732424736023
1772728981634783500,0.971783447265625,8.549555778503418,3.6610186100006104,-1.129412293434143
1772728981644301300,0.98130126953125,8.523234367370605,3.6993038654327393,-1.0815558433532715
1772728981653819400,0.9908193359375,8.528019905090332,3.680161237716675,-1.0241280794143677
1772728981663337200,1.000337158203125,8.599804878234863,3.682554006576538,-0.9858429431915283
1772728981672855000,1.00985498046875,8.650053977966309,3.7399818897247314,-0.9786644577980042
1772728981682373000,1.019373046875,8.614161491394043,3.8500516414642334,-0.9786644577980042
1772728981691891000,1.028890869140625,8.532805442810059,3.9529430866241455,-0.97148597240448
1772728981701408800,1.03840869140625,8.46580696105957,4.098905086517334,-0.9427721500396729
1772728981710926800,1.0479267578125,8.429914474487305,4.242474555969238,-0.9188438653945923
1772728981720444700,1.057444580078125,8.360522270202637,4.395615100860596,-0.8805587291717529
1772728981729962800,1.066962646484375,8.219346046447754,4.48414945602417,-0.8662018179893494
1772728981739480600,1.07648046875,8.22413158416748,4.577469825744629,-0.8470591902732849
1772728981748998400,1.085998291015625,8.295916557312012,4.658825874328613,-0.8303094506263733
1772728981758516500,1.0955166015625,8.267202377319336,4.716253280639648,-0.8685946464538574
1772728981768034300,1.105034423828125,8.310273170471191,4.744967460632324,-0.8470591902732849
1772728981777552100,1.11455224609375,8.403593063354492,4.783252239227295,-0.8638089895248413
1772728981787070200,1.1240703125,8.437092781066895,4.778466701507568,-0.885344386100769
1772728981796588000,1.133588134765625,8.451449394226074,4.831109046936035,-0.8685946464538574
1772728981806105900,1.14310595703125,8.46341323852539,4.878965377807617,-0.8255237936973572
1772728981815624000,1.1526240234375,8.566305160522461,4.989035129547119,-0.8350951075553894
1772728981825141800,1.162141845703125,8.688339233398438,5.099104881286621,-0.8901300430297852
1772728981834659600,1.17165966796875,8.788837432861328,5.1804609298706055,-0.9332008361816406
1772728981844177700,1.181177734375,8.901300430297852,5.13021183013916,-0.8685946464538574
1772728981853695500,1.190695556640625,9.032905578613281,5.0464630126953125,-0.7896314859390259
1772728981863213300,1.20021337890625,9.131011009216309,4.9986066818237305,-0.7824530005455017
1772728981872731400,1.2097314453125,9.166903495788574,5.0225348472595215,-0.8159525394439697
1772728981882249200,1.219249267578125,9.200403213500977,5.0703911781311035,-0.9092726111412048
1772728981891767000,1.22876708984375,9.279366493225098,5.144568920135498,-0.9906286001205444
1772728981901285000,1.23828515625,9.4061861038208,5.132604598999023,-1.0528420209884644
1772728981910803000,1.247802978515625,9.53779125213623,5.099104881286621,-1.0528420209884644
1772728981920320800,1.25732080078125,9.688538551330566,5.017749309539795,-1.0719845294952393
1772728981929838800,1.2668388671875,9.875179290771484,4.9292144775390625,-1.038485050201416
1772728981939356700,1.276356689453125,10.061819076538086,4.852644443511963,-0.9667003750801086
1772728981948874500,1.28587451171875,10.188638687133789,4.8191447257995605,-0.9068797826766968
1772728981958392600,1.295392578125,10.277173042297363,4.814359188079834,-0.8398807644844055
1772728981967910400,1.304910400390625,10.303494453430176,4.78803825378418,-0.7992027401924133
1772728981977428500,1.314428466796875,10.272387504577637,4.790431022644043,-0.8111668825149536
1772728981986946300,1.3239462890625,10.231709480285645,4.802394866943359,-0.8590233325958252
1772728981996464000,1.333464111328125,10.126425743103027,4.833501815795898,-0.8662018179893494
1772728982005982200,1.342982177734375,9.949356079101562,4.878965377807617,-0.8087740540504456
1772728982015500000,1.3525,9.760323524475098,4.898108005523682,-0.672383189201355
1772728982025017900,1.362017822265625,9.640682220458984,4.869394302368164,-0.37088751792907715
1772728982034535700,1.37153564453125,9.66939640045166,4.802394866943359,-0.11006984114646912
1772728982044053800,1.3810537109375,9.90149974822998,4.7401814460754395,-0.01196411345154047
1772728982053571600,1.390571533203125,10.073782920837402,4.599005222320557,-0.12203395366668701
1772728982063089400,1.40008935546875,10.265209197998047,4.304687976837158,-0.16271193325519562
1772728982072607500,1.409607421875,10.305887222290039,3.864408493041992,-0.11485548317432404
1772728982082125300,1.419125244140625,10.313065528869629,3.321237802505493,-0.02632104977965355
1772728982091643400,1.428643310546875,10.243673324584961,2.8522446155548096,0.02153540402650833
1772728982101161200,1.4381611328125,10.17428207397461,2.5292134284973145,-0.02632104977965355
1772728982110679000,1.447678955078125,10.15753173828125,2.414358139038086,-0.13878370821475983
1772728982120197000,1.457197021484375,10.088140487670898,2.4598217010498047,-0.34217363595962524
1772728982129715000,1.46671484375,9.949356079101562,2.572284460067749,-0.5144568681716919
1772728982139232800,1.476232666015625,9.726823806762695,2.723032236099243,-0.5694918036460876
1772728982148750800,1.485750732421875,9.454042434692383,2.8283164501190186,-0.5216353535652161
1772728982158268700,1.4952685546875,9.176474571228027,3.0077781677246094,-0.44745782017707825
1772728982167786500,1.504786376953125,8.798408508300781,3.2063822746276855,-0.2847459018230438
1772728982177304600,1.5143046875,8.425128936767578,3.3403804302215576,-0.064606212079525
1772728982186822400,1.523822509765625,8.128418922424316,3.5030922889709473,0.17228323221206665
1772728982196340200,1.53334033203125,7.915457248687744,3.6155550479888916,0.3326023519039154
1772728982205858300,1.5428583984375,7.795815944671631,3.641875982284546,0.4211367964744568
1772728982215376100,1.552376220703125,7.791030406951904,3.603590965270996,0.41874396800994873
1772728982224894000,1.56189404296875,7.814958572387695,3.5150563716888428,0.35892340540885925
1772728982234412000,1.571412109375,7.905886173248291,3.373879909515381,0.2560320198535919
1772728982243929900,1.580929931640625,8.008777618408203,3.266202926635742,0.07657032459974289
1772728982253447700,1.59044775390625,8.104490280151367,3.2590243816375732,-0.14356936514377594
1772728982262965800,1.5999658203125,8.154739379882812,3.3020951747894287,-0.380458801984787
1772728982272483600,1.609483642578125,8.204988479614258,3.4097721576690674,-0.5934200286865234
1772728982282001400,1.61900146484375,8.226524353027344,3.524627685546875,-0.7968099117279053
1772728982291519500,1.62851953125,8.233702659606934,3.6610186100006104,-0.9475577473640442
1772728982301037300,1.638037353515625,8.221738815307617,3.7639100551605225,-1.007378339767456
1772728982310555100,1.64755517578125,8.183453559875488,3.869194269180298,-0.9523434042930603
1772728982320073200,1.6570732421875,8.140382766723633,3.94097900390625,-0.8446664214134216
1772728982329591000,1.666591064453125,8.070990562438965,4.012763500213623,-0.7800601720809937
1772728982339109000,1.676109130859375,7.963313579559326,4.120440483093262,-0.7585247755050659
1772728982348627000,1.685626953125,7.898707389831543,4.192225456237793,-0.6915257573127747
1772728982358144800,1.695144775390625,7.932207107543945,4.2831525802612305,-0.607776939868927
1772728982367662800,1.704662841796875,7.915457248687744,4.292723655700684,-0.5623133182525635
1772728982377180700,1.7141806640625,7.960920810699463,4.285545349121094,-0.4833501875400543
1772728982386698500,1.723698486328125,8.085348129272461,4.264009952545166,-0.4139583110809326
1772728982396216300,1.73321630859375,8.140382766723633,4.199403762817383,-0.363709032535553
1772728982405734400,1.742734375,8.260024070739746,4.120440483093262,-0.397208571434021
1772728982415252200,1.752252197265625,8.439485549926758,4.06540584564209,-0.5479564070701599
1772728982424770000,1.76177001953125,8.606983184814453,4.096512317657471,-0.6771687865257263
1772728982434288000,1.7712880859375,8.700303077697754,4.086941242218018,-0.7154539823532104
1772728982443806000,1.780805908203125,8.82951545715332,4.110869407653809,-0.7250252366065979
1772728982453323800,1.79032373046875,8.96112060546875,4.1491546630859375,-0.6747759580612183
1772728982462841900,1.799841796875,8.994620323181152,4.225724697113037,-0.6029912829399109
1772728982472359700,1.809359619140625,8.994620323181152,4.2831525802612305,-0.5551348328590393
1772728982481877800,1.818877685546875,8.965906143188477,4.311866283416748,-0.43549370765686035
1772728982491395600,1.8283955078125,8.884550094604492,4.338187217712402,-0.36610186100006104
1772728982500913400,1.837913330078125,8.793622970581055,4.393222332000732,-0.3900300860404968
1772728982510431500,1.847431396484375,8.707481384277344,4.4482574462890625,-0.42352959513664246
1772728982519949300,1.85694921875,8.621339797973633,4.536791801452637,-0.5264210104942322
1772728982529467100,1.866467041015625,8.508877754211426,4.6301116943359375,-0.6819544434547424
1772728982538985000,1.87598486328125,8.496912956237793,4.735395908355713,-0.8781659007072449
1772728982548503000,1.8855029296875,8.535198211669922,4.802394866943359,-0.9882357716560364
1772728982558020900,1.895020751953125,8.61894702911377,4.900500774383545,-1.062413215637207
1772728982567538700,1.90453857421875,8.745766639709473,4.967499732971191,-1.0600204467773438
1772728982577056800,1.914056884765625,8.956335067749023,5.058426856994629,-1.0480563640594482
1772728982586574600,1.92357470703125,9.186046600341797,5.0943193435668945,-0.973878800868988
1772728982596092400,1.933092529296875,9.442078590393066,5.06082010269165,-0.8638089895248413
1772728982605610500,1.942610595703125,9.7005033493042,4.960321426391602,-0.605384111404419
1772728982615128300,1.95212841796875,9.923035621643066,4.893322467803955,-0.4307080805301666
1772728982624646400,1.961646484375,10.219745635986328,4.835894584655762,-0.37088751792907715
1772728982634164200,1.971164306640625,10.583454132080078,4.7712883949279785,-0.37088751792907715
1772728982643682000,1.98068212890625,10.86580753326416,4.697110652923584,-0.38763725757598877
1772728982653200100,1.9902001953125,11.066804885864258,4.579862594604492,-0.36610186100006104
1772728982662718000,1.999718017578125,11.105090141296387,4.481756687164307,-0.380458801984787
1772728982672235800,2.00923583984375,10.97587776184082,4.493721008300781,-0.5048855543136597
1772728982681753600,2.018753662109375,10.791629791259766,4.615755081176758,-0.7082754969596863
1772728982691271700,2.028271728515625,10.533205032348633,4.811966419219971,-0.9475577473640442
1772728982700789500,2.03778955078125,10.310672760009766,4.977071285247803,-1.1222338676452637
1772728982710307300,2.047307373046875,10.14317512512207,5.113461971282959,-1.2442678213119507
1772728982719825400,2.056825439453125,9.958928108215332,5.230710506439209,-1.34476637840271
1772728982729343200,2.06634326171875,9.81535816192627,5.20678186416626,-1.3208380937576294
1772728982738861000,2.075861083984375,9.774680137634277,5.1182475090026855,-1.2131611108779907
1772728982748379100,2.085379150390625,9.760323524475098,4.960321426391602,-1.0241280794143677
1772728982757897000,2.09489697265625,9.796216011047363,4.73300313949585,-0.8398807644844055
1772728982767415000,2.1044150390625,9.968499183654785,4.488935470581055,-0.7322037220001221
1772728982776932900,2.113932861328125,10.198209762573242,4.2281174659729,-0.7010970115661621
1772728982786450700,2.12345068359375,10.487741470336914,3.88594388961792,-0.7082754969596863
1772728982795968500,2.132968505859375,10.588240623474121,3.4552359580993652,-0.7202396392822266
1772728982805486600,2.142486572265625,10.535597801208496,3.0077781677246094,-0.6580262184143066
1772728982815004400,2.15200439453125,10.284351348876953,2.620140790939331,-0.5910272002220154
1772728982824522200,2.161522216796875,9.889535903930664,2.431107759475708,-0.5910272002220154
1772728982834040300,2.171040283203125,9.44447135925293,2.5220351219177246,-0.7728816866874695
1772728982843558100,2.18055810546875,8.95394229888916,2.7278177738189697,-1.1030912399291992
1772728982853076000,2.190075927734375,8.470592498779297,2.967100143432617,-1.430907964706421
1772728982862594000,2.199593994140625,8.056633949279785,3.1920254230499268,-1.7371892929077148
1772728982872111900,2.20911181640625,7.671389579772949,3.383451223373413,-1.947757601737976
1772728982881630000,2.2186298828125,7.357929706573486,3.5294134616851807,-2.0985054969787598
1772728982891147500,2.2281474609375,7.211967468261719,3.601198196411133,-2.1678972244262695
1772728982900665600,2.23766552734375,7.087540626525879,3.672982692718506,-2.2205393314361572
1772728982910183700,2.24718359375,7.061219692230225,3.651447296142578,-2.172683000564575
1772728982919701500,2.256701416015625,7.221538543701172,3.610769271850586,-1.9310078620910645
1772728982929219300,2.26621923828125,7.396214962005615,3.603590965270996,-1.6342978477478027
1772728982938737200,2.275737060546875,7.585247993469238,3.6083765029907227,-1.2873386144638062
1772728982948255200,2.285255126953125,7.8317084312438965,3.5916268825531006,-0.9020941257476807
1772728982957773000,2.29477294921875,8.133204460144043,3.500699520111084,-0.5527420043945312
1772728982967291000,2.304290771484375,8.458627700805664,3.436093330383301,-0.2727817893028259
1772728982976809000,2.31380908203125,8.80798053741455,3.3882367610931396,-0.14117653667926788
1772728982986326800,2.323326904296875,9.193224906921387,3.3332018852233887,-0.12921242415905
1772728982995844600,2.3328447265625,9.377471923828125,3.2829527854919434,-0.19381862878799438
1772728983005362700,2.34236279296875,9.509077072143555,3.1920254230499268,-0.22492532432079315
1772728983014880500,2.351880615234375,9.561718940734863,3.1130621433258057,-0.29431718587875366
1772728983024398600,2.361398681640625,9.506684303283691,3.122633457183838,-0.4378865361213684
1772728983033916400,2.37091650390625,9.33440113067627,3.2614171504974365,-0.6173482537269592
1772728983043434200,2.380434326171875,9.186046600341797,3.462414264678955,-0.7345965504646301
1772728983052952000,2.3899521484375,8.94676399230957,3.6777684688568115,-0.8901300430297852
1772728983062470100,2.39947021484375,8.707481384277344,3.8596229553222656,-1.0432707071304321
1772728983071988000,2.408988037109375,8.49452018737793,3.9864425659179688,-1.1581261157989502
1772728983081505800,2.418505859375,8.264809608459473,4.115654945373535,-1.191625714302063
1772728983091024000,2.42802392578125,8.02791976928711,4.194618225097656,-1.1868400573730469
1772728983100541700,2.437541748046875,7.858029365539551,4.321437835693359,-1.0456634759902954
1772728983110059500,2.4470595703125,7.676175117492676,4.443471431732178,-0.8303094506263733
1772728983119577600,2.45657763671875,7.542177200317383,4.620540618896484,-0.5862415432929993
1772728983129095400,2.466095458984375,7.5326056480407715,4.785645484924316,-0.3684946894645691
1772728983138613200,2.47561328125,7.568498134613037,4.895715236663818,-0.24406790733337402
1772728983148131000,2.485131103515625,7.680960655212402,4.917250633239746,-0.1579262912273407
1772728983157649200,2.494649169921875,7.860422611236572,4.845465660095215,-0.1579262912273407
1772728983167167000,2.5041669921875,8.090133666992188,4.7234320640563965,-0.15074782073497772
1772728983176685000,2.51368505859375,8.274380683898926,4.60857629776001,-0.19621145725250244
1772728983186203000,2.523202880859375,8.489734649658203,4.575077056884766,-0.2584248483181
1772728983195720700,2.532720703125,8.724231719970703,4.570291042327881,-0.34695929288864136
1772728983205238800,2.54223876953125,8.894122123718262,4.54636287689209,-0.519242525100708
1772728983214756600,2.551756591796875,9.061619758605957,4.541577339172363,-0.6675975322723389
1772728983224274400,2.5612744140625,9.142974853515625,4.551148891448975,-0.8087740540504456
1772728983233792500,2.57079248046875,9.128618240356445,4.555934429168701,-0.9044869542121887
1772728983243310300,2.580310302734375,9.095118522644043,4.603790760040283,-0.9379864931106567
1772728983252828200,2.589828125,9.044869422912598,4.677968502044678,-0.8901300430297852
1772728983262346000,2.599345947265625,9.042476654052734,4.78803825378418,-0.849452018737793
1772728983271864000,2.608864013671875,8.963513374328613,4.917250633239746,-0.7920243144035339
1772728983281382000,2.6183818359375,8.874979019165039,5.00578498840332,-0.6364908218383789
1772728983290899700,2.627899658203125,8.879764556884766,5.036891460418701,-0.5120640397071838
1772728983300417800,2.637417724609375,8.97787094116211,5.0464630126953125,-0.5024927258491516
1772728983309935600,2.646935546875,9.119047164916992,5.084748268127441,-0.5718846321105957
1772728983319453400,2.656453369140625,9.253045082092285,5.039284706115723,-0.6484549641609192
1772728983328971500,2.665971435546875,9.468399047851562,4.989035129547119,-0.6508477330207825
1772728983338489300,2.6754892578125,9.664610862731934,4.890929698944092,-0.672383189201355
1772728983348007200,2.685007080078125,9.810572624206543,4.871787071228027,-0.7513462901115417
1772728983357525200,2.694525146484375,9.990034103393555,4.886143684387207,-0.8757730722427368
1772728983367043000,2.70404296875,10.116853713989258,4.907679080963135,-1.0145567655563354
1772728983376561000,2.713560791015625,10.140782356262207,4.9363932609558105,-1.1102696657180786
1772728983386079000,2.723078857421875,10.107282638549805,4.95074987411499,-1.0241280794143677
1772728983395596800,2.7325966796875,10.013962745666504,4.955535888671875,-0.8470591902732849
1772728983405114600,2.742114501953125,9.927821159362793,4.989035129547119,-0.7513462901115417
1772728983414632700,2.7516328125,9.870393753051758,5.017749309539795,-0.7082754969596863
1772728983424150500,2.761150634765625,9.839286804199219,4.9986066818237305,-0.7202396392822266
1772728983433668400,2.77066845703125,9.824930191040039,4.902893543243408,-0.6891329288482666
1772728983443186400,2.7801865234375,9.80817985534668,4.778466701507568,-0.6436693072319031
1772728983452704300,2.789704345703125,9.77707290649414,4.639683246612549,-0.607776939868927
1772728983462222000,2.79922216796875,9.784252166748047,4.515256404876709,-0.5431707501411438
1772728983471740200,2.808740234375,9.860821723937988,4.366901397705078,-0.4259224236011505
1772728983481258000,2.818258056640625,10.071390151977539,4.180261135101318,-0.2847459018230438
1772728983490775800,2.82777587890625,10.332208633422852,3.964907169342041,-0.16271193325519562
1772728983500294000,2.8372939453125,10.657631874084473,3.704089403152466,-0.05503492057323456
1772728983509811700,2.846811767578125,11.071590423583984,3.3690943717956543,-0.08614161610603333
1772728983519329500,2.85632958984375,11.289337158203125,2.991028308868408,-0.040677983313798904
1772728983528847600,2.86584765625,11.198410034179688,2.510071039199829,0.04307080805301666
1772728983538365400,2.875365478515625,10.932806968688965,2.0889341831207275,0.22013968229293823
1772728983547883300,2.88488330078125,10.600204467773438,1.8975083827972412,0.2727817893028259
1772728983557401000,2.894401123046875,10.188638687133789,1.9692929983139038,0.0933200865983963
1772728983566919200,2.903919189453125,9.765109062194824,2.2229323387145996,-0.1698904037475586
1772728983576437000,2.91343701171875,9.346364974975586,2.4502503871917725,-0.33738797903060913
1772728983585954800,2.922954833984375,8.891729354858398,2.612962245941162,-0.4019941985607147
1772728983595473000,2.932472900390625,8.408378601074219,2.6847469806671143,-0.3732803463935852
1772728983604990700,2.94199072265625,7.941778182983398,2.7637102603912354,-0.2584248483181
1772728983614508800,2.9515087890625,7.506284713745117,2.8666014671325684,-0.11964113265275955
1772728983624026600,2.961026611328125,7.204789161682129,2.9766714572906494,-0.02871387079358101
1772728983633544400,2.97054443359375,7.0061845779418945,3.091526746749878,0.04785645380616188
1772728983643062300,2.980062255859375,6.927221775054932,3.2470602989196777,0.05024927482008934
1772728983652580400,2.989580322265625,6.943971157073975,3.3619158267974854,0.009571290574967861
1772728983662098200,2.99909814453125,7.0683979988098145,3.4241292476654053,-0.11964113265275955
1772728983671616000,3.008615966796875,7.341179847717285,3.3858439922332764,-0.3397808074951172
1772728983681134000,3.018134033203125,7.716853141784668,3.342773199081421,-0.5000999569892883
1772728983690652000,3.02765185546875,8.094919204711914,3.2614171504974365,-0.6173482537269592
1772728983700169700,3.037169677734375,8.405985832214355,3.218346357345581,-0.6867401003837585
1772728983709687800,3.046687744140625,8.669196128845215,3.2303106784820557,-0.7226324677467346
1772728983719205600,3.05620556640625,8.886942863464355,3.266202926635742,-0.727418065071106
1772728983728723500,3.065723388671875,9.032905578613281,3.4193434715270996,-0.7513462901115417
1772728983738241300,3.0752412109375,9.020941734313965,3.5748770236968994,-0.794417142868042
1772728983747759400,3.08475927734375,8.930013656616211,3.713660717010498,-0.7824530005455017
1772728983757277200,3.094277099609375,8.803194046020508,3.840480327606201,-0.7130611538887024
1772728983766795300,3.103795166015625,8.688339233398438,3.9385859966278076,-0.6269195079803467
1772728983776313000,3.11331298828125,8.520841598510742,4.000799655914307,-0.5647061467170715
1772728983785831000,3.122830810546875,8.350951194763184,4.0319061279296875,-0.5000999569892883
1772728983795349000,3.132348876953125,8.291130065917969,4.060619831085205,-0.4091726839542389
1772728983804866800,3.14186669921875,8.295916557312012,4.1036906242370605,-0.3732803463935852
1772728983814384600,3.151384521484375,8.336593627929688,4.125226020812988,-0.40677985548973083
1772728983823902500,3.16090234375,8.441878318786621,4.139583110809326,-0.45224347710609436
1772728983833420500,3.170420654296875,8.590232849121094,4.1036906242370605,-0.4666004180908203
1772728983852456200,3.189456298828125,8.970691680908203,3.9864425659179688,-0.4666004180908203
1772728983861974300,3.198974365234375,9.114261627197266,3.9361932277679443,-0.44745782017707825
1772728983871492000,3.2084921875,9.193224906921387,3.8907296657562256,-0.3924229145050049
1772728983881010000,3.218010009765625,9.22433090209961,3.8835511207580566,-0.32303106784820557
1772728983890528000,3.227528076171875,9.229117393493652,3.926621913909912,-0.2871387302875519
1772728983900045800,3.2370458984375,9.1716890335083,4.036691665649414,-0.2679961323738098
1772728983909563600,3.246563720703125,9.131011009216309,4.163511276245117,-0.2871387302875519
1772728983919081500,3.25608154296875,9.078369140625,4.237689018249512,-0.35413774847984314
1772728983928599600,3.265599609375,9.104690551757812,4.3070807456970215,-0.4307080805301666
1772728983938117400,3.275117431640625,9.08554744720459,4.342973232269287,-0.5048855543136597
1772728983947635500,3.284635498046875,9.018548965454102,4.347758769989014,-0.5527420043945312
1772728983957153300,3.2941533203125,8.973084449768066,4.383651256561279,-0.5431707501411438
1772728983966671000,3.303671142578125,8.922835350036621,4.443471431732178,-0.6101697683334351
1772728983976189200,3.313189208984375,8.9850492477417,4.599005222320557,-0.6675975322723389
1772728983985707000,3.32270703125,9.107083320617676,4.7401814460754395,-0.7465606927871704
1772728983995224800,3.332224853515625,9.281759262084961,4.802394866943359,-0.7800601720809937
1772728984004742700,3.34174267578125,9.561718940734863,4.7952165603637695,-0.7345965504646301
1772728984014260700,3.3512607421875,9.89432144165039,4.673182487487793,-0.5910272002220154
1772728984023778600,3.360778564453125,10.159924507141113,4.500899314880371,-0.3756731450557709
1772728984033296400,3.37029638671875,10.442277908325195,4.3788652420043945,-0.26560330390930176
1772728984042814500,3.379814453125,10.74138069152832,4.285545349121094,-0.21774685382843018
1772728984052332300,3.389332275390625,11.047661781311035,4.244867324829102,-0.23210379481315613
1772728984061850400,3.398850341796875,11.320444107055664,4.225724697113037,-0.28953152894973755
1772728984071368000,3.408367919921875,11.437692642211914,4.194618225097656,-0.3756731450557709
1772728984080886000,3.417885986328125,11.425727844238281,4.1970109939575195,-0.44027936458587646
1772728984090403800,3.42740380859375,11.277373313903809,4.261617183685303,-0.550349235534668
1772728984099922000,3.436921875,11.054841041564941,4.3788652420043945,-0.6747759580612183
1772728984109439700,3.446439697265625,10.782058715820312,4.54636287689209,-0.8542376756668091
1772728984118957600,3.45595751953125,10.454241752624512,4.716253280639648,-0.973878800868988
1772728984128475600,3.4654755859375,10.16710376739502,4.871787071228027,-1.0504491329193115
1772728984137993500,3.474993408203125,9.832108497619629,5.015356063842773,-1.1198409795761108
1772728984147511300,3.48451123046875,9.535398483276367,5.017749309539795,-1.069591760635376
1772728984157029000,3.494029052734375,9.346364974975586,4.996213912963867,-0.9978070259094238
1772728984166547200,3.503547119140625,9.250652313232422,4.9292144775390625,-0.9379864931106567
1772728984176065000,3.51306494140625,9.200403213500977,4.831109046936035,-0.8566305041313171
1772728984185582800,3.522582763671875,9.279366493225098,4.713860511779785,-0.7752745151519775
1772728984195101000,3.532100830078125,9.499505996704102,4.505684852600098,-0.698704183101654
1772728984204618800,3.54161865234375,9.78664493560791,4.216153621673584,-0.605384111404419
1772728984214136800,3.55113671875,10.001998901367188,3.862015724182129,-0.49292147159576416
1772728984223654700,3.560654541015625,10.126425743103027,3.483949661254883,-0.34217363595962524
1772728984233172500,3.57017236328125,10.159924507141113,3.0939197540283203,-0.24646073579788208
1772728984242690300,3.579690185546875,10.028319358825684,2.8139593601226807,-0.2991028428077698
1772728984252208400,3.58920849609375,9.860821723937988,2.6488547325134277,-0.39481574296951294
1772728984261726200,3.598726318359375,9.571290969848633,2.6009981632232666,-0.5527420043945312
1772728984271244000,3.608244140625,9.20997428894043,2.7421748638153076,-0.8231309652328491
1772728984280761900,3.617761962890625,8.834300994873047,2.833101987838745,-1.0456634759902954
1772728984290280000,3.627280029296875,8.458627700805664,2.8905298709869385,-1.2442678213119507
1772728984299797800,3.6367978515625,8.104490280151367,2.9383862018585205,-1.399801254272461
1772728984309315600,3.646315673828125,7.779066562652588,3.005385160446167,-1.5122638940811157
1772728984318833700,3.655833740234375,7.551748275756836,3.139383316040039,-1.6055840253829956
1772728984328351500,3.6653515625,7.401000499725342,3.2757742404937744,-1.648654818534851
1772728984337869300,3.674869384765625,7.331608772277832,3.3954153060913086,-1.5840486288070679
1772728984347387400,3.684387451171875,7.35314416885376,3.483949661254883,-1.3926228284835815
1772728984356905200,3.6939052734375,7.408178806304932,3.5030922889709473,-1.1054840087890625
1772728984366423000,3.703423095703125,7.506284713745117,3.483949661254883,-0.7680960893630981
1772728984375941000,3.712941162109375,7.654639720916748,3.517449378967285,-0.4666004180908203
1772728984385459000,3.722458984375,7.872386455535889,3.5270206928253174,-0.20817556977272034
1772728984394976800,3.731976806640625,8.15234661102295,3.4911282062530518,-0.04546362906694412
1772728984404494800,3.741494873046875,8.482556343078613,3.4672000408172607,0.0023928226437419653
1772728984414012700,3.7510126953125,8.772088050842285,3.460021495819092,0.04546362906694412
1772728984423530500,3.760530517578125,9.126225471496582,3.376272678375244,0.10289137065410614
1772728984433048600,3.770048583984375,9.332008361816406,3.304488182067871,0.1459621787071228
1772728984442566400,3.77956640625,9.415757179260254,3.2446675300598145,0.2153540402650833
1772728984452084200,3.789084228515625,9.425328254699707,3.177668571472168,0.3278166949748993
1772728984461602000,3.79860205078125,9.422935485839844,3.2279176712036133,0.30149564146995544
1772728984471120100,3.8081201171875,9.336793899536133,3.3858439922332764,0.12681959569454193
1772728984480638000,3.817637939453125,9.142974853515625,3.565305709838867,-0.05503492057323456
1772728984490155800,3.82715576171875,8.915657043457031,3.6945180892944336,-0.1698904037475586
1772728984499673900,3.836673828125,8.652446746826172,3.7950167655944824,-0.18424734473228455
1772728984509191700,3.846191650390625,8.35573673248291,3.864408493041992,-0.23688943684101105
1772728984518709500,3.85570947265625,8.075776100158691,3.9864425659179688,-0.26560330390930176
1772728984528227600,3.8652275390625,7.8628153800964355,4.098905086517334,-0.3445664644241333
1772728984537745400,3.874745361328125,7.716853141784668,4.204189300537109,-0.380458801984787
1772728984547263200,3.88426318359375,7.645068168640137,4.304687976837158,-0.3565305769443512
1772728984556781000,3.893781005859375,7.599604606628418,4.405186653137207,-0.32542386651039124
1772728984566299100,3.903299072265625,7.609176158905029,4.488935470581055,-0.23688943684101105
1772728984575817000,3.91281689453125,7.661818027496338,4.596612453460693,-0.12442677468061447
1772728984585335000,3.9223349609375,7.755138397216797,4.687539577484131,-0.02871387079358101
1772728984594852900,3.931852783203125,7.9489569664001465,4.797609329223633,0.004785645287483931
1772728984604370700,3.94137060546875,8.190631866455078,4.876572608947754,0.08374879509210587
1772728984613888500,3.950888427734375,8.468199729919434,4.934000492095947,0.15314064919948578
1772728984623406600,3.960406494140625,8.7505521774292,4.893322467803955,0.2512463629245758
1772728984632924400,3.96992431640625,9.006584167480469,4.833501815795898,0.35413774847984314
1772728984642442200,3.979442138671875,9.21715259552002,4.778466701507568,0.5216353535652161
1772728984651960300,3.988960205078125,9.384650230407715,4.73300313949585,0.6340979933738708
1772728984661478100,3.99847802734375,9.485149383544922,4.730610370635986,0.6293123364448547
1772728984670996000,4.007995849609375,9.497113227844238,4.804787635803223,0.5335994362831116
1772728984680514000,4.01751416015625,9.504291534423828,4.862215518951416,0.4378865361213684
1772728984690031900,4.027031982421875,9.571290969848633,4.893322467803955,0.32542386651039124
1772728984699549700,4.0365498046875,9.595218658447266,4.957928657531738,0.23210379481315613
1772728984709067500,4.046067626953125,9.595218658447266,5.020142078399658,0.23449662327766418
1772728984718585600,4.055585693359375,9.659825325012207,5.087141036987305,0.2799602448940277
1772728984728103400,4.065103515625,9.734002113342285,5.154139995574951,0.28235307335853577
1772728984737621500,4.07462158203125,9.77707290649414,5.230710506439209,0.275174617767334
1772728984747139300,4.084139404296875,9.824930191040039,5.2354960441589355,0.2679961323738098
1772728984756657200,4.0936572265625,9.891928672790527,5.218746185302734,0.2871387302875519
1772728984766175000,4.103175048828125,10.01156997680664,5.115854740142822,0.27756741642951965
1772728984775693000,4.112693115234375,10.131211280822754,5.0703911781311035,0.1818545162677765
1772728984785211000,4.1222109375,10.26042366027832,5.020142078399658,0.04307080805301666
1772728984794728700,4.131728759765625,10.219745635986328,4.948357105255127,-0.12681959569454193
1772728984804246800,4.141246826171875,10.076175689697266,4.9124650955200195,-0.275174617767334
1772728984813764600,4.1507646484375,9.872786521911621,4.960321426391602,-0.43549370765686035
1772728984823282400,4.160282470703125,9.623932838439941,5.0464630126953125,-0.5670989751815796
1772728984832800300,4.16980029296875,9.461220741271973,5.173282623291016,-0.7489534616470337
1772728984842318300,4.179318359375,9.293723106384277,5.283352375030518,-0.8327022790908813
1772728984851836200,4.188836181640625,9.09990406036377,5.278566837310791,-0.8111668825149536
1772728984861354000,4.19835400390625,8.925228118896484,5.1876397132873535,-0.7489534616470337
1772728984870872000,4.2078720703125,8.870193481445312,5.039284706115723,-0.7417750358581543
1772728984880390000,4.217389892578125,8.918049812316895,4.8502516746521,-0.6795616149902344
1772728984889908000,4.226907958984375,9.075976371765137,4.658825874328613,-0.6436693072319031
1772728984899425500,4.236425537109375,9.394221305847168,4.4482574462890625,-0.5742774605751038
1772728984908943600,4.245943603515625,9.810572624206543,4.235296249389648,-0.5264210104942322
1772728984918461400,4.25546142578125,10.188638687133789,3.9601213932037354,-0.43549370765686035
1772728984927979500,4.2649794921875,10.571490287780762,3.627519130706787,-0.2991028428077698
1772728984937497300,4.274497314453125,10.861021995544434,3.2590243816375732,-0.13160525262355804
1772728984947015200,4.28401513671875,11.052447319030762,2.9216363430023193,0.01196411345154047
1772728984956533200,4.293533203125,11.026126861572266,2.6608188152313232,0.1339980661869049
1772728984966051000,4.303051025390625,10.832307815551758,2.5387847423553467,0.22492532432079315
1772728984975569000,4.31256884765625,10.447063446044922,2.5124638080596924,0.1986042857170105
1772728984985086700,4.322086669921875,9.839286804199219,2.641676187515259,0.08853443711996078
1772728984994604800,4.331604736328125,9.353543281555176,2.8905298709869385,-0.03349951654672623
1772728985004122600,4.34112255859375,8.798408508300781,3.0652058124542236,-0.12921242415905
1772728985013640400,4.350640380859375,8.338987350463867,3.2303106784820557,-0.20338992774486542
1772728985023158500,4.360158447265625,7.910671710968018,3.328416347503662,-0.22013968229293823
1772728985032676400,4.36967626953125,7.558926582336426,3.3930225372314453,-0.20099709928035736
1772728985042194200,4.379194091796875,7.343572616577148,3.4408788681030273,-0.09810572862625122
1772728985051712000,4.3887119140625,7.23589563369751,3.4911282062530518,-0.0526420995593071
1772728985061230000,4.39822998046875,7.223931789398193,3.5916268825531006,-0.007178467698395252
1772728985070748000,4.407747802734375,7.381857872009277,3.6059837341308594,0.05742774158716202
1772728985080266000,4.417265869140625,7.537391185760498,3.625126361846924,0.15074782073497772
1772728985089783800,4.42678369140625,7.759923934936523,3.6083765029907227,0.20338992774486542
1772728985099301600,4.436301513671875,8.018348693847656,3.641875982284546,0.2105683982372284
1772728985108819500,4.4458193359375,8.281558990478516,3.682554006576538,0.16271193325519562
1772728985118337500,4.455337646484375,8.504091262817383,3.720839262008667,0.16749759018421173
1772728985127855400,4.46485546875,8.666803359985352,3.751945972442627,0.1579262912273407
1772728985137373200,4.474373291015625,8.724231719970703,3.7950167655944824,0.16271193325519562
1772728985146891300,4.483891357421875,8.707481384277344,3.85483717918396,0.1986042857170105
1772728985156409000,4.4934091796875,8.669196128845215,3.9672999382019043,0.19142581522464752
1772728985165927000,4.502927001953125,8.48016357421875,4.06540584564209,0.17228323221206665
1772728985175444700,4.51244482421875,8.219346046447754,4.1659040451049805,0.09810572862625122
1772728985184962800,4.521962890625,7.989634990692139,4.2592244148254395,-0.0023928226437419653
1772728985194480600,4.531480712890625,7.767102241516113,4.402793884277344,-0.16031911969184875
1772728985203998500,4.54099853515625,7.592426300048828,4.551148891448975,-0.34217363595962524
1772728985213516500,4.5505166015625,7.408178806304932,4.680361270904541,-0.46420758962631226
1772728985223034400,4.560034423828125,7.3052873611450195,4.764110088348389,-0.4953143000602722
1772728985232552400,4.569552490234375,7.278966426849365,4.823930263519287,-0.4737788736820221
1772728985242070300,4.5790703125,7.379465103149414,4.852644443511963,-0.4498506486415863
1772728985251588000,4.588588134765625,7.546962738037109,4.893322467803955,-0.4450650215148926
1772728985261106000,4.59810595703125,7.750352382659912,4.831109046936035,-0.4139583110809326
1772728985270624000,4.6076240234375,8.066205024719238,4.721039295196533,-0.34217363595962524
1772728985280141800,4.617141845703125,8.365307807922363,4.6061835289001465,-0.28235307335853577
1772728985289659600,4.62665966796875,8.695517539978027,4.5200419425964355,-0.24646073579788208
1772728985299177700,4.636177734375,9.008976936340332,4.457828521728516,-0.29431718587875366
1772728985308695600,4.645695556640625,9.262616157531738,4.4410786628723145,-0.3038884699344635
1772728985318213400,4.65521337890625,9.482755661010742,4.417150497436523,-0.3613162338733673
1772728985327731200,4.664731201171875,9.602396965026855,4.41475772857666,-0.4139583110809326
1772728985337249300,4.674249267578125,9.698110580444336,4.443471431732178,-0.5288137793540955
1772728985346767000,4.68376708984375,9.729216575622559,4.498506546020508,-0.6675975322723389
1772728985356285000,4.693284912109375,9.78664493560791,4.589433670043945,-0.7872386574745178
1772728985365803000,4.702802978515625,9.798608779907227,4.658825874328613,-0.914058268070221
1772728985375320800,4.71232080078125,9.93260669708252,4.677968502044678,-0.9332008361816406
1772728985384838700,4.721838623046875,10.078569412231445,4.6301116943359375,-0.9475577473640442
1772728985394356500,4.7313564453125,10.171889305114746,4.6061835289001465,-0.9690931439399719
1772728985403874600,4.74087451171875,10.246066093444824,4.59421968460083,-1.038485050201416
1772728985413392400,4.750392333984375,10.322636604309082,4.618147850036621,-1.1341979503631592
1772728985422910500,4.759910400390625,10.37767219543457,4.6372904777526855,-1.1700903177261353
1772728985432428300,4.76942822265625,10.411170959472656,4.618147850036621,-1.2251251935958862
1772728985441946000,4.778946044921875,10.389636039733887,4.60139799118042,-1.2562319040298462
1772728985451464000,4.7884638671875,10.403992652893066,4.5822553634643555,-1.277767300605774
1772728985460982000,4.79798193359375,10.456634521484375,4.591826438903809,-1.2921242713928223
1772728985470499800,4.807499755859375,10.411170959472656,4.634897232055664,-1.3208380937576294
1772728985480017700,4.817017578125,10.353743553161621,4.704289436340332,-1.275374412536621
1772728985489535700,4.82653564453125,10.241280555725098,4.811966419219971,-1.184447169303894
1772728985499053600,4.836053466796875,10.17428207397461,4.938786029815674,-1.1389836072921753
1772728985508571400,4.8455712890625,10.133604049682617,5.0703911781311035,-1.0887342691421509
1772728985518089200,4.855089111328125,10.097711563110352,5.0943193435668945,-1.0552347898483276
1772728985527607300,4.864607177734375,10.183853149414062,5.034498691558838,-0.9858429431915283
1772728985537125000,4.874125,10.329814910888672,4.898108005523682,-0.8135597109794617
1772728985546643000,4.883642822265625,10.49252700805664,4.646861553192139,-0.5838487148284912
1772728985556161000,4.8931611328125,10.63370418548584,4.383651256561279,-0.33020952343940735
1772728985565678800,4.902678955078125,10.76530933380127,4.101297855377197,-0.13160525262355804
1772728985575196700,4.91219677734375,10.88973617553711,3.864408493041992,-0.07178468257188797
1772728985584714500,4.921714599609375,10.882556915283203,3.6993038654327393,-0.11485548317432404
1772728985594232600,4.931232666015625,10.767702102661133,3.500699520111084,-0.1986042857170105
1772728985603750400,4.94075048828125,10.478170394897461,3.3690943717956543,-0.3086741268634796
1772728985613268500,4.9502685546875,10.013962745666504,3.2757742404937744,-0.5048855543136597
1772728985622786300,4.959786376953125,9.468399047851562,3.2853455543518066,-0.638883650302887
1772728985632304000,4.96930419921875,8.934800148010254,3.383451223373413,-0.849452018737793
1772728985641822000,4.978822021484375,8.408378601074219,3.572484254837036,-1.1629117727279663
1772728985651340000,4.988340087890625,7.836493968963623,3.6993038654327393,-1.4093725681304932
1772728985660857900,4.99785791015625,7.336394309997559,3.7567315101623535,-1.5840486288070679
1772728985670375700,5.007375732421875,6.955935478210449,3.8189449310302734,-1.6845471858978271
1772728985679893800,5.016893798828125,6.654439926147461,3.9290146827697754,-1.820937991142273
1772728985689411600,5.02641162109375,6.446264266967773,4.053441524505615,-1.9956140518188477
1772728985698929400,5.035929443359375,6.331408500671387,4.182653903961182,-2.1272194385528564
1772728985708447200,5.045447265625,6.3840508460998535,4.244867324829102,-2.170290231704712
1772728985717965300,5.05496533203125,6.482156753540039,4.242474555969238,-2.0865414142608643
1772728985727483100,5.064483154296875,6.63051176071167,4.216153621673584,-1.8807586431503296
1772728985737001000,5.0740009765625,6.86261510848999,4.216153621673584,-1.6223337650299072
1772728985746519000,5.08351904296875,7.149754047393799,4.244867324829102,-1.3926228284835815
1772728985756036900,5.093036865234375,7.496713161468506,4.278367042541504,-1.2011969089508057
1772728985765554700,5.1025546875,7.8628153800964355,4.1970109939575195,-1.0241280794143677
1772728985775072800,5.11207275390625,8.264809608459473,4.067798614501953,-0.9020941257476807
1772728985784590600,5.121590576171875,8.640482902526855,3.91705060005188,-0.8159525394439697
1772728985794108400,5.1311083984375,9.013762474060059,3.7974095344543457,-0.8757730722427368
1772728985803626500,5.14062646484375,9.353543281555176,3.713660717010498,-0.9786644577980042
1772728985813144300,5.150144287109375,9.588040351867676,3.6299118995666504,-1.0911271572113037
1772728985822662100,5.159662109375,9.781859397888184,3.531806230545044,-1.2011969089508057
1772728985832180000,5.169179931640625,9.872786521911621,3.517449378967285,-1.3543375730514526
1772728985841698000,5.178697998046875,9.791430473327637,3.5916268825531006,-1.4979069232940674
1772728985851216000,5.1882158203125,9.556933403015137,3.7112679481506348,-1.6151553392410278
1772728985860733700,5.197733642578125,9.212367057800293,3.81655216217041,-1.6151553392410278
1772728985870251800,5.207251708984375,8.83669376373291,3.9361932277679443,-1.6175481081008911
1772728985879769600,5.21676953125,8.489734649658203,4.096512317657471,-1.6701902151107788
1772728985889287400,5.226287353515625,8.178668022155762,4.3070807456970215,-1.7180466651916504
1772728985898805200,5.23580517578125,7.88913631439209,4.48414945602417,-1.698904037475586
1772728985908323300,5.2453232421875,7.645068168640137,4.603790760040283,-1.5433706045150757
1772728985917841200,5.254841064453125,7.465606689453125,4.7401814460754395,-1.2993026971817017
1772728985936877000,5.273876953125,7.195217609405518,4.957928657531738,-0.885344386100769
1772728985946395000,5.283394775390625,7.149754047393799,5.13739013671875,-0.7728816866874695
1772728985955912700,5.29291259765625,7.195217609405518,5.283352375030518,-0.6675975322723389
1772728985965430800,5.3024306640625,7.264609336853027,5.38624382019043,-0.5838487148284912
1772728985974948600,5.311948486328125,7.408178806304932,5.446064472198486,-0.4570291340351105
1772728985984466400,5.321466552734375,7.597211837768555,5.460421085357666,-0.35413774847984314
1772728985993984500,5.330984619140625,7.740781307220459,5.508277893066406,-0.2560320198535919
1772728986003502300,5.34050244140625,7.836493968963623,5.489135265350342,-0.2273181527853012
1772728986013020200,5.350020263671875,7.901100158691406,5.469992637634277,-0.19621145725250244
1772728986022538000,5.3595380859375,7.8556365966796875,5.438885688781738,-0.2225325107574463
1772728986032056000,5.36905615234375,7.89631462097168,5.422136306762695,-0.3278166949748993
1772728986041574000,5.378573974609375,8.109275817871094,5.422136306762695,-0.49292147159576416
1772728986051091700,5.388091796875,8.243273735046387,5.493920803070068,-0.7010970115661621
1772728986060609800,5.39760986328125,8.38684368133545,5.489135265350342,-0.8231309652328491
1772728986070127600,5.407127685546875,8.575876235961914,5.443671703338623,-0.851844847202301
1772728986079645400,5.4166455078125,8.796015739440918,5.304887771606445,-0.7728816866874695
1772728986089163300,5.426163330078125,9.025727272033691,5.259424209594727,-0.7010970115661621
1772728986098681300,5.435681396484375,9.245866775512695,5.266602516174316,-0.698704183101654
1772728986108199200,5.44519921875,9.468399047851562,5.3312087059021,-0.698704183101654
1772728986117717200,5.45471728515625,9.7938232421875,5.347958564758301,-0.6867401003837585
1772728986127234800,5.46423486328125,10.028319358825684,5.37906551361084,-0.6819544434547424
1772728986136753000,5.4737529296875,10.169496536254883,5.402993679046631,-0.6101697683334351
1772728986146270700,5.483270751953125,10.212567329406738,5.347958564758301,-0.5407779216766357
1772728986155788800,5.492788818359375,10.205389022827148,5.338387489318848,-0.550349235534668
1772728986165306600,5.502306640625,10.092926025390625,5.410171985626221,-0.6915257573127747
1772728986174824400,5.511824462890625,9.93260669708252,5.522634506225586,-0.8566305041313171
1772728986184342500,5.521342529296875,9.891928672790527,5.601597785949707,-1.0049854516983032
1772728986193860400,5.5308603515625,9.757930755615234,5.649454116821289,-1.098305583000183
1772728986203378200,5.540378173828125,9.549755096435547,5.6685967445373535,-1.1198409795761108
1772728986212896000,5.54989599609375,9.370293617248535,5.694917678833008,-1.057627558708191
1772728986222414000,5.5594140625,9.276973724365234,5.7619171142578125,-1.00259268283844
1772728986231932000,5.568931884765625,9.150154113769531,5.8337016105651855,-0.9762716293334961
1772728986241449700,5.57844970703125,9.032905578613281,5.867201328277588,-0.9427721500396729
1772728986250967600,5.587967529296875,8.913264274597168,5.816951751708984,-0.8662018179893494
1772728986260485600,5.597485595703125,8.800801277160645,5.704489231109619,-0.7513462901115417
1772728986270003500,5.60700341796875,8.788837432861328,5.5728840827941895,-0.6484549641609192
1772728986279521300,5.616521240234375,8.8438720703125,5.3934221267700195,-0.5479564070701599
1772728986289039400,5.626039306640625,9.032905578613281,5.1876397132873535,-0.5312066078186035
1772728986298557200,5.63555712890625,9.30329418182373,5.003392219543457,-0.46420758962631226
1772728986308075000,5.645074951171875,9.877572059631348,4.7401814460754395,-0.4139583110809326
1772728986317592800,5.6545927734375,10.325029373168945,4.498506546020508,-0.2847459018230438
1772728986327111000,5.66411083984375,10.451848983764648,4.175475597381592,-0.019142581149935722
1772728986336628700,5.673628662109375,10.636096954345703,3.8213376998901367,0.27038896083831787
1772728986346146800,5.683146728515625,10.626524925231934,3.5126636028289795,0.5407779216766357
1772728986355664600,5.69266455078125,10.573883056640625,3.2997024059295654,0.6843472719192505
1772728986365182500,5.702182373046875,10.370492935180664,3.1680972576141357,0.6508477330207825
1772728986374700300,5.7117001953125,10.01874828338623,3.1561331748962402,0.5599204897880554
1772728986384218400,5.72121826171875,9.650253295898438,3.184846878051758,0.38285163044929504
1772728986393736200,5.730736083984375,9.207581520080566,3.2470602989196777,0.16749759018421173
1772728986403254000,5.74025390625,8.595019340515137,3.311666488647461,-0.0023928226437419653
1772728986412772000,5.749772216796875,8.118846893310547,3.4337005615234375,-0.0933200865983963
1772728986422290000,5.7592900390625,7.6977105140686035,3.483949661254883,-0.10767702013254166
1772728986431807700,5.768807861328125,7.475177764892578,3.5820555686950684,-0.20099709928035736
1772728986441325600,5.77832568359375,7.267002582550049,3.6538400650024414,-0.3326023519039154
1772728986450843600,5.78784375,7.223931789398193,3.7471601963043213,-0.4666004180908203
1772728986460361500,5.797361572265625,7.245467185974121,3.7782669067382812,-0.5455635786056519
1772728986469879300,5.80687939453125,7.365108013153076,3.768695592880249,-0.5647061467170715
1772728986479397000,5.816397216796875,7.5637125968933105,3.7112679481506348,-0.5455635786056519
1772728986488915200,5.825915283203125,7.774280548095703,3.627519130706787,-0.5168496966362
1772728986498433000,5.83543310546875,8.15234661102295,3.6681971549987793,-0.49292147159576416
1772728986507950800,5.844950927734375,8.439485549926758,3.6921253204345703,-0.5000999569892883
1772728986517469000,5.854468994140625,8.578269004821777,3.761517286300659,-0.4618147611618042
1772728986526986800,5.86398681640625,8.752944946289062,3.78544545173645,-0.38285163044929504
1772728986536504600,5.873504638671875,8.82951545715332,3.806980848312378,-0.27038896083831787
1772728986546022700,5.883022705078125,8.769695281982422,3.8763725757598877,-0.16749759018421173
1772728986555540500,5.89254052734375,8.623732566833496,3.964907169342041,-0.1986042857170105
1772728986565058300,5.902058349609375,8.499305725097656,4.101297855377197,-0.2512463629245758
1772728986574576400,5.911576416015625,8.329415321350098,4.201796531677246,-0.33738797903060913
1772728986584094200,5.92109423828125,8.12123966217041,4.314259052276611,-0.4259224236011505
1772728986593612000,5.930612060546875,7.917850017547607,4.386044025421143,-0.48574298620224
1772728986603129900,5.9401298828125,7.700103282928467,4.510470867156982,-0.5718846321105957
1772728986612648000,5.94964794921875,7.489534854888916,4.622933387756348,-0.6293123364448547
1772728986622165800,5.959165771484375,7.372286796569824,4.591826438903809,-0.6532405614852905
1772728986631683600,5.96868359375,7.408178806304932,4.6301116943359375,-0.641276478767395
1772728986641201700,5.97820166015625,7.575676441192627,4.661218643188477,-0.641276478767395
1772728986650719500,5.987719482421875,7.779066562652588,4.6995038986206055,-0.5934200286865234
1772728986660237300,5.9972373046875,8.061419486999512,4.622933387756348,-0.4953143000602722
1772728986669755100,6.006755126953125,8.398807525634766,4.522434711456299,-0.3684946894645691
1772728986679273200,6.016273193359375,8.702695846557617,4.417150497436523,-0.2919243574142456
1772728986688791000,6.025791015625,8.949156761169434,4.335794448852539,-0.18424734473228455
1772728986698309000,6.03530908203125,9.174081802368164,4.247260093688965,-0.04785645380616188
1772728986707826700,6.04482666015625,9.34157943725586,4.199403762817383,0.062213387340307236
1772728986717344800,6.0543447265625,9.403793334960938,4.216153621673584,0.11724831163883209
1772728986726862600,6.063862548828125,9.396614074707031,4.319045066833496,0.16510476171970367
1772728986736380700,6.073380615234375,9.34875774383545,4.47697114944458,0.12203395366668701
1772728986745898500,6.0828984375,9.267401695251465,4.644468784332275,0.0023928226437419653
1772728986755416300,6.092416259765625,9.121439933776855,4.752145767211914,-0.12442677468061447
1772728986764934100,6.10193408203125,8.987442016601562,4.792823791503906,-0.28235307335853577
1772728986774452200,6.1114521484375,8.86780071258545,4.821537494659424,-0.44027936458587646
1772728986783970000,6.120969970703125,8.796015739440918,4.862215518951416,-0.5790630578994751
1772728986793488000,6.13048779296875,8.762516975402832,4.900500774383545,-0.7369893789291382
1772728986803006000,6.140005859375,8.824729919433594,4.902893543243408,-0.9188438653945923
1772728986812523800,6.149523681640625,8.963513374328613,4.895715236663818,-1.0049854516983032
1772728986822041600,6.15904150390625,9.090332984924316,4.855037212371826,-1.1126625537872314
1772728986831559400,6.168559326171875,9.250652313232422,4.826323509216309,-1.2083754539489746
1772728986841077500,6.178077392578125,9.437292098999023,4.828716278076172,-1.2394821643829346
1772728986850595300,6.18759521484375,9.580862045288086,4.840680122375488,-1.25144624710083
1772728986860113200,6.197113037109375,9.734002113342285,4.886143684387207,-1.2586246728897095
1772728986869631000,6.206630859375,9.915857315063477,4.8813581466674805,-1.2849457263946533
1772728986879149000,6.216149169921875,10.006784439086914,4.859822750091553,-1.3495519161224365
1772728986888667000,6.2256669921875,10.028319358825684,4.840680122375488,-1.4021940231323242
1772728986898184700,6.235184814453125,9.93978500366211,4.797609329223633,-1.399801254272461
1772728986907702800,6.244702880859375,9.812965393066406,4.835894584655762,-1.423729419708252
1772728986917220600,6.254220703125,9.671789169311523,4.969892501831055,-1.5002998113632202
1772728986926738400,6.263738525390625,9.497113227844238,5.125426292419434,-1.5720844268798828
1772728986936256500,6.273256591796875,9.322437286376953,5.259424209594727,-1.7443677186965942
1772728986945774300,6.2827744140625,9.193224906921387,5.405386447906494,-1.8687944412231445
1772728986955292200,6.292292236328125,9.061619758605957,5.5345988273620605,-2.00518536567688
1772728986964810200,6.301810302734375,8.982656478881836,5.623133182525635,-2.0889341831207275
1772728986974328000,6.311328125,9.030512809753418,5.6446685791015625,-2.100898265838623
1772728986983846000,6.320845947265625,9.236295700073242,5.6446685791015625,-2.045863389968872
1772728986993363700,6.33036376953125,9.554540634155273,5.539384365081787,-1.8975083827972412
1772728987002881800,6.3398818359375,9.973284721374512,5.335994720458984,-1.710868239402771
1772728987012399600,6.349399658203125,10.308279991149902,5.0464630126953125,-1.3926228284835815
1772728987021917400,6.35891748046875,10.6624174118042,4.66361141204834,-1.1054840087890625
1772728987031435300,6.368435302734375,11.002198219299316,4.275974273681641,-0.8446664214134216
1772728987040953300,6.377953369140625,11.358729362487793,3.8907296657562256,-0.6819544434547424
1772728987050471200,6.38747119140625,11.468798637390137,3.5605201721191406,-0.6149554252624512
1772728987059989000,6.396989013671875,11.298908233642578,3.1824541091918945,-0.48813581466674805
1772728987069507000,6.406507080078125,10.947163581848145,2.8761727809906006,-0.35892340540885925
1772728987079025000,6.41602490234375,10.435099601745605,2.7900311946868896,-0.349352091550827
1772728987088542700,6.425542724609375,9.820143699645996,2.9551360607147217,-0.5862415432929993
1772728987098060500,6.435060546875,9.147761344909668,3.1441688537597656,-0.8446664214134216
1772728987107578600,6.44457861328125,8.468199729919434,3.3547372817993164,-1.0887342691421509
1772728987117096400,6.454096435546875,7.7838521003723145,3.565305709838867,-1.2897313833236694
1772728987126614500,6.463614501953125,7.144968509674072,3.7974095344543457,-1.4500504732131958
1772728987136132400,6.47313232421875,6.692724704742432,4.00319242477417,-1.5361921787261963
1772728987145650200,6.482650146484375,6.424728870391846,4.218546390533447,-1.5361921787261963
1772728987155168000,6.49216796875,6.252445697784424,4.314259052276611,-1.4261223077774048
1772728987164686000,6.50168603515625,6.206982135772705,4.323830604553223,-1.1724830865859985
1772728987174204000,6.511203857421875,6.372086524963379,4.254438877105713,-0.849452018737793
1772728987183721700,6.5207216796875,6.675975322723389,4.18983268737793,-0.5359922647476196
1772728987193239600,6.530239501953125,7.027719974517822,4.146761417388916,-0.3852444589138031
1772728987202757600,6.539757568359375,7.496713161468506,4.0319061279296875,-0.23688943684101105
1772728987212275500,6.549275390625,8.00638484954834,3.8572301864624023,-0.064606212079525
1772728987221793300,6.558793212890625,8.547162055969238,3.6610186100006104,0.08853443711996078
1772728987231311400,6.568311279296875,9.147761344909668,3.4121651649475098,0.20817556977272034
1772728987240829200,6.5778291015625,9.702896118164062,3.2590243816375732,0.20099709928035736
1772728987250347000,6.587346923828125,10.092926025390625,3.1657042503356934,0.12921242415905
1772728987259864800,6.59686474609375,10.293923377990723,3.0580272674560547,0.07417750358581543
1772728987269383000,6.6063828125,10.430314064025879,3.06999135017395,-0.0023928226437419653
1772728987278900700,6.615900634765625,10.554740905761719,3.1178479194641113,-0.20099709928035736
1772728987288418600,6.62541845703125,10.329814910888672,3.2590243816375732,-0.349352091550827
1772728987297936400,6.634936279296875,9.889535903930664,3.452843189239502,-0.5000999569892883
1772728987307454500,6.644454345703125,9.365508079528809,3.6370904445648193,-0.5455635786056519
1772728987316972300,6.65397216796875,8.889336585998535,3.9122650623321533,-0.5647061467170715
1772728987326490400,6.663490478515625,8.518448829650879,4.12761926651001,-0.576670229434967
1772728987336008200,6.67300830078125,8.200202941894531,4.309473514556885,-0.5431707501411438
1772728987345526000,6.682526123046875,7.884350776672363,4.479363918304443,-0.48813581466674805
1772728987355043800,6.6920439453125,7.635497093200684,4.67078971862793,-0.38763725757598877
1772728987364562000,6.70156201171875,7.542177200317383,4.7952165603637695,-0.3086741268634796
1772728987374079700,6.711079833984375,7.5326056480407715,4.926821708679199,-0.24885354936122894
1772728987383597600,6.72059765625,7.537391185760498,5.0464630126953125,-0.18903298676013947
1772728987393115400,6.730115478515625,7.747959613800049,5.058426856994629,-0.09092725813388824
1772728987402633500,6.739633544921875,8.054241180419922,4.991427898406982,0.03349951654672623
1772728987412151300,6.7491513671875,8.365307807922363,4.886143684387207,0.17706887423992157
1772728987421669000,6.758669189453125,8.6907320022583,4.773681163787842,0.30628129839897156
1772728987431187200,6.768187255859375,8.97787094116211,4.618147850036621,0.39960137009620667
1772728987440705000,6.777705078125,9.260223388671875,4.46979284286499,0.4043870270252228
1772728987450222800,6.787222900390625,9.422935485839844,4.295116424560547,0.3326023519039154
1772728987459740700,6.79674072265625,9.501898765563965,4.199403762817383,0.1579262912273407
1772728987469258800,6.8062587890625,9.439684867858887,4.161118507385254,-0.10049854964017868
1772728987478776600,6.815776611328125,9.241081237792969,4.168296813964844,-0.4737788736820221
1772728987488294400,6.82529443359375,9.07119083404541,4.213760852813721,-0.8135597109794617
1772728987497812200,6.834812255859375,8.97787094116211,4.271188259124756,-1.1365907192230225
1772728987507330300,6.844330322265625,8.908478736877441,4.338187217712402,-1.3471591472625732
1772728987516848000,6.85384814453125,8.819944381713867,4.376472473144531,-1.4691931009292603
1772728987526366200,6.8633662109375,8.788837432861328,4.4243292808532715,-1.5122638940811157
1772728987535884000,6.872884033203125,8.74337387084961,4.453042984008789,-1.552941918373108
1772728987545401900,6.88240185546875,8.786444664001465,4.48414945602417,-1.581655740737915
1772728987554919700,6.891919677734375,8.96829891204834,4.505684852600098,-1.6319050788879395
1772728987564437800,6.901437744140625,9.221938133239746,4.548755645751953,-1.6701902151107788
1772728987573955600,6.91095556640625,9.470791816711426,4.508078098297119,-1.6869399547576904
1772728987583473400,6.920473388671875,9.762716293334961,4.4650068283081055,-1.6342978477478027
1772728987592991500,6.929991455078125,9.956535339355469,4.357329845428467,-1.5912270545959473
1772728987602509300,6.93950927734375,10.116853713989258,4.218546390533447,-1.5337992906570435
1772728987612027100,6.949027099609375,10.293923377990723,4.115654945373535,-1.5864413976669312
1772728987621545000,6.958544921875,10.38485050201416,4.070191383361816,-1.6390835046768188
1772728987631063000,6.96806298828125,10.39920711517334,4.01754903793335,-1.7204394340515137
1772728987640580900,6.977580810546875,10.444670677185059,3.9696927070617676,-1.794616937637329
1772728987650098700,6.9870986328125,10.425528526306152,3.9050865173339844,-1.801795482635498
1772728987659616500,6.996616455078125,10.29870891571045,3.814159393310547,-1.7922241687774658
1772728987669134600,7.006134521484375,10.045069694519043,3.7974095344543457,-1.7395820617675781
1772728987678652400,7.01565234375,9.767501831054688,3.85483717918396,-1.7539390325546265
1772728987688170200,7.025170166015625,9.535398483276367,3.933800458908081,-1.7419748306274414
1772728987697688000,7.03468798828125,9.45882797241211,4.113262176513672,-1.6582261323928833
1772728987707206100,7.0442060546875,9.408578872680664,4.364508628845215,-1.4644074440002441
1772728987716724000,7.053723876953125,9.284152030944824,4.625326156616211,-1.1868400573730469
1772728987726241800,7.06324169921875,9.32722282409668,4.749752998352051,-0.8015955686569214
1772728987735760000,7.072759765625,9.4660062789917,4.78803825378418,-0.32542386651039124
1772728987745277700,7.082277587890625,9.678967475891113,4.7473602294921875,0.10767702013254166
1772728987754795500,7.09179541015625,10.229316711425781,4.498506546020508,0.3086741268634796
1772728987764313600,7.101313720703125,10.679167747497559,4.230510234832764,0.42831525206565857
1772728987773831400,7.11083154296875,10.992627143859863,3.9050865173339844,0.5575276613235474
1772728987783349200,7.120349365234375,11.37069320678711,3.5030922889709473,0.7824530005455017
1772728987792867300,7.129867431640625,11.583654403686523,3.0029923915863037,0.9667003750801086
1772728987802385200,7.13938525390625,11.69851016998291,2.4837498664855957,1.0911271572113037
1772728987811903000,7.148903076171875,11.526226997375488,2.1272194385528564,1.1772687435150146
1772728987821420800,7.1584208984375,11.322836875915527,2.0099709033966064,1.0265209674835205
1772728987830939000,7.16793896484375,10.669595718383789,2.1272194385528564,0.7585247755050659
1772728987840456700,7.177456787109375,9.980463027954102,2.416750907897949,0.4570291340351105
1772728987849974500,7.186974609375,9.229117393493652,2.8043880462646484,0.11006984114646912
1772728987859492400,7.196492431640625,8.37966537475586,3.2542388439178467,-0.2153540402650833
1772728987869010400,7.206010498046875,7.637889862060547,3.665804386138916,-0.5240281820297241
1772728987878528300,7.2155283203125,7.039684295654297,3.9314076900482178,-0.7585247755050659
1772728987888046000,7.225046142578125,6.5252275466918945,4.077369689941406,-0.8805587291717529
1772728987897564000,7.23456396484375,6.1950178146362305,4.060619831085205,-0.914058268070221
1772728987907082000,7.24408203125,6.087340831756592,3.9601213932037354,-0.9355936646461487
1772728987916599800,7.253599853515625,6.324230194091797,3.7902309894561768,-0.9523434042930603
1772728987926117600,7.26311767578125,6.601797580718994,3.704089403152466,-0.9690931439399719
1772728987935635500,7.272635498046875,7.037291526794434,3.594019651412964,-1.062413215637207
1772728987945153500,7.282153564453125,7.618747234344482,3.5222349166870117,-1.1341979503631592
1772728987954671400,7.29167138671875,8.059026718139648,3.4097721576690674,-1.1724830865859985
1772728987964189200,7.301189208984375,8.429914474487305,3.3092737197875977,-1.1341979503631592
1772728987973707300,7.310707275390625,8.781659126281738,3.2350962162017822,-1.0600204467773438
1772728987983225000,7.32022509765625,9.154939651489258,3.187239646911621,-1.062413215637207
1772728987992743000,7.329742919921875,9.231510162353516,3.2470602989196777,-1.1150553226470947
1772728988002261000,7.339260986328125,9.059226989746094,3.3236305713653564,-1.100698471069336
1772728988011778800,7.34877880859375,8.82951545715332,3.4743785858154297,-1.0839486122131348
1772728988021296600,7.358296630859375,8.571090698242188,3.6538400650024414,-1.0528420209884644
1772728988030814700,7.367814697265625,8.327022552490234,3.8524444103240967,-1.0504491329193115
1772728988040332500,7.37733251953125,8.200202941894531,4.082155227661133,-1.0528420209884644
1772728988049850400,7.386850341796875,8.09252643585205,4.302295207977295,-1.0360921621322632
1772728988059368200,7.3963681640625,8.044670104980469,4.402793884277344,-0.9667003750801086
1772728988068886300,7.40588623046875,8.15234661102295,4.400400638580322,-0.8805587291717529
1772728988078404000,7.415404052734375,8.319844245910645,4.34536600112915,-0.8063812255859375
1772728988087922000,7.424921875,8.429914474487305,4.362115859985352,-0.794417142868042
1772728988097439700,7.434439697265625,8.489734649658203,4.40757942199707,-0.7322037220001221
1772728988106957800,7.443957763671875,8.652446746826172,4.462614059448242,-0.7513462901115417
1772728988116475600,7.4534755859375,8.724231719970703,4.508078098297119,-0.6317051649093628
1772728988125993500,7.462993408203125,8.784051895141602,4.575077056884766,-0.49292147159576416
1772728988135511300,7.47251123046875,8.872586250305176,4.651647090911865,-0.3565305769443512
1772728988145029400,7.482029296875,8.989834785461426,4.706682205200195,-0.19621145725250244
1772728988154547200,7.491547119140625,9.128618240356445,4.716253280639648,-0.14835500717163086
1772728988164065000,7.50106494140625,9.257830619812012,4.7401814460754395,-0.18903298676013947
1772728988173583000,7.5105830078125,9.305686950683594,4.7401814460754395,-0.2584248483181
1772728988183101000,7.520100830078125,9.276973724365234,4.718646049499512,-0.2847459018230438
1772728988192618800,7.52961865234375,9.243474006652832,4.701896667480469,-0.31824541091918945
1772728988202136800,7.53913671875,9.332008361816406,4.6995038986206055,-0.44745782017707825
1772728988211654700,7.548654541015625,9.410971641540527,4.692325115203857,-0.6484549641609192
1772728988221172500,7.55817236328125,9.55214786529541,4.587040901184082,-0.7680960893630981
1772728988230690300,7.567690185546875,9.693324089050293,4.460221290588379,-0.8685946464538574
1772728988240208400,7.57720849609375,9.805787086486816,4.402793884277344,-0.9499505758285522
1772728988249726200,7.586726318359375,10.01156997680664,4.386044025421143,-1.00259268283844
1772728988259244000,7.596244140625,10.284351348876953,4.388436794281006,-1.0432707071304321
1772728988268762000,7.60576220703125,10.542776107788086,4.398007869720459,-1.0767701864242554
1772728988278280000,7.615280029296875,10.786844253540039,4.321437835693359,-1.062413215637207
1772728988287797800,7.6247978515625,10.916056632995605,4.218546390533447,-0.9667003750801086
1772728988297315600,7.634315673828125,10.88016414642334,4.163511276245117,-0.8973084688186646
1772728988306833700,7.643833740234375,10.50209903717041,4.1970109939575195,-0.8590233325958252
1772728988316351500,7.6533515625,9.994820594787598,4.35254430770874,-0.9978070259094238
1772728988325869300,7.662869384765625,9.492327690124512,4.60857629776001,-1.2179467678070068
1772728988335387100,7.67238720703125,9.006584167480469,4.886143684387207,-1.4691931009292603
1772728988344905200,7.6819052734375,8.544769287109375,5.185246467590332,-1.7276179790496826
1772728988354423000,7.691423095703125,8.104490280151367,5.469992637634277,-1.9310078620910645
1772728988363940900,7.70094091796875,7.767102241516113,5.639883041381836,-2.1032910346984863
1772728988373458700,7.710458740234375,7.575676441192627,5.690132141113281,-2.122433662414551
1772728988382976800,7.719976806640625,7.877171993255615,5.599205017089844,-2.062613010406494
1772728988392494600,7.72949462890625,8.422736167907715,5.501099109649658,-1.9956140518188477
1772728988402012400,7.739012451171875,9.037691116333008,5.2043890953063965,-1.8831514120101929
1772728988411530500,7.748530517578125,9.781859397888184,4.709074974060059,-1.710868239402771
1772728988421048300,7.75804833984375,10.612168312072754,4.022335052490234,-1.397408366203308
1772728988430566100,7.767566162109375,11.21515941619873,3.3020951747894287,-0.9882357716560364
1772728988440084200,7.777084228515625,11.547761917114258,2.682354211807251,-0.6628118753433228
1772728988449602000,7.78660205078125,11.653046607971191,2.321038007736206,-0.4833501875400543
1772728988459119900,7.796119873046875,11.583654403686523,2.201396942138672,-0.4977070987224579
1772728988468637700,7.8056376953125,11.212766647338867,2.4047868251800537,-0.7752745151519775
1772728988478155800,7.81515576171875,10.614561080932617,2.794816732406616,-1.1676974296569824
1772728988487673600,7.824673583984375,9.908679008483887,3.2614171504974365,-1.5960127115249634
1772728988497191400,7.83419140625,9.109476089477539,3.682554006576538,-1.8855443000793457
1772728988506709200,7.843709228515625,8.327022552490234,3.9936211109161377,-2.0410776138305664
1772728988516227300,7.853227294921875,7.64028263092041,4.18983268737793,-2.043470621109009
1772728988525745200,7.8627451171875,7.140182971954346,4.273581027984619,-1.9525432586669922
1772728988535263000,7.872262939453125,6.819544315338135,4.2831525802612305,-1.8400806188583374
1772728988544781000,7.881781005859375,6.620940208435059,4.266402721405029,-1.6941183805465698
1772728988554299000,7.891298828125,6.63769006729126,4.168296813964844,-1.5553346872329712
1772728988563816700,7.900816650390625,6.860222339630127,4.084548473358154,-1.4404792785644531
1772728988573334500,7.91033447265625,7.216753005981445,4.012763500213623,-1.3615161180496216
1772728988582852600,7.9198525390625,7.601997375488281,3.933800458908081,-1.3160524368286133
1772728988592370400,7.929370361328125,8.097311973571777,3.840480327606201,-1.2873386144638062
1772728988601888300,7.93888818359375,8.556734085083008,3.7328033447265625,-1.2059825658798218
1772728988611406000,7.948406005859375,9.006584167480469,3.6083765029907227,-1.1485549211502075
1772728988620924200,7.957924072265625,9.281759262084961,3.531806230545044,-1.1078768968582153
1772728988630442000,7.96744189453125,9.41336441040039,3.4791641235351562,-1.100698471069336
1772728988639959800,7.976959716796875,9.432506561279297,3.5222349166870117,-1.1437692642211914
1772728988649477600,7.9864775390625,9.284152030944824,3.6323046684265137,-1.2299108505249023
1772728988658995700,7.99599560546875,8.970691680908203,3.8021950721740723,-1.3615161180496216
1772728988668513500,8.005513427734375,8.595019340515137,3.9864425659179688,-1.4787644147872925
1772728988678031600,8.015031494140626,8.166703224182129,4.156332969665527,-1.5744773149490356
1772728988687549200,8.024549072265625,7.877171993255615,4.292723655700684,-1.6079767942428589
1772728988697067300,8.0340673828125,7.587640762329102,4.409972190856934,-1.588834285736084
1772728988706585000,8.043585205078125,7.317251682281494,4.46979284286499,-1.5194423198699951
1772728988716103200,8.053103271484375,7.17368221282959,4.524827480316162,-1.399801254272461
1772728988725621000,8.06262109375,7.176074981689453,4.587040901184082,-1.3519448041915894
1772728988735138800,8.072138916015625,7.288537979125977,4.651647090911865,-1.3040883541107178
1772728988744656600,8.08165673828125,7.3914289474487305,4.709074974060059,-1.2681959867477417
1772728988754174700,8.0911748046875,7.513463020324707,4.66361141204834,-1.2059825658798218
1772728988763692500,8.100692626953125,7.671389579772949,4.622933387756348,-1.1581261157989502
1772728988773210400,8.11021044921875,7.824530124664307,4.59421968460083,-1.1413763761520386
1772728988782728200,8.119728271484375,8.001599311828613,4.646861553192139,-1.1653046607971191
1772728988792246300,8.129246337890624,8.209774017333984,4.66361141204834,-1.2251251935958862
1772728988801764000,8.13876416015625,8.439485549926758,4.711467742919922,-1.2945170402526855
1772728988811282000,8.148281982421874,8.635697364807129,4.735395908355713,-1.3304094076156616
1772728988820799700,8.1577998046875,8.755337715148926,4.721039295196533,-1.3495519161224365
1772728988830317800,8.16731787109375,8.846264839172363,4.642076015472412,-1.2993026971817017
1772728988839835600,8.176835693359376,9.020941734313965,4.560719966888428,-1.2418749332427979
1772728988849353500,8.186353515625,9.083154678344727,4.625326156616211,-1.2394821643829346
1772728988858871600,8.19587158203125,9.035298347473145,4.704289436340332,-1.277767300605774
1772728988868389400,8.205389404296875,8.930013656616211,4.780859470367432,-1.3495519161224365
1772728988877907200,8.2149072265625,8.82951545715332,4.867001056671143,-1.4380863904953003
1772728988887425000,8.224425048828126,8.638090133666992,4.9531426429748535,-1.6055840253829956
1772728988896943000,8.233943115234375,8.48734188079834,5.044070243835449,-1.703689694404602
1772728988906461000,8.2434609375,8.360522270202637,5.144568920135498,-1.770688772201538
1772728988915978800,8.252978759765625,8.312665939331055,5.26181697845459,-1.8616160154342651
1772728988925496800,8.262496826171875,8.336593627929688,5.371886730194092,-1.9453648328781128
1772728988935014700,8.2720146484375,8.434700012207031,5.465207099914551,-1.9860427379608154
1772728988944532500,8.281532470703125,8.599804878234863,5.489135265350342,-1.9070796966552734
1772728988954050300,8.29105029296875,8.886942863464355,5.467599868774414,-1.801795482635498
1772728988963568400,8.300568359375,9.150154113769531,5.429314613342285,-1.6223337650299072
1772728988973086200,8.310086181640624,9.446864128112793,5.3455657958984375,-1.4811571836471558
1772728988982604000,8.31960400390625,9.714859962463379,5.2354960441589355,-1.3280165195465088
1772728988992121900,8.329121826171875,9.954142570495605,5.158925533294678,-1.2418749332427979
1772728989001640000,8.338639892578126,10.171889305114746,5.142175674438477,-1.2203395366668701
1772728989011157800,8.34815771484375,10.348958015441895,5.106283664703369,-1.2729816436767578
1772728989020675600,8.357675537109374,10.542776107788086,5.06799840927124,-1.3495519161224365
1772728989030193700,8.367193603515625,10.774880409240723,5.056034088134766,-1.4117653369903564
1772728989039711500,8.37671142578125,10.868200302124023,5.056034088134766,-1.3710874319076538
1772728989049229300,8.386229248046876,10.892128944396973,5.087141036987305,-1.2801600694656372
1772728989058747100,8.3957470703125,10.825129508972168,5.132604598999023,-1.0600204467773438
1772728989068265200,8.40526513671875,10.724631309509277,5.240281581878662,-0.849452018737793
1772728989077783000,8.414782958984375,10.475777626037598,5.391029357910156,-0.6125625967979431
1772728989087300900,8.42430078125,10.236495018005371,5.484349727630615,-0.41874396800994873
1772728989096818700,8.433818603515626,10.138389587402344,5.481956481933594,-0.2584248483181
1772728989106336800,8.443336669921875,9.956535339355469,5.362315654754639,-0.09571290761232376
1772728989115854600,8.4528544921875,9.93978500366211,5.247459888458252,0.016749758273363113
1772728989125372400,8.462372314453125,10.054640769958496,5.044070243835449,0.10049854964017868
1772728989134890200,8.47189013671875,10.334601402282715,4.759324073791504,0.1339980661869049
1772728989144408300,8.481408203125,10.75813102722168,4.450650215148926,0.1986042857170105
1772728989153926100,8.490926025390625,10.96869945526123,3.9696927070617676,0.29431718587875366
1772728989163444000,8.50044384765625,10.935199737548828,3.4097721576690674,0.4331009089946747
1772728989172961800,8.5099619140625,10.554740905761719,2.8115665912628174,0.5694918036460876
1772728989182480000,8.51947998046875,10.140782356262207,2.3952155113220215,0.5312066078186035
1772728989191997700,8.528997802734375,9.865608215332031,2.242074728012085,0.2512463629245758
1772728989201515800,8.538515869140625,9.339186668395996,2.366501569747925,-0.1866401731967926
1772728989211033600,8.54803369140625,8.86780071258545,2.56510591506958,-0.6604190468788147
1772728989220551400,8.557551513671875,8.4562349319458,2.7326035499572754,-1.0456634759902954
1772728989230069200,8.5670693359375,8.01356315612793,2.847458839416504,-1.2969099283218384
1772728989239587300,8.57658740234375,7.561319351196289,2.9312076568603516,-1.3615161180496216
1772728989249105200,8.586105224609375,7.195217609405518,3.0628130435943604,-1.2945170402526855
1772728989258623000,8.595623046875,6.865008354187012,3.1968109607696533,-1.160519003868103
1772728989268140800,8.605140869140625,6.7070817947387695,3.3308091163635254,-1.00259268283844
1772728989277659000,8.614658935546874,6.680760860443115,3.5270206928253174,-0.8063812255859375
1772728989287176700,8.6241767578125,6.656832695007324,3.634697675704956,-0.641276478767395
1772728989296694500,8.633694580078124,6.704689025878906,3.7112679481506348,-0.4737788736820221
1772728989306212400,8.64321240234375,6.857829570770264,3.7471601963043213,-0.4043870270252228
1772728989315730400,8.65273046875,7.0683979988098145,3.792623996734619,-0.42352959513664246
1772728989325248300,8.662248291015626,7.331608772277832,3.845266103744507,-0.5288137793540955
1772728989334766000,8.67176611328125,7.659425258636475,3.8596229553222656,-0.638883650302887
1772728989344284000,8.681283935546874,7.960920810699463,3.87876558303833,-0.763310432434082
1772728989353802000,8.690802001953125,8.188239097595215,3.8739798069000244,-0.8590233325958252
1772728989363319800,8.70031982421875,8.329415321350098,3.81655216217041,-0.8781659007072449
1772728989372837600,8.709837646484376,8.408378601074219,3.8261234760284424,-0.916451096534729
1772728989382355500,8.71935546875,8.470592498779297,3.9074792861938477,-1.0289137363433838
1772728989391873500,8.72887353515625,8.508877754211426,4.029513359069824,-1.196411371231079
1772728989401391400,8.738391357421875,8.477770805358887,4.110869407653809,-1.2610175609588623
1772728989410909200,8.7479091796875,8.389236450195312,4.201796531677246,-1.2299108505249023
1772728989420427000,8.757427001953126,8.315058708190918,4.252045631408691,-1.1676974296569824
1772728989429945000,8.766945068359375,8.267202377319336,4.311866283416748,-1.1676974296569824
1772728989439463000,8.776462890625,8.176275253295898,4.390829563140869,-1.1102696657180786
1772728989448981000,8.78598095703125,8.104490280151367,4.488935470581055,-1.0552347898483276
1772728989458498600,8.79549853515625,8.044670104980469,4.584648132324219,-0.973878800868988
1772728989468016600,8.8050166015625,8.025527000427246,4.687539577484131,-0.9762716293334961
1772728989477534500,8.814534423828125,8.073383331298828,4.778466701507568,-0.9523434042930603
1772728989487052500,8.824052490234376,8.23848819732666,4.78803825378418,-0.8781659007072449
1772728989496570400,8.8335703125,8.37966537475586,4.728217601776123,-0.7992027401924133
1772728989506088200,8.843088134765624,8.549555778503418,4.666004180908203,-0.6580262184143066
1772728989515606000,8.85260595703125,8.774480819702148,4.60857629776001,-0.5479564070701599
1772728989525124000,8.8621240234375,9.09272575378418,4.570291042327881,-0.5431707501411438
1772728989534642000,8.871641845703126,9.343972206115723,4.551148891448975,-0.5048855543136597
1772728989544159700,8.88115966796875,9.528220176696777,4.467400074005127,-0.35413774847984314
1772728989553677600,8.890677490234374,9.724431037902832,4.40757942199707,-0.13878370821475983
1772728989563195600,8.900195556640625,9.774680137634277,4.398007869720459,0.01196411345154047
1772728989572713500,8.90971337890625,9.784252166748047,4.4410786628723145,0.15314064919948578
1772728989582231300,8.919231201171876,9.731609344482422,4.488935470581055,0.20338992774486542
1772728989591749000,8.9287490234375,9.56650447845459,4.584648132324219,0.1698904037475586
1772728989601267200,8.93826708984375,9.379864692687988,4.666004180908203,0.07417750358581543
1772728989610785000,8.947784912109375,9.159725189208984,4.78803825378418,-0.08853443711996078
1772728989620302800,8.957302734375,8.994620323181152,4.8813581466674805,-0.24167509377002716
1772728989629820700,8.966820556640625,8.889336585998535,4.991427898406982,-0.3517449200153351
1772728989639338800,8.9763388671875,8.810373306274414,5.01296329498291,-0.44745782017707825
1772728989648856600,8.985856689453126,8.798408508300781,4.9986066818237305,-0.4618147611618042
1772728989658374400,8.99537451171875,8.85344409942627,4.969892501831055,-0.3900300860404968
1772728989667892200,9.004892333984374,9.032905578613281,4.934000492095947,-0.30628129839897156
1772728989677410300,9.014410400390625,9.21715259552002,4.886143684387207,-0.2632105052471161
1772728989686928100,9.02392822265625,9.44447135925293,4.831109046936035,-0.23688943684101105
1772728989696446000,9.033446044921876,9.710074424743652,4.785645484924316,-0.23449662327766418
1772728989705963800,9.0429638671875,9.91107177734375,4.689932346343994,-0.27038896083831787
1772728989715481900,9.05248193359375,10.023533821105957,4.639683246612549,-0.3038884699344635
1772728989724999700,9.061999755859375,10.016355514526367,4.589433670043945,-0.3852444589138031
1772728989734517500,9.071517578125,9.934999465942383,4.613361835479736,-0.5335994362831116
1772728989744035300,9.081035400390626,9.753145217895508,4.706682205200195,-0.7752745151519775
1772728989753553400,9.090553466796875,9.556933403015137,4.862215518951416,-1.0097711086273193
1772728989763071200,9.1000712890625,9.399007797241211,5.048855781555176,-1.1389836072921753
1772728989772589300,9.10958935546875,9.233902931213379,5.237888813018799,-1.3112667798995972
1772728989782107100,9.119107177734374,9.056833267211914,5.414957523345947,-1.4261223077774048
1772728989791625000,9.128625,8.95394229888916,5.544169902801514,-1.4620146751403809
1772728989801142800,9.138142822265625,8.941978454589844,5.647061347961426,-1.4691931009292603
1772728989810660900,9.147660888671876,9.104690551757812,5.529813289642334,-1.4739787578582764
1772728989820178700,9.1571787109375,9.382257461547852,5.280959606170654,-1.3280165195465088
1772728989829696500,9.166696533203124,9.748359680175781,4.895715236663818,-1.0719845294952393
1772728989839214300,9.17621435546875,10.198209762573242,4.536791801452637,-0.9020941257476807
1772728989848732400,9.185732421875,10.693524360656738,4.096512317657471,-0.8566305041313171
1772728989858250200,9.195250244140626,10.97587776184082,3.589233875274658,-0.7920243144035339
1772728989867768000,9.20476806640625,10.971092224121094,3.0101709365844727,-0.7010970115661621
1772728989877286000,9.214285888671874,10.729416847229004,2.56510591506958,-0.641276478767395
1772728989886804000,9.223803955078125,10.358529090881348,2.3952155113220215,-0.8015955686569214
1772728989896321800,9.23332177734375,9.856036186218262,2.5387847423553467,-1.129412293434143
1772728989905839600,9.242839599609376,9.272188186645508,2.8522446155548096,-1.5194423198699951
1772728989915357400,9.252357421875,8.752944946289062,3.1920254230499268,-1.887937068939209
1772728989924875500,9.26187548828125,8.202595710754395,3.562912940979004,-2.2061824798583984
1772728989934393300,9.271393310546875,7.683353424072266,3.799802303314209,-2.337787628173828
1772728989943911200,9.2809111328125,7.231110095977783,3.9744784832000732,-2.3090739250183105
1772728989953429000,9.290428955078125,6.92482852935791,4.07258415222168,-2.1104695796966553
1772728989962947000,9.299947021484375,6.778866767883301,4.125226020812988,-1.8352949619293213
1772728989972465000,9.30946484375,6.845865726470947,4.1730828285217285,-1.5098711252212524
1772728989981982700,9.318982666015625,7.118647575378418,4.151547431945801,-1.191625714302063
1772728989991500500,9.32850048828125,7.482356548309326,4.036691665649414,-0.9523434042930603
1772728990001018600,9.3380185546875,7.860422611236572,3.8572301864624023,-0.763310432434082
1772728990010536400,9.347536376953125,8.281558990478516,3.6370904445648193,-0.5575276613235474
1772728990020054300,9.35705419921875,8.769695281982422,3.4408788681030273,-0.4737788736820221
1772728990029572400,9.366572265625,9.193224906921387,3.3068809509277344,-0.5000999569892883
1772728990039090200,9.376090087890624,9.470791816711426,3.177668571472168,-0.4953143000602722
1772728990048608000,9.38560791015625,9.609575271606445,3.06999135017395,-0.4713860750198364
1772728990058125800,9.395125732421874,9.712467193603516,3.0029923915863037,-0.5431707501411438
1772728990067644000,9.404643798828126,9.681360244750977,3.084348440170288,-0.6867401003837585
1772728990077161700,9.41416162109375,9.485149383544922,3.1992039680480957,-0.914058268070221
1772728990086679600,9.423679443359376,9.238688468933105,3.342773199081421,-1.0528420209884644
1772728990096197400,9.433197265625,8.805587768554688,3.493520975112915,-0.97148597240448
1772728990105715500,9.442715576171874,8.410771369934082,3.6993038654327393,-0.9523434042930603
1772728990115233300,9.4522333984375,8.085348129272461,3.9122650623321533,-1.031306505203247
1772728990124751000,9.461751220703125,7.712067604064941,4.058227062225342,-1.1700903177261353
1772728990134269000,9.47126904296875,7.343572616577148,4.146761417388916,-1.215553879737854
1772728990143787000,9.480787109375,7.039684295654297,4.175475597381592,-1.1772687435150146
1772728990153304800,9.490304931640624,6.948757171630859,4.268795490264893,-1.2299108505249023
1772728990162822700,9.49982275390625,7.128218650817871,4.390829563140869,-1.2849457263946533
1772728990172340500,9.509340576171875,7.365108013153076,4.402793884277344,-1.2729816436767578
1772728990181858600,9.518858642578126,7.860422611236572,4.388436794281006,-1.2059825658798218
1772728990191376400,9.52837646484375,8.331808090209961,4.292723655700684,-0.9308080077171326
1772728990200894200,9.537894287109374,8.542376518249512,4.098905086517334,-0.6460621356964111
1772728990210412000,9.547412109375,8.659625053405762,3.9218363761901855,-0.4737788736820221
1772728990219930000,9.55693017578125,8.714659690856934,3.8763725757598877,-0.42831525206565857
1772728990229448000,9.566447998046876,8.752944946289062,3.902693748474121,-0.607776939868927
1772728990238965800,9.5759658203125,8.941978454589844,4.034298896789551,-0.9308080077171326
1772728990248483600,9.585483642578126,9.157332420349121,4.039084434509277,-1.1940184831619263
1772728990258001700,9.595001708984375,9.286544799804688,3.9792640209198,-1.277767300605774
1772728990267519500,9.60451953125,9.382257461547852,3.869194269180298,-1.3232308626174927
1772728990277037300,9.614037353515625,9.454042434692383,3.728017568588257,-1.337587833404541
1772728990286555100,9.62355517578125,9.525827407836914,3.7328033447265625,-1.3854442834854126
1772728990296073200,9.6330732421875,9.556933403015137,3.81655216217041,-1.5649060010910034
1772728990305591000,9.642591064453125,9.616754531860352,3.869194269180298,-1.7060825824737549
1772728990315108900,9.65210888671875,9.607182502746582,3.864408493041992,-1.7324036359786987
1772728990324626700,9.661626708984375,9.810572624206543,3.902693748474121,-1.7443677186965942
1772728990334144800,9.671144775390625,10.155138969421387,3.9529430866241455,-1.801795482635498
1772728990343662600,9.68066259765625,10.420742988586426,3.7902309894561768,-1.8544375896453857
1772728990353180400,9.690180419921875,10.887343406677246,3.4983067512512207,-1.7515461444854736
1772728990362698500,9.699698486328124,11.25344467163086,3.572484254837036,-1.6079767942428589
1772728990372216300,9.70921630859375,11.198410034179688,3.964907169342041,-1.5840486288070679
1772728990381734100,9.718734130859374,10.935199737548828,4.302295207977295,-1.7180466651916504
1772728990391252000,9.728251953125,10.449456214904785,4.381258487701416,-1.466800332069397
1772728990400770000,9.73777001953125,9.982855796813965,4.247260093688965,-1.0169496536254883
1772728990410287900,9.747287841796876,9.631111145019531,4.053441524505615,-0.7441678643226624
1772728990419805700,9.7568056640625,9.633503913879395,3.792623996734619,-0.7657032608985901
