time,seconds_elapsed,z,y,x
1772728980758025500,0.095025390625,-0.01282816007733345,-0.07941242307424545,0.1130099818110466
1772728980767543300,0.104543212890625,0.007941242307424545,-0.13744457066059113,0.07513637095689774
1772728980777061000,0.11406103515625,0.025045456364750862,-0.1954767256975174,0.040317077189683914
1772728980786579200,0.1235791015625,0.03909534588456154,-0.2461785078048706,0.017104214057326317
1772728980796097000,0.133096923828125,0.04520399495959282,-0.29016077518463135,0.014049889519810677
1772728980805614800,0.14261474609375,0.039706211537122726,-0.31459537148475647,0.023212861269712448
1772728980815133000,0.1521328125,0.025045456364750862,-0.33047783374786377,0.03298669680953026
1772728980824650800,0.161650634765625,0.012217295356094837,-0.32681265473365784,0.043982263654470444
1772728980834168600,0.17116845703125,0.007330377586185932,-0.2919933497905731,0.05070177838206291
1772728980843686400,0.180686279296875,0.001221729558892548,-0.2577849328517914,0.049480047076940536
1772728980853204500,0.19020458984375,-0.007941242307424545,-0.2406807243824005,0.04459312930703163
1772728980862722600,0.19972265625,-0.012217295356094837,-0.22907429933547974,0.04276053607463837
1772728980872240400,0.209240478515625,-0.013439024798572063,-0.23029601573944092,0.04825831577181816
1772728980881758200,0.21875830078125,-0.011606430634856224,-0.23823726177215576,0.05925388261675835
1772728980891276300,0.2282763671875,-0.013439024798572063,-0.23273947834968567,0.06963858753442764
1772728980900794000,0.237794189453125,-0.024434590712189674,-0.22296564280986786,0.06902772188186646
1772728980910312000,0.24731201171875,-0.047036588191986084,-0.2205221801996231,0.053145237267017365
1772728980919830000,0.256830078125,-0.07024945318698883,-0.2516762912273407,0.027488915249705315
1772728980929347800,0.266347900390625,-0.08613193035125732,-0.31642794609069824,0.001832594396546483
1772728980938865700,0.27586572265625,-0.08857539296150208,-0.3695732057094574,-0.017104214057326317
1772728980948383700,0.2853837890625,-0.0720820426940918,-0.38850998878479004,-0.018325943499803543
1772728980957901600,0.294901611328125,-0.04825831577181816,-0.36774060130119324,0.001832594396546483
1772728980967419400,0.30441943359375,-0.02932151034474373,-0.31520622968673706,0.0360410213470459
1772728980976937500,0.3139375,-0.023212861269712448,-0.2516762912273407,0.08063415437936783
1772728980986455300,0.323455322265625,-0.02932151034474373,-0.18264856934547424,0.12644900381565094
1772728980995973400,0.332973388671875,-0.043982263654470444,-0.13500112295150757,0.16187916696071625
1772728981005491200,0.3424912109375,-0.05497783049941063,-0.11056652665138245,0.18264856934547424
1772728981015009000,0.352009033203125,-0.05558869615197182,-0.11423171311616898,0.19120067358016968
1772728981024527000,0.361527099609375,-0.0409279391169548,-0.13011419773101807,0.1893680840730667
1772728981034045000,0.371044921875,-0.021380268037319183,-0.1331685185432434,0.1802051067352295
1772728981043562800,0.380562744140625,-0.009773836471140385,-0.12705987691879272,0.1496618688106537
1772728981053080600,0.39008056640625,0.001221729558892548,-0.0922405794262886,0.12522727251052856
1772728981062598700,0.3995986328125,0.010384701192378998,-0.010995565913617611,0.11972949653863907
1772728981072116500,0.409116455078125,0.014660755172371864,0.10140355676412582,0.1233946830034256
1772728981081634600,0.418634521484375,0.020158538594841957,0.2009745091199875,0.1331685185432434
1772728981091152400,0.42815234375,0.02626718580722809,0.26022839546203613,0.1386663019657135
1772728981100670200,0.437670166015625,0.034208428114652634,0.2889390289783478,0.14233149588108063
1772728981110188300,0.447188232421875,0.04276053607463837,0.2974911332130432,0.14477495849132538
1772728981119706000,0.4567060546875,0.05253437161445618,0.29016077518463135,0.15027274191379547
1772728981129224000,0.466223876953125,0.06108647957444191,0.2718348205089569,0.15027274191379547
1772728981138742000,0.475741943359375,0.06841685622930527,0.2822195291519165,0.14294235408306122
1772728981148259800,0.485259765625,0.07880155742168427,0.33658650517463684,0.1233946830034256
1772728981157777700,0.494777587890625,0.08674279600381851,0.39278605580329895,0.07635809481143951
1772728981167295700,0.504295654296875,0.09040798991918564,0.39889469742774963,-0.002443459117785096
1772728981176813600,0.5138134765625,0.09834922850131989,0.32681265473365784,-0.09101885557174683
1772728981186331400,0.523331298828125,0.09957095980644226,0.19303326308727264,-0.17592905461788177
1772728981195849500,0.532849365234375,0.08857539296150208,0.05803215503692627,-0.2461785078048706
1772728981205367300,0.5423671875,0.05436696484684944,-0.07880155742168427,-0.2974911332130432
1772728981214885000,0.551885009765625,0.001832594396546483,-0.21991132199764252,-0.32681265473365784
1772728981224403200,0.5614033203125,-0.049480047076940536,-0.3090975880622864,-0.33047783374786377
1772728981233921000,0.570921142578125,-0.09285144507884979,-0.26022839546203613,-0.318871408700943
1772728981243439000,0.580439208984375,-0.12522727251052856,-0.12767073512077332,-0.30054548382759094
1772728981252957000,0.58995703125,-0.12644900381565094,0.007330377586185932,-0.268169641494751
1772728981262474800,0.599474853515625,-0.09407317638397217,0.11545344442129135,-0.21930044889450073
1772728981271992800,0.608992919921875,-0.03787361457943916,0.20769402384757996,-0.15821397304534912
1772728981281510700,0.6185107421875,0.020769402384757996,0.2669478952884674,-0.09651663154363632
1772728981291028500,0.628028564453125,0.07941242307424545,0.28038692474365234,-0.02932151034474373
1772728981300546600,0.637546630859375,0.12583814561367035,0.31520622968673706,0.04214967042207718
1772728981310064400,0.647064453125,0.15515965223312378,0.3738492429256439,0.11423171311616898
1772728981319582200,0.656582275390625,0.16065743565559387,0.37751442193984985,0.17043127119541168
1772728981329100300,0.666100341796875,0.14721840620040894,0.33536475896835327,0.20769402384757996
1772728981338618000,0.6756181640625,0.13622283935546875,0.3970620930194855,0.2364046722650528
1772728981348136200,0.68513623046875,0.09590577334165573,0.5290089249610901,0.25350889563560486
1772728981357654000,0.694654052734375,-0.018325943499803543,0.500298261642456,0.2571740746498108
1772728981367171800,0.704171875,-0.11056652665138245,0.268169641494751,0.2510654330253601
1772728981376690000,0.71368994140625,-0.15271618962287903,0.010995565913617611,0.2315177470445633
1772728981386207700,0.723207763671875,-0.13988803327083588,-0.0360410213470459,0.2107483446598053
1772728981395725600,0.7327255859375,-0.11178825795650482,-0.036651886999607086,0.1905898153781891
1772728981405243600,0.74224365234375,-0.0922405794262886,0.004886918235570192,0.16187916696071625
1772728981414761500,0.751761474609375,-0.06475166976451874,0.0873536616563797,0.12583814561367035
1772728981424279300,0.761279296875,-0.03176496922969818,0.22724169492721558,0.08674279600381851
1772728981433797400,0.77079736328125,-0.012217295356094837,0.3555232882499695,0.04153880476951599
1772728981443315200,0.780315185546875,-0.014660755172371864,0.3451386094093323,-0.004886918235570192
1772728981452833300,0.789833251953125,-0.020769402384757996,0.24495677649974823,-0.05864302068948746
1772728981462351000,0.79935107421875,-0.010384701192378998,0.09162971377372742,-0.10201441496610641
1772728981471869000,0.808868896484375,0.01588248461484909,-0.06108647957444191,-0.13011419773101807
1772728981481387000,0.818386962890625,0.034208428114652634,-0.17776164412498474,-0.13622283935546875
1772728981490904800,0.82790478515625,0.017715077847242355,-0.277332603931427,-0.12705987691879272
1772728981500422700,0.837422607421875,-0.03176496922969818,-0.34208428859710693,-0.10384701192378998
1772728981509940700,0.846940673828125,-0.08979712426662445,-0.3433060050010681,-0.06597339361906052
1772728981519458600,0.85645849609375,-0.143553227186203,-0.2883281707763672,-0.021991131827235222
1772728981528976400,0.865976318359375,-0.18753549456596375,-0.20708316564559937,0.021380268037319183
1772728981538494200,0.875494140625,-0.22479823231697083,-0.12278381735086441,0.05864302068948746
1772728981548012300,0.88501220703125,-0.25350889563560486,-0.06108647957444191,0.0824667438864708
1772728981557530000,0.894530029296875,-0.25961753726005554,-0.007941242307424545,0.0977383628487587
1772728981567048000,0.9040478515625,-0.2419024556875229,0.05436696484684944,0.10690133273601532
1772728981576566000,0.91356591796875,-0.2156352698802948,0.09957095980644226,0.10873392969369888
1772728981586083800,0.923083740234375,-0.19242240488529205,0.10629047453403473,0.10140355676412582
1772728981595602000,0.932601806640625,-0.1740964651107788,0.08063415437936783,0.08491020649671555
1772728981605119700,0.94211962890625,-0.15515965223312378,0.043371398001909256,0.06108647957444191
1772728981614637600,0.951637451171875,-0.1337793916463852,0.017104214057326317,0.03298669680953026
1772728981624155600,0.96115576171875,-0.11117739230394363,-0.002443459117785096,0.002443459117785096
1772728981633673500,0.970673583984375,-0.09346231073141098,-0.03909534588456154,-0.02626718580722809
1772728981643191300,0.98019140625,-0.08002328872680664,-0.06047561392188072,-0.04581485688686371
1772728981652709400,0.98970947265625,-0.06719512492418289,-0.046425722539424896,-0.04886918142437935
1772728981662227200,0.999227294921875,-0.05436696484684944,-0.027488915249705315,-0.03909534588456154
1772728981671745000,1.0087451171875,-0.04276053607463837,-0.01649334840476513,-0.013439024798572063
1772728981681263000,1.01826318359375,-0.034208428114652634,-0.01588248461484909,0.01954767294228077
1772728981690781000,1.027781005859375,-0.03237583488225937,-0.01893680728971958,0.05497783049941063
1772728981700299000,1.037299072265625,-0.03787361457943916,-0.0360410213470459,0.08491020649671555
1772728981709816800,1.04681689453125,-0.04825831577181816,-0.07452550530433655,0.10873392969369888
1772728981719334700,1.056334716796875,-0.06291907280683517,-0.13072505593299866,0.11972949653863907
1772728981728852700,1.065852783203125,-0.07880155742168427,-0.17653992772102356,0.11728604137897491
1772728981738370600,1.07537060546875,-0.09407317638397217,-0.21258094906806946,0.10201441496610641
1772728981747888400,1.084888427734375,-0.1130099818110466,-0.2718348205089569,0.0818558782339096
1772728981757406500,1.094406494140625,-0.12767073512077332,-0.32620179653167725,0.056810423731803894
1772728981766924300,1.10392431640625,-0.1380554437637329,-0.3488037884235382,0.0360410213470459
1772728981776442000,1.113442138671875,-0.14599667489528656,-0.3634645342826843,0.020158538594841957
1772728981785960200,1.122960205078125,-0.14721840620040894,-0.36285367608070374,0.012217295356094837
1772728981795478000,1.13247802734375,-0.14294235408306122,-0.3402516841888428,0.010384701192378998
1772728981804996000,1.14199609375,-0.13988803327083588,-0.3237583339214325,0.009773836471140385
1772728981814514000,1.151513916015625,-0.14660754799842834,-0.33169957995414734,0.004276053514331579
1772728981824031700,1.16103173828125,-0.15760311484336853,-0.35246896743774414,-0.003665188793092966
1772728981833549600,1.170549560546875,-0.1637117564678192,-0.36224281787872314,-0.002443459117785096
1772728981843067600,1.180067626953125,-0.16676609218120575,-0.3536907136440277,0.006719512399286032
1772728981852585500,1.18958544921875,-0.1692095398902893,-0.33658650517463684,0.025045456364750862
1772728981862103300,1.199103271484375,-0.17287473380565643,-0.3298669755458832,0.049480047076940536
1772728981871621400,1.208621337890625,-0.17837251722812653,-0.3347539007663727,0.07574722915887833
1772728981881139200,1.21813916015625,-0.18753549456596375,-0.3536907136440277,0.09285144507884979
1772728981890657000,1.227656982421875,-0.1948658674955368,-0.3952295184135437,0.09957095980644226
1772728981900175000,1.237175048828125,-0.19608759880065918,-0.4477638900279999,0.09957095980644226
1772728981909693000,1.24669287109375,-0.1893680840730667,-0.4990765154361725,0.09407317638397217
1772728981919210800,1.256210693359375,-0.17531819641590118,-0.5345066785812378,0.08307760953903198
1772728981928728800,1.265728759765625,-0.15577052533626556,-0.5381718873977661,0.07635809481143951
1772728981938246700,1.27524658203125,-0.1337793916463852,-0.5125155448913574,0.07574722915887833
1772728981947764700,1.2847646484375,-0.1130099818110466,-0.4477638900279999,0.08552107214927673
1772728981957282600,1.294282470703125,-0.0977383628487587,-0.3390299379825592,0.10751219838857651
1772728981966800400,1.30380029296875,-0.09101885557174683,-0.21502439677715302,0.14172062277793884
1772728981976318500,1.313318359375,-0.09346231073141098,-0.10567960888147354,0.17715078592300415
1772728981985836300,1.322836181640625,-0.10506874322891235,-0.030543239787220955,0.20952661335468292
1772728981995354000,1.33235400390625,-0.12705987691879272,0.0054977829568088055,0.22846342623233795
1772728982004872200,1.3418720703125,-0.14721840620040894,0.020769402384757996,0.23457208275794983
1772728982014390000,1.35139013671875,-0.1795942485332489,0.030543239787220955,0.22357651591300964
1772728982023907800,1.360907958984375,-0.22785256803035736,0.02871064469218254,0.19242240488529205
1772728982033425700,1.37042578125,-0.30482152104377747,-0.04214967042207718,0.14172062277793884
1772728982042943700,1.37994384765625,-0.401949018239975,-0.22663083672523499,0.07330377399921417
1772728982052461600,1.389461669921875,-0.48441576957702637,-0.47097674012184143,-0.000610864779446274
1772728982061979400,1.3989794921875,-0.535728394985199,-0.6420188546180725,-0.06536252796649933
1772728982071497500,1.40849755859375,-0.5589412450790405,-0.6914989352226257,-0.10873392969369888
1772728982081015300,1.418015380859375,-0.5601630210876465,-0.6194168925285339,-0.13622283935546875
1772728982090533400,1.427533447265625,-0.5418370366096497,-0.4471530318260193,-0.13194678723812103
1772728982100051200,1.43705126953125,-0.5015199780464172,-0.21197007596492767,-0.10567960888147354
1772728982109569000,1.446569091796875,-0.4410443603992462,0.024434590712189674,-0.04886918142437935
1772728982119087000,1.456087158203125,-0.36224281787872314,0.2009745091199875,0.03176496922969818
1772728982128605000,1.46560498046875,-0.27488914132118225,0.2987128794193268,0.13744457066059113
1772728982138122800,1.475122802734375,-0.19669845700263977,0.3078758418560028,0.25473061203956604
1772728982147640800,1.484640869140625,-0.14172062277793884,0.22785256803035736,0.3659079968929291
1772728982157158700,1.49415869140625,-0.11362084746360779,0.07086031138896942,0.462424635887146
1772728982166676500,1.503676513671875,-0.1130099818110466,-0.11362084746360779,0.5326740741729736
1772728982176194600,1.513194580078125,-0.14110976457595825,-0.28588470816612244,0.565049946308136
1772728982185712400,1.52271240234375,-0.1948658674955368,-0.42882707715034485,0.5485565662384033
1772728982195230500,1.53223046875,-0.2706131041049957,-0.5381718873977661,0.4880809485912323
1772728982204748300,1.541748291015625,-0.35185810923576355,-0.5968148708343506,0.38789913058280945
1772728982214266000,1.55126611328125,-0.4263836145401001,-0.6090322136878967,0.2657261788845062
1772728982223784000,1.560783935546875,-0.4825831651687622,-0.5626064538955688,0.1386663019657135
1772728982233302000,1.570302001953125,-0.5204567909240723,-0.45020735263824463,0.02260199747979641
1772728982242819800,1.57981982421875,-0.5424479246139526,-0.2883281707763672,-0.07330377399921417
1772728982252337700,1.589337646484375,-0.5424479246139526,-0.11545344442129135,-0.14599667489528656
1772728982261855700,1.598855712890625,-0.5302306413650513,0.0360410213470459,-0.19730933010578156
1772728982271373600,1.60837353515625,-0.5119046568870544,0.14782927930355072,-0.23029601573944092
1772728982280891400,1.617891357421875,-0.48441576957702637,0.2107483446598053,-0.24434591829776764
1772728982290409500,1.627409423828125,-0.4465421438217163,0.2309068888425827,-0.2406807243824005
1772728982299927300,1.63692724609375,-0.401949018239975,0.21685700118541718,-0.21502439677715302
1772728982309445000,1.646445068359375,-0.35796675086021423,0.18203771114349365,-0.17348559200763702
1772728982318963200,1.655963134765625,-0.3280344009399414,0.12461641430854797,-0.1233946830034256
1772728982328481000,1.66548095703125,-0.32192572951316833,0.04276053607463837,-0.07391463965177536
1772728982337999000,1.6749990234375,-0.33231043815612793,-0.0409279391169548,-0.03481929376721382
1772728982347517000,1.684516845703125,-0.35246896743774414,-0.10751219838857651,-0.010995565913617611
1772728982357034800,1.69403466796875,-0.3738492429256439,-0.1594357043504715,-0.007941242307424545
1772728982366552800,1.703552734375,-0.3903425931930542,-0.19730933010578156,-0.025045456364750862
1772728982376070700,1.713070556640625,-0.3964512348175049,-0.19853104650974274,-0.05803215503692627
1772728982385588500,1.72258837890625,-0.3964512348175049,-0.16859868168830872,-0.10018182545900345
1772728982395106300,1.732106201171875,-0.3958403766155243,-0.12095122784376144,-0.1484401375055313
1772728982404624400,1.741624267578125,-0.39278605580329895,-0.06902772188186646,-0.2009745091199875
1772728982414142200,1.75114208984375,-0.3756818473339081,-0.03237583488225937,-0.24862197041511536
1772728982423660000,1.760659912109375,-0.3384190797805786,-0.008552107028663158,-0.2828303873538971
1772728982433178000,1.77017822265625,-0.2834412455558777,0.008552107028663158,-0.2981020212173462
1772728982442696000,1.779696044921875,-0.22357651591300964,0.004886918235570192,-0.29626941680908203
1772728982452214000,1.789214111328125,-0.16859868168830872,-0.02626718580722809,-0.2767217457294464
1772728982461731800,1.79873193359375,-0.12522727251052856,-0.07024945318698883,-0.24251331388950348
1772728982471249700,1.808249755859375,-0.09285144507884979,-0.08307760953903198,-0.19425499439239502
1772728982480767700,1.817767822265625,-0.07269290834665298,-0.06475166976451874,-0.13988803327083588
1772728982490285600,1.82728564453125,-0.06230820715427399,-0.028099779039621353,-0.08613193035125732
1772728982499803400,1.836803466796875,-0.05925388261675835,0.020769402384757996,-0.03909534588456154
1772728982509321500,1.846321533203125,-0.056199558079242706,0.07574722915887833,-0.000610864779446274
1772728982518839300,1.85583935546875,-0.053145237267017365,0.11056652665138245,0.023212861269712448
1772728982528357000,1.865357177734375,-0.047036588191986084,0.11911863088607788,0.03176496922969818
1772728982537875000,1.874875,-0.036651886999607086,0.11362084746360779,0.026878049597144127
1772728982547393000,1.88439306640625,-0.01954767294228077,0.08918625861406326,0.01282816007733345
1772728982556910800,1.893910888671875,0.003665188793092966,0.04825831577181816,-0.009773836471140385
1772728982566428700,1.9034287109375,0.0256563201546669,-0.017104214057326317,-0.043982263654470444
1772728982575946800,1.91294677734375,0.04276053607463837,-0.0977383628487587,-0.08674279600381851
1772728982585464600,1.922464599609375,0.05803215503692627,-0.17104214429855347,-0.13011419773101807
1772728982594982700,1.931982666015625,0.07147117704153061,-0.22907429933547974,-0.16798780858516693
1772728982604500500,1.94150048828125,0.07513637095689774,-0.28588470816612244,-0.2009745091199875
1772728982614018300,1.951018310546875,0.06475166976451874,-0.3280344009399414,-0.22907429933547974
1772728982623536400,1.960536376953125,0.05070177838206291,-0.337808221578598,-0.24923282861709595
1772728982633054200,1.97005419921875,0.047036588191986084,-0.3090975880622864,-0.24923282861709595
1772728982642572000,1.979572021484375,0.06475166976451874,-0.2205221801996231,-0.21868959069252014
1772728982652090000,1.989090087890625,0.09651663154363632,-0.08368847519159317,-0.1545487940311432
1772728982661608000,1.99860791015625,0.13011419773101807,0.06597339361906052,-0.06230820715427399
1772728982671125800,2.008125732421875,0.16249002516269684,0.22235478460788727,0.046425722539424896
1772728982680643600,2.0176435546875,0.19730933010578156,0.3549124300479889,0.15760311484336853
1772728982690161700,2.02716162109375,0.23029601573944092,0.42271843552589417,0.26022839546203613
1772728982699679500,2.036679443359375,0.2608392536640167,0.42271843552589417,0.3426951467990875
1772728982709197300,2.046197265625,0.287106454372406,0.3530798554420471,0.3970620930194855
1772728982718715400,2.05571533203125,0.30482152104377747,0.235793799161911,0.4214966893196106
1772728982728233200,2.065233154296875,0.31154105067253113,0.11117739230394363,0.41783151030540466
1772728982737751300,2.074751220703125,0.3042106628417969,-0.013439024798572063,0.3897317349910736
1772728982747269000,2.08426904296875,0.2834412455558777,-0.13744457066059113,0.34147340059280396
1772728982756787000,2.093786865234375,0.24740023910999298,-0.24495677649974823,0.27550002932548523
1772728982766305000,2.103304931640625,0.20402882993221283,-0.3402516841888428,0.19181154668331146
1772728982775822800,2.11282275390625,0.164322629570961,-0.41294458508491516,0.1026252806186676
1772728982785340700,2.122340576171875,0.14538581669330597,-0.45020735263824463,0.031154103577136993
1772728982794858500,2.1318583984375,0.1533270627260208,-0.4221075773239136,0.0054977829568088055
1772728982804376600,2.14137646484375,0.185092031955719,-0.268169641494751,0.02871064469218254
1772728982813894400,2.150894287109375,0.22418737411499023,0.004276053514331579,0.0922405794262886
1772728982823412200,2.160412109375,0.2528980076313019,0.33231043815612793,0.17531819641590118
1772728982832930300,2.169930419921875,0.268169641494751,0.6407971382141113,0.2565632164478302
1772728982842448100,2.1794482421875,0.28038692474365234,0.870482325553894,0.3292561173439026
1772728982851966000,2.188966064453125,0.29443681240081787,1.0018181800842285,0.38667741417884827
1772728982861484000,2.198484130859375,0.30970844626426697,1.0207550525665283,0.41844236850738525
1772728982871001900,2.208001953125,0.3176496922969818,0.9224058389663696,0.4221075773239136
1772728982880520000,2.21752001953125,0.32131487131118774,0.7428115606307983,0.3958403766155243
1772728982890037800,2.227037841796875,0.32070401310920715,0.5045742988586426,0.3451386094093323
1772728982899555600,2.2365556640625,0.32192572951316833,0.23457208275794983,0.277332603931427
1772728982909073700,2.24607373046875,0.33658650517463684,-0.009162971749901772,0.20280711352825165
1772728982918591500,2.255591552734375,0.35796675086021423,-0.21868959069252014,0.12278381735086441
1772728982928109300,2.265109375,0.37262752652168274,-0.39767298102378845,0.033597562462091446
1772728982937627100,2.274627197265625,0.3744601011276245,-0.5253437161445618,-0.05803215503692627
1772728982947145200,2.284145263671875,0.35674503445625305,-0.5870410799980164,-0.15271618962287903
1772728982956663000,2.2936630859375,0.3170388340950012,-0.5974257588386536,-0.24556763470172882
1772728982966180900,2.303180908203125,0.2632827162742615,-0.5784889459609985,-0.3335321843624115
1772728982975699000,2.312698974609375,0.20830489695072174,-0.5314523577690125,-0.4098902642726898
1772728982985216800,2.322216796875,0.16126830875873566,-0.4526508152484894,-0.45875945687294006
1772728982994734800,2.33173486328125,0.1331685185432434,-0.31031930446624756,-0.472198486328125
1772728983004252700,2.341252685546875,0.12217295914888382,-0.09529490768909454,-0.4471530318260193
1772728983013770500,2.3507705078125,0.1178968995809555,0.13439024984836578,-0.39217519760131836
1772728983023288600,2.36028857421875,0.1185077652335167,0.3292561173439026,-0.31642794609069824
1772728983032806400,2.369806396484375,0.1288924664258957,0.472198486328125,-0.22907429933547974
1772728983042324200,2.37932421875,0.1441640853881836,0.5412262082099915,-0.14172062277793884
1772728983051842000,2.388842041015625,0.15760311484336853,0.5406153202056885,-0.06230820715427399
1772728983061360000,2.398360107421875,0.17531819641590118,0.5119046568870544,0.0054977829568088055
1772728983070878000,2.4078779296875,0.1905898153781891,0.4465421438217163,0.06047561392188072
1772728983080395800,2.417395751953125,0.20463970303535461,0.3396408259868622,0.10079269111156464
1772728983089913900,2.426913818359375,0.2205221801996231,0.22357651591300964,0.12950333952903748
1772728983099431700,2.436431640625,0.2309068888425827,0.12461641430854797,0.13988803327083588
1772728983108949500,2.445949462890625,0.22785256803035736,0.03481929376721382,0.12461641430854797
1772728983118467600,2.455467529296875,0.20952661335468292,-0.040317077189683914,0.0818558782339096
1772728983127985400,2.4649853515625,0.17715078592300415,-0.09957095980644226,0.01893680728971958
1772728983137503200,2.474503173828125,0.12156209349632263,-0.14782927930355072,-0.05803215503692627
1772728983147021300,2.484021240234375,0.056199558079242706,-0.1649334877729416,-0.1386663019657135
1772728983156539100,2.4935390625,-0.009773836471140385,-0.15760311484336853,-0.20891575515270233
1772728983166057000,2.503056884765625,-0.06414080411195755,-0.13988803327083588,-0.2632827162742615
1772728983175575000,2.512574951171875,-0.10567960888147354,-0.11911863088607788,-0.29626941680908203
1772728983185092900,2.5220927734375,-0.13561198115348816,-0.08552107214927673,-0.3121519088745117
1772728983194610700,2.531610595703125,-0.1539379209280014,-0.05558869615197182,-0.30970844626426697
1772728983204128800,2.541128662109375,-0.15699224174022675,-0.023823726922273636,-0.2877173125743866
1772728983213646600,2.550646484375,-0.14782927930355072,0.023823726922273636,-0.2467893660068512
1772728983223164400,2.560164306640625,-0.1331685185432434,0.0665842592716217,-0.18631376326084137
1772728983232682500,2.5696826171875,-0.1130099818110466,0.08918625861406326,-0.11423171311616898
1772728983242200300,2.579200439453125,-0.09162971377372742,0.07635809481143951,-0.03909534588456154
1772728983251718100,2.58871826171875,-0.07269290834665298,0.020769402384757996,0.026878049597144127
1772728983261236000,2.598236083984375,-0.06108647957444191,-0.07147117704153061,0.07513637095689774
1772728983270754000,2.607754150390625,-0.05436696484684944,-0.1637117564678192,0.10629047453403473
1772728983280272000,2.61727197265625,-0.05742128938436508,-0.22663083672523499,0.11545344442129135
1772728983289790000,2.6267900390625,-0.0769689604640007,-0.2779434621334076,0.09896009415388107
1772728983299307800,2.636307861328125,-0.10629047453403473,-0.3341430425643921,0.06352993845939636
1772728983308825600,2.64582568359375,-0.13500112295150757,-0.3707949221134186,0.011606430634856224
1772728983318343400,2.655343505859375,-0.14782927930355072,-0.37629270553588867,-0.043982263654470444
1772728983327861500,2.664861572265625,-0.143553227186203,-0.35246896743774414,-0.09529490768909454
1772728983337379300,2.67437939453125,-0.1282816082239151,-0.31581708788871765,-0.13683371245861053
1772728983346897200,2.683897216796875,-0.10506874322891235,-0.2663370370864868,-0.16187916696071625
1772728983356415200,2.693415283203125,-0.07757982611656189,-0.2003636509180069,-0.164322629570961
1772728983365933000,2.70293310546875,-0.050090912729501724,-0.13072505593299866,-0.14110976457595825
1772728983375451000,2.712450927734375,-0.023212861269712448,-0.06414080411195755,-0.09590577334165573
1772728983384969000,2.721968994140625,0.000610864779446274,-0.006719512399286032,-0.037262752652168274
1772728983394486800,2.73148681640625,0.008552107028663158,0.023823726922273636,0.01649334840476513
1772728983404004600,2.741004638671875,-0.003665188793092966,0.01954767294228077,0.053756099194288254
1772728983413522700,2.750522705078125,-0.03298669680953026,-0.01649334840476513,0.06780599057674408
1772728983423040500,2.76004052734375,-0.0720820426940918,-0.06719512492418289,0.06414080411195755
1772728983432558600,2.76955859375,-0.10751219838857651,-0.11423171311616898,0.04581485688686371
1772728983442076400,2.779076416015625,-0.13988803327083588,-0.14538581669330597,0.012217295356094837
1772728983451594200,2.78859423828125,-0.16554436087608337,-0.16004657745361328,-0.037262752652168274
1772728983461112000,2.798112060546875,-0.18387030065059662,-0.1692095398902893,-0.10018182545900345
1772728983470630100,2.807630126953125,-0.20402882993221283,-0.1844811588525772,-0.1802051067352295
1772728983480148000,2.81714794921875,-0.22907429933547974,-0.22846342623233795,-0.2718348205089569
1772728983489665800,2.826665771484375,-0.25534147024154663,-0.3078758418560028,-0.3646862804889679
1772728983499183900,2.836183837890625,-0.27488914132118225,-0.39278605580329895,-0.4379900395870209
1772728983508701700,2.84570166015625,-0.28527384996414185,-0.44409868121147156,-0.4679224193096161
1772728983518219500,2.855219482421875,-0.27855435013771057,-0.4147771894931793,-0.43371400237083435
1772728983527737600,2.864737548828125,-0.2522871494293213,-0.26389357447624207,-0.3329212963581085
1772728983537255400,2.87425537109375,-0.22846342623233795,-0.024434590712189674,-0.18753549456596375
1772728983546773200,2.883773193359375,-0.21441353857517242,0.21135921776294708,-0.025045456364750862
1772728983556291000,2.893291015625,-0.20341797173023224,0.3897317349910736,0.13744457066059113
1772728983565809200,2.90280908203125,-0.18387030065059662,0.48930269479751587,0.2938259541988373
1772728983575327000,2.912326904296875,-0.16065743565559387,0.5076286196708679,0.4324922561645508
1772728983584845000,2.921844970703125,-0.143553227186203,0.44837474822998047,0.5442805290222168
1772728983594363000,2.93136279296875,-0.14233149588108063,0.32681265473365784,0.6212494969367981
1772728983603880700,2.940880615234375,-0.15821397304534912,0.17653992772102356,0.6554579138755798
1772728983613398800,2.950398681640625,-0.19242240488529205,0.03543015569448471,0.6426297426223755
1772728983622916600,2.95991650390625,-0.235793799161911,-0.0824667438864708,0.5790998339653015
1772728983632434400,2.969434326171875,-0.27855435013771057,-0.1747073233127594,0.47097674012184143
1772728983641952300,2.9789521484375,-0.3182605504989624,-0.2412915825843811,0.32559093832969666
1772728983651470300,2.98847021484375,-0.35613417625427246,-0.2779434621334076,0.15210533142089844
1772728983660988200,2.99798828125,-0.3854556679725647,-0.28405213356018066,-0.034208428114652634
1772728983670506000,3.007506103515625,-0.3952295184135437,-0.26389357447624207,-0.20952661335468292
1772728983680024000,3.017024169921875,-0.3842339515686035,-0.22174391150474548,-0.35613417625427246
1772728983689542000,3.0265419921875,-0.35796675086021423,-0.17043127119541168,-0.45875945687294006
1772728983699059700,3.036059814453125,-0.3170388340950012,-0.10140355676412582,-0.5106829404830933
1772728983708577800,3.045577880859375,-0.268169641494751,-0.009162971749901772,-0.5106829404830933
1772728983718095600,3.055095703125,-0.21868959069252014,0.06597339361906052,-0.4673115611076355
1772728983727613400,3.064613525390625,-0.17776164412498474,0.10567960888147354,-0.3915643095970154
1772728983737131500,3.074131591796875,-0.14782927930355072,0.1233946830034256,-0.2981020212173462
1772728983746649300,3.0836494140625,-0.12644900381565094,0.12278381735086441,-0.20280711352825165
1772728983756167200,3.093167236328125,-0.12217295914888382,0.0977383628487587,-0.12156209349632263
1772728983765685200,3.102685302734375,-0.13194678723812103,0.046425722539424896,-0.06291907280683517
1772728983775203000,3.112203125,-0.1496618688106537,-0.010384701192378998,-0.029932374134659767
1772728983784721000,3.121720947265625,-0.16737695038318634,-0.04214967042207718,-0.021380268037319183
1772728983794239000,3.131239013671875,-0.18081597983837128,-0.06230820715427399,-0.043982263654470444
1772728983803756800,3.1407568359375,-0.18570289015769958,-0.08918625861406326,-0.09101885557174683
1772728983813274600,3.150274658203125,-0.1802051067352295,-0.10506874322891235,-0.15149445831775665
1772728983822792400,3.15979248046875,-0.1637117564678192,-0.10567960888147354,-0.2162461280822754
1772728983832310500,3.169310546875,-0.14110976457595825,-0.09468404203653336,-0.27550002932548523
1772728983841828400,3.178828369140625,-0.1130099818110466,-0.08368847519159317,-0.318871408700943
1772728983851346200,3.18834619140625,-0.08368847519159317,-0.07024945318698883,-0.34147340059280396
1772728983860864300,3.1978642578125,-0.04764745384454727,-0.043982263654470444,-0.33658650517463684
1772728983870382000,3.207382080078125,-0.012217295356094837,-0.009773836471140385,-0.3066541254520416
1772728983879900200,3.216900146484375,0.01649334840476513,0.02260199747979641,-0.258395791053772
1772728983889418000,3.22641796875,0.034208428114652634,0.04214967042207718,-0.20280711352825165
1772728983898935800,3.235935791015625,0.040317077189683914,0.049480047076940536,-0.14660754799842834
1772728983908453600,3.24545361328125,0.04214967042207718,0.05253437161445618,-0.09529490768909454
1772728983917971700,3.2549716796875,0.04459312930703163,0.0513126403093338,-0.05192350596189499
1772728983927489500,3.264489501953125,0.04886918142437935,0.04581485688686371,-0.01588248461484909
1772728983937007400,3.27400732421875,0.05864302068948746,0.04153880476951599,0.017715077847242355
1772728983946525400,3.283525390625,0.0720820426940918,0.06108647957444191,0.04886918142437935
1772728983956043300,3.293043212890625,0.0818558782339096,0.08613193035125732,0.07086031138896942
1772728983965561000,3.30256103515625,0.08429934084415436,0.09162971377372742,0.07757982611656189
1772728983975079200,3.3120791015625,0.08552107214927673,0.0720820426940918,0.06475166976451874
1772728983984597000,3.321596923828125,0.0873536616563797,0.01893680728971958,0.037262752652168274
1772728983994114800,3.33111474609375,0.09101885557174683,-0.05253437161445618,-0.002443459117785096
1772728984003632600,3.340632568359375,0.09590577334165573,-0.13194678723812103,-0.043371398001909256
1772728984013150700,3.350150634765625,0.10140355676412582,-0.205861434340477,-0.07635809481143951
1772728984022668500,3.35966845703125,0.10506874322891235,-0.2461785078048706,-0.09529490768909454
1772728984032186400,3.369186279296875,0.09896009415388107,-0.23762640357017517,-0.10690133273601532
1772728984041704400,3.378704345703125,0.09101885557174683,-0.19364413619041443,-0.10934479534626007
1772728984051222300,3.38822216796875,0.09468404203653336,-0.11362084746360779,-0.09712749719619751
1772728984060740400,3.397740234375,0.11667517572641373,-0.001832594396546483,-0.06291907280683517
1772728984070258200,3.407258056640625,0.15577052533626556,0.1380554437637329,0.000610864779446274
1772728984079776000,3.41677587890625,0.20280711352825165,0.2981020212173462,0.0922405794262886
1772728984089293800,3.4262939453125,0.24434591829776764,0.4428769648075104,0.20219624042510986
1772728984098812000,3.43581201171875,0.27916520833969116,0.5406153202056885,0.3170388340950012
1772728984108329700,3.445329833984375,0.3133736252784729,0.5864301919937134,0.42882707715034485
1772728984117847600,3.45484765625,0.3488037884235382,0.5766563415527344,0.526565432548523
1772728984127365600,3.46436572265625,0.37629270553588867,0.5106829404830933,0.5986474752426147
1772728984136883500,3.473883544921875,0.3897317349910736,0.40378162264823914,0.6401863098144531
1772728984146401300,3.4834013671875,0.3915643095970154,0.28405213356018066,0.6499601006507874
1772728984155919000,3.492919189453125,0.37812530994415283,0.15760311484336853,0.6261364221572876
1772728984165437200,3.502437255859375,0.35735589265823364,0.01893680728971958,0.5693259835243225
1772728984174955000,3.511955078125,0.33047783374786377,-0.12095122784376144,0.4838049113750458
1772728984184472800,3.521472900390625,0.3072649836540222,-0.24556763470172882,0.379347026348114
1772728984193991000,3.530990966796875,0.2877173125743866,-0.337808221578598,0.2669478952884674
1772728984203508700,3.5405087890625,0.2761108875274658,-0.3952295184135437,0.16798780858516693
1772728984213026800,3.55002685546875,0.2730565667152405,-0.401949018239975,0.10079269111156464
1772728984222544600,3.559544677734375,0.27427828311920166,-0.3439168632030487,0.07391463965177536
1772728984232062500,3.5690625,0.2706131041049957,-0.2162461280822754,0.08613193035125732
1772728984241580300,3.578580322265625,0.2706131041049957,-0.01893680728971958,0.1380554437637329
1772728984251098400,3.588098388671875,0.27488914132118225,0.205861434340477,0.2156352698802948
1772728984260616200,3.5976162109375,0.2816086709499359,0.3995055556297302,0.3023780584335327
1772728984270134000,3.607134033203125,0.287106454372406,0.5412262082099915,0.38179048895835876
1772728984279651800,3.61665185546875,0.2919933497905731,0.6395754218101501,0.44837474822998047
1772728984289170000,3.626169921875,0.2987128794193268,0.6823359727859497,0.4972439408302307
1772728984298687700,3.635687744140625,0.30482152104377747,0.665842592716217,0.5259546041488647
1772728984308205600,3.64520556640625,0.3090975880622864,0.5919279456138611,0.5283980369567871
1772728984317723600,3.6547236328125,0.31642794609069824,0.46914416551589966,0.5064069032669067
1772728984327241500,3.664241455078125,0.3280344009399414,0.3127627670764923,0.45937031507492065
1772728984336759300,3.67375927734375,0.34208428859710693,0.14721840620040894,0.3958403766155243
1772728984346277400,3.68327734375,0.3500255048274994,-0.000610864779446274,0.31581708788871765
1772728984355795200,3.692795166015625,0.3451386094093323,-0.1233946830034256,0.22479823231697083
1772728984365313300,3.702313232421875,0.32009315490722656,-0.21502439677715302,0.12522727251052856
1772728984374831000,3.7118310546875,0.2779434621334076,-0.27366742491722107,0.021991131827235222
1772728984384349000,3.721348876953125,0.2211330533027649,-0.3243691921234131,-0.08124501258134842
1772728984393866800,3.73086669921875,0.15149445831775665,-0.3848448097705841,-0.18264856934547424
1772728984403384800,3.740384765625,0.08124501258134842,-0.4404335021972656,-0.27855435013771057
1772728984412902700,3.749902587890625,0.021380268037319183,-0.4569268524646759,-0.3585776388645172
1772728984422420500,3.75942041015625,-0.023212861269712448,-0.42271843552589417,-0.41294458508491516
1772728984431938600,3.7689384765625,-0.046425722539424896,-0.328645259141922,-0.4312705397605896
1772728984441456400,3.778456298828125,-0.056810423731803894,-0.1484401375055313,-0.4111120104789734
1772728984450974200,3.78797412109375,-0.06230820715427399,0.07330377399921417,-0.360410213470459
1772728984460492000,3.797491943359375,-0.07941242307424545,0.25473061203956604,-0.28954991698265076
1772728984470010000,3.807010009765625,-0.1081230640411377,0.3536907136440277,-0.20402882993221283
1772728984479528000,3.81652783203125,-0.1380554437637329,0.3854556679725647,-0.11117739230394363
1772728984489045800,3.826045654296875,-0.164322629570961,0.3689623177051544,-0.020769402384757996
1772728984498563800,3.835563720703125,-0.19120067358016968,0.30604326725006104,0.053756099194288254
1772728984508081700,3.84508154296875,-0.22235478460788727,0.21807873249053955,0.1026252806186676
1772728984517599700,3.854599853515625,-0.24984370172023773,0.13500112295150757,0.12522727251052856
1772728984527117600,3.86411767578125,-0.2669478952884674,0.07024945318698883,0.12705987691879272
1772728984536635400,3.873635498046875,-0.2761108875274658,0.01954767294228077,0.1081230640411377
1772728984546153200,3.8831533203125,-0.27977606654167175,-0.01649334840476513,0.07330377399921417
1772728984555671300,3.89267138671875,-0.2864955961704254,-0.05070177838206291,0.02871064469218254
1772728984565189000,3.902189208984375,-0.2987128794193268,-0.0922405794262886,-0.023823726922273636
1772728984574707000,3.91170703125,-0.32070401310920715,-0.143553227186203,-0.07880155742168427
1772728984584225000,3.92122509765625,-0.3549124300479889,-0.2052505612373352,-0.13744457066059113
1772728984593742800,3.930742919921875,-0.3952295184135437,-0.2822195291519165,-0.19669845700263977
1772728984603260700,3.9402607421875,-0.4318813979625702,-0.36651885509490967,-0.24984370172023773
1772728984612778500,3.949778564453125,-0.46059203147888184,-0.43982264399528503,-0.2864955961704254
1772728984622296600,3.959296630859375,-0.4880809485912323,-0.48991355299949646,-0.3035998046398163
1772728984631814400,3.968814453125,-0.5180133581161499,-0.5045742988586426,-0.2938259541988373
1772728984641332200,3.978332275390625,-0.5516108870506287,-0.47525280714035034,-0.25961753726005554
1772728984650850300,3.987850341796875,-0.5907062292098999,-0.4251618981361389,-0.205861434340477
1772728984660368100,3.9973681640625,-0.6346884965896606,-0.3836230933666229,-0.14049890637397766
1772728984669886000,4.006885986328125,-0.676227331161499,-0.3543015718460083,-0.07269290834665298
1772728984679404000,4.016404052734375,-0.7067705392837524,-0.33658650517463684,-0.015271619893610477
1772728984688921900,4.025921875,-0.7250964641571045,-0.3652971386909485,0.03298669680953026
1772728984698439700,4.035439697265625,-0.7324268817901611,-0.42394015192985535,0.06841685622930527
1772728984707957800,4.044957763671875,-0.730594277381897,-0.4776962697505951,0.09590577334165573
1772728984717475600,4.0544755859375,-0.7281508445739746,-0.5143481492996216,0.11484257876873016
1772728984726993400,4.063993408203125,-0.7287616729736328,-0.5503891706466675,0.12278381735086441
1772728984736511500,4.073511474609375,-0.7324268817901611,-0.5876519083976746,0.11911863088607788
1772728984746029300,4.083029296875,-0.7409789562225342,-0.6065887212753296,0.10751219838857651
1772728984755547100,4.092547119140625,-0.7531962990760803,-0.6090322136878967,0.09651663154363632
1772728984765065000,4.10206494140625,-0.7715222239494324,-0.6017017960548401,0.09101885557174683
1772728984774583000,4.1115830078125,-0.7904590368270874,-0.5766563415527344,0.09896009415388107
1772728984784100900,4.121100830078125,-0.8008437156677246,-0.5174024701118469,0.13194678723812103
1772728984793618700,4.13061865234375,-0.8014546036720276,-0.4276053309440613,0.19181154668331146
1772728984803136800,4.14013671875,-0.8008437156677246,-0.3298669755458832,0.2657261788845062
1772728984812654600,4.149654541015625,-0.8002328872680664,-0.25961753726005554,0.337808221578598
1772728984822172400,4.15917236328125,-0.8057306408882141,-0.24006985127925873,0.39339691400527954
1772728984831690200,4.168690185546875,-0.8161153197288513,-0.26450446248054504,0.4221075773239136
1772728984841208300,4.178208251953125,-0.8313869833946228,-0.32131487131118774,0.42882707715034485
1772728984850726100,4.18772607421875,-0.851545512676239,-0.38789913058280945,0.4098902642726898
1772728984860244200,4.197244140625,-0.8784235715866089,-0.4422661066055298,0.35735589265823364
1772728984869762000,4.206761962890625,-0.9077450633049011,-0.49113526940345764,0.27488914132118225
1772728984879279900,4.21627978515625,-0.9401208758354187,-0.5479456782341003,0.17592905461788177
1772728984888798000,4.2257978515625,-0.9706641435623169,-0.6206386089324951,0.06780599057674408
1772728984898315800,4.235315673828125,-0.9944878816604614,-0.7037162184715271,-0.04520399495959282
1772728984907833600,4.24483349609375,-1.0115920305252075,-0.7867938280105591,-0.15027274191379547
1772728984917351400,4.254351318359375,-1.0146464109420776,-0.8381064534187317,-0.21868959069252014
1772728984926869500,4.263869384765625,-1.0042617321014404,-0.8216131329536438,-0.25350889563560486
1772728984936387300,4.27338720703125,-0.9779945015907288,-0.7562506198883057,-0.24312418699264526
1772728984945905200,4.2829052734375,-0.943786084651947,-0.6310232877731323,-0.18387030065059662
1772728984955423200,4.29242333984375,-0.9071341753005981,-0.44470956921577454,-0.06475166976451874
1772728984964941000,4.301941162109375,-0.8759800791740417,-0.21135921776294708,0.07941242307424545
1772728984974459000,4.311458984375,-0.8539889454841614,-0.008552107028663158,0.24312418699264526
1772728984983976700,4.320976806640625,-0.841160774230957,0.14782927930355072,0.3860665261745453
1772728984993494800,4.330494873046875,-0.8283326625823975,0.21441353857517242,0.4929678738117218
1772728985003012600,4.3400126953125,-0.8222240209579468,0.19853104650974274,0.5674933791160583
1772728985012530400,4.349530517578125,-0.8185588121414185,0.12034036219120026,0.5870410799980164
1772728985022048500,4.359048583984375,-0.8222240209579468,0.008552107028663158,0.5711585879325867
1772728985031566300,4.36856640625,-0.8350521326065063,-0.10690133273601532,0.5137372612953186
1772728985041084200,4.378084228515625,-0.8484911918640137,-0.21746785938739777,0.41905322670936584
1772728985050602200,4.387602294921875,-0.8588758707046509,-0.3127627670764923,0.30054548382759094
1772728985060120000,4.3971201171875,-0.8570432662963867,-0.37629270553588867,0.17226386070251465
1772728985069638000,4.406637939453125,-0.8478803038597107,-0.41416633129119873,0.04581485688686371
1772728985079156000,4.416156005859375,-0.841160774230957,-0.4404335021972656,-0.07147117704153061
1772728985088673800,4.425673828125,-0.8405499458312988,-0.4569268524646759,-0.17043127119541168
1772728985098191600,4.435191650390625,-0.8454368710517883,-0.46059203147888184,-0.2461785078048706
1772728985107709400,4.44470947265625,-0.8436042666435242,-0.45509424805641174,-0.28954991698265076
1772728985117227500,4.4542275390625,-0.8344413042068481,-0.43493571877479553,-0.3017672002315521
1772728985126745300,4.463745361328125,-0.8185588121414185,-0.4105011224746704,-0.2809978127479553
1772728985136263200,4.47326318359375,-0.7996219992637634,-0.37751442193984985,-0.23518294095993042
1772728985145781200,4.48278125,-0.7886264324188232,-0.33597561717033386,-0.17165300250053406
1772728985155299000,4.492299072265625,-0.7904590368270874,-0.30054548382759094,-0.10018182545900345
1772728985164817000,4.50181689453125,-0.8008437156677246,-0.27000224590301514,-0.024434590712189674
1772728985174334700,4.511334716796875,-0.8093958497047424,-0.2309068888425827,0.04153880476951599
1772728985183852800,4.520852783203125,-0.813671886920929,-0.1905898153781891,0.08857539296150208
1772728985193370600,4.53037060546875,-0.8142827749252319,-0.17592905461788177,0.11056652665138245
1772728985202888700,4.539888671875,-0.8069523572921753,-0.1844811588525772,0.10445787757635117
1772728985212406500,4.549406494140625,-0.7898481488227844,-0.19730933010578156,0.0720820426940918
1772728985221924400,4.55892431640625,-0.7739656567573547,-0.20341797173023224,0.014049889519810677
1772728985231442400,4.5684423828125,-0.7660244107246399,-0.22663083672523499,-0.0665842592716217
1772728985240960300,4.577960205078125,-0.7605266571044922,-0.2779434621334076,-0.16065743565559387
1772728985250478000,4.58747802734375,-0.7531962990760803,-0.34086254239082336,-0.25411975383758545
1772728985259996000,4.596995849609375,-0.7428115606307983,-0.3897317349910736,-0.33658650517463684
1772728985269514000,4.606513916015625,-0.7318159937858582,-0.42821621894836426,-0.401949018239975
1772728985279031800,4.61603173828125,-0.721431314945221,-0.45448338985443115,-0.4471530318260193
1772728985288549600,4.625549560546875,-0.7024945020675659,-0.4520399272441864,-0.4679224193096161
1772728985298067700,4.635067626953125,-0.6792816519737244,-0.41294458508491516,-0.46425724029541016
1772728985307585500,4.64458544921875,-0.6517927050590515,-0.3451386094093323,-0.4355465769767761
1772728985317103400,4.654103271484375,-0.6194168925285339,-0.2608392536640167,-0.3836230933666229
1772728985326621200,4.66362109375,-0.5852084755897522,-0.17104214429855347,-0.31581708788871765
1772728985336139300,4.67313916015625,-0.555276095867157,-0.10140355676412582,-0.23884813487529755
1772728985345657000,4.682656982421875,-0.5302306413650513,-0.07452550530433655,-0.16798780858516693
1772728985355175000,4.6921748046875,-0.5045742988586426,-0.09101885557174683,-0.1081230640411377
1772728985364693000,4.70169287109375,-0.4740310609340668,-0.11606431007385254,-0.056810423731803894
1772728985374210800,4.7112109375,-0.43860089778900146,-0.12522727251052856,-0.01282816007733345
1772728985383728600,4.720728759765625,-0.40378162264823914,-0.12950333952903748,0.026878049597144127
1772728985393246700,4.730246826171875,-0.37262752652168274,-0.1130099818110466,0.06475166976451874
1772728985402764500,4.7397646484375,-0.3451386094093323,-0.07757982611656189,0.10506874322891235
1772728985412282400,4.749282470703125,-0.32009315490722656,-0.043371398001909256,0.1441640853881836
1772728985421800400,4.758800537109375,-0.29443681240081787,-0.025045456364750862,0.18203771114349365
1772728985431318300,4.768318359375,-0.2675587832927704,-0.023212861269712448,0.21502439677715302
1772728985440836000,4.777836181640625,-0.23762640357017517,-0.020158538594841957,0.24495677649974823
1772728985450354000,4.78735400390625,-0.19792018830776215,0.004886918235570192,0.2730565667152405
1772728985459872000,4.7968720703125,-0.15210533142089844,0.04459312930703163,0.3029889166355133
1772728985469389800,4.806389892578125,-0.09834922850131989,0.09529490768909454,0.33719736337661743
1772728985478907600,4.81590771484375,-0.050090912729501724,0.13683371245861053,0.36712974309921265
1772728985488425700,4.82542578125,-0.01588248461484909,0.13927717506885529,0.38728827238082886
1772728985497943600,4.834943603515625,0.001832594396546483,0.0922405794262886,0.38728827238082886
1772728985507461400,4.84446142578125,0.008552107028663158,-0.0054977829568088055,0.3652971386909485
1772728985516979200,4.853979248046875,0.003665188793092966,-0.1337793916463852,0.3194822669029236
1772728985526497300,4.863497314453125,-0.002443459117785096,-0.27855435013771057,0.258395791053772
1772728985536015000,4.87301513671875,-0.006719512399286032,-0.4202749729156494,0.1899789422750473
1772728985545533200,4.882533203125,-0.011606430634856224,-0.5125155448913574,0.12217295914888382
1772728985555051000,4.892051025390625,-0.021380268037319183,-0.5369501113891602,0.06719512492418289
1772728985564568800,4.90156884765625,-0.034208428114652634,-0.5027416944503784,0.02932151034474373
1772728985574086700,4.911086669921875,-0.040317077189683914,-0.42455101013183594,0.01649334840476513
1772728985583604700,4.920604736328125,-0.029932374134659767,-0.3078758418560028,0.039706211537122726
1772728985593122600,4.93012255859375,-0.0030543238390237093,-0.15210533142089844,0.10018182545900345
1772728985602640400,4.939640380859375,0.028099779039621353,0.02260199747979641,0.19364413619041443
1772728985612158500,4.949158447265625,0.053145237267017365,0.2009745091199875,0.3078758418560028
1772728985621676300,4.95867626953125,0.06841685622930527,0.3597993552684784,0.42455101013183594
1772728985631194000,4.968194091796875,0.07269290834665298,0.46059203147888184,0.526565432548523
1772728985640712000,4.9777119140625,0.08002328872680664,0.5222893953323364,0.6163625717163086
1772728985650230000,4.98722998046875,0.08979712426662445,0.5595521330833435,0.6878337264060974
1772728985659747800,4.996747802734375,0.09346231073141098,0.5619956254959106,0.7354812026023865
1772728985669265700,5.006265625,0.08002328872680664,0.5076286196708679,0.748920202255249
1772728985678783700,5.01578369140625,0.04825831577181816,0.38667741417884827,0.7238747477531433
1772728985688301600,5.025301513671875,0.010384701192378998,0.23029601573944092,0.6646208763122559
1772728985697819400,5.0348193359375,-0.018325943499803543,0.0769689604640007,0.5839866995811462
1772728985707337200,5.044337158203125,-0.037262752652168274,-0.08368847519159317,0.48991355299949646
1772728985716855300,5.053855224609375,-0.04825831577181816,-0.2510654330253601,0.38667741417884827
1772728985726373000,5.063373046875,-0.06291907280683517,-0.4001164436340332,0.27550002932548523
1772728985735891200,5.07289111328125,-0.09040798991918564,-0.5143481492996216,0.15638138353824615
1772728985745409000,5.082408935546875,-0.12644900381565094,-0.5858193039894104,0.03298669680953026
1772728985754926800,5.0919267578125,-0.17165300250053406,-0.6157516837120056,-0.0873536616563797
1772728985764444700,5.101444580078125,-0.22296564280986786,-0.6096430420875549,-0.19853104650974274
1772728985773962800,5.110962646484375,-0.2822195291519165,-0.5809323787689209,-0.29565855860710144
1772728985783480600,5.12048046875,-0.3390299379825592,-0.5302306413650513,-0.37201663851737976
1772728985792998400,5.129998291015625,-0.3854556679725647,-0.4477638900279999,-0.4214966893196106
1772728985802516500,5.1395166015625,-0.4153880476951599,-0.32559093832969666,-0.4379900395870209
1772728985812034300,5.149034423828125,-0.42332929372787476,-0.16615521907806396,-0.4153880476951599
1772728985821552000,5.15855224609375,-0.41355544328689575,0.004276053514331579,-0.35735589265823364
1772728985831070000,5.168070068359375,-0.38850998878479004,0.15210533142089844,-0.2669478952884674
1772728985840588000,5.177588134765625,-0.35063639283180237,0.26450446248054504,-0.15271618962287903
1772728985850105900,5.18710595703125,-0.30482152104377747,0.35124725103378296,-0.02626718580722809
1772728985859623700,5.196623779296875,-0.26022839546203613,0.40255987644195557,0.09590577334165573
1772728985869141800,5.206141845703125,-0.22663083672523499,0.39767298102378845,0.1954767256975174
1772728985878659600,5.21565966796875,-0.2003636509180069,0.33047783374786377,0.2657261788845062
1772728985888177400,5.225177490234375,-0.17348559200763702,0.22235478460788727,0.3066541254520416
1772728985897695200,5.2346953125,-0.14172062277793884,0.1081230640411377,0.3237583339214325
1772728985907213300,5.24421337890625,-0.11056652665138245,0.012217295356094837,0.3170388340950012
1772728985916731100,5.253731201171875,-0.09162971377372742,-0.06597339361906052,0.29016077518463135
1772728985935767000,5.27276708984375,-0.09162971377372742,-0.15638138353824615,0.19303326308727264
1772728985945284900,5.282284912109375,-0.10629047453403473,-0.16554436087608337,0.13072505593299866
1772728985954802700,5.291802734375,-0.13011419773101807,-0.17776164412498474,0.06719512492418289
1772728985964320800,5.30132080078125,-0.16126830875873566,-0.20769402384757996,0.004886918235570192
1772728985973838600,5.310838623046875,-0.19792018830776215,-0.2516762912273407,-0.04825831577181816
1772728985983356400,5.3203564453125,-0.23884813487529755,-0.3072649836540222,-0.08368847519159317
1772728985992874500,5.32987451171875,-0.28588470816612244,-0.36224281787872314,-0.10018182545900345
1772728986002392300,5.339392333984375,-0.3390299379825592,-0.3860665261745453,-0.10140355676412582
1772728986011910100,5.34891015625,-0.3964512348175049,-0.38240134716033936,-0.09346231073141098
1772728986021428000,5.358427978515625,-0.4563159942626953,-0.3536907136440277,-0.08857539296150208
1772728986030946000,5.367946044921875,-0.5094612240791321,-0.30970844626426697,-0.10018182545900345
1772728986040464000,5.3774638671875,-0.5516108870506287,-0.30543237924575806,-0.11239911615848541
1772728986049981700,5.386981689453125,-0.5766563415527344,-0.3488037884235382,-0.12095122784376144
1772728986059499800,5.396499755859375,-0.5864301919937134,-0.3970620930194855,-0.13194678723812103
1772728986069017600,5.406017578125,-0.5888736248016357,-0.4514290690422058,-0.14049890637397766
1772728986078535400,5.415535400390625,-0.5919279456138611,-0.5137372612953186,-0.14721840620040894
1772728986088053200,5.42505322265625,-0.5962040424346924,-0.5790998339653015,-0.15210533142089844
1772728986097571300,5.4345712890625,-0.5974257588386536,-0.6273581385612488,-0.1588248461484909
1772728986107089200,5.444089111328125,-0.5913171172142029,-0.6432406306266785,-0.16187916696071625
1772728986116607200,5.453607177734375,-0.583375871181488,-0.647516667842865,-0.15821397304534912
1772728986126125000,5.463125,-0.5754346251487732,-0.6420188546180725,-0.1380554437637329
1772728986135643000,5.472642822265625,-0.5687150955200195,-0.6065887212753296,-0.09712749719619751
1772728986145160700,5.48216064453125,-0.5687150955200195,-0.5345066785812378,-0.03909534588456154
1772728986154678800,5.4916787109375,-0.5803215503692627,-0.4477638900279999,0.02871064469218254
1772728986164196600,5.501196533203125,-0.5949822664260864,-0.36712974309921265,0.0922405794262886
1772728986173714400,5.51071435546875,-0.6017017960548401,-0.29626941680908203,0.1490510106086731
1772728986183232500,5.520232421875,-0.5962040424346924,-0.24740023910999298,0.1997527778148651
1772728986192750300,5.529750244140625,-0.583375871181488,-0.23335035145282745,0.25045454502105713
1772728986202268200,5.53926806640625,-0.5668824911117554,-0.21441353857517242,0.30115634202957153
1772728986211786000,5.548785888671875,-0.5619956254959106,-0.1997527778148651,0.3500255048274994
1772728986221304000,5.558303955078125,-0.5778780579566956,-0.2370155304670334,0.3842339515686035
1772728986230822000,5.56782177734375,-0.6078104376792908,-0.31642794609069824,0.4050033390522003
1772728986240339700,5.577339599609375,-0.6432406306266785,-0.3970620930194855,0.41233372688293457
1772728986249857500,5.586857421875,-0.6817250847816467,-0.46608981490135193,0.3995055556297302
1772728986259375600,5.596375732421875,-0.7202095985412598,-0.5119046568870544,0.36224281787872314
1772728986268893400,5.6058935546875,-0.7599157691001892,-0.5430588126182556,0.2974911332130432
1772728986278411300,5.615411376953125,-0.8014546036720276,-0.5699368119239807,0.21197007596492767
1772728986287929300,5.624929443359375,-0.8429933786392212,-0.5992583632469177,0.11972949653863907
1772728986297447200,5.634447265625,-0.8741474747657776,-0.6401863098144531,0.03481929376721382
1772728986306965000,5.643965087890625,-0.8949168920516968,-0.7165443897247314,-0.02871064469218254
1772728986316483000,5.653483154296875,-0.9071341753005981,-0.8081740736961365,-0.037262752652168274
1772728986326001000,5.6630009765625,-0.915075421333313,-0.833219587802887,-0.004276053514331579
1772728986335518700,5.672518798828125,-0.9303470849990845,-0.7861829996109009,0.04520399495959282
1772728986345036800,5.682036865234375,-0.9584468603134155,-0.6945532560348511,0.12156209349632263
1772728986354554600,5.6915546875,-0.9938769936561584,-0.5674933791160583,0.20647229254245758
1772728986364072400,5.701072509765625,-1.0299180746078491,-0.43371400237083435,0.3194822669029236
1772728986373590300,5.71059033203125,-1.061682939529419,-0.2767217457294464,0.4312705397605896
1772728986383108400,5.7201083984375,-1.0867284536361694,-0.1331685185432434,0.5125155448913574
1772728986392626200,5.729626220703125,-1.1038326025009155,-0.03543015569448471,0.573602020740509
1772728986402144000,5.73914404296875,-1.1154390573501587,0.0360410213470459,0.5949822664260864
1772728986411662000,5.748662109375,-1.120326042175293,0.07086031138896942,0.574212908744812
1772728986421180000,5.758179931640625,-1.1313215494155884,0.046425722539424896,0.5296197533607483
1772728986430697700,5.76769775390625,-1.1514800786972046,-0.04886918142437935,0.4465421438217163
1772728986440215600,5.777215576171875,-1.1691951751708984,-0.18875721096992493,0.3426951467990875
1772728986449733600,5.786733642578125,-1.1795798540115356,-0.318871408700943,0.2156352698802948
1772728986459251500,5.79625146484375,-1.174692988395691,-0.4147771894931793,0.08674279600381851
1772728986468769500,5.80576953125,-1.1563670635223389,-0.47525280714035034,-0.03481929376721382
1772728986478287000,5.815287109375,-1.1313215494155884,-0.5192350745201111,-0.1386663019657135
1772728986487805200,5.82480517578125,-1.100778341293335,-0.5528326034545898,-0.21991132199764252
1772728986497323000,5.834322998046875,-1.0610721111297607,-0.5821541547775269,-0.2767217457294464
1772728986506841000,5.843841064453125,-1.01708984375,-0.6224712133407593,-0.29993459582328796
1772728986516359000,5.85335888671875,-0.9712749719619751,-0.6212494969367981,-0.29138249158859253
1772728986525876700,5.862876708984375,-0.9364557266235352,-0.5809323787689209,-0.25961753726005554
1772728986535394600,5.87239453125,-0.9187406301498413,-0.5283980369567871,-0.21135921776294708
1772728986544912600,5.88191259765625,-0.9144645929336548,-0.46608981490135193,-0.1545487940311432
1772728986554430500,5.891430419921875,-0.915686309337616,-0.3842339515686035,-0.09529490768909454
1772728986563948300,5.9009482421875,-0.9193515181541443,-0.3035998046398163,-0.036651886999607086
1772728986573466400,5.91046630859375,-0.924849271774292,-0.24984370172023773,0.014660755172371864
1772728986582984200,5.919984130859375,-0.9327905178070068,-0.22663083672523499,0.05803215503692627
1772728986592502000,5.929501953125,-0.9468404054641724,-0.235793799161911,0.08796452730894089
1772728986602019800,5.939019775390625,-0.9639446139335632,-0.26878049969673157,0.10079269111156464
1772728986611538000,5.948537841796875,-0.9834923148155212,-0.30970844626426697,0.09407317638397217
1772728986621055700,5.9580556640625,-1.0012073516845703,-0.360410213470459,0.06719512492418289
1772728986630573600,5.967573486328125,-1.01708984375,-0.4422661066055298,0.017104214057326317
1772728986640091600,5.977091552734375,-1.025641918182373,-0.5589412450790405,-0.05253437161445618
1772728986649609500,5.986609375,-1.0225876569747925,-0.6688969135284424,-0.1337793916463852
1772728986659127300,5.996127197265625,-1.0115920305252075,-0.7440332770347595,-0.20952661335468292
1772728986668645000,6.00564501953125,-0.9944878816604614,-0.8002328872680664,-0.2761108875274658
1772728986678163200,6.0151630859375,-0.9694424271583557,-0.833219587802887,-0.32070401310920715
1772728986687681000,6.024680908203125,-0.9370665550231934,-0.8240565657615662,-0.3396408259868622
1772728986697199000,6.03419921875,-0.8967494964599609,-0.7709113359451294,-0.3298669755458832
1772728986706717000,6.043717041015625,-0.8600975871086121,-0.6921098232269287,-0.29565855860710144
1772728986716234800,6.05323486328125,-0.8295543789863586,-0.5900954008102417,-0.23823726177215576
1772728986725752600,6.062752685546875,-0.8161153197288513,-0.4679224193096161,-0.16554436087608337
1772728986735270700,6.072270751953125,-0.823445737361908,-0.3610210716724396,-0.08368847519159317
1772728986744788500,6.08178857421875,-0.8442151546478271,-0.2926042377948761,-0.001832594396546483
1772728986754306300,6.091306396484375,-0.8698714375495911,-0.2565632164478302,0.07269290834665298
1772728986763824000,6.10082421875,-0.8955277800559998,-0.24373504519462585,0.13255766034126282
1772728986773342200,6.11034228515625,-0.9175189137458801,-0.2528980076313019,0.17653992772102356
1772728986782860000,6.119860107421875,-0.9303470849990845,-0.27000224590301514,0.20158538222312927
1772728986792377900,6.1293779296875,-0.9309579133987427,-0.28405213356018066,0.2107483446598053
1772728986801896000,6.13889599609375,-0.9217949509620667,-0.2968802750110626,0.20830489695072174
1772728986811413800,6.148413818359375,-0.9040798544883728,-0.3084867000579834,0.19853104650974274
1772728986820931600,6.157931640625,-0.8759800791740417,-0.31642794609069824,0.18692462146282196
1772728986830449400,6.167449462890625,-0.842382550239563,-0.30482152104377747,0.1795942485332489
1772728986839967500,6.176967529296875,-0.8026763200759888,-0.27977606654167175,0.17715078592300415
1772728986849485300,6.1864853515625,-0.7635809779167175,-0.23884813487529755,0.1802051067352295
1772728986859003400,6.19600341796875,-0.7263182401657104,-0.19425499439239502,0.18814635276794434
1772728986868521000,6.20552099609375,-0.6914989352226257,-0.15515965223312378,0.2052505612373352
1772728986878039000,6.2150390625,-0.6560688018798828,-0.11545344442129135,0.23518294095993042
1772728986887556900,6.224556884765625,-0.618806004524231,-0.05742128938436508,0.27916520833969116
1772728986897075000,6.234074951171875,-0.5845975875854492,0.014660755172371864,0.3341430425643921
1772728986906592800,6.2435927734375,-0.5564978122711182,0.08674279600381851,0.3903425931930542
1772728986916110600,6.253110595703125,-0.5351175665855408,0.16310089826583862,0.44470956921577454
1772728986925628400,6.26262841796875,-0.5198459029197693,0.24006985127925873,0.4917461574077606
1772728986935146500,6.272146484375,-0.5161807537078857,0.29443681240081787,0.5235111117362976
1772728986944664300,6.281664306640625,-0.5186241865158081,0.3176496922969818,0.5369501113891602
1772728986954182100,6.29118212890625,-0.5259546041488647,0.3084867000579834,0.5290089249610901
1772728986963700200,6.3007001953125,-0.535728394985199,0.2516762912273407,0.4978547990322113
1772728986973218000,6.310218017578125,-0.5528326034545898,0.1233946830034256,0.4428769648075104
1772728986982736000,6.31973583984375,-0.5772672295570374,-0.08491020649671555,0.36712974309921265
1772728986992253700,6.329253662109375,-0.6071996092796326,-0.3543015718460083,0.27855435013771057
1772728987001771800,6.338771728515625,-0.6328558921813965,-0.6273581385612488,0.1893680840730667
1772728987011289600,6.34828955078125,-0.6493492722511292,-0.8374956250190735,0.1081230640411377
1772728987020807400,6.357807373046875,-0.6627882719039917,-0.9462295174598694,0.03848448023200035
1772728987030325200,6.3673251953125,-0.6682860851287842,-0.9572250843048096,-0.007330377586185932
1772728987039843300,6.37684326171875,-0.6505709886550903,-0.8765909671783447,-0.007330377586185932
1772728987049361200,6.386361083984375,-0.5986474752426147,-0.6908880472183228,0.05558869615197182
1772728987058879000,6.39587890625,-0.5210676789283752,-0.38240134716033936,0.18264856934547424
1772728987068397000,6.40539697265625,-0.4422661066055298,-0.020769402384757996,0.3549124300479889
1772728987077915000,6.414914794921875,-0.38789913058280945,0.29504770040512085,0.546113133430481
1772728987087432700,6.4244326171875,-0.3543015718460083,0.5174024701118469,0.7360920310020447
1772728987096950800,6.43395068359375,-0.3298669755458832,0.6316341757774353,0.9138537049293518
1772728987106468600,6.443468505859375,-0.3176496922969818,0.637742817401886,1.0586286783218384
1772728987115986400,6.452986328125,-0.3237583339214325,0.5369501113891602,1.1557561159133911
1772728987125504500,6.46250439453125,-0.35063639283180237,0.337808221578598,1.1936297416687012
1772728987135022300,6.472022216796875,-0.39828383922576904,0.05925388261675835,1.1685843467712402
1772728987144540200,6.4815400390625,-0.4612029194831848,-0.2712239623069763,1.0861176252365112
1772728987154058000,6.49105810546875,-0.5259546041488647,-0.6096430420875549,0.9572250843048096
1772728987163576000,6.500576171875,-0.5894845128059387,-0.9010255336761475,0.7892373204231262
1772728987173094000,6.510093994140625,-0.6548470258712769,-1.1319323778152466,0.593149721622467
1772728987182611700,6.51961181640625,-0.7324268817901611,-1.3182462453842163,0.379347026348114
1772728987192129500,6.529129638671875,-0.8222240209579468,-1.4508038759231567,0.16249002516269684
1772728987201647600,6.538647705078125,-0.9095776677131653,-1.5118902921676636,-0.040317077189683914
1772728987211165400,6.54816552734375,-0.9926552772521973,-1.5125012397766113,-0.2162461280822754
1772728987220683300,6.557683349609375,-1.0677915811538696,-1.452636480331421,-0.3591884970664978
1772728987230201300,6.567201416015625,-1.1417062282562256,-1.3561197519302368,-0.4612029194831848
1772728987239719200,6.57671923828125,-1.2070688009262085,-1.2333359718322754,-0.516791582107544
1772728987249237000,6.586237060546875,-1.2565488815307617,-1.065959095954895,-0.5155698657035828
1772728987258754800,6.5957548828125,-1.2846486568450928,-0.8558215498924255,-0.45875945687294006
1772728987268273000,6.60527294921875,-1.296255111694336,-0.646905779838562,-0.3555232882499695
1772728987277790700,6.614790771484375,-1.296255111694336,-0.5198459029197693,-0.185092031955719
1772728987287308800,6.624308837890625,-1.2870920896530151,-0.47525280714035034,0.01893680728971958
1772728987296826400,6.633826416015625,-1.2742639780044556,-0.4825831651687622,0.21380266547203064
1772728987306344400,6.643344482421875,-1.2712095975875854,-0.5057960152626038,0.3744601011276245
1772728987315862300,6.6528623046875,-1.2730422019958496,-0.5540543794631958,0.4874700903892517
1772728987325380400,6.66238037109375,-1.2718204259872437,-0.6322450637817383,0.5485565662384033
1772728987334898200,6.671898193359375,-1.2742639780044556,-0.7354812026023865,0.5674933791160583
1772728987344416000,6.681416015625,-1.2828160524368286,-0.8271108865737915,0.5558869242668152
1772728987353933800,6.690933837890625,-1.2980875968933105,-0.905912458896637,0.5088503360748291
1772728987363452000,6.700451904296875,-1.324354887008667,-0.998763918876648,0.42882707715034485
1772728987372969700,6.7099697265625,-1.3585633039474487,-1.1062761545181274,0.3274235129356384
1772728987382487600,6.719487548828125,-1.3952151536941528,-1.2150100469589233,0.21135921776294708
1772728987392005400,6.72900537109375,-1.4300343990325928,-1.3164136409759521,0.0873536616563797
1772728987401523500,6.7385234375,-1.4666863679885864,-1.398269534111023,-0.018325943499803543
1772728987411041300,6.748041259765625,-1.5100576877593994,-1.4617993831634521,-0.09468404203653336
1772728987420559000,6.75755908203125,-1.5656464099884033,-1.517388105392456,-0.143553227186203
1772728987430077200,6.7670771484375,-1.6297872066497803,-1.535714030265808,-0.1637117564678192
1772728987439595000,6.776594970703125,-1.6969823837280273,-1.4874557256698608,-0.1496618688106537
1772728987449112800,6.78611279296875,-1.7629557847976685,-1.3836086988449097,-0.10323614627122879
1772728987458630700,6.795630615234375,-1.8240422010421753,-1.255937933921814,-0.0360410213470459
1772728987468148700,6.805148681640625,-1.879020094871521,-1.1410953998565674,0.03543015569448471
1772728987477666600,6.81466650390625,-1.9175045490264893,-1.0488548278808594,0.09834922850131989
1772728987487184600,6.8241845703125,-1.9382739067077637,-0.9896009564399719,0.14294235408306122
1772728987496702200,6.8337021484375,-1.9358304738998413,-0.9828814268112183,0.17104214429855347
1772728987506220300,6.84322021484375,-1.916893720626831,-1.0097594261169434,0.1795942485332489
1772728987515738000,6.852738037109375,-1.8900156021118164,-1.0470222234725952,0.17531819641590118
1772728987525256200,6.862256103515625,-1.8643592596054077,-1.0781763792037964,0.16065743565559387
1772728987534774000,6.87177392578125,-1.8466442823410034,-1.100778341293335,0.13500112295150757
1772728987544291800,6.881291748046875,-1.8350378274917603,-1.1148282289505005,0.10018182545900345
1772728987553809700,6.8908095703125,-1.830150842666626,-1.135597586631775,0.05803215503692627
1772728987563327700,6.90032763671875,-1.8289291858673096,-1.1685843467712402,0.014049889519810677
1772728987572845600,6.909845458984375,-1.8209879398345947,-1.1789690256118774,-0.01893680728971958
1772728987582363400,6.91936328125,-1.8057162761688232,-1.1557561159133911,-0.03237583488225937
1772728987591881500,6.928881591796875,-1.79410982131958,-1.0946696996688843,-0.026878049597144127
1772728987601399300,6.9383994140625,-1.7873903512954712,-1.0091485977172852,0.002443459117785096
1772728987610917000,6.947917236328125,-1.785557746887207,-0.9303470849990845,0.05803215503692627
1772728987620435000,6.95743505859375,-1.7806708812713623,-0.8747583627700806,0.1337793916463852
1772728987629953000,6.966953125,-1.7708970308303833,-0.8399390578269958,0.21868959069252014
1772728987639470800,6.976470947265625,-1.750738501548767,-0.8222240209579468,0.3066541254520416
1772728987648988700,6.98598876953125,-1.7140865325927734,-0.8179479241371155,0.4062250852584839
1772728987658506500,6.995506591796875,-1.6658282279968262,-0.8075632452964783,0.5143481492996216
1772728987668024600,7.005024658203125,-1.6157373189926147,-0.7788525819778442,0.6126973628997803
1772728987677542400,7.01454248046875,-1.5674790143966675,-0.7318159937858582,0.6786707639694214
1772728987687060200,7.024060302734375,-1.5234967470169067,-0.6737838387489319,0.7147117853164673
1772728987696578000,7.033578125,-1.4789036512374878,-0.6157516837120056,0.7269290685653687
1772728987706096000,7.04309619140625,-1.4434734582901,-0.5845975875854492,0.711046576499939
1772728987715614000,7.052614013671875,-1.4269801378250122,-0.5974257588386536,0.665842592716217
1772728987725132000,7.062132080078125,-1.441640853881836,-0.685390293598175,0.5888736248016357
1772728987734649900,7.07164990234375,-1.4947861433029175,-0.8833104968070984,0.48991355299949646
1772728987744167700,7.081167724609375,-1.5888593196868896,-1.1679733991622925,0.3695732057094574
1772728987753685500,7.090685546875,-1.7061452865600586,-1.4972295761108398,0.24495677649974823
1772728987763203600,7.10020361328125,-1.8130466938018799,-1.805105447769165,0.16249002516269684
1772728987772721400,7.109721435546875,-1.9022328853607178,-1.9926408529281616,0.10506874322891235
1772728987782239200,7.1192392578125,-1.9718714952468872,-2.0580034255981445,0.06536252796649933
1772728987791757300,7.12875732421875,-2.0219624042510986,-1.988364815711975,0.07391463965177536
1772728987801275100,7.138275146484375,-2.039677381515503,-1.7537927627563477,0.1539379209280014
1772728987810793000,7.14779296875,-2.0323472023010254,-1.4049890041351318,0.29565855860710144
1772728987820310800,7.157310791015625,-2.003636360168457,-1.0348049402236938,0.46486809849739075
1772728987829828900,7.166828857421875,-1.9559890031814575,-0.7018836140632629,0.6750055551528931
1772728987839346700,7.1763466796875,-1.9126176834106445,-0.4526508152484894,0.8570432662963867
1772728987848864500,7.185864501953125,-1.887572169303894,-0.35124725103378296,1.0036507844924927
1772728987858382300,7.19538232421875,-1.8802417516708374,-0.379347026348114,1.0793980360031128
1772728987867900400,7.204900390625,-1.886350393295288,-0.5064069032669067,1.0763437747955322
1772728987877418200,7.214418212890625,-1.9004002809524536,-0.6939423680305481,0.9932661056518555
1772728987886936000,7.22393603515625,-1.922391414642334,-0.9107993841171265,0.8356630206108093
1772728987896454000,7.233453857421875,-1.943160891532898,-1.1026109457015991,0.6175842881202698
1772728987905972000,7.242971923828125,-1.9596542119979858,-1.239444613456726,0.3646862804889679
1772728987915489800,7.25248974609375,-1.9639302492141724,-1.334128737449646,0.10323614627122879
1772728987925008000,7.2620078125,-1.9553781747817993,-1.3891065120697021,-0.13744457066059113
1772728987934525400,7.271525390625,-1.9346086978912354,-1.3878847360610962,-0.34574946761131287
1772728987944043500,7.28104345703125,-1.905898094177246,-1.368947982788086,-0.4984656572341919
1772728987953561300,7.290561279296875,-1.8729114532470703,-1.3304635286331177,-0.5797106623649597
1772728987963079400,7.300079345703125,-1.8362594842910767,-1.2528836727142334,-0.5907062292098999
1772728987972597200,7.30959716796875,-1.8081597089767456,-1.164919137954712,-0.5473348498344421
1772728987982115000,7.319114990234375,-1.784335970878601,-1.1111630201339722,-0.4575377106666565
1772728987991633000,7.3286328125,-1.7592905759811401,-1.084285020828247,-0.318871408700943
1772728988001151000,7.33815087890625,-1.7336342334747314,-1.0403027534484863,-0.1594357043504715
1772728988010668800,7.347668701171875,-1.7061452865600586,-0.9828814268112183,-0.02626718580722809
1772728988020186600,7.3571865234375,-1.6810998916625977,-0.9474512934684753,0.0665842592716217
1772728988029704700,7.36670458984375,-1.6572761535644531,-0.9334014058113098,0.11056652665138245
1772728988039222500,7.376222412109375,-1.637117624282837,-0.943786084651947,0.10384701192378998
1772728988048740400,7.385740234375,-1.619402527809143,-0.952949047088623,0.056810423731803894
1772728988058258200,7.395258056640625,-1.6029092073440552,-0.9291253089904785,-0.01649334840476513
1772728988067776300,7.4047763671875,-1.5864158868789673,-0.8790343999862671,-0.09590577334165573
1772728988077294000,7.414294189453125,-1.5680898427963257,-0.851545512676239,-0.15210533142089844
1772728988086812000,7.42381201171875,-1.543655276298523,-0.84177166223526,-0.18325942754745483
1772728988096329700,7.433329833984375,-1.5125012397766113,-0.831997811794281,-0.20402882993221283
1772728988105847800,7.442847900390625,-1.470962405204773,-0.8301652073860168,-0.21380266547203064
1772728988115365600,7.45236572265625,-1.4300343990325928,-0.8387173414230347,-0.20952661335468292
1772728988124883500,7.461883544921875,-1.395825982093811,-0.850934624671936,-0.21197007596492767
1772728988134401300,7.4714013671875,-1.368947982788086,-0.8436042666435242,-0.22296564280986786
1772728988143919400,7.48091943359375,-1.3518437147140503,-0.8161153197288513,-0.23335035145282745
1772728988153437200,7.490437255859375,-1.3432916402816772,-0.7788525819778442,-0.23212862014770508
1772728988162955300,7.499955322265625,-1.3353503942489624,-0.7440332770347595,-0.20830489695072174
1772728988172473000,7.50947314453125,-1.3225222826004028,-0.7147117853164673,-0.1649334877729416
1772728988181991000,7.518990966796875,-1.3084723949432373,-0.6890554428100586,-0.11362084746360779
1772728988191508700,7.5285087890625,-1.293811559677124,-0.6707295179367065,-0.06841685622930527
1772728988201026800,7.53802685546875,-1.2797616720199585,-0.6707295179367065,-0.036651886999607086
1772728988210544600,7.547544677734375,-1.2626575231552124,-0.6823359727859497,-0.009773836471140385
1772728988220062500,7.5570625,-1.2351685762405396,-0.6835576891899109,0.017715077847242355
1772728988229580300,7.566580322265625,-1.1997383832931519,-0.6866120100021362,0.04520399495959282
1772728988239098400,7.576098388671875,-1.1588104963302612,-0.6847794055938721,0.06536252796649933
1772728988248616200,7.5856162109375,-1.109330415725708,-0.6627882719039917,0.0769689604640007
1772728988258134000,7.595134033203125,-1.0525200366973877,-0.6395754218101501,0.08796452730894089
1772728988267652000,7.604652099609375,-0.9914335608482361,-0.6029235124588013,0.11667517572641373
1772728988277170000,7.614169921875,-0.9321796298027039,-0.5351175665855408,0.17776164412498474
1772728988286687700,7.623687744140625,-0.8820887207984924,-0.4526508152484894,0.2767217457294464
1772728988296205600,7.63320556640625,-0.8436042666435242,-0.3530798554420471,0.4068359434604645
1772728988305723600,7.6427236328125,-0.813671886920929,-0.22235478460788727,0.5516108870506287
1772728988315241500,7.652241455078125,-0.7874047160148621,-0.05436696484684944,0.6688969135284424
1772728988324759300,7.66175927734375,-0.758694052696228,0.10323614627122879,0.7525854110717773
1772728988334277000,7.671277099609375,-0.7324268817901611,0.23273947834968567,0.7971785664558411
1772728988343795200,7.680795166015625,-0.7159335017204285,0.3335321843624115,0.8069523572921753
1772728988353313000,7.69031298828125,-0.7116574645042419,0.3909534513950348,0.778241753578186
1772728988362830800,7.699830810546875,-0.7226530313491821,0.36712974309921265,0.7031053900718689
1772728988372348700,7.7093486328125,-0.7525854110717773,0.2370155304670334,0.573602020740509
1772728988381866800,7.71886669921875,-0.7990111112594604,-0.04825831577181816,0.3946186602115631
1772728988391384600,7.728384521484375,-0.8594867587089539,-0.49968740344047546,0.17776164412498474
1772728988400902700,7.737902587890625,-0.916297197341919,-0.9908226728439331,-0.06047561392188072
1772728988410420500,7.74742041015625,-0.9450078010559082,-1.349400281906128,-0.28038692474365234
1772728988419938300,7.756938232421875,-0.94439697265625,-1.5228859186172485,-0.44959646463394165
1772728988429456100,7.7664560546875,-0.9101884961128235,-1.4520255327224731,-0.5326740741729736
1772728988438974200,7.77597412109375,-0.8258891701698303,-1.1074978113174438,-0.5088503360748291
1772728988448492000,7.785491943359375,-0.7086031436920166,-0.5790998339653015,-0.3842339515686035
1772728988458009900,7.795009765625,-0.5845975875854492,-0.01588248461484909,-0.17837251722812653
1772728988467527700,7.804527587890625,-0.48013970255851746,0.4428769648075104,0.0818558782339096
1772728988477045800,7.814045654296875,-0.4056142270565033,0.7220421433448792,0.347582072019577
1772728988486563600,7.8235634765625,-0.3481929302215576,0.8222240209579468,0.5852084755897522
1772728988496081400,7.833081298828125,-0.31093016266822815,0.7538071274757385,0.7696896195411682
1772728988505599200,7.84259912109375,-0.3029889166355133,0.5583304166793823,0.8698714375495911
1772728988515117300,7.852117431640625,-0.318871408700943,0.287106454372406,0.8881973624229431
1772728988524635100,7.86163525390625,-0.35613417625427246,-0.015271619893610477,0.831997811794281
1772728988534153000,7.871153076171875,-0.39889469742774963,-0.3090975880622864,0.7165443897247314
1772728988543671000,7.880671142578125,-0.43371400237083435,-0.5320632457733154,0.5589412450790405
1772728988553188900,7.89018896484375,-0.45998117327690125,-0.6591231226921082,0.3744601011276245
1772728988562706700,7.899706787109375,-0.48563748598098755,-0.7189878225326538,0.17715078592300415
1772728988572224500,7.909224609375,-0.5119046568870544,-0.748920202255249,-0.014049889519810677
1772728988581742600,7.91874267578125,-0.5345066785812378,-0.7525854110717773,-0.185092031955719
1772728988591260400,7.928260498046875,-0.5485565662384033,-0.7269290685653687,-0.3243691921234131
1772728988600778200,7.9377783203125,-0.5528326034545898,-0.6835576891899109,-0.4214966893196106
1772728988610296000,7.947296142578125,-0.5528326034545898,-0.6200277805328369,-0.4667007029056549
1772728988619814100,7.956814208984375,-0.5522217750549316,-0.5259546041488647,-0.4569268524646759
1772728988629332000,7.96633203125,-0.5424479246139526,-0.37751442193984985,-0.3995055556297302
1772728988638849800,7.975849853515625,-0.5253437161445618,-0.205861434340477,-0.3023780584335327
1772728988648367900,7.985367919921875,-0.5039634704589844,-0.06414080411195755,-0.18325942754745483
1772728988657885700,7.9948857421875,-0.4819723069667816,0.02626718580722809,-0.06597339361906052
1772728988667403500,8.004403564453124,-0.4581485986709595,0.053756099194288254,0.036651886999607086
1772728988676921600,8.013921630859375,-0.43371400237083435,0.027488915249705315,0.10323614627122879
1772728988686439400,8.023439453125,-0.4105011224746704,-0.039706211537122726,0.1288924664258957
1772728988695957200,8.032957275390626,-0.3909534513950348,-0.12156209349632263,0.1331685185432434
1772728988705475000,8.04247509765625,-0.3756818473339081,-0.18631376326084137,0.11484257876873016
1772728988714993200,8.0519931640625,-0.3659079968929291,-0.2315177470445633,0.0665842592716217
1772728988724511000,8.061510986328125,-0.3597993552684784,-0.2822195291519165,-0.001221729558892548
1772728988734028800,8.07102880859375,-0.35613417625427246,-0.3176496922969818,-0.06475166976451874
1772728988743546600,8.080546630859375,-0.3555232882499695,-0.3274235129356384,-0.11728604137897491
1772728988753064700,8.090064697265625,-0.3640754222869873,-0.32681265473365784,-0.16065743565559387
1772728988762582500,8.09958251953125,-0.38240134716033936,-0.33231043815612793,-0.19303326308727264
1772728988772100400,8.109100341796875,-0.4013381600379944,-0.347582072019577,-0.21502439677715302
1772728988781618200,8.1186181640625,-0.4166097939014435,-0.36651885509490967,-0.23518294095993042
1772728988791136300,8.12813623046875,-0.42394015192985535,-0.3811796307563782,-0.25473061203956604
1772728988800654000,8.137654052734375,-0.4263836145401001,-0.3952295184135437,-0.27366742491722107
1772728988810172000,8.147171875,-0.4221075773239136,-0.4001164436340332,-0.2877173125743866
1772728988819689700,8.156689697265625,-0.4050033390522003,-0.3750709891319275,-0.29138249158859253
1772728988829207800,8.166207763671874,-0.3799578845500946,-0.3176496922969818,-0.2828303873538971
1772728988838725600,8.1757255859375,-0.35185810923576355,-0.2559523284435272,-0.25411975383758545
1772728988848243500,8.185243408203124,-0.328645259141922,-0.21319180727005005,-0.20708316564559937
1772728988857761500,8.194761474609376,-0.30482152104377747,-0.15638138353824615,-0.1496618688106537
1772728988867279400,8.204279296875,-0.2822195291519165,-0.0824667438864708,-0.0873536616563797
1772728988876797200,8.213797119140626,-0.2657261788845062,-0.03237583488225937,-0.03176496922969818
1772728988886315300,8.223315185546875,-0.24862197041511536,-0.007941242307424545,0.014660755172371864
1772728988895833000,8.2328330078125,-0.22418737411499023,0.006719512399286032,0.046425722539424896
1772728988905351000,8.242350830078125,-0.19730933010578156,0.003665188793092966,0.05803215503692627
1772728988914868700,8.25186865234375,-0.17043127119541168,-0.03176496922969818,0.05192350596189499
1772728988924386800,8.26138671875,-0.1441640853881836,-0.09529490768909454,0.026878049597144127
1772728988933904600,8.270904541015625,-0.11911863088607788,-0.18387030065059662,-0.011606430634856224
1772728988943422500,8.28042236328125,-0.09712749719619751,-0.2822195291519165,-0.06291907280683517
1772728988952940300,8.289940185546875,-0.07574722915887833,-0.37262752652168274,-0.11484257876873016
1772728988962458400,8.299458251953125,-0.05864302068948746,-0.43004879355430603,-0.16126830875873566
1772728988971976200,8.30897607421875,-0.04581485688686371,-0.42271843552589417,-0.19120067358016968
1772728988981494000,8.318493896484375,-0.040317077189683914,-0.36835145950317383,-0.20463970303535461
1772728988991011800,8.32801171875,-0.040317077189683914,-0.29077163338661194,-0.20402882993221283
1772728989000530000,8.337530029296875,-0.03909534588456154,-0.20891575515270233,-0.18631376326084137
1772728989010047700,8.3470478515625,-0.028099779039621353,-0.12644900381565094,-0.1545487940311432
1772728989019565600,8.356565673828126,-0.004886918235570192,-0.06780599057674408,-0.10934479534626007
1772728989029083600,8.366083740234375,0.0256563201546669,-0.05864302068948746,-0.047036588191986084
1772728989038601500,8.3756015625,0.06291907280683517,-0.0769689604640007,0.03543015569448471
1772728989048119300,8.385119384765625,0.10201441496610641,-0.07819069176912308,0.13072505593299866
1772728989057637000,8.39463720703125,0.1331685185432434,-0.08429934084415436,0.2211330533027649
1772728989067155200,8.4041552734375,0.1386663019657135,-0.13194678723812103,0.29504770040512085
1772728989076673000,8.413673095703125,0.1185077652335167,-0.20708316564559937,0.3433060050010681
1772728989086190800,8.42319091796875,0.08002328872680664,-0.2834412455558777,0.35735589265823364
1772728989095708700,8.432708740234375,0.03176496922969818,-0.3640754222869873,0.35124725103378296
1772728989105226800,8.442226806640624,-0.024434590712189674,-0.4526508152484894,0.3335321843624115
1772728989114744600,8.45174462890625,-0.08307760953903198,-0.5528326034545898,0.2779434621334076
1772728989124262400,8.461262451171875,-0.1386663019657135,-0.6798924803733826,0.1905898153781891
1772728989133780200,8.4707802734375,-0.18570289015769958,-0.8093958497047424,0.0977383628487587
1772728989143298300,8.48029833984375,-0.21380266547203064,-0.9077450633049011,0.030543239787220955
1772728989152816000,8.489816162109374,-0.23335035145282745,-0.9272927641868591,0.014049889519810677
1772728989162334000,8.499333984375,-0.24801109731197357,-0.7990111112594604,0.0616973415017128
1772728989171852000,8.50885205078125,-0.2730565667152405,-0.5393936038017273,0.1545487940311432
1772728989181369900,8.518369873046876,-0.3066541254520416,-0.2211330533027649,0.258395791053772
1772728989190887700,8.5278876953125,-0.3341430425643921,0.056810423731803894,0.3634645342826843
1772728989200405800,8.53740576171875,-0.3402516841888428,0.25045454502105713,0.46547895669937134
1772728989209923600,8.546923583984375,-0.31459537148475647,0.370184063911438,0.5436696410179138
1772728989219441400,8.55644140625,-0.2626718580722809,0.40317076444625854,0.6053670048713684
1772728989228959200,8.565959228515625,-0.205861434340477,0.328645259141922,0.6536253094673157
1772728989238477300,8.575477294921875,-0.15088360011577606,0.1802051067352295,0.6591231226921082
1772728989247995100,8.5849951171875,-0.11178825795650482,-0.010384701192378998,0.6346884965896606
1772728989257513000,8.594512939453125,-0.0922405794262886,-0.1893680840730667,0.5821541547775269
1772728989267030800,8.60403076171875,-0.08796452730894089,-0.3231474757194519,0.48991355299949646
1772728989276548900,8.613548828125,-0.09285144507884979,-0.4050033390522003,0.3738492429256439
1772728989286066700,8.623066650390625,-0.11056652665138245,-0.4318813979625702,0.2419024556875229
1772728989295584500,8.63258447265625,-0.14294235408306122,-0.4196641147136688,0.10018182545900345
1772728989305102300,8.642102294921875,-0.18753549456596375,-0.39217519760131836,-0.04581485688686371
1772728989314620400,8.651620361328124,-0.23273947834968567,-0.3610210716724396,-0.18753549456596375
1772728989324138200,8.66113818359375,-0.26389357447624207,-0.3237583339214325,-0.3121519088745117
1772728989333656000,8.670656005859374,-0.27977606654167175,-0.27916520833969116,-0.4111120104789734
1772728989343174000,8.680173828125,-0.28038692474365234,-0.21685700118541718,-0.47952884435653687
1772728989352692000,8.68969189453125,-0.2669478952884674,-0.12583814561367035,-0.5131264328956604
1772728989362209800,8.699209716796876,-0.24373504519462585,-0.015271619893610477,-0.5119046568870544
1772728989371727600,8.7087275390625,-0.21991132199764252,0.07574722915887833,-0.48563748598098755
1772728989381245400,8.718245361328124,-0.19608759880065918,0.12278381735086441,-0.44348782300949097
1772728989390763500,8.727763427734375,-0.16859868168830872,0.1282816082239151,-0.38850998878479004
1772728989400281300,8.73728125,-0.13561198115348816,0.11178825795650482,-0.32070401310920715
1772728989409799200,8.746799072265626,-0.10323614627122879,0.09407317638397217,-0.25473061203956604
1772728989419317200,8.756317138671875,-0.07941242307424545,0.0720820426940918,-0.1954767256975174
1772728989428835000,8.7658349609375,-0.0616973415017128,0.04825831577181816,-0.14660754799842834
1772728989438353000,8.775352783203125,-0.04764745384454727,0.030543239787220955,-0.10873392969369888
1772728989447871000,8.78487109375,-0.03909534588456154,0.020158538594841957,-0.09101885557174683
1772728989457388800,8.794388916015626,-0.027488915249705315,0.0030543238390237093,-0.10201441496610641
1772728989466906600,8.80390673828125,-0.015271619893610477,-0.028099779039621353,-0.13927717506885529
1772728989476424400,8.813424560546874,0.003665188793092966,-0.05558869615197182,-0.1948658674955368
1772728989485942500,8.822942626953125,0.031154103577136993,-0.08857539296150208,-0.2571740746498108
1772728989495460400,8.83246044921875,0.05864302068948746,-0.12767073512077332,-0.31581708788871765
1772728989504978200,8.841978271484376,0.08307760953903198,-0.16004657745361328,-0.3659079968929291
1772728989514496000,8.85149609375,0.10201441496610641,-0.19120067358016968,-0.4050033390522003
1772728989524014000,8.86101416015625,0.12522727251052856,-0.2205221801996231,-0.42882707715034485
1772728989533532000,8.870531982421875,0.15699224174022675,-0.24251331388950348,-0.42394015192985535
1772728989543049700,8.8800498046875,0.19792018830776215,-0.23762640357017517,-0.3897317349910736
1772728989552567600,8.889567626953125,0.23273947834968567,-0.2156352698802948,-0.3329212963581085
1772728989562085600,8.899085693359375,0.25961753726005554,-0.1692095398902893,-0.258395791053772
1772728989571603500,8.908603515625,0.27488914132118225,-0.08307760953903198,-0.17287473380565643
1772728989581121300,8.918121337890625,0.27427828311920166,0.02626718580722809,-0.08429934084415436
1772728989590639000,8.92763916015625,0.26450446248054504,0.13744457066059113,0.000610864779446274
1772728989600157200,8.9371572265625,0.24862197041511536,0.22296564280986786,0.07452550530433655
1772728989609675000,8.946675048828125,0.23396120965480804,0.25900667905807495,0.12767073512077332
1772728989619192800,8.95619287109375,0.22418737411499023,0.24801109731197357,0.1588248461484909
1772728989628710700,8.965710693359375,0.22663083672523499,0.1954767256975174,0.17165300250053406
1772728989638228700,8.975228759765624,0.23762640357017517,0.12461641430854797,0.1649334877729416
1772728989647746600,8.98474658203125,0.24862197041511536,0.056810423731803894,0.14233149588108063
1772728989657264400,8.994264404296874,0.25534147024154663,0.010995565913617611,0.1081230640411377
1772728989666782200,9.0037822265625,0.258395791053772,-0.025045456364750862,0.07024945318698883
1772728989676300300,9.01330029296875,0.26022839546203613,-0.040317077189683914,0.03787361457943916
1772728989685818000,9.022818115234376,0.2626718580722809,-0.02871064469218254,0.021380268037319183
1772728989695336000,9.0323359375,0.2675587832927704,0.003665188793092966,0.021380268037319183
1772728989704854000,9.04185400390625,0.27488914132118225,0.05497783049941063,0.04214967042207718
1772728989714371800,9.051371826171875,0.2889390289783478,0.1380554437637329,0.08491020649671555
1772728989723889700,9.0608896484375,0.3066541254520416,0.24251331388950348,0.143553227186203
1772728989733407500,9.070407470703126,0.3274235129356384,0.3439168632030487,0.21258094906806946
1772728989742925600,9.079925537109375,0.35246896743774414,0.4269944727420807,0.2816086709499359
1772728989752443400,9.089443359375,0.38240134716033936,0.48563748598098755,0.3439168632030487
1772728989761961200,9.098961181640625,0.41355544328689575,0.4972439408302307,0.38850998878479004
1772728989771479300,9.108479248046875,0.4379900395870209,0.4557051360607147,0.40866854786872864
1772728989780997000,9.1179970703125,0.46059203147888184,0.3842339515686035,0.39400777220726013
1772728989790515000,9.127514892578125,0.471587598323822,0.2926042377948761,0.3451386094093323
1772728989800032800,9.13703271484375,0.4630354940891266,0.1844811588525772,0.2608392536640167
1772728989809550800,9.14655078125,0.4373791813850403,0.056810423731803894,0.1533270627260208
1772728989819068700,9.156068603515624,0.4056142270565033,-0.09529490768909454,0.0360410213470459
1772728989828586500,9.16558642578125,0.37201663851737976,-0.2608392536640167,-0.0818558782339096
1772728989838104300,9.175104248046875,0.3402516841888428,-0.3946186602115631,-0.1893680840730667
1772728989847622400,9.184622314453126,0.32192572951316833,-0.44959646463394165,-0.25961753726005554
1772728989857140200,9.19414013671875,0.32681265473365784,-0.3842339515686035,-0.2663370370864868
1772728989866658000,9.203657958984374,0.35246896743774414,-0.16554436087608337,-0.20402882993221283
1772728989876176000,9.21317578125,0.3842339515686035,0.1899789422750473,-0.09346231073141098
1772728989885694000,9.22269384765625,0.4172206521034241,0.6071996092796326,0.03543015569448471
1772728989895211800,9.232211669921876,0.4667007029056549,0.9841031432151794,0.1692095398902893
1772728989904729600,9.2417294921875,0.5332849621772766,1.2388337850570679,0.28954991698265076
1772728989914247400,9.251247314453124,0.6029235124588013,1.3469568490982056,0.3787361681461334
1772728989923765500,9.260765625,0.6743947267532349,1.3115266561508179,0.4318813979625702
1772728989933283300,9.270283447265625,0.7360920310020447,1.1557561159133911,0.44409868121147156
1772728989942801200,9.27980126953125,0.7727439403533936,0.9095776677131653,0.40927940607070923
1772728989952319000,9.289319091796875,0.7727439403533936,0.6047561168670654,0.328645259141922
1772728989961837000,9.298837158203124,0.739757239818573,0.2883281707763672,0.21319180727005005
1772728989971355000,9.30835498046875,0.685390293598175,0.009773836471140385,0.07269290834665298
1772728989980872700,9.317872802734374,0.6267472505569458,-0.2009745091199875,-0.07880155742168427
1772728989990390800,9.327390869140626,0.5754346251487732,-0.32620179653167725,-0.2309068888425827
1772728989999908600,9.33690869140625,0.5277871489524841,-0.37201663851737976,-0.3707949221134186
1772728990009426400,9.346426513671876,0.481361448764801,-0.3597993552684784,-0.49541133642196655
1772728990018944300,9.3559443359375,0.44409868121147156,-0.29993459582328796,-0.5962040424346924
1772728990028462300,9.36546240234375,0.42394015192985535,-0.19120067358016968,-0.6591231226921082
1772728990037980200,9.374980224609375,0.4269944727420807,-0.01954767294228077,-0.6774490475654602
1772728990047498000,9.384498046875,0.4416552484035492,0.20341797173023224,-0.6585122346878052
1772728990057015800,9.394015869140626,0.45937031507492065,0.42394015192985535,-0.6090322136878967
1772728990066534000,9.403533935546875,0.4764745235443115,0.5962040424346924,-0.5351175665855408
1772728990076051700,9.4130517578125,0.49663305282592773,0.7250964641571045,-0.4471530318260193
1772728990085569500,9.422569580078125,0.5210676789283752,0.8081740736961365,-0.3543015718460083
1772728990095087400,9.43208740234375,0.535728394985199,0.8582650423049927,-0.26878049969673157
1772728990104605400,9.44160546875,0.5308414697647095,0.8772017955780029,-0.20647229254245758
1772728990114123300,9.451123291015625,0.5100721120834351,0.833219587802887,-0.16798780858516693
1772728990123641000,9.46064111328125,0.4789179861545563,0.7476984858512878,-0.15027274191379547
1772728990133159000,9.470158935546875,0.44409868121147156,0.6652317643165588,-0.16187916696071625
1772728990142677000,9.479677001953124,0.39889469742774963,0.5955931544303894,-0.20952661335468292
1772728990152194800,9.48919482421875,0.3481929302215576,0.5241219997406006,-0.2993237376213074
1772728990161712600,9.498712646484375,0.3072649836540222,0.4098902642726898,-0.4105011224746704
1772728990171230500,9.50823046875,0.2822195291519165,0.29138249158859253,-0.5174024701118469
1772728990180748500,9.51774853515625,0.268169641494751,0.2003636509180069,-0.6023126840591431
1772728990190266400,9.527266357421874,0.2461785078048706,0.11362084746360779,-0.646905779838562
1772728990199784200,9.5367841796875,0.2009745091199875,0.07574722915887833,-0.6560688018798828
1772728990209302000,9.546302001953125,0.13011419773101807,0.11117739230394363,-0.6499601006507874
1772728990218820000,9.555820068359376,0.053756099194288254,0.1802051067352295,-0.6407971382141113
1772728990228338000,9.565337890625,-0.008552107028663158,0.25473061203956604,-0.6438514590263367
1772728990237855700,9.574855712890624,-0.037262752652168274,0.3023780584335327,-0.6640099883079529
1772728990247373600,9.58437353515625,-0.024434590712189674,0.31154105067253113,-0.6823359727859497
1772728990256891600,9.5938916015625,0.01954767294228077,0.33231043815612793,-0.6927206516265869
1772728990266409500,9.603409423828126,0.07024945318698883,0.4013381600379944,-0.6957749724388123
1772728990275927300,9.61292724609375,0.11117739230394363,0.4886918365955353,-0.6878337264060974
1772728990285445000,9.622445068359376,0.1386663019657135,0.565049946308136,-0.675616443157196
1772728990294963200,9.631963134765625,0.164322629570961,0.5876519083976746,-0.6401863098144531
1772728990304481000,9.64148095703125,0.19425499439239502,0.5711585879325867,-0.5980366468429565
1772728990313998800,9.650998779296875,0.23212862014770508,0.5186241865158081,-0.5479456782341003
1772728990323517000,9.660516845703125,0.2779434621334076,0.45998117327690125,-0.5100721120834351
1772728990333034800,9.67003466796875,0.3335321843624115,0.40317076444625854,-0.47525280714035034
1772728990342552600,9.679552490234375,0.4111120104789734,0.3549124300479889,-0.41355544328689575
1772728990352070400,9.6890703125,0.46059203147888184,0.379347026348114,-0.185092031955719
1772728990361588500,9.69858837890625,0.39828383922576904,0.30054548382759094,0.08674279600381851
1772728990371106300,9.708106201171875,0.2889390289783478,0.10995566099882126,0.2938259541988373
1772728990380624100,9.7176240234375,0.2559523284435272,-0.05436696484684944,0.4373791813850403
1772728990390142000,9.727141845703125,0.2779434621334076,-0.1185077652335167,0.49418962001800537
1772728990399660000,9.736659912109374,0.287106454372406,-0.07147117704153061,0.4679224193096161
1772728990409177900,9.746177734375,0.2419024556875229,0.06780599057674408,0.3805687427520752
1772728990418695700,9.75569580078125,0.1588248461484909,0.3035998046398163,0.29138249158859253
