time,seconds_elapsed,z,y,x
1772728980758025500,0.095025390625,-0.019853105768561363,-0.07452550530433655,0.12278381735086441
1772728980767543300,0.104543212890625,0.0009162971982732415,-0.13255766034126282,0.08491020649671555
1772728980777061000,0.11406103515625,0.01802051067352295,-0.1905898153781891,0.050090912729501724
1772728980786579200,0.1235791015625,0.032070402055978775,-0.2412915825843811,0.026878049597144127
1772728980796097000,0.133096923828125,0.03817904740571976,-0.28527384996414185,0.023823726922273636
1772728980805614800,0.14261474609375,0.032681263983249664,-0.30970844626426697,0.03298669680953026
1772728980815133000,0.1521328125,0.01802051067352295,-0.32559093832969666,0.04276053607463837
1772728980824650800,0.161650634765625,0.005192350596189499,-0.32192572951316833,0.053756099194288254
1772728980834168600,0.17116845703125,0.000305432389723137,-0.287106454372406,0.06047561392188072
1772728980843686400,0.180686279296875,-0.005803215317428112,-0.2528980076313019,0.05925388261675835
1772728980853204500,0.19020458984375,-0.014966187067329884,-0.235793799161911,0.05436696484684944
1772728980862722600,0.19972265625,-0.019242240116000175,-0.22418737411499023,0.05253437161445618
1772728980872240400,0.209240478515625,-0.0204639695584774,-0.2254091054201126,0.05803215503692627
1772728980881758200,0.21875830078125,-0.018631376326084137,-0.23335035145282745,0.06902772188186646
1772728980891276300,0.2282763671875,-0.0204639695584774,-0.22785256803035736,0.07941242307424545
1772728980900794000,0.237794189453125,-0.03145953640341759,-0.21807873249053955,0.07880155742168427
1772728980910312000,0.24731201171875,-0.05406153202056885,-0.2156352698802948,0.06291907280683517
1772728980919830000,0.256830078125,-0.0772743970155716,-0.2467893660068512,0.037262752652168274
1772728980929347800,0.266347900390625,-0.09315688163042068,-0.31154105067253113,0.011606430634856224
1772728980938865700,0.27586572265625,-0.09560033679008484,-0.3646862804889679,-0.007330377586185932
1772728980948383700,0.2853837890625,-0.07910698652267456,-0.3836230933666229,-0.008552107028663158
1772728980957901600,0.294901611328125,-0.05528326332569122,-0.36285367608070374,0.011606430634856224
1772728980967419400,0.30441943359375,-0.03634645417332649,-0.31031930446624756,0.04581485688686371
1772728980976937500,0.3139375,-0.03023780696094036,-0.2467893660068512,0.09040798991918564
1772728980986455300,0.323455322265625,-0.03634645417332649,-0.17776164412498474,0.13622283935546875
1772728980995973400,0.332973388671875,-0.05100720748305321,-0.13011419773101807,0.17165300250053406
1772728981005491200,0.3424912109375,-0.06200277432799339,-0.10567960888147354,0.19242240488529205
1772728981015009000,0.352009033203125,-0.06261363625526428,-0.10934479534626007,0.2009745091199875
1772728981024527000,0.361527099609375,-0.047952886670827866,-0.12522727251052856,0.19914191961288452
1772728981034045000,0.371044921875,-0.028405211865901947,-0.1282816082239151,0.1899789422750473
1772728981043562800,0.380562744140625,-0.016798781231045723,-0.12217295914888382,0.1594357043504715
1772728981053080600,0.39008056640625,-0.005803215317428112,-0.0873536616563797,0.13500112295150757
1772728981062598700,0.3995986328125,0.003359756199643016,-0.006108647678047419,0.12950333952903748
1772728981072116500,0.409116455078125,0.007635809946805239,0.10629047453403473,0.1331685185432434
1772728981081634600,0.418634521484375,0.013133592903614044,0.205861434340477,0.14294235408306122
1772728981091152400,0.42815234375,0.019242240116000175,0.26511532068252563,0.1484401375055313
1772728981100670200,0.437670166015625,0.02718348242342472,0.2938259541988373,0.15210533142089844
1772728981110188300,0.447188232421875,0.035735588520765305,0.3023780584335327,0.1545487940311432
1772728981119706000,0.4567060546875,0.04550942778587341,0.29504770040512085,0.16004657745361328
1772728981129224000,0.466223876953125,0.05406153202056885,0.2767217457294464,0.16004657745361328
1772728981138742000,0.475741943359375,0.061391908675432205,0.287106454372406,0.15271618962287903
1772728981148259800,0.485259765625,0.0717766135931015,0.34147340059280396,0.1331685185432434
1772728981157777700,0.494777587890625,0.07971785217523575,0.39767298102378845,0.08613193035125732
1772728981167295700,0.504295654296875,0.08338304609060287,0.40378162264823914,0.007330377586185932
1772728981176813600,0.5138134765625,0.09132428467273712,0.33169957995414734,-0.08124501258134842
1772728981186331400,0.523331298828125,0.0925460159778595,0.19792018830776215,-0.16615521907806396
1772728981195849500,0.532849365234375,0.08155044913291931,0.06291907280683517,-0.2364046722650528
1772728981205367300,0.5423671875,0.04734202101826668,-0.07391463965177536,-0.2877173125743866
1772728981214885000,0.551885009765625,-0.005192350596189499,-0.21502439677715302,-0.3170388340950012
1772728981224403200,0.5614033203125,-0.0565049909055233,-0.3042106628417969,-0.32070401310920715
1772728981233921000,0.570921142578125,-0.09987638890743256,-0.25534147024154663,-0.3090975880622864
1772728981243439000,0.580439208984375,-0.13225223124027252,-0.12278381735086441,-0.29077163338661194
1772728981252957000,0.58995703125,-0.1334739476442337,0.012217295356094837,-0.258395791053772
1772728981262474800,0.599474853515625,-0.10109812021255493,0.12034036219120026,-0.20952661335468292
1772728981271992800,0.608992919921875,-0.044898562133312225,0.21258094906806946,-0.1484401375055313
1772728981281510700,0.6185107421875,0.013744457624852657,0.2718348205089569,-0.08674279600381851
1772728981291028500,0.628028564453125,0.07238747924566269,0.28527384996414185,-0.01954767294228077
1772728981300546600,0.637546630859375,0.11881320178508759,0.32009315490722656,0.05192350596189499
1772728981310064400,0.647064453125,0.14813470840454102,0.3787361681461334,0.12400554865598679
1772728981319582200,0.656582275390625,0.1536324918270111,0.38240134716033936,0.1802051067352295
1772728981329100300,0.666100341796875,0.14019346237182617,0.3402516841888428,0.21746785938739777
1772728981338618000,0.6756181640625,0.129197895526886,0.401949018239975,0.2461785078048706
1772728981348136200,0.68513623046875,0.08888082206249237,0.5338957905769348,0.2632827162742615
1772728981357654000,0.694654052734375,-0.025350889191031456,0.5051851868629456,0.2669478952884674
1772728981367171800,0.704171875,-0.11759147047996521,0.2730565667152405,0.2608392536640167
1772728981376690000,0.71368994140625,-0.1597411334514618,0.01588248461484909,0.2412915825843811
1772728981386207700,0.723207763671875,-0.14691297709941864,-0.031154103577136993,0.2205221801996231
1772728981395725600,0.7327255859375,-0.11881320178508759,-0.03176496922969818,0.2003636509180069
1772728981405243600,0.74224365234375,-0.09926552325487137,0.009773836471140385,0.17165300250053406
1772728981414761500,0.751761474609375,-0.0717766135931015,0.0922405794262886,0.13561198115348816
1772728981424279300,0.761279296875,-0.038789913058280945,0.23212862014770508,0.09651663154363632
1772728981433797400,0.77079736328125,-0.019242240116000175,0.360410213470459,0.0513126403093338
1772728981443315200,0.780315185546875,-0.021685699000954628,0.3500255048274994,0.004886918235570192
1772728981452833300,0.789833251953125,-0.02779434807598591,0.24984370172023773,-0.04886918142437935
1772728981462351000,0.79935107421875,-0.01740964688360691,0.09651663154363632,-0.0922405794262886
1772728981471869000,0.808868896484375,0.008857538923621178,-0.056199558079242706,-0.12034036219120026
1772728981481387000,0.818386962890625,0.02718348242342472,-0.17287473380565643,-0.12644900381565094
1772728981490904800,0.82790478515625,0.010690134018659592,-0.2724456787109375,-0.11728604137897491
1772728981500422700,0.837422607421875,-0.038789913058280945,-0.33719736337661743,-0.09407317638397217
1772728981509940700,0.846940673828125,-0.09682206809520721,-0.3384190797805786,-0.056199558079242706
1772728981519458600,0.85645849609375,-0.15057817101478577,-0.2834412455558777,-0.012217295356094837
1772728981528976400,0.865976318359375,-0.1945604383945465,-0.20219624042510986,0.031154103577136993
1772728981538494200,0.875494140625,-0.23182319104671478,-0.1178968995809555,0.06841685622930527
1772728981548012300,0.88501220703125,-0.2605338394641876,-0.056199558079242706,0.0922405794262886
1772728981557530000,0.894530029296875,-0.2666424810886383,-0.0030543238390237093,0.10751219838857651
1772728981567048000,0.9040478515625,-0.24892739951610565,0.05925388261675835,0.11667517572641373
1772728981576566000,0.91356591796875,-0.22266021370887756,0.10445787757635117,0.1185077652335167
1772728981586083800,0.923083740234375,-0.19944734871387482,0.11117739230394363,0.11117739230394363
1772728981595602000,0.932601806640625,-0.18112140893936157,0.08552107214927673,0.09468404203653336
1772728981605119700,0.94211962890625,-0.16218459606170654,0.04825831577181816,0.07086031138896942
1772728981614637600,0.951637451171875,-0.14080433547496796,0.021991131827235222,0.04276053607463837
1772728981624155600,0.96115576171875,-0.1182023361325264,0.002443459117785096,0.012217295356094837
1772728981633673500,0.970673583984375,-0.10048725455999374,-0.034208428114652634,-0.01649334840476513
1772728981643191300,0.98019140625,-0.0870482325553894,-0.05558869615197182,-0.0360410213470459
1772728981652709400,0.98970947265625,-0.07422006875276566,-0.04153880476951599,-0.03909534588456154
1772728981662227200,0.999227294921875,-0.061391908675432205,-0.02260199747979641,-0.02932151034474373
1772728981671745000,1.0087451171875,-0.04978547990322113,-0.011606430634856224,-0.003665188793092966
1772728981681263000,1.01826318359375,-0.0412333719432354,-0.010995565913617611,0.02932151034474373
1772728981690781000,1.027781005859375,-0.03940077871084213,-0.014049889519810677,0.06475166976451874
1772728981700299000,1.037299072265625,-0.044898562133312225,-0.031154103577136993,0.09468404203653336
1772728981709816800,1.04681689453125,-0.05528326332569122,-0.06963858753442764,0.1185077652335167
1772728981719334700,1.056334716796875,-0.06994401663541794,-0.12583814561367035,0.12950333952903748
1772728981728852700,1.065852783203125,-0.08582650125026703,-0.17165300250053406,0.12705987691879272
1772728981738370600,1.07537060546875,-0.10109812021255493,-0.20769402384757996,0.11178825795650482
1772728981747888400,1.084888427734375,-0.12003492563962936,-0.2669478952884674,0.09162971377372742
1772728981757406500,1.094406494140625,-0.13469567894935608,-0.32131487131118774,0.0665842592716217
1772728981766924300,1.10392431640625,-0.14508038759231567,-0.3439168632030487,0.04581485688686371
1772728981776442000,1.113442138671875,-0.15302163362503052,-0.3585776388645172,0.029932374134659767
1772728981785960200,1.122960205078125,-0.1542433500289917,-0.35796675086021423,0.021991131827235222
1772728981795478000,1.13247802734375,-0.14996729791164398,-0.33536475896835327,0.020158538594841957
1772728981804996000,1.14199609375,-0.14691297709941864,-0.318871408700943,0.01954767294228077
1772728981814514000,1.151513916015625,-0.1536324918270111,-0.32681265473365784,0.014049889519810677
1772728981824031700,1.16103173828125,-0.1646280586719513,-0.347582072019577,0.006108647678047419
1772728981833549600,1.170549560546875,-0.17073670029640198,-0.35735589265823364,0.007330377586185932
1772728981843067600,1.180067626953125,-0.1737910360097885,-0.3488037884235382,0.01649334840476513
1772728981852585500,1.18958544921875,-0.17623448371887207,-0.33169957995414734,0.03481929376721382
1772728981862103300,1.199103271484375,-0.1798996776342392,-0.3249800503253937,0.05925388261675835
1772728981871621400,1.208621337890625,-0.1853974610567093,-0.3298669755458832,0.08552107214927673
1772728981881139200,1.21813916015625,-0.1945604383945465,-0.3488037884235382,0.1026252806186676
1772728981890657000,1.227656982421875,-0.20189081132411957,-0.3903425931930542,0.10934479534626007
1772728981900175000,1.237175048828125,-0.20311254262924194,-0.4428769648075104,0.10934479534626007
1772728981909693000,1.24669287109375,-0.19639302790164948,-0.49418962001800537,0.10384701192378998
1772728981919210800,1.256210693359375,-0.18234314024448395,-0.5296197533607483,0.09285144507884979
1772728981928728800,1.265728759765625,-0.16279546916484833,-0.5332849621772766,0.08613193035125732
1772728981938246700,1.27524658203125,-0.14080433547496796,-0.5076286196708679,0.08552107214927673
1772728981947764700,1.2847646484375,-0.12003492563962936,-0.4428769648075104,0.09529490768909454
1772728981957282600,1.294282470703125,-0.10476330667734146,-0.3341430425643921,0.11728604137897491
1772728981966800400,1.30380029296875,-0.09804379940032959,-0.2101374864578247,0.15149445831775665
1772728981976318500,1.313318359375,-0.10048725455999374,-0.10079269111156464,0.18692462146282196
1772728981985836300,1.322836181640625,-0.11209368705749512,-0.0256563201546669,0.21930044889450073
1772728981995354000,1.33235400390625,-0.1340848207473755,0.010384701192378998,0.23823726177215576
1772728982004872200,1.3418720703125,-0.1542433500289917,0.0256563201546669,0.24434591829776764
1772728982014390000,1.35139013671875,-0.18661919236183167,0.03543015569448471,0.23335035145282745
1772728982023907800,1.360907958984375,-0.23487751185894012,0.033597562462091446,0.20219624042510986
1772728982033425700,1.37042578125,-0.31184646487236023,-0.037262752652168274,0.15149445831775665
1772728982042943700,1.37994384765625,-0.40897396206855774,-0.22174391150474548,0.08307760953903198
1772728982052461600,1.389461669921875,-0.49144071340560913,-0.46608981490135193,0.009162971749901772
1772728982061979400,1.3989794921875,-0.5427533388137817,-0.6371319890022278,-0.05558869615197182
1772728982071497500,1.40849755859375,-0.5659661889076233,-0.6866120100021362,-0.09896009415388107
1772728982081015300,1.418015380859375,-0.5671879649162292,-0.6145299673080444,-0.12644900381565094
1772728982090533400,1.427533447265625,-0.5488619804382324,-0.4422661066055298,-0.12217295914888382
1772728982100051200,1.43705126953125,-0.508544921875,-0.20708316564559937,-0.09590577334165573
1772728982109569000,1.446569091796875,-0.448069304227829,0.02932151034474373,-0.03909534588456154
1772728982119087000,1.456087158203125,-0.3692677617073059,0.205861434340477,0.04153880476951599
1772728982128605000,1.46560498046875,-0.281914085149765,0.3035998046398163,0.14721840620040894
1772728982138122800,1.475122802734375,-0.20372340083122253,0.3127627670764923,0.26450446248054504
1772728982147640800,1.484640869140625,-0.1487455666065216,0.23273947834968567,0.3756818473339081
1772728982157158700,1.49415869140625,-0.12064579129219055,0.07574722915887833,0.472198486328125
1772728982166676500,1.503676513671875,-0.12003492563962936,-0.10873392969369888,0.5424479246139526
1772728982176194600,1.513194580078125,-0.14813470840454102,-0.2809978127479553,0.5748237371444702
1772728982185712400,1.52271240234375,-0.20189081132411957,-0.42394015192985535,0.5583304166793823
1772728982195230500,1.53223046875,-0.2776380479335785,-0.5332849621772766,0.4978547990322113
1772728982204748300,1.541748291015625,-0.3588830530643463,-0.5919279456138611,0.39767298102378845
1772728982214266000,1.55126611328125,-0.43340855836868286,-0.6041452884674072,0.27550002932548523
1772728982223784000,1.560783935546875,-0.48960810899734497,-0.5577195286750793,0.1484401375055313
1772728982233302000,1.570302001953125,-0.527481734752655,-0.4453204274177551,0.03237583488225937
1772728982242819800,1.57981982421875,-0.5494728684425354,-0.2834412455558777,-0.06352993845939636
1772728982252337700,1.589337646484375,-0.5494728684425354,-0.11056652665138245,-0.13622283935546875
1772728982261855700,1.598855712890625,-0.537255585193634,0.0409279391169548,-0.18753549456596375
1772728982271373600,1.60837353515625,-0.5189296007156372,0.15271618962287903,-0.2205221801996231
1772728982280891400,1.617891357421875,-0.49144071340560913,0.2156352698802948,-0.23457208275794983
1772728982290409500,1.627409423828125,-0.4535670876502991,0.235793799161911,-0.2309068888425827
1772728982299927300,1.63692724609375,-0.40897396206855774,0.22174391150474548,-0.2052505612373352
1772728982309445000,1.646445068359375,-0.364991694688797,0.18692462146282196,-0.1637117564678192
1772728982318963200,1.655963134765625,-0.33505934476852417,0.12950333952903748,-0.11362084746360779
1772728982328481000,1.66548095703125,-0.3289506733417511,0.04764745384454727,-0.06414080411195755
1772728982337999000,1.6749990234375,-0.3393353819847107,-0.0360410213470459,-0.025045456364750862
1772728982347517000,1.684516845703125,-0.3594939112663269,-0.1026252806186676,-0.001221729558892548
1772728982357034800,1.69403466796875,-0.3808741867542267,-0.1545487940311432,0.001832594396546483
1772728982366552800,1.703552734375,-0.39736753702163696,-0.19242240488529205,-0.015271619893610477
1772728982376070700,1.713070556640625,-0.40347617864608765,-0.19364413619041443,-0.04825831577181816
1772728982385588500,1.72258837890625,-0.40347617864608765,-0.1637117564678192,-0.09040798991918564
1772728982395106300,1.732106201171875,-0.40286532044410706,-0.11606431007385254,-0.1386663019657135
1772728982404624400,1.741624267578125,-0.3998109996318817,-0.06414080411195755,-0.19120067358016968
1772728982414142200,1.75114208984375,-0.38270679116249084,-0.027488915249705315,-0.23884813487529755
1772728982423660000,1.760659912109375,-0.3454440236091614,-0.003665188793092966,-0.2730565667152405
1772728982433178000,1.77017822265625,-0.29046618938446045,0.013439024798572063,-0.2883281707763672
1772728982442696000,1.779696044921875,-0.2306014597415924,0.009773836471140385,-0.2864955961704254
1772728982452214000,1.789214111328125,-0.17562362551689148,-0.021380268037319183,-0.2669478952884674
1772728982461731800,1.79873193359375,-0.13225223124027252,-0.06536252796649933,-0.23273947834968567
1772728982471249700,1.808249755859375,-0.09987638890743256,-0.07819069176912308,-0.1844811588525772
1772728982480767700,1.817767822265625,-0.07971785217523575,-0.059864748269319534,-0.13011419773101807
1772728982490285600,1.82728564453125,-0.06933315098285675,-0.023212861269712448,-0.07635809481143951
1772728982499803400,1.836803466796875,-0.06627883017063141,0.0256563201546669,-0.02932151034474373
1772728982509321500,1.846321533203125,-0.06322450190782547,0.08063415437936783,0.009162971749901772
1772728982518839300,1.85583935546875,-0.06017018109560013,0.11545344442129135,0.03298669680953026
1772728982528357000,1.865357177734375,-0.05406153202056885,0.12400554865598679,0.04153880476951599
1772728982537875000,1.874875,-0.04367683082818985,0.1185077652335167,0.036651886999607086
1772728982547393000,1.88439306640625,-0.026572618633508682,0.09407317638397217,0.02260199747979641
1772728982556910800,1.893910888671875,-0.003359756199643016,0.053145237267017365,0
1772728982566428700,1.9034287109375,0.018631376326084137,-0.012217295356094837,-0.034208428114652634
1772728982575946800,1.91294677734375,0.035735588520765305,-0.09285144507884979,-0.0769689604640007
1772728982585464600,1.922464599609375,0.05100720748305321,-0.16615521907806396,-0.12034036219120026
1772728982594982700,1.931982666015625,0.06444623321294785,-0.22418737411499023,-0.15821397304534912
1772728982604500500,1.94150048828125,0.06811141967773438,-0.2809978127479553,-0.19120067358016968
1772728982614018300,1.951018310546875,0.057726722210645676,-0.3231474757194519,-0.21930044889450073
1772728982623536400,1.960536376953125,0.04367683082818985,-0.3329212963581085,-0.23945899307727814
1772728982633054200,1.97005419921875,0.04001164436340332,-0.3042106628417969,-0.23945899307727814
1772728982642572000,1.979572021484375,0.057726722210645676,-0.2156352698802948,-0.20891575515270233
1772728982652090000,1.989090087890625,0.08949168771505356,-0.07880155742168427,-0.14477495849132538
1772728982661608000,1.99860791015625,0.1230892539024353,0.07086031138896942,-0.05253437161445618
1772728982671125800,2.008125732421875,0.15546508133411407,0.22724169492721558,0.056199558079242706
1772728982680643600,2.0176435546875,0.1902843713760376,0.3597993552684784,0.16737695038318634
1772728982690161700,2.02716162109375,0.22327107191085815,0.4276053309440613,0.27000224590301514
1772728982699679500,2.036679443359375,0.25381430983543396,0.4276053309440613,0.35246896743774414
1772728982709197300,2.046197265625,0.28008151054382324,0.35796675086021423,0.4068359434604645
1772728982718715400,2.05571533203125,0.2977965772151947,0.2406807243824005,0.4312705397605896
1772728982728233200,2.065233154296875,0.30451610684394836,0.11606431007385254,0.4276053309440613
1772728982737751300,2.074751220703125,0.2971857190132141,-0.008552107028663158,0.3995055556297302
1772728982747269000,2.08426904296875,0.2764163017272949,-0.13255766034126282,0.35124725103378296
1772728982756787000,2.093786865234375,0.24037529528141022,-0.24006985127925873,0.28527384996414185
1772728982766305000,2.103304931640625,0.19700388610363007,-0.33536475896835327,0.20158538222312927
1772728982775822800,2.11282275390625,0.15729768574237823,-0.40805765986442566,0.11239911615848541
1772728982785340700,2.122340576171875,0.1383608728647232,-0.4453204274177551,0.0409279391169548
1772728982794858500,2.1318583984375,0.14630211889743805,-0.4172206521034241,0.015271619893610477
1772728982804376600,2.14137646484375,0.17806708812713623,-0.2632827162742615,0.03848448023200035
1772728982813894400,2.150894287109375,0.21716243028640747,0.009162971749901772,0.10201441496610641
1772728982823412200,2.160412109375,0.2458730787038803,0.33719736337661743,0.185092031955719
1772728982832930300,2.169930419921875,0.2611446976661682,0.6456840634346008,0.2663370370864868
1772728982842448100,2.1794482421875,0.2733619809150696,0.8753692507743835,0.3390299379825592
1772728982851966000,2.188966064453125,0.2874118685722351,1.0067051649093628,0.3964512348175049
1772728982861484000,2.198484130859375,0.3026835024356842,1.025641918182373,0.42821621894836426
1772728982871001900,2.208001953125,0.31062474846839905,0.9272927641868591,0.4318813979625702
1772728982880520000,2.21752001953125,0.314289927482605,0.7476984858512878,0.4056142270565033
1772728982890037800,2.227037841796875,0.3136790692806244,0.5094612240791321,0.3549124300479889
1772728982899555600,2.2365556640625,0.31490078568458557,0.23945899307727814,0.287106454372406
1772728982909073700,2.24607373046875,0.3295615613460541,-0.004276053514331579,0.21258094906806946
1772728982918591500,2.255591552734375,0.35094180703163147,-0.21380266547203064,0.13255766034126282
1772728982928109300,2.265109375,0.3656025826931,-0.39278605580329895,0.043371398001909256
1772728982937627100,2.274627197265625,0.36743515729904175,-0.5204567909240723,-0.04825831577181816
1772728982947145200,2.284145263671875,0.3497200906276703,-0.5821541547775269,-0.14294235408306122
1772728982956663000,2.2936630859375,0.31001389026641846,-0.5925388336181641,-0.235793799161911
1772728982966180900,2.303180908203125,0.2562577724456787,-0.573602020740509,-0.3237583339214325
1772728982975699000,2.312698974609375,0.20127993822097778,-0.526565432548523,-0.4001164436340332
1772728982985216800,2.322216796875,0.1542433500289917,-0.4477638900279999,-0.44898560643196106
1772728982994734800,2.33173486328125,0.12614357471466064,-0.30543237924575806,-0.462424635887146
1772728983004252700,2.341252685546875,0.11514800786972046,-0.09040798991918564,-0.4373791813850403
1772728983013770500,2.3507705078125,0.11087195575237274,0.13927717506885529,-0.38240134716033936
1772728983023288600,2.36028857421875,0.11148282140493393,0.3341430425643921,-0.3066541254520416
1772728983032806400,2.369806396484375,0.12186752259731293,0.4770853817462921,-0.21930044889450073
1772728983042324200,2.37932421875,0.13713914155960083,0.546113133430481,-0.13194678723812103
1772728983051842000,2.388842041015625,0.15057817101478577,0.545502245426178,-0.05253437161445618
1772728983061360000,2.398360107421875,0.16829325258731842,0.516791582107544,0.015271619893610477
1772728983070878000,2.4078779296875,0.18356487154960632,0.4514290690422058,0.07024945318698883
1772728983080395800,2.417395751953125,0.19761475920677185,0.3445277214050293,0.11056652665138245
1772728983089913900,2.426913818359375,0.21349723637104034,0.22846342623233795,0.13927717506885529
1772728983099431700,2.436431640625,0.22388194501399994,0.12950333952903748,0.1496618688106537
1772728983108949500,2.445949462890625,0.2208276242017746,0.039706211537122726,0.13439024984836578
1772728983118467600,2.455467529296875,0.20250166952610016,-0.03543015569448471,0.09162971377372742
1772728983127985400,2.4649853515625,0.1701258420944214,-0.09468404203653336,0.02871064469218254
1772728983137503200,2.474503173828125,0.11453714966773987,-0.14294235408306122,-0.04825831577181816
1772728983147021300,2.484021240234375,0.04917461425065994,-0.16004657745361328,-0.1288924664258957
1772728983156539100,2.4935390625,-0.016798781231045723,-0.15271618962287903,-0.19914191961288452
1772728983166057000,2.503056884765625,-0.07116574794054031,-0.13500112295150757,-0.25350889563560486
1772728983175575000,2.512574951171875,-0.1127045527100563,-0.11423171311616898,-0.2864955961704254
1772728983185092900,2.5220927734375,-0.14263692498207092,-0.08063415437936783,-0.3023780584335327
1772728983194610700,2.531610595703125,-0.16096286475658417,-0.05070177838206291,-0.29993459582328796
1772728983204128800,2.541128662109375,-0.1640172004699707,-0.01893680728971958,-0.2779434621334076
1772728983213646600,2.550646484375,-0.15485422313213348,0.02871064469218254,-0.2370155304670334
1772728983223164400,2.560164306640625,-0.14019346237182617,0.07147117704153061,-0.17653992772102356
1772728983232682500,2.5696826171875,-0.12003492563962936,0.09407317638397217,-0.10445787757635117
1772728983242200300,2.579200439453125,-0.09865466505289078,0.08124501258134842,-0.02932151034474373
1772728983251718100,2.58871826171875,-0.07971785217523575,0.0256563201546669,0.036651886999607086
1772728983261236000,2.598236083984375,-0.06811141967773438,-0.0665842592716217,0.08491020649671555
1772728983270754000,2.607754150390625,-0.061391908675432205,-0.1588248461484909,0.11606431007385254
1772728983280272000,2.61727197265625,-0.06444623321294785,-0.22174391150474548,0.12522727251052856
1772728983289790000,2.6267900390625,-0.08399390429258347,-0.2730565667152405,0.10873392969369888
1772728983299307800,2.636307861328125,-0.11331541836261749,-0.3292561173439026,0.07330377399921417
1772728983308825600,2.64582568359375,-0.14202606678009033,-0.3659079968929291,0.021380268037319183
1772728983318343400,2.655343505859375,-0.15485422313213348,-0.37140578031539917,-0.034208428114652634
1772728983327861500,2.664861572265625,-0.15057817101478577,-0.347582072019577,-0.08552107214927673
1772728983337379300,2.67437939453125,-0.13530655205249786,-0.31093016266822815,-0.12705987691879272
1772728983346897200,2.683897216796875,-0.11209368705749512,-0.2614501118659973,-0.15210533142089844
1772728983356415200,2.693415283203125,-0.08460476994514465,-0.1954767256975174,-0.1545487940311432
1772728983365933000,2.70293310546875,-0.05711585655808449,-0.12583814561367035,-0.13133592903614044
1772728983375451000,2.712450927734375,-0.03023780696094036,-0.05925388261675835,-0.08613193035125732
1772728983384969000,2.721968994140625,-0.006414080038666725,-0.001832594396546483,-0.027488915249705315
1772728983394486800,2.73148681640625,0.0015271619195118546,0.02871064469218254,0.02626718580722809
1772728983404004600,2.741004638671875,-0.010690134018659592,0.024434590712189674,0.06352993845939636
1772728983413522700,2.750522705078125,-0.04001164436340332,-0.011606430634856224,0.07757982611656189
1772728983423040500,2.76004052734375,-0.07910698652267456,-0.06230820715427399,0.07391463965177536
1772728983432558600,2.76955859375,-0.11453714966773987,-0.10934479534626007,0.05558869615197182
1772728983442076400,2.779076416015625,-0.14691297709941864,-0.14049890637397766,0.021991131827235222
1772728983451594200,2.78859423828125,-0.17256930470466614,-0.15515965223312378,-0.027488915249705315
1772728983461112000,2.798112060546875,-0.19089524447917938,-0.164322629570961,-0.09040798991918564
1772728983470630100,2.807630126953125,-0.2110537886619568,-0.1795942485332489,-0.17043127119541168
1772728983480148000,2.81714794921875,-0.2360992431640625,-0.22357651591300964,-0.2620609998703003
1772728983489665800,2.826665771484375,-0.2623664140701294,-0.3029889166355133,-0.3549124300479889
1772728983499183900,2.836183837890625,-0.281914085149765,-0.38789913058280945,-0.42821621894836426
1772728983508701700,2.84570166015625,-0.2922987937927246,-0.43921178579330444,-0.4581485986709595
1772728983518219500,2.855219482421875,-0.28557929396629333,-0.4098902642726898,-0.42394015192985535
1772728983527737600,2.864737548828125,-0.25931209325790405,-0.25900667905807495,-0.3231474757194519
1772728983537255400,2.87425537109375,-0.23548837006092072,-0.01954767294228077,-0.17776164412498474
1772728983546773200,2.883773193359375,-0.2214384824037552,0.2162461280822754,-0.015271619893610477
1772728983556291000,2.893291015625,-0.210442915558815,0.3946186602115631,0.14721840620040894
1772728983565809200,2.90280908203125,-0.19089524447917938,0.49418962001800537,0.3035998046398163
1772728983575327000,2.912326904296875,-0.16768237948417664,0.5125155448913574,0.4422661066055298
1772728983584845000,2.921844970703125,-0.15057817101478577,0.45326167345046997,0.5540543794631958
1772728983594363000,2.93136279296875,-0.1493564397096634,0.33169957995414734,0.6310232877731323
1772728983603880700,2.940880615234375,-0.16523891687393188,0.18142683804035187,0.6652317643165588
1772728983613398800,2.950398681640625,-0.19944734871387482,0.040317077189683914,0.6524035930633545
1772728983622916600,2.95991650390625,-0.24281874299049377,-0.07757982611656189,0.5888736248016357
1772728983632434400,2.969434326171875,-0.28557929396629333,-0.1698204129934311,0.48075059056282043
1772728983641952300,2.9789521484375,-0.32528549432754517,-0.2364046722650528,0.33536475896835327
1772728983651470300,2.98847021484375,-0.3631591200828552,-0.2730565667152405,0.16187916696071625
1772728983660988200,2.99798828125,-0.39248061180114746,-0.27916520833969116,-0.024434590712189674
1772728983670506000,3.007506103515625,-0.40225446224212646,-0.25900667905807495,-0.1997527778148651
1772728983680024000,3.017024169921875,-0.3912588953971863,-0.21685700118541718,-0.34636032581329346
1772728983689542000,3.0265419921875,-0.364991694688797,-0.16554436087608337,-0.44898560643196106
1772728983699059700,3.036059814453125,-0.324063777923584,-0.09651663154363632,-0.5009090900421143
1772728983708577800,3.045577880859375,-0.27519458532333374,-0.004276053514331579,-0.5009090900421143
1772728983718095600,3.055095703125,-0.2257145345211029,0.07086031138896942,-0.4575377106666565
1772728983727613400,3.064613525390625,-0.1847866028547287,0.11056652665138245,-0.38179048895835876
1772728983737131500,3.074131591796875,-0.15485422313213348,0.1282816082239151,-0.2883281707763672
1772728983746649300,3.0836494140625,-0.1334739476442337,0.12767073512077332,-0.19303326308727264
1772728983756167200,3.093167236328125,-0.129197895526886,0.1026252806186676,-0.11178825795650482
1772728983765685200,3.102685302734375,-0.1389717310667038,0.0513126403093338,-0.053145237267017365
1772728983775203000,3.112203125,-0.15668681263923645,-0.0054977829568088055,-0.020158538594841957
1772728983784721000,3.121720947265625,-0.1744018942117691,-0.037262752652168274,-0.011606430634856224
1772728983794239000,3.131239013671875,-0.18784092366695404,-0.05742128938436508,-0.034208428114652634
1772728983803756800,3.1407568359375,-0.19272783398628235,-0.08429934084415436,-0.08124501258134842
1772728983813274600,3.150274658203125,-0.18723005056381226,-0.10018182545900345,-0.14172062277793884
1772728983822792400,3.15979248046875,-0.17073670029640198,-0.10079269111156464,-0.20647229254245758
1772728983832310500,3.169310546875,-0.14813470840454102,-0.08979712426662445,-0.2657261788845062
1772728983860864300,3.1978642578125,-0.054672397673130035,-0.03909534588456154,-0.32681265473365784
1772728983870382000,3.207382080078125,-0.019242240116000175,-0.004886918235570192,-0.2968802750110626
1772728983879900200,3.216900146484375,0.00946840364485979,0.027488915249705315,-0.24862197041511536
1772728983889418000,3.22641796875,0.02718348242342472,0.047036588191986084,-0.19303326308727264
1772728983898935800,3.235935791015625,0.03329212963581085,0.05436696484684944,-0.13683371245861053
1772728983908453600,3.24545361328125,0.035124726593494415,0.05742128938436508,-0.08552107214927673
1772728983917971700,3.2549716796875,0.03756818547844887,0.056199558079242706,-0.04214967042207718
1772728983927489500,3.264489501953125,0.041844237595796585,0.05070177838206291,-0.006108647678047419
1772728983937007400,3.27400732421875,0.051618073135614395,0.046425722539424896,0.027488915249705315
1772728983946525400,3.283525390625,0.06505709886550903,0.06597339361906052,0.05864302068948746
1772728983956043300,3.293043212890625,0.07483093440532684,0.09101885557174683,0.08063415437936783
1772728983965561000,3.30256103515625,0.0772743970155716,0.09651663154363632,0.0873536616563797
1772728983975079200,3.3120791015625,0.07849612087011337,0.0769689604640007,0.07452550530433655
1772728983984597000,3.321596923828125,0.08032871782779694,0.023823726922273636,0.047036588191986084
1772728983994114800,3.33111474609375,0.08399390429258347,-0.04764745384454727,0.007330377586185932
1772728984003632600,3.340632568359375,0.08888082206249237,-0.12705987691879272,-0.033597562462091446
1772728984013150700,3.350150634765625,0.09437860548496246,-0.2009745091199875,-0.0665842592716217
1772728984022668500,3.35966845703125,0.09804379940032959,-0.2412915825843811,-0.08552107214927673
1772728984032186400,3.369186279296875,0.09193515032529831,-0.23273947834968567,-0.09712749719619751
1772728984041704400,3.378704345703125,0.08399390429258347,-0.18875721096992493,-0.09957095980644226
1772728984051222300,3.38822216796875,0.08765909820795059,-0.10873392969369888,-0.0873536616563797
1772728984060740400,3.397740234375,0.10965022444725037,0.0030543238390237093,-0.053145237267017365
1772728984070258200,3.407258056640625,0.1487455666065216,0.14294235408306122,0.010384701192378998
1772728984079776000,3.41677587890625,0.1957821547985077,0.3029889166355133,0.10201441496610641
1772728984089293800,3.4262939453125,0.23732095956802368,0.4477638900279999,0.21197007596492767
1772728984098812000,3.43581201171875,0.2721402645111084,0.545502245426178,0.32681265473365784
1772728984108329700,3.445329833984375,0.30634868144989014,0.5913171172142029,0.43860089778900146
1772728984117847600,3.45484765625,0.34177884459495544,0.5815432667732239,0.536339282989502
1772728984127365600,3.46436572265625,0.3692677617073059,0.5155698657035828,0.6084213256835938
1772728984136883500,3.473883544921875,0.38270679116249084,0.40866854786872864,0.6499601006507874
1772728984146401300,3.4834013671875,0.3845393657684326,0.2889390289783478,0.6597339510917664
1772728984155919000,3.492919189453125,0.37110036611557007,0.16249002516269684,0.6359102129936218
1772728984165437200,3.502437255859375,0.3503309488296509,0.023823726922273636,0.5790998339653015
1772728984174955000,3.511955078125,0.323452889919281,-0.11606431007385254,0.4935787320137024
1772728984184472800,3.521472900390625,0.30024003982543945,-0.2406807243824005,0.389120876789093
1772728984193991000,3.530990966796875,0.28069236874580383,-0.3329212963581085,0.2767217457294464
1772728984203508700,3.5405087890625,0.26908594369888306,-0.3903425931930542,0.17776164412498474
1772728984213026800,3.55002685546875,0.2660316228866577,-0.3970620930194855,0.11056652665138245
1772728984222544600,3.559544677734375,0.2672533392906189,-0.3390299379825592,0.08368847519159317
1772728984232062500,3.5690625,0.26358816027641296,-0.21135921776294708,0.09590577334165573
1772728984241580300,3.578580322265625,0.26358816027641296,-0.014049889519810677,0.14782927930355072
1772728984251098400,3.588098388671875,0.2678641974925995,0.2107483446598053,0.2254091054201126
1772728984260616200,3.5976162109375,0.27458372712135315,0.4043924808502197,0.3121519088745117
1772728984270134000,3.607134033203125,0.28008151054382324,0.546113133430481,0.3915643095970154
1772728984279651800,3.61665185546875,0.28496840596199036,0.6444623470306396,0.4581485986709595
1772728984289170000,3.626169921875,0.291687935590744,0.6872228980064392,0.5070177912712097
1772728984298687700,3.635687744140625,0.2977965772151947,0.6707295179367065,0.535728394985199
1772728984308205600,3.64520556640625,0.3020726442337036,0.5968148708343506,0.5381718873977661
1772728984317723600,3.6547236328125,0.3094030022621155,0.4740310609340668,0.5161807537078857
1772728984327241500,3.664241455078125,0.32100942730903625,0.3176496922969818,0.46914416551589966
1772728984336759300,3.67375927734375,0.33505934476852417,0.15210533142089844,0.4056142270565033
1772728984346277400,3.68327734375,0.3430005609989166,0.004276053514331579,0.32559093832969666
1772728984355795200,3.692795166015625,0.3381136655807495,-0.1185077652335167,0.23457208275794983
1772728984365313300,3.702313232421875,0.3130682110786438,-0.2101374864578247,0.13500112295150757
1772728984374831000,3.7118310546875,0.27091851830482483,-0.26878049969673157,0.03176496922969818
1772728984384349000,3.721348876953125,0.21410810947418213,-0.3194822669029236,-0.07147117704153061
1772728984393866800,3.73086669921875,0.1444695144891739,-0.3799578845500946,-0.17287473380565643
1772728984403384800,3.740384765625,0.07422006875276566,-0.4355465769767761,-0.26878049969673157
1772728984412902700,3.749902587890625,0.01435532234609127,-0.4520399272441864,-0.3488037884235382
1772728984422420500,3.75942041015625,-0.03023780696094036,-0.41783151030540466,-0.40317076444625854
1772728984431938600,3.7689384765625,-0.05345066636800766,-0.3237583339214325,-0.4214966893196106
1772728984441456400,3.778456298828125,-0.06383536756038666,-0.143553227186203,-0.4013381600379944
1772728984450974200,3.78797412109375,-0.06933315098285675,0.07819069176912308,-0.35063639283180237
1772728984460492000,3.797491943359375,-0.08643736690282822,0.25961753726005554,-0.27977606654167175
1772728984470010000,3.807010009765625,-0.11514800786972046,0.3585776388645172,-0.19425499439239502
1772728984479528000,3.81652783203125,-0.14508038759231567,0.3903425931930542,-0.10140355676412582
1772728984489045800,3.826045654296875,-0.17134757339954376,0.3738492429256439,-0.010995565913617611
1772728984498563800,3.835563720703125,-0.19822561740875244,0.31093016266822815,0.06352993845939636
1772728984508081700,3.84508154296875,-0.22937972843647003,0.22296564280986786,0.11239911615848541
1772728984517599700,3.854599853515625,-0.2568686306476593,0.13988803327083588,0.13500112295150757
1772728984527117600,3.86411767578125,-0.27397283911705017,0.07513637095689774,0.13683371245861053
1772728984536635400,3.873635498046875,-0.2831358313560486,0.024434590712189674,0.1178968995809555
1772728984546153200,3.8831533203125,-0.2868010103702545,-0.011606430634856224,0.08307760953903198
1772728984555671300,3.89267138671875,-0.2935205399990082,-0.04581485688686371,0.03848448023200035
1772728984565189000,3.902189208984375,-0.30573782324790955,-0.0873536616563797,-0.014049889519810677
1772728984574707000,3.91170703125,-0.3277289569377899,-0.1386663019657135,-0.06902772188186646
1772728984584225000,3.92122509765625,-0.36193737387657166,-0.2003636509180069,-0.12767073512077332
1772728984593742800,3.930742919921875,-0.40225446224212646,-0.277332603931427,-0.18692462146282196
1772728984603260700,3.9402607421875,-0.43890634179115295,-0.36163195967674255,-0.24006985127925873
1772728984612778500,3.949778564453125,-0.4676169753074646,-0.43493571877479553,-0.2767217457294464
1772728984622296600,3.959296630859375,-0.49510589241981506,-0.48502662777900696,-0.2938259541988373
1772728984631814400,3.968814453125,-0.5250383019447327,-0.49968740344047546,-0.28405213356018066
1772728984641332200,3.978332275390625,-0.5586358308792114,-0.47036588191986084,-0.24984370172023773
1772728984650850300,3.987850341796875,-0.5977311730384827,-0.4202749729156494,-0.19608759880065918
1772728984660368100,3.9973681640625,-0.6417134404182434,-0.3787361681461334,-0.13072505593299866
1772728984669886000,4.006885986328125,-0.6832522749900818,-0.3494146466255188,-0.06291907280683517
1772728984679404000,4.016404052734375,-0.7137954831123352,-0.33169957995414734,-0.0054977829568088055
1772728984688921900,4.025921875,-0.732121467590332,-0.360410213470459,0.04276053607463837
1772728984698439700,4.035439697265625,-0.7394518256187439,-0.41905322670936584,0.07819069176912308
1772728984707957800,4.044957763671875,-0.7376192212104797,-0.4728093445301056,0.10567960888147354
1772728984717475600,4.0544755859375,-0.7351757884025574,-0.5094612240791321,0.12461641430854797
1772728984726993400,4.063993408203125,-0.7357866168022156,-0.545502245426178,0.13255766034126282
1772728984736511500,4.073511474609375,-0.7394518256187439,-0.5827649831771851,0.1288924664258957
1772728984746029300,4.083029296875,-0.7480039000511169,-0.6017017960548401,0.11728604137897491
1772728984755547100,4.092547119140625,-0.7602212429046631,-0.6041452884674072,0.10629047453403473
1772728984765065000,4.10206494140625,-0.7785471677780151,-0.5968148708343506,0.10079269111156464
1772728984774583000,4.1115830078125,-0.7974839806556702,-0.5717694163322449,0.10873392969369888
1772728984784100900,4.121100830078125,-0.8078686594963074,-0.5125155448913574,0.14172062277793884
1772728984793618700,4.13061865234375,-0.8084795475006104,-0.42271843552589417,0.20158538222312927
1772728984803136800,4.14013671875,-0.8078686594963074,-0.3249800503253937,0.27550002932548523
1772728984812654600,4.149654541015625,-0.8072578310966492,-0.25473061203956604,0.347582072019577
1772728984822172400,4.15917236328125,-0.8127555847167969,-0.23518294095993042,0.40317076444625854
1772728984831690200,4.168690185546875,-0.8231402635574341,-0.25961753726005554,0.4318813979625702
1772728984841208300,4.178208251953125,-0.8384119272232056,-0.31642794609069824,0.43860089778900146
1772728984850726100,4.18772607421875,-0.8585704565048218,-0.38301220536231995,0.4196641147136688
1772728984860244200,4.197244140625,-0.8854485154151917,-0.4373791813850403,0.36712974309921265
1772728984869762000,4.206761962890625,-0.9147700071334839,-0.4862483739852905,0.28466299176216125
1772728984879279900,4.21627978515625,-0.9471458196640015,-0.5430588126182556,0.18570289015769958
1772728984888798000,4.2257978515625,-0.9776890873908997,-0.6157516837120056,0.07757982611656189
1772728984898315800,4.235315673828125,-1.0015127658843994,-0.6988292932510376,-0.03543015569448471
1772728984907833600,4.24483349609375,-1.018617033958435,-0.7819069027900696,-0.14049890637397766
1772728984917351400,4.254351318359375,-1.0216712951660156,-0.833219587802887,-0.20891575515270233
1772728984926869500,4.263869384765625,-1.0112866163253784,-0.8167262077331543,-0.24373504519462585
1772728984936387300,4.27338720703125,-0.9850194454193115,-0.7513636946678162,-0.23335035145282745
1772728984945905200,4.2829052734375,-0.9508110284805298,-0.6261364221572876,-0.1740964651107788
1772728984955423200,4.29242333984375,-0.9141591191291809,-0.43982264399528503,-0.05497783049941063
1772728984964941000,4.301941162109375,-0.8830050230026245,-0.20647229254245758,0.08918625861406326
1772728984974459000,4.311458984375,-0.8610138893127441,-0.003665188793092966,0.2528980076313019
1772728984983976700,4.320976806640625,-0.8481857180595398,0.15271618962287903,0.3958403766155243
1772728984993494800,4.330494873046875,-0.8353576064109802,0.21930044889450073,0.5027416944503784
1772728985003012600,4.3400126953125,-0.8292489647865295,0.20341797173023224,0.5772672295570374
1772728985012530400,4.349530517578125,-0.8255837559700012,0.12522727251052856,0.5968148708343506
1772728985022048500,4.359048583984375,-0.8292489647865295,0.013439024798572063,0.5809323787689209
1772728985031566300,4.36856640625,-0.8420770764350891,-0.10201441496610641,0.5235111117362976
1772728985041084200,4.378084228515625,-0.8555161356925964,-0.21258094906806946,0.42882707715034485
1772728985050602200,4.387602294921875,-0.8659008145332336,-0.3078758418560028,0.31031930446624756
1772728985060120000,4.3971201171875,-0.8640682101249695,-0.37140578031539917,0.18203771114349365
1772728985069638000,4.406637939453125,-0.8549052476882935,-0.40927940607070923,0.05558869615197182
1772728985079156000,4.416156005859375,-0.8481857180595398,-0.4355465769767761,-0.0616973415017128
1772728985088673800,4.425673828125,-0.8475748896598816,-0.4520399272441864,-0.16065743565559387
1772728985098191600,4.435191650390625,-0.8524618148803711,-0.4557051360607147,-0.2364046722650528
1772728985107709400,4.44470947265625,-0.8506292104721069,-0.45020735263824463,-0.27977606654167175
1772728985117227500,4.4542275390625,-0.8414662480354309,-0.43004879355430603,-0.2919933497905731
1772728985126745300,4.463745361328125,-0.8255837559700012,-0.4056142270565033,-0.2712239623069763
1772728985136263200,4.47326318359375,-0.8066469430923462,-0.37262752652168274,-0.2254091054201126
1772728985145781200,4.48278125,-0.795651376247406,-0.33108872175216675,-0.16187916696071625
1772728985155299000,4.492299072265625,-0.7974839806556702,-0.29565855860710144,-0.09040798991918564
1772728985164817000,4.50181689453125,-0.8078686594963074,-0.26511532068252563,-0.014660755172371864
1772728985174334700,4.511334716796875,-0.8164207935333252,-0.2260199636220932,0.0513126403093338
1772728985183852800,4.520852783203125,-0.8206968307495117,-0.18570289015769958,0.09834922850131989
1772728985193370600,4.53037060546875,-0.8213077187538147,-0.17104214429855347,0.12034036219120026
1772728985202888700,4.539888671875,-0.8139773011207581,-0.1795942485332489,0.11423171311616898
1772728985212406500,4.549406494140625,-0.7968730926513672,-0.19242240488529205,0.0818558782339096
1772728985221924400,4.55892431640625,-0.7809906005859375,-0.19853104650974274,0.023823726922273636
1772728985231442400,4.5684423828125,-0.7730493545532227,-0.22174391150474548,-0.056810423731803894
1772728985240960300,4.577960205078125,-0.767551600933075,-0.2730565667152405,-0.15088360011577606
1772728985250478000,4.58747802734375,-0.7602212429046631,-0.33597561717033386,-0.24434591829776764
1772728985259996000,4.596995849609375,-0.7498365044593811,-0.3848448097705841,-0.32681265473365784
1772728985269514000,4.606513916015625,-0.7388409376144409,-0.42332929372787476,-0.39217519760131836
1772728985279031800,4.61603173828125,-0.7284562587738037,-0.44959646463394165,-0.4373791813850403
1772728985288549600,4.625549560546875,-0.7095194458961487,-0.4471530318260193,-0.4581485986709595
1772728985298067700,4.635067626953125,-0.6863065958023071,-0.40805765986442566,-0.45448338985443115
1772728985307585500,4.64458544921875,-0.6588176488876343,-0.3402516841888428,-0.4257727563381195
1772728985317103400,4.654103271484375,-0.6264418363571167,-0.2559523284435272,-0.3738492429256439
1772728985326621200,4.66362109375,-0.592233419418335,-0.16615521907806396,-0.30604326725006104
1772728985336139300,4.67313916015625,-0.5623010396957397,-0.09651663154363632,-0.22907429933547974
1772728985345657000,4.682656982421875,-0.537255585193634,-0.06963858753442764,-0.15821397304534912
1772728985355175000,4.6921748046875,-0.5115992426872253,-0.08613193035125732,-0.09834922850131989
1772728985364693000,4.70169287109375,-0.48105600476264954,-0.11117739230394363,-0.047036588191986084
1772728985374210800,4.7112109375,-0.4456258714199066,-0.12034036219120026,-0.0030543238390237093
1772728985383728600,4.720728759765625,-0.4108065664768219,-0.12461641430854797,0.036651886999607086
1772728985393246700,4.730246826171875,-0.3796524703502655,-0.1081230640411377,0.07452550530433655
1772728985402764500,4.7397646484375,-0.35216355323791504,-0.07269290834665298,0.11484257876873016
1772728985412282400,4.749282470703125,-0.3271180987358093,-0.03848448023200035,0.1539379209280014
1772728985421800400,4.758800537109375,-0.30146175622940063,-0.020158538594841957,0.19181154668331146
1772728985431318300,4.768318359375,-0.27458372712135315,-0.018325943499803543,0.22479823231697083
1772728985440836000,4.777836181640625,-0.24465134739875793,-0.015271619893610477,0.25473061203956604
1772728985450354000,4.78735400390625,-0.2049451321363449,0.009773836471140385,0.2828303873538971
1772728985459872000,4.7968720703125,-0.1591302752494812,0.049480047076940536,0.3127627670764923
1772728985469389800,4.806389892578125,-0.10537417232990265,0.10018182545900345,0.34697118401527405
1772728985478907600,4.81590771484375,-0.05711585655808449,0.14172062277793884,0.37690356373786926
1772728985488425700,4.82542578125,-0.022907428443431854,0.1441640853881836,0.3970620930194855
1772728985497943600,4.834943603515625,-0.005192350596189499,0.09712749719619751,0.3970620930194855
1772728985507461400,4.84446142578125,0.0015271619195118546,-0.000610864779446274,0.3750709891319275
1772728985516979200,4.853979248046875,-0.003359756199643016,-0.1288924664258957,0.3292561173439026
1772728985526497300,4.863497314453125,-0.00946840364485979,-0.27366742491722107,0.268169641494751
1772728985536015000,4.87301513671875,-0.013744457624852657,-0.4153880476951599,0.1997527778148651
1772728985545533200,4.882533203125,-0.018631376326084137,-0.5076286196708679,0.13194678723812103
1772728985555051000,4.892051025390625,-0.028405211865901947,-0.5320632457733154,0.0769689604640007
1772728985564568800,4.90156884765625,-0.0412333719432354,-0.4978547990322113,0.03909534588456154
1772728985574086700,4.911086669921875,-0.04734202101826668,-0.4196641147136688,0.02626718580722809
1772728985583604700,4.920604736328125,-0.03695731982588768,-0.3029889166355133,0.049480047076940536
1772728985593122600,4.93012255859375,-0.010079269297420979,-0.14721840620040894,0.10995566099882126
1772728985602640400,4.939640380859375,0.02107483521103859,0.027488915249705315,0.20341797173023224
1772728985612158500,4.949158447265625,0.0461202897131443,0.205861434340477,0.3176496922969818
1772728985621676300,4.95867626953125,0.061391908675432205,0.3646862804889679,0.43432486057281494
1772728985631194000,4.968194091796875,0.06566796451807022,0.46547895669937134,0.536339282989502
1772728985640712000,4.9777119140625,0.07299833744764328,0.5271763205528259,0.6261364221572876
1772728985650230000,4.98722998046875,0.08277218043804169,0.564439058303833,0.6976075768470764
1772728985659747800,4.996747802734375,0.08643736690282822,0.5668824911117554,0.7452550530433655
1772728985669265700,5.006265625,0.07299833744764328,0.5125155448913574,0.758694052696228
1772728985678783700,5.01578369140625,0.0412333719432354,0.3915643095970154,0.7336485981941223
1772728985688301600,5.025301513671875,0.003359756199643016,0.23518294095993042,0.6743947267532349
1772728985697819400,5.0348193359375,-0.025350889191031456,0.0818558782339096,0.5937605500221252
1772728985707337200,5.044337158203125,-0.04428769648075104,-0.07880155742168427,0.49968740344047546
1772728985716855300,5.053855224609375,-0.05528326332569122,-0.2461785078048706,0.3964512348175049
1772728985726373000,5.063373046875,-0.06994401663541794,-0.3952295184135437,0.28527384996414185
1772728985735891200,5.07289111328125,-0.0974329337477684,-0.5094612240791321,0.16615521907806396
1772728985745409000,5.082408935546875,-0.1334739476442337,-0.5809323787689209,0.04276053607463837
1772728985754926800,5.0919267578125,-0.17867794632911682,-0.6108647584915161,-0.07757982611656189
1772728985764444700,5.101444580078125,-0.22999058663845062,-0.6047561168670654,-0.18875721096992493
1772728985773962800,5.110962646484375,-0.28924447298049927,-0.5760455131530762,-0.28588470816612244
1772728985783480600,5.12048046875,-0.34605491161346436,-0.5253437161445618,-0.36224281787872314
1772728985792998400,5.129998291015625,-0.39248061180114746,-0.4428769648075104,-0.411722868680954
1772728985802516500,5.1395166015625,-0.4224129915237427,-0.32070401310920715,-0.42821621894836426
1772728985812034300,5.149034423828125,-0.4303542375564575,-0.16126830875873566,-0.4056142270565033
1772728985821552000,5.15855224609375,-0.4205803871154785,0.009162971749901772,-0.347582072019577
1772728985831070000,5.168070068359375,-0.3955349326133728,0.15699224174022675,-0.2571740746498108
1772728985840588000,5.177588134765625,-0.35766133666038513,0.26939135789871216,-0.14294235408306122
1772728985850105900,5.18710595703125,-0.31184646487236023,0.35613417625427246,-0.01649334840476513
1772728985859623700,5.196623779296875,-0.2672533392906189,0.40744680166244507,0.10567960888147354
1772728985869141800,5.206141845703125,-0.23365578055381775,0.40255987644195557,0.2052505612373352
1772728985878659600,5.21565966796875,-0.20738859474658966,0.33536475896835327,0.27550002932548523
1772728985888177400,5.225177490234375,-0.1805105358362198,0.22724169492721558,0.31642794609069824
1772728985897695200,5.2346953125,-0.1487455666065216,0.1130099818110466,0.3335321843624115
1772728985907213300,5.24421337890625,-0.11759147047996521,0.017104214057326317,0.32681265473365784
1772728985916731100,5.253731201171875,-0.09865466505289078,-0.06108647957444191,0.29993459582328796
1772728985935767000,5.27276708984375,-0.09865466505289078,-0.15149445831775665,0.20280711352825165
1772728985945284900,5.282284912109375,-0.11331541836261749,-0.16065743565559387,0.14049890637397766
1772728985954802700,5.291802734375,-0.13713914155960083,-0.17287473380565643,0.0769689604640007
1772728985964320800,5.30132080078125,-0.16829325258731842,-0.20280711352825165,0.014660755172371864
1772728985973838600,5.310838623046875,-0.2049451321363449,-0.2467893660068512,-0.03848448023200035
1772728985983356400,5.3203564453125,-0.2458730787038803,-0.3023780584335327,-0.07391463965177536
1772728985992874500,5.32987451171875,-0.2929096519947052,-0.35735589265823364,-0.09040798991918564
1772728986002392300,5.339392333984375,-0.34605491161346436,-0.3811796307563782,-0.09162971377372742
1772728986011910100,5.34891015625,-0.40347617864608765,-0.37751442193984985,-0.08368847519159317
1772728986021428000,5.358427978515625,-0.4633409380912781,-0.3488037884235382,-0.07880155742168427
1772728986030946000,5.367946044921875,-0.5164861679077148,-0.30482152104377747,-0.09040798991918564
1772728986040464000,5.3774638671875,-0.5586358308792114,-0.30054548382759094,-0.1026252806186676
1772728986049981700,5.386981689453125,-0.5836812853813171,-0.3439168632030487,-0.11117739230394363
1772728986059499800,5.396499755859375,-0.5934551358222961,-0.39217519760131836,-0.12217295914888382
1772728986069017600,5.406017578125,-0.5958985686302185,-0.4465421438217163,-0.13072505593299866
1772728986078535400,5.415535400390625,-0.5989528894424438,-0.5088503360748291,-0.13744457066059113
1772728986088053200,5.42505322265625,-0.6032289862632751,-0.574212908744812,-0.14233149588108063
1772728986097571300,5.4345712890625,-0.6044507026672363,-0.6224712133407593,-0.1490510106086731
1772728986107089200,5.444089111328125,-0.5983420610427856,-0.638353705406189,-0.15210533142089844
1772728986116607200,5.453607177734375,-0.5904008150100708,-0.6426297426223755,-0.1484401375055313
1772728986126125000,5.463125,-0.582459568977356,-0.6371319890022278,-0.1282816082239151
1772728986135643000,5.472642822265625,-0.5757400393486023,-0.6017017960548401,-0.0873536616563797
1772728986145160700,5.48216064453125,-0.5757400393486023,-0.5296197533607483,-0.02932151034474373
1772728986154678800,5.4916787109375,-0.5873464941978455,-0.4428769648075104,0.03848448023200035
1772728986164196600,5.501196533203125,-0.602007269859314,-0.36224281787872314,0.10201441496610641
1772728986173714400,5.51071435546875,-0.6087267398834229,-0.29138249158859253,0.1588248461484909
1772728986183232500,5.520232421875,-0.6032289862632751,-0.24251331388950348,0.20952661335468292
1772728986192750300,5.529750244140625,-0.5904008150100708,-0.22846342623233795,0.26022839546203613
1772728986202268200,5.53926806640625,-0.5739074349403381,-0.20952661335468292,0.31093016266822815
1772728986211786000,5.548785888671875,-0.5690205693244934,-0.1948658674955368,0.3597993552684784
1772728986221304000,5.558303955078125,-0.5849030017852783,-0.23212862014770508,0.39400777220726013
1772728986230822000,5.56782177734375,-0.6148353815078735,-0.31154105067253113,0.4147771894931793
1772728986240339700,5.577339599609375,-0.6502655744552612,-0.39217519760131836,0.4221075773239136
1772728986249857500,5.586857421875,-0.6887500286102295,-0.4612029194831848,0.40927940607070923
1772728986259375600,5.596375732421875,-0.7272345423698425,-0.5070177912712097,0.37201663851737976
1772728986268893400,5.6058935546875,-0.766940712928772,-0.5381718873977661,0.3072649836540222
1772728986278411300,5.615411376953125,-0.8084795475006104,-0.565049946308136,0.22174391150474548
1772728986287929300,5.624929443359375,-0.850018322467804,-0.5943714380264282,0.12950333952903748
1772728986297447200,5.634447265625,-0.8811724185943604,-0.6352993845939636,0.04459312930703163
1772728986306965000,5.643965087890625,-0.9019418358802795,-0.7116574645042419,-0.01893680728971958
1772728986316483000,5.653483154296875,-0.9141591191291809,-0.8032872080802917,-0.027488915249705315
1772728986326001000,5.6630009765625,-0.9221003651618958,-0.8283326625823975,0.0054977829568088055
1772728986335518700,5.672518798828125,-0.9373720288276672,-0.7812960743904114,0.05497783049941063
1772728986345036800,5.682036865234375,-0.9654718041419983,-0.6896663308143616,0.13133592903614044
1772728986354554600,5.6915546875,-1.0009019374847412,-0.5626064538955688,0.2162461280822754
1772728986364072400,5.701072509765625,-1.036942958831787,-0.42882707715034485,0.3292561173439026
1772728986373590300,5.71059033203125,-1.0687079429626465,-0.2718348205089569,0.4410443603992462
1772728986383108400,5.7201083984375,-1.0937533378601074,-0.1282816082239151,0.5222893953323364
1772728986392626200,5.729626220703125,-1.110857605934143,-0.030543239787220955,0.583375871181488
1772728986402144000,5.73914404296875,-1.1224640607833862,0.0409279391169548,0.6047561168670654
1772728986411662000,5.748662109375,-1.127350926399231,0.07574722915887833,0.5839866995811462
1772728986421180000,5.758179931640625,-1.138346552848816,0.0513126403093338,0.5393936038017273
1772728986430697700,5.76769775390625,-1.1585050821304321,-0.043982263654470444,0.4563159942626953
1772728986440215600,5.777215576171875,-1.176220178604126,-0.18387030065059662,0.35246896743774414
1772728986449733600,5.786733642578125,-1.1866048574447632,-0.3139844834804535,0.2254091054201126
1772728986459251500,5.79625146484375,-1.181717872619629,-0.4098902642726898,0.09651663154363632
1772728986468769500,5.80576953125,-1.1633919477462769,-0.47036588191986084,-0.025045456364750862
1772728986478287000,5.815287109375,-1.138346552848816,-0.5143481492996216,-0.1288924664258957
1772728986487805200,5.82480517578125,-1.107803225517273,-0.5479456782341003,-0.2101374864578247
1772728986497323000,5.834322998046875,-1.0680971145629883,-0.5772672295570374,-0.2669478952884674
1772728986506841000,5.843841064453125,-1.0241148471832275,-0.6175842881202698,-0.29016077518463135
1772728986516359000,5.85335888671875,-0.9782999157905579,-0.6163625717163086,-0.2816086709499359
1772728986525876700,5.862876708984375,-0.9434806704521179,-0.5760455131530762,-0.24984370172023773
1772728986535394600,5.87239453125,-0.9257655739784241,-0.5235111117362976,-0.20158538222312927
1772728986544912600,5.88191259765625,-0.9214895367622375,-0.4612029194831848,-0.14477495849132538
1772728986554430500,5.891430419921875,-0.9227112531661987,-0.379347026348114,-0.08552107214927673
1772728986563948300,5.9009482421875,-0.926376461982727,-0.2987128794193268,-0.026878049597144127
1772728986573466400,5.91046630859375,-0.9318742156028748,-0.24495677649974823,0.024434590712189674
1772728986582984200,5.919984130859375,-0.9398154616355896,-0.22174391150474548,0.06780599057674408
1772728986592502000,5.929501953125,-0.9538653492927551,-0.2309068888425827,0.0977383628487587
1772728986602019800,5.939019775390625,-0.970969557762146,-0.26389357447624207,0.11056652665138245
1772728986611538000,5.948537841796875,-0.990517258644104,-0.30482152104377747,0.10384701192378998
1772728986621055700,5.9580556640625,-1.0082323551177979,-0.3555232882499695,0.0769689604640007
1772728986630573600,5.967573486328125,-1.0241148471832275,-0.4373791813850403,0.026878049597144127
1772728986640091600,5.977091552734375,-1.0326669216156006,-0.5540543794631958,-0.04276053607463837
1772728986649609500,5.986609375,-1.0296125411987305,-0.6640099883079529,-0.12400554865598679
1772728986659127300,5.996127197265625,-1.018617033958435,-0.7391464114189148,-0.1997527778148651
1772728986668645000,6.00564501953125,-1.0015127658843994,-0.7953459620475769,-0.2663370370864868
1772728986678163200,6.0151630859375,-0.9764673709869385,-0.8283326625823975,-0.31093016266822815
1772728986687681000,6.024680908203125,-0.9440914988517761,-0.8191696405410767,-0.3298669755458832
1772728986697199000,6.03419921875,-0.9037744402885437,-0.7660244107246399,-0.32009315490722656
1772728986706717000,6.043717041015625,-0.8671225309371948,-0.6872228980064392,-0.28588470816612244
1772728986716234800,6.05323486328125,-0.8365793228149414,-0.5852084755897522,-0.22846342623233795
1772728986725752600,6.062752685546875,-0.8231402635574341,-0.4630354940891266,-0.15577052533626556
1772728986735270700,6.072270751953125,-0.8304706811904907,-0.35613417625427246,-0.07391463965177536
1772728986744788500,6.08178857421875,-0.8512400984764099,-0.2877173125743866,0.007941242307424545
1772728986754306300,6.091306396484375,-0.8768963813781738,-0.2516762912273407,0.0824667438864708
1772728986763824000,6.10082421875,-0.9025527238845825,-0.23884813487529755,0.14233149588108063
1772728986773342200,6.11034228515625,-0.9245438575744629,-0.24801109731197357,0.18631376326084137
1772728986782860000,6.119860107421875,-0.9373720288276672,-0.26511532068252563,0.21135921776294708
1772728986792377900,6.1293779296875,-0.9379828572273254,-0.27916520833969116,0.2205221801996231
1772728986801896000,6.13889599609375,-0.9288198947906494,-0.2919933497905731,0.21807873249053955
1772728986811413800,6.148413818359375,-0.9111047983169556,-0.3035998046398163,0.20830489695072174
1772728986820931600,6.157931640625,-0.8830050230026245,-0.31154105067253113,0.19669845700263977
1772728986830449400,6.167449462890625,-0.8494074940681458,-0.29993459582328796,0.1893680840730667
1772728986839967500,6.176967529296875,-0.8097012639045715,-0.27488914132118225,0.18692462146282196
1772728986849485300,6.1864853515625,-0.7706059217453003,-0.23396120965480804,0.1899789422750473
1772728986859003400,6.19600341796875,-0.7333431839942932,-0.1893680840730667,0.19792018830776215
1772728986868521000,6.20552099609375,-0.6985238790512085,-0.15027274191379547,0.21502439677715302
1772728986878039000,6.2150390625,-0.6630937457084656,-0.11056652665138245,0.24495677649974823
1772728986887556900,6.224556884765625,-0.6258309483528137,-0.05253437161445618,0.2889390289783478
1772728986897075000,6.234074951171875,-0.591622531414032,0.01954767294228077,0.3439168632030487
1772728986906592800,6.2435927734375,-0.5635227560997009,0.09162971377372742,0.4001164436340332
1772728986916110600,6.253110595703125,-0.5421425104141235,0.16798780858516693,0.45448338985443115
1772728986925628400,6.26262841796875,-0.526870846748352,0.24495677649974823,0.5015199780464172
1772728986935146500,6.272146484375,-0.5232056975364685,0.2993237376213074,0.5332849621772766
1772728986944664300,6.281664306640625,-0.5256491303443909,0.3225366175174713,0.5467239618301392
1772728986954182100,6.29118212890625,-0.5329795479774475,0.3133736252784729,0.5387827157974243
1772728986963700200,6.3007001953125,-0.5427533388137817,0.2565632164478302,0.5076286196708679
1772728986973218000,6.310218017578125,-0.5598575472831726,0.1282816082239151,0.4526508152484894
1772728986982736000,6.31973583984375,-0.5842921733856201,-0.08002328872680664,0.37690356373786926
1772728986992253700,6.329253662109375,-0.6142245531082153,-0.3494146466255188,0.2883281707763672
1772728987001771800,6.338771728515625,-0.6398808360099792,-0.6224712133407593,0.19914191961288452
1772728987011289600,6.34828955078125,-0.6563742160797119,-0.832608699798584,0.1178968995809555
1772728987020807400,6.357807373046875,-0.6698132157325745,-0.9413426518440247,0.04825831577181816
1772728987030325200,6.3673251953125,-0.6753110289573669,-0.9523382186889648,0.002443459117785096
1772728987039843300,6.37684326171875,-0.6575959324836731,-0.8717040419578552,0.002443459117785096
1772728987049361200,6.386361083984375,-0.6056724190711975,-0.6860011219978333,0.06536252796649933
1772728987058879000,6.39587890625,-0.528092622756958,-0.37751442193984985,0.19242240488529205
1772728987068397000,6.40539697265625,-0.44929105043411255,-0.01588248461484909,0.3646862804889679
1772728987077915000,6.414914794921875,-0.3949240744113922,0.29993459582328796,0.5558869242668152
1772728987087432700,6.4244326171875,-0.36132651567459106,0.5222893953323364,0.7458658814430237
1772728987096950800,6.43395068359375,-0.33689191937446594,0.6365211009979248,0.9236275553703308
1772728987106468600,6.443468505859375,-0.3246746361255646,0.6426297426223755,1.0684025287628174
1772728987115986400,6.452986328125,-0.33078327775001526,0.5418370366096497,1.1655299663543701
1772728987125504500,6.46250439453125,-0.35766133666038513,0.3426951467990875,1.2034035921096802
1772728987135022300,6.472022216796875,-0.4053087830543518,0.06414080411195755,1.1783581972122192
1772728987144540200,6.4815400390625,-0.4682278633117676,-0.2663370370864868,1.0958913564682007
1772728987154058000,6.49105810546875,-0.5329795479774475,-0.6047561168670654,0.9669989347457886
1772728987163576000,6.500576171875,-0.5965094566345215,-0.896138608455658,0.7990111112594604
1772728987173094000,6.510093994140625,-0.6618719696998596,-1.1270455121994019,0.6029235124588013
1772728987182611700,6.51961181640625,-0.7394518256187439,-1.313359260559082,0.389120876789093
1772728987192129500,6.529129638671875,-0.8292489647865295,-1.4459168910980225,0.17226386070251465
1772728987201647600,6.538647705078125,-0.916602611541748,-1.5070034265518188,-0.030543239787220955
1772728987211165400,6.54816552734375,-0.99968022108078,-1.507614254951477,-0.20647229254245758
1772728987220683300,6.557683349609375,-1.0748165845870972,-1.4477494955062866,-0.3494146466255188
1772728987230201300,6.567201416015625,-1.1487312316894531,-1.351232886314392,-0.4514290690422058
1772728987239719200,6.57671923828125,-1.214093804359436,-1.2284491062164307,-0.5070177912712097
1772728987249237000,6.586237060546875,-1.2635737657546997,-1.0610721111297607,-0.5057960152626038
1772728987258754800,6.5957548828125,-1.2916735410690308,-0.850934624671936,-0.44898560643196106
1772728987268273000,6.60527294921875,-1.303279995918274,-0.6420188546180725,-0.34574946761131287
1772728987277790700,6.614790771484375,-1.303279995918274,-0.5149590373039246,-0.17531819641590118
1772728987287308800,6.624308837890625,-1.2941170930862427,-0.47036588191986084,0.02871064469218254
1772728987296826400,6.633826416015625,-1.2812888622283936,-0.4776962697505951,0.22357651591300964
1772728987306344400,6.643344482421875,-1.278234601020813,-0.5009090900421143,0.3842339515686035
1772728987315862300,6.6528623046875,-1.2800670862197876,-0.5491674542427063,0.4972439408302307
1772728987325380400,6.66238037109375,-1.2788454294204712,-0.6273581385612488,0.5583304166793823
1772728987334898200,6.671898193359375,-1.2812888622283936,-0.730594277381897,0.5772672295570374
1772728987344416000,6.681416015625,-1.2898409366607666,-0.8222240209579468,0.5656607747077942
1772728987353933800,6.690933837890625,-1.305112600326538,-0.9010255336761475,0.5186241865158081
1772728987363452000,6.700451904296875,-1.331379771232605,-0.9938769936561584,0.43860089778900146
1772728987372969700,6.7099697265625,-1.3655881881713867,-1.1013891696929932,0.33719736337661743
1772728987382487600,6.719487548828125,-1.4022401571273804,-1.2101231813430786,0.2211330533027649
1772728987392005400,6.72900537109375,-1.4370594024658203,-1.3115266561508179,0.09712749719619751
1772728987401523500,6.7385234375,-1.4737112522125244,-1.3933825492858887,-0.008552107028663158
1772728987411041300,6.748041259765625,-1.517082691192627,-1.4569125175476074,-0.08491020649671555
1772728987420559000,6.75755908203125,-1.5726714134216309,-1.5125012397766113,-0.1337793916463852
1772728987430077200,6.7670771484375,-1.6368122100830078,-1.5308271646499634,-0.1539379209280014
1772728987439595000,6.776594970703125,-1.7040072679519653,-1.4825688600540161,-0.13988803327083588
1772728987449112800,6.78611279296875,-1.7699806690216064,-1.378721833229065,-0.09346231073141098
1772728987458630700,6.795630615234375,-1.8310672044754028,-1.2510510683059692,-0.02626718580722809
1772728987468148700,6.805148681640625,-1.886044979095459,-1.1362085342407227,0.04520399495959282
1772728987477666600,6.81466650390625,-1.9245294332504272,-1.0439679622650146,0.1081230640411377
1772728987487184600,6.8241845703125,-1.9452989101409912,-0.9847140312194824,0.15271618962287903
1772728987496702200,6.8337021484375,-1.9428554773330688,-0.9779945015907288,0.18081597983837128
1772728987506220300,6.84322021484375,-1.923918604850769,-1.0048725605010986,0.1893680840730667
1772728987515738000,6.852738037109375,-1.897040605545044,-1.0421353578567505,0.185092031955719
1772728987525256200,6.862256103515625,-1.8713842630386353,-1.073289394378662,0.17043127119541168
1772728987534774000,6.87177392578125,-1.8536691665649414,-1.0958913564682007,0.14477495849132538
1772728987544291800,6.881291748046875,-1.8420627117156982,-1.1099413633346558,0.10995566099882126
1772728987553809700,6.8908095703125,-1.8371758460998535,-1.1307107210159302,0.06780599057674408
1772728987563327700,6.90032763671875,-1.8359540700912476,-1.163697361946106,0.023823726922273636
1772728987572845600,6.909845458984375,-1.8280128240585327,-1.1740821599960327,-0.009162971749901772
1772728987582363400,6.91936328125,-1.8127412796020508,-1.1508692502975464,-0.02260199747979641
1772728987591881500,6.928881591796875,-1.8011348247528076,-1.08978271484375,-0.017104214057326317
1772728987601399300,6.9383994140625,-1.7944152355194092,-1.0042617321014404,0.012217295356094837
1772728987610917000,6.947917236328125,-1.7925827503204346,-0.925460159778595,0.06780599057674408
1772728987620435000,6.95743505859375,-1.7876957654953003,-0.8698714375495911,0.143553227186203
1772728987629953000,6.966953125,-1.7779219150543213,-0.8350521326065063,0.22846342623233795
1772728987639470800,6.976470947265625,-1.757763385772705,-0.8173370957374573,0.31642794609069824
1772728987648988700,6.98598876953125,-1.721111536026001,-0.813060998916626,0.4159989058971405
1772728987658506500,6.995506591796875,-1.6728532314300537,-0.8026763200759888,0.5241219997406006
1772728987668024600,7.005024658203125,-1.6227623224258423,-0.7739656567573547,0.6224712133407593
1772728987677542400,7.01454248046875,-1.574504017829895,-0.7269290685653687,0.6884446144104004
1772728987687060200,7.024060302734375,-1.5305217504501343,-0.6688969135284424,0.7244856357574463
1772728987696578000,7.033578125,-1.4859285354614258,-0.6108647584915161,0.7367029190063477
1772728987706096000,7.04309619140625,-1.4504984617233276,-0.5797106623649597,0.720820426940918
1772728987715614000,7.052614013671875,-1.4340050220489502,-0.5925388336181641,0.675616443157196
1772728987725132000,7.062132080078125,-1.4486658573150635,-0.6805033683776855,0.5986474752426147
1772728987734649900,7.07164990234375,-1.5018110275268555,-0.8784235715866089,0.49968740344047546
1772728987744167700,7.081167724609375,-1.5958842039108276,-1.1630865335464478,0.379347026348114
1772728987753685500,7.090685546875,-1.7131702899932861,-1.4923427104949951,0.25473061203956604
1772728987763203600,7.10020361328125,-1.8200715780258179,-1.8002184629440308,0.17226386070251465
1772728987772721400,7.109721435546875,-1.9092578887939453,-1.987753987312317,0.11484257876873016
1772728987782239200,7.1192392578125,-1.9788964986801147,-2.0531165599823,0.07513637095689774
1772728987791757300,7.12875732421875,-2.028987407684326,-1.9834779500961304,0.08368847519159317
1772728987801275100,7.138275146484375,-2.0467023849487305,-1.748905897140503,0.1637117564678192
1772728987810793000,7.14779296875,-2.039371967315674,-1.4001020193099976,0.30543237924575806
1772728987820310800,7.157310791015625,-2.0106613636016846,-1.0299180746078491,0.47464191913604736
1772728987829828900,7.166828857421875,-1.963014006614685,-0.6969966888427734,0.6847794055938721
1772728987839346700,7.1763466796875,-1.9196425676345825,-0.4477638900279999,0.8668171167373657
1772728987848864500,7.185864501953125,-1.8945971727371216,-0.34636032581329346,1.0134246349334717
1772728987858382300,7.19538232421875,-1.887266755104065,-0.3744601011276245,1.0891718864440918
1772728987867900400,7.204900390625,-1.8933753967285156,-0.5015199780464172,1.0861176252365112
1772728987877418200,7.214418212890625,-1.9074252843856812,-0.6890554428100586,1.0030399560928345
1772728987886936000,7.22393603515625,-1.9294164180755615,-0.905912458896637,0.8454368710517883
1772728987896454000,7.233453857421875,-1.950185775756836,-1.0977239608764648,0.6273581385612488
1772728987905972000,7.242971923828125,-1.9666792154312134,-1.2345577478408813,0.3744601011276245
1772728987915489800,7.25248974609375,-1.9709552526474,-1.3292417526245117,0.1130099818110466
1772728987925008000,7.2620078125,-1.9624030590057373,-1.3842196464538574,-0.12767073512077332
1772728987934525400,7.271525390625,-1.941633701324463,-1.3829978704452515,-0.33597561717033386
1772728987944043500,7.28104345703125,-1.9129230976104736,-1.3640609979629517,-0.4886918365955353
1772728987953561300,7.290561279296875,-1.8799363374710083,-1.3255765438079834,-0.5699368119239807
1772728987963079400,7.300079345703125,-1.8432844877243042,-1.2479966878890991,-0.5809323787689209
1772728987972597200,7.30959716796875,-1.8151847124099731,-1.1600322723388672,-0.5375609993934631
1772728987982115000,7.319114990234375,-1.7913609743118286,-1.1062761545181274,-0.4477638900279999
1772728987991633000,7.3286328125,-1.7663154602050781,-1.0793980360031128,-0.3090975880622864
1772728988001151000,7.33815087890625,-1.740659236907959,-1.035415768623352,-0.1496618688106537
1772728988010668800,7.347668701171875,-1.7131702899932861,-0.9779945015907288,-0.01649334840476513
1772728988020186600,7.3571865234375,-1.6881247758865356,-0.9425643682479858,0.07635809481143951
1772728988029704700,7.36670458984375,-1.6643010377883911,-0.9285144805908203,0.12034036219120026
1772728988039222500,7.376222412109375,-1.644142508506775,-0.9388991594314575,0.11362084746360779
1772728988048740400,7.385740234375,-1.6264275312423706,-0.9480621218681335,0.0665842592716217
1772728988058258200,7.395258056640625,-1.6099340915679932,-0.924238383769989,-0.006719512399286032
1772728988067776300,7.4047763671875,-1.5934407711029053,-0.8741474747657776,-0.08613193035125732
1772728988077294000,7.414294189453125,-1.5751148462295532,-0.8466585874557495,-0.14233149588108063
1772728988086812000,7.42381201171875,-1.5506802797317505,-0.8368847370147705,-0.17348559200763702
1772728988096329700,7.433329833984375,-1.5195261240005493,-0.8271108865737915,-0.19425499439239502
1772728988105847800,7.442847900390625,-1.477987289428711,-0.8252783417701721,-0.20402882993221283
1772728988115365600,7.45236572265625,-1.4370594024658203,-0.8338304162025452,-0.1997527778148651
1772728988124883500,7.461883544921875,-1.4028509855270386,-0.8460476994514465,-0.20219624042510986
1772728988134401300,7.4714013671875,-1.375972867012024,-0.8387173414230347,-0.21319180727005005
1772728988143919400,7.48091943359375,-1.3588687181472778,-0.8112284541130066,-0.22357651591300964
1772728988153437200,7.490437255859375,-1.3503166437149048,-0.7739656567573547,-0.22235478460788727
1772728988162955300,7.499955322265625,-1.34237539768219,-0.7391464114189148,-0.19853104650974274
1772728988172473000,7.50947314453125,-1.3295471668243408,-0.7098248600959778,-0.15515965223312378
1772728988181991000,7.518990966796875,-1.3154972791671753,-0.6841685771942139,-0.10384701192378998
1772728988191508700,7.5285087890625,-1.3008365631103516,-0.665842592716217,-0.05864302068948746
1772728988201026800,7.53802685546875,-1.286786675453186,-0.665842592716217,-0.026878049597144127
1772728988210544600,7.547544677734375,-1.2696824073791504,-0.6774490475654602,0
1772728988220062500,7.5570625,-1.242193579673767,-0.6786707639694214,0.027488915249705315
1772728988229580300,7.566580322265625,-1.2067633867263794,-0.6817250847816467,0.05497783049941063
1772728988239098400,7.576098388671875,-1.1658353805541992,-0.6798924803733826,0.07513637095689774
1772728988248616200,7.5856162109375,-1.1163554191589355,-0.6579013466835022,0.08674279600381851
1772728988258134000,7.595134033203125,-1.0595449209213257,-0.6346884965896606,0.0977383628487587
1772728988267652000,7.604652099609375,-0.9984585046768188,-0.5980366468429565,0.12644900381565094
1772728988277170000,7.614169921875,-0.9392045736312866,-0.5302306413650513,0.18753549456596375
1772728988286687700,7.623687744140625,-0.8891136646270752,-0.4477638900279999,0.2864955961704254
1772728988296205600,7.63320556640625,-0.8506292104721069,-0.3481929302215576,0.4166097939014435
1772728988305723600,7.6427236328125,-0.8206968307495117,-0.21746785938739777,0.5613847374916077
1772728988315241500,7.652241455078125,-0.7944296598434448,-0.049480047076940536,0.6786707639694214
1772728988324759300,7.66175927734375,-0.7657189965248108,0.1081230640411377,0.7623592615127563
1772728988334277000,7.671277099609375,-0.7394518256187439,0.23762640357017517,0.8069523572921753
1772728988343795200,7.680795166015625,-0.7229584455490112,0.3384190797805786,0.8167262077331543
1772728988353313000,7.69031298828125,-0.7186824083328247,0.3958403766155243,0.7880155444145203
1772728988362830800,7.699830810546875,-0.7296779751777649,0.37201663851737976,0.7128791809082031
1772728988372348700,7.7093486328125,-0.7596103549003601,0.2419024556875229,0.583375871181488
1772728988381866800,7.71886669921875,-0.8060360550880432,-0.043371398001909256,0.4043924808502197
1772728988391384600,7.728384521484375,-0.8665117025375366,-0.49480047821998596,0.18753549456596375
1772728988400902700,7.737902587890625,-0.9233221411705017,-0.9859357476234436,-0.05070177838206291
1772728988410420500,7.74742041015625,-0.952032744884491,-1.3445134162902832,-0.2706131041049957
1772728988419938300,7.756938232421875,-0.9514219164848328,-1.5179989337921143,-0.43982264399528503
1772728988429456100,7.7664560546875,-0.9172134399414062,-1.4471386671066284,-0.5229002237319946
1772728988438974200,7.77597412109375,-0.8329141139984131,-1.1026109457015991,-0.4990765154361725
1772728988448492000,7.785491943359375,-0.7156280875205994,-0.574212908744812,-0.3744601011276245
1772728988458009900,7.795009765625,-0.591622531414032,-0.010995565913617611,-0.16859868168830872
1772728988467527700,7.804527587890625,-0.4871646761894226,0.4477638900279999,0.09162971377372742
1772728988477045800,7.814045654296875,-0.41263917088508606,0.7269290685653687,0.35735589265823364
1772728988486563600,7.8235634765625,-0.3552178740501404,0.8271108865737915,0.5949822664260864
1772728988496081400,7.833081298828125,-0.3179551064968109,0.758694052696228,0.7794634699821472
1772728988505599200,7.84259912109375,-0.31001389026641846,0.5632173418998718,0.8796452879905701
1772728988515117300,7.852117431640625,-0.32589635252952576,0.2919933497905731,0.8979712128639221
1772728988524635100,7.86163525390625,-0.3631591200828552,-0.010384701192378998,0.84177166223526
1772728988534153000,7.871153076171875,-0.4059196412563324,-0.3042106628417969,0.7263182401657104
1772728988543671000,7.880671142578125,-0.4407389461994171,-0.5271763205528259,0.5687150955200195
1772728988553188900,7.89018896484375,-0.467006117105484,-0.6542361974716187,0.3842339515686035
1772728988562706700,7.899706787109375,-0.4926624298095703,-0.7141009569168091,0.18692462146282196
1772728988572224500,7.909224609375,-0.5189296007156372,-0.7440332770347595,-0.004276053514331579
1772728988581742600,7.91874267578125,-0.5415316224098206,-0.7476984858512878,-0.17531819641590118
1772728988591260400,7.928260498046875,-0.5555815100669861,-0.7220421433448792,-0.31459537148475647
1772728988600778200,7.9377783203125,-0.5598575472831726,-0.6786707639694214,-0.411722868680954
1772728988610296000,7.947296142578125,-0.5598575472831726,-0.6151408553123474,-0.4569268524646759
1772728988619814100,7.956814208984375,-0.5592467188835144,-0.5210676789283752,-0.4471530318260193
1772728988629332000,7.96633203125,-0.5494728684425354,-0.37262752652168274,-0.3897317349910736
1772728988638849800,7.975849853515625,-0.5323686599731445,-0.2009745091199875,-0.2926042377948761
1772728988648367900,7.985367919921875,-0.5109884142875671,-0.05925388261675835,-0.17348559200763702
1772728988657885700,7.9948857421875,-0.4889972507953644,0.031154103577136993,-0.056199558079242706
1772728988667403500,8.004403564453124,-0.46517354249954224,0.05864302068948746,0.046425722539424896
1772728988676921600,8.013921630859375,-0.4407389461994171,0.03237583488225937,0.1130099818110466
1772728988686439400,8.023439453125,-0.4175260663032532,-0.03481929376721382,0.1386663019657135
1772728988695957200,8.032957275390626,-0.39797839522361755,-0.11667517572641373,0.14294235408306122
1772728988705475000,8.04247509765625,-0.38270679116249084,-0.18142683804035187,0.12461641430854797
1772728988714993200,8.0519931640625,-0.37293294072151184,-0.22663083672523499,0.07635809481143951
1772728988724511000,8.061510986328125,-0.36682429909706116,-0.277332603931427,0.008552107028663158
1772728988734028800,8.07102880859375,-0.3631591200828552,-0.3127627670764923,-0.05497783049941063
1772728988743546600,8.080546630859375,-0.36254823207855225,-0.3225366175174713,-0.10751219838857651
1772728988753064700,8.090064697265625,-0.37110036611557007,-0.32192572951316833,-0.15088360011577606
1772728988762582500,8.09958251953125,-0.3894262909889221,-0.3274235129356384,-0.18325942754745483
1772728988772100400,8.109100341796875,-0.40836310386657715,-0.3426951467990875,-0.2052505612373352
1772728988781618200,8.1186181640625,-0.42363473773002625,-0.36163195967674255,-0.2254091054201126
1772728988791136300,8.12813623046875,-0.4309650957584381,-0.37629270553588867,-0.24495677649974823
1772728988800654000,8.137654052734375,-0.43340855836868286,-0.3903425931930542,-0.26389357447624207
1772728988810172000,8.147171875,-0.42913252115249634,-0.3952295184135437,-0.2779434621334076
1772728988819689700,8.156689697265625,-0.4120282828807831,-0.370184063911438,-0.2816086709499359
1772728988829207800,8.166207763671874,-0.38698282837867737,-0.3127627670764923,-0.2730565667152405
1772728988838725600,8.1757255859375,-0.3588830530643463,-0.2510654330253601,-0.24434591829776764
1772728988848243500,8.185243408203124,-0.33567020297050476,-0.20830489695072174,-0.19730933010578156
1772728988857761500,8.194761474609376,-0.31184646487236023,-0.15149445831775665,-0.13988803327083588
1772728988867279400,8.204279296875,-0.28924447298049927,-0.07757982611656189,-0.07757982611656189
1772728988876797200,8.213797119140626,-0.272751122713089,-0.027488915249705315,-0.021991131827235222
1772728988886315300,8.223315185546875,-0.2556469142436981,-0.0030543238390237093,0.024434590712189674
1772728988895833000,8.2328330078125,-0.231212317943573,0.011606430634856224,0.056199558079242706
1772728988905351000,8.242350830078125,-0.20433427393436432,0.008552107028663158,0.06780599057674408
1772728988914868700,8.25186865234375,-0.17745621502399445,-0.026878049597144127,0.0616973415017128
1772728988924386800,8.26138671875,-0.15118902921676636,-0.09040798991918564,0.036651886999607086
1772728988933904600,8.270904541015625,-0.12614357471466064,-0.17898337543010712,-0.001832594396546483
1772728988943422500,8.28042236328125,-0.10415244847536087,-0.277332603931427,-0.053145237267017365
1772728988952940300,8.289940185546875,-0.08277218043804169,-0.36774060130119324,-0.10506874322891235
1772728988962458400,8.299458251953125,-0.06566796451807022,-0.4251618981361389,-0.15149445831775665
1772728988971976200,8.30897607421875,-0.05283980444073677,-0.41783151030540466,-0.18142683804035187
1772728988981494000,8.318493896484375,-0.04734202101826668,-0.3634645342826843,-0.1948658674955368
1772728988991011800,8.32801171875,-0.04734202101826668,-0.28588470816612244,-0.19425499439239502
1772728989000530000,8.337530029296875,-0.0461202897131443,-0.20402882993221283,-0.17653992772102356
1772728989010047700,8.3470478515625,-0.035124726593494415,-0.12156209349632263,-0.14477495849132538
1772728989019565600,8.356565673828126,-0.011911863461136818,-0.06291907280683517,-0.09957095980644226
1772728989029083600,8.366083740234375,0.018631376326084137,-0.053756099194288254,-0.037262752652168274
1772728989038601500,8.3756015625,0.05589412897825241,-0.0720820426940918,0.04520399495959282
1772728989048119300,8.385119384765625,0.09498947113752365,-0.07330377399921417,0.14049890637397766
1772728989057637000,8.39463720703125,0.12614357471466064,-0.07941242307424545,0.2309068888425827
1772728989067155200,8.4041552734375,0.13164135813713074,-0.12705987691879272,0.30482152104377747
1772728989076673000,8.413673095703125,0.11148282140493393,-0.20219624042510986,0.3530798554420471
1772728989086190800,8.42319091796875,0.07299833744764328,-0.27855435013771057,0.36712974309921265
1772728989095708700,8.432708740234375,0.024740023538470268,-0.3591884970664978,0.3610210716724396
1772728989105226800,8.442226806640624,-0.03145953640341759,-0.4477638900279999,0.3433060050010681
1772728989114744600,8.45174462890625,-0.09010255336761475,-0.5479456782341003,0.2877173125743866
1772728989124262400,8.461262451171875,-0.14569124579429626,-0.6750055551528931,0.2003636509180069
1772728989133780200,8.4707802734375,-0.19272783398628235,-0.8045089244842529,0.10751219838857651
1772728989143298300,8.48029833984375,-0.2208276242017746,-0.9028581380844116,0.040317077189683914
1772728989152816000,8.489816162109374,-0.24037529528141022,-0.9224058389663696,0.023823726922273636
1772728989162334000,8.499333984375,-0.25503605604171753,-0.794124186038971,0.07147117704153061
1772728989171852000,8.50885205078125,-0.28008151054382324,-0.5345066785812378,0.164322629570961
1772728989181369900,8.518369873046876,-0.3136790692806244,-0.2162461280822754,0.268169641494751
1772728989190887700,8.5278876953125,-0.34116798639297485,0.0616973415017128,0.37323838472366333
1772728989200405800,8.53740576171875,-0.34727662801742554,0.25534147024154663,0.47525280714035034
1772728989209923600,8.546923583984375,-0.32162031531333923,0.3750709891319275,0.5534434914588928
1772728989219441400,8.55644140625,-0.26969680190086365,0.40805765986442566,0.6151408553123474
1772728989228959200,8.565959228515625,-0.21288637816905975,0.3335321843624115,0.6633991599082947
1772728989238477300,8.575477294921875,-0.15790854394435883,0.185092031955719,0.6688969135284424
1772728989247995100,8.5849951171875,-0.11881320178508759,-0.0054977829568088055,0.6444623470306396
1772728989257513000,8.594512939453125,-0.09926552325487137,-0.1844811588525772,0.5919279456138611
1772728989267030800,8.60403076171875,-0.09498947113752365,-0.3182605504989624,0.49968740344047546
1772728989276548900,8.613548828125,-0.09987638890743256,-0.4001164436340332,0.3836230933666229
1772728989286066700,8.623066650390625,-0.11759147047996521,-0.4269944727420807,0.2516762912273407
1772728989295584500,8.63258447265625,-0.14996729791164398,-0.4147771894931793,0.10995566099882126
1772728989305102300,8.642102294921875,-0.1945604383945465,-0.38728827238082886,-0.0360410213470459
1772728989314620400,8.651620361328124,-0.23976442217826843,-0.35613417625427246,-0.17776164412498474
1772728989324138200,8.66113818359375,-0.27091851830482483,-0.318871408700943,-0.3023780584335327
1772728989333656000,8.670656005859374,-0.2868010103702545,-0.27427828311920166,-0.4013381600379944
1772728989343174000,8.680173828125,-0.2874118685722351,-0.21197007596492767,-0.46975502371788025
1772728989352692000,8.68969189453125,-0.27397283911705017,-0.12095122784376144,-0.5033525824546814
1772728989362209800,8.699209716796876,-0.2507599890232086,-0.010384701192378998,-0.5021308660507202
1772728989371727600,8.7087275390625,-0.22693626582622528,0.08063415437936783,-0.47586366534233093
1772728989381245400,8.718245361328124,-0.20311254262924194,0.12767073512077332,-0.43371400237083435
1772728989390763500,8.727763427734375,-0.17562362551689148,0.1331685185432434,-0.3787361681461334
1772728989400281300,8.73728125,-0.14263692498207092,0.11667517572641373,-0.31093016266822815
1772728989409799200,8.746799072265626,-0.11026109009981155,0.09896009415388107,-0.24495677649974823
1772728989419317200,8.756317138671875,-0.08643736690282822,0.0769689604640007,-0.18570289015769958
1772728989428835000,8.7658349609375,-0.06872228533029556,0.053145237267017365,-0.13683371245861053
1772728989438353000,8.775352783203125,-0.054672397673130035,0.03543015569448471,-0.09896009415388107
1772728989447871000,8.78487109375,-0.0461202897131443,0.025045456364750862,-0.08124501258134842
1772728989457388800,8.794388916015626,-0.03451386094093323,0.007941242307424545,-0.0922405794262886
1772728989466906600,8.80390673828125,-0.022296564653515816,-0.023212861269712448,-0.12950333952903748
1772728989476424400,8.813424560546874,-0.003359756199643016,-0.05070177838206291,-0.185092031955719
1772728989485942500,8.822942626953125,0.02412915788590908,-0.08368847519159317,-0.24740023910999298
1772728989495460400,8.83246044921875,0.051618073135614395,-0.12278381735086441,-0.30604326725006104
1772728989504978200,8.841978271484376,0.07605266571044922,-0.15515965223312378,-0.35613417625427246
1772728989514496000,8.85149609375,0.09498947113752365,-0.18631376326084137,-0.3952295184135437
1772728989524014000,8.86101416015625,0.1182023361325264,-0.2156352698802948,-0.41905322670936584
1772728989533532000,8.870531982421875,0.14996729791164398,-0.23762640357017517,-0.41416633129119873
1772728989543049700,8.8800498046875,0.19089524447917938,-0.23273947834968567,-0.3799578845500946
1772728989552567600,8.889567626953125,0.2257145345211029,-0.2107483446598053,-0.3231474757194519
1772728989562085600,8.899085693359375,0.2525925934314728,-0.164322629570961,-0.24862197041511536
1772728989571603500,8.908603515625,0.2678641974925995,-0.07819069176912308,-0.16310089826583862
1772728989581121300,8.918121337890625,0.2672533392906189,0.031154103577136993,-0.07452550530433655
1772728989590639000,8.92763916015625,0.2574795186519623,0.14233149588108063,0.010384701192378998
1772728989600157200,8.9371572265625,0.2415970265865326,0.22785256803035736,0.08429934084415436
1772728989609675000,8.946675048828125,0.22693626582622528,0.26389357447624207,0.13744457066059113
1772728989619192800,8.95619287109375,0.21716243028640747,0.2528980076313019,0.16859868168830872
1772728989628710700,8.965710693359375,0.21960589289665222,0.2003636509180069,0.18142683804035187
1772728989638228700,8.975228759765624,0.2306014597415924,0.12950333952903748,0.1747073233127594
1772728989647746600,8.98474658203125,0.2415970265865326,0.0616973415017128,0.15210533142089844
1772728989657264400,8.994264404296874,0.24831652641296387,0.01588248461484909,0.1178968995809555
1772728989666782200,9.0037822265625,0.2513708472251892,-0.020158538594841957,0.08002328872680664
1772728989676300300,9.01330029296875,0.25320345163345337,-0.03543015569448471,0.04764745384454727
1772728989685818000,9.022818115234376,0.2556469142436981,-0.023823726922273636,0.031154103577136993
1772728989695336000,9.0323359375,0.2605338394641876,0.008552107028663158,0.031154103577136993
1772728989704854000,9.04185400390625,0.2678641974925995,0.059864748269319534,0.05192350596189499
1772728989714371800,9.051371826171875,0.281914085149765,0.14294235408306122,0.09468404203653336
1772728989723889700,9.0608896484375,0.29962918162345886,0.24740023910999298,0.1533270627260208
1772728989733407500,9.070407470703126,0.32039856910705566,0.3488037884235382,0.22235478460788727
1772728989742925600,9.079925537109375,0.3454440236091614,0.4318813979625702,0.29138249158859253
1772728989752443400,9.089443359375,0.3753764033317566,0.49052441120147705,0.3536907136440277
1772728989761961200,9.098961181640625,0.406530499458313,0.5021308660507202,0.39828383922576904
1772728989771479300,9.108479248046875,0.4309650957584381,0.46059203147888184,0.41844236850738525
1772728989780997000,9.1179970703125,0.4535670876502991,0.389120876789093,0.40378162264823914
1772728989790515000,9.127514892578125,0.46456265449523926,0.2974911332130432,0.3549124300479889
1772728989800032800,9.13703271484375,0.4560105502605438,0.1893680840730667,0.2706131041049957
1772728989809550800,9.14655078125,0.4303542375564575,0.0616973415017128,0.16310089826583862
1772728989819068700,9.156068603515624,0.39858928322792053,-0.09040798991918564,0.04581485688686371
1772728989828586500,9.16558642578125,0.364991694688797,-0.2559523284435272,-0.0720820426940918
1772728989838104300,9.175104248046875,0.33322674036026,-0.3897317349910736,-0.1795942485332489
1772728989847622400,9.184622314453126,0.31490078568458557,-0.44470956921577454,-0.24984370172023773
1772728989857140200,9.19414013671875,0.3197877109050751,-0.379347026348114,-0.2565632164478302
1772728989866658000,9.203657958984374,0.3454440236091614,-0.16065743565559387,-0.19425499439239502
1772728989876176000,9.21317578125,0.37720900774002075,0.1948658674955368,-0.08368847519159317
1772728989885694000,9.22269384765625,0.4101957082748413,0.6120865345001221,0.04520399495959282
1772728989895211800,9.232211669921876,0.45967575907707214,0.988990068435669,0.17898337543010712
1772728989904729600,9.2417294921875,0.5262600183486938,1.2437206506729126,0.2993237376213074
1772728989914247400,9.251247314453124,0.5958985686302185,1.3518437147140503,0.38850998878479004
1772728989923765500,9.260765625,0.6673697829246521,1.3164136409759521,0.4416552484035492
1772728989933283300,9.270283447265625,0.7290670871734619,1.1606431007385254,0.45387253165245056
1772728989942801200,9.27980126953125,0.7657189965248108,0.9144645929336548,0.41905322670936584
1772728989952319000,9.289319091796875,0.7657189965248108,0.6096430420875549,0.3384190797805786
1772728989961837000,9.298837158203124,0.7327322959899902,0.2932150959968567,0.22296564280986786
1772728989971355000,9.30835498046875,0.6783653497695923,0.014660755172371864,0.0824667438864708
1772728989980872700,9.317872802734374,0.619722306728363,-0.19608759880065918,-0.06902772188186646
1772728989990390800,9.327390869140626,0.5684096813201904,-0.32131487131118774,-0.2211330533027649
1772728989999908600,9.33690869140625,0.5207622051239014,-0.36712974309921265,-0.3610210716724396
1772728990009426400,9.346426513671876,0.47433650493621826,-0.3549124300479889,-0.48563748598098755
1772728990018944300,9.3559443359375,0.4370737373828888,-0.29504770040512085,-0.5864301919937134
1772728990028462300,9.36546240234375,0.4169152081012726,-0.18631376326084137,-0.6493492722511292
1772728990037980200,9.374980224609375,0.4199695289134979,-0.014660755172371864,-0.6676751971244812
1772728990047498000,9.384498046875,0.43463030457496643,0.20830489695072174,-0.6487383842468262
1772728990057015800,9.394015869140626,0.4523453712463379,0.42882707715034485,-0.5992583632469177
1772728990066534000,9.403533935546875,0.46944957971572876,0.6010909676551819,-0.5253437161445618
1772728990076051700,9.4130517578125,0.48960810899734497,0.729983389377594,-0.4373791813850403
1772728990085569500,9.422569580078125,0.5140427350997925,0.813060998916626,-0.3445277214050293
1772728990095087400,9.43208740234375,0.5287034511566162,0.8631519079208374,-0.25900667905807495
1772728990104605400,9.44160546875,0.5238165259361267,0.8820887207984924,-0.19669845700263977
1772728990114123300,9.451123291015625,0.5030471682548523,0.8381064534187317,-0.15821397304534912
1772728990123641000,9.46064111328125,0.4718930423259735,0.7525854110717773,-0.14049890637397766
1772728990133159000,9.470158935546875,0.4370737373828888,0.6701186895370483,-0.15210533142089844
1772728990142677000,9.479677001953124,0.39186975359916687,0.6004800796508789,-0.1997527778148651
1772728990152194800,9.48919482421875,0.34116798639297485,0.5290089249610901,-0.28954991698265076
1772728990161712600,9.498712646484375,0.30024003982543945,0.4147771894931793,-0.4007273018360138
1772728990171230500,9.50823046875,0.27519458532333374,0.29626941680908203,-0.5076286196708679
1772728990180748500,9.51774853515625,0.2611446976661682,0.2052505612373352,-0.5925388336181641
1772728990190266400,9.527266357421874,0.23915356397628784,0.1185077652335167,-0.6371319890022278
1772728990199784200,9.5367841796875,0.19394956529140472,0.08063415437936783,-0.6462949514389038
1772728990209302000,9.546302001953125,0.1230892539024353,0.11606431007385254,-0.6401863098144531
1772728990218820000,9.555820068359376,0.04673115536570549,0.185092031955719,-0.6310232877731323
1772728990228338000,9.565337890625,-0.015577051788568497,0.25961753726005554,-0.6340776681900024
1772728990237855700,9.574855712890624,-0.04428769648075104,0.3072649836540222,-0.6542361974716187
1772728990247373600,9.58437353515625,-0.03145953640341759,0.31642794609069824,-0.6725621223449707
1772728990256891600,9.5938916015625,0.012522728182375431,0.33719736337661743,-0.6829468011856079
1772728990266409500,9.603409423828126,0.06322450190782547,0.4062250852584839,-0.6860011219978333
1772728990275927300,9.61292724609375,0.10415244847536087,0.4935787320137024,-0.6780598759651184
1772728990285445000,9.622445068359376,0.13164135813713074,0.5699368119239807,-0.665842592716217
1772728990294963200,9.631963134765625,0.15729768574237823,0.5925388336181641,-0.6304124593734741
1772728990304481000,9.64148095703125,0.18723005056381226,0.5760455131530762,-0.5882627964019775
1772728990313998800,9.650998779296875,0.22510367631912231,0.5235111117362976,-0.5381718873977661
1772728990323517000,9.660516845703125,0.27091851830482483,0.46486809849739075,-0.500298261642456
1772728990333034800,9.67003466796875,0.32650721073150635,0.40805765986442566,-0.46547895669937134
1772728990342552600,9.679552490234375,0.40408703684806824,0.3597993552684784,-0.40378162264823914
1772728990352070400,9.6890703125,0.4535670876502991,0.3842339515686035,-0.17531819641590118
1772728990361588500,9.69858837890625,0.3912588953971863,0.30543237924575806,0.09651663154363632
1772728990371106300,9.708106201171875,0.281914085149765,0.11484257876873016,0.3035998046398163
1772728990380624100,9.7176240234375,0.24892739951610565,-0.049480047076940536,0.4471530318260193
1772728990390142000,9.727141845703125,0.27091851830482483,-0.11362084746360779,0.5039634704589844
1772728990399660000,9.736659912109374,0.28008151054382324,-0.0665842592716217,0.4776962697505951
1772728990409177900,9.746177734375,0.23487751185894012,0.07269290834665298,0.3903425931930542
1772728990418695700,9.75569580078125,0.15179990231990814,0.3084867000579834,0.30115634202957153
