time,seconds_elapsed,z,y,x
1772708616194907000,0.055906982421875,0.46075990093946456,-0.5368436081886291,-0.06907631270512939
1772708616204932000,0.06593212890625,0.3792202663719654,-0.5643307500511408,-0.10527772609479724
1772708616214957000,0.07595703125,0.3038695495724678,-0.5674480052888393,-0.1428293119844049
1772708616224983000,0.085983154296875,0.32678222312629224,-0.5320663107842206,-0.18360972372740506
1772708616235008000,0.096008056640625,0.5428291123390198,-0.519212089908123,-0.2455689709689468
1772708616245033000,0.106032958984375,0.7803741321325302,-0.48774318493306634,-0.24288112012445925
1772708616255058200,0.11605810546875,0.8461749302983284,-0.4606576096087694,-0.14790230439975857
1772708616265084000,0.126083984375,0.8094073343932628,-0.4042161759406328,-0.2801431484829634
1772708616275109000,0.136109130859375,0.6295441037178039,-0.36379824083447454,-0.46738048812299965
1772708616285134000,0.146134033203125,0.36564825261533257,-0.4486073985919356,-0.42745314954537894
1772708616295159000,0.156158935546875,0.2698112126260996,-0.49447190866619345,-0.35155469920262694
1772708616305185000,0.16618505859375,0.09715572137236594,-0.42021746267080307,-0.7212564649924635
1772708616315210000,0.1762099609375,-0.04429974497556686,-0.3854381179735064,-0.8246765074566006
1772708616325235000,0.18623486328125,-0.0543237108618021,-0.4857189856290817,-0.6333925958395004
1772708616335260000,0.196260009765625,-0.2893079402565956,-0.6647083560794591,-0.2509764195030555
1772708616345284900,0.206284912109375,-0.4713455923616886,-0.654775575608015,0.05406958997026085
1772708616355310800,0.216310791015625,-0.583733954179287,-0.4315896282956004,-0.060167870312742885
1772708616365336000,0.226336181640625,-0.311153861361742,-0.7081690198823809,-0.26570856308024376
1772708616375361000,0.236361083984375,0.06451601905226707,-0.8898124119728803,-0.11244706973489373
1772708616385386000,0.246385986328125,0.35978082188665866,-0.5081044204384089,0.29470282157007605
1772708616395412000,0.256411865234375,1.076919622427225,-0.06053834759294986,0.5668053965363651
1772708616405437000,0.26643701171875,1.5341063410550355,-0.15483166527152062,0.10725498098451644
1772708616415462100,0.276462158203125,1.5111585961878298,-0.1840583442777395,-0.1963204079469666
1772708616425487000,0.286487060546875,1.1673311302363871,-0.34445816507041455,-0.42983536850679666
1772708616435513000,0.29651318359375,0.6472966180294751,-0.6134177293032408,-0.9245822581894695
1772708616445538000,0.3065380859375,0.4077268144100904,-0.6446820516169071,-1.3590198232620954
1772708616455563000,0.31656298828125,0.3735667706549167,-0.34707506957054135,-1.2713226889781652
1772708616465588000,0.326587890625,0.4966016141712665,0.1957455672010779,-0.671128525320068
1772708616475614000,0.336614013671875,0.8515046008884907,0.26794717231988907,-0.14547975342795252
1772708616485639200,0.34663916015625,1.2114169402003288,-0.04670183768123388,0.1254705827632919
1772708616495663900,0.356663818359375,0.863822230669856,-0.24454525394439697,0.27046057991292327
1772708616505688800,0.366688720703125,0.17071195597052574,-0.1770332679465413,0.40033294129911806
1772708616515715600,0.376715576171875,-0.3132230688512325,-0.06642857467532158,0.40623182661198076
1772708616525740500,0.386740478515625,-0.5314677603691816,-0.0008963643178343773,0.38014351869672536
1772708616535765800,0.396765869140625,-0.5481640436261892,-0.058518824464082714,0.3056403221046552
1772708616545790700,0.406790771484375,-0.030872108125686644,-0.0832020148217678,0.2728410087760538
1772708616555816700,0.416816650390625,0.8016232563883066,-0.01626402931958437,0.43167646632883694
1772708616565841700,0.426841552734375,0.38454701435267924,-0.24499007510244844,1.0383813635878265
1772708616575866600,0.43686669921875,-1.2806892138689756,-0.13979367061555384,1.3722773642420767
1772708616585891800,0.446891845703125,-0.43034898058474064,0.30497721855342386,1.3857913642011581
1772708616595917800,0.456917724609375,-0.7581067707449197,-0.39207448724806304,-0.03630981480074115
1772708616605942800,0.46694287109375,-1.8517127395570276,-0.5239154452934861,-1.7269005111046134
1772708616615967700,0.4769677734375,-1.569113357028365,0.3117532885596156,-1.830758798855543
1772708616625992700,0.48699267578125,-0.7893529728800058,0.5785001451790333,-1.076606318694353
1772708616636018000,0.497017822265625,-0.22653730356693266,0.4072568588107824,-0.2911167432442307
1772708616646044000,0.5070439453125,-0.036165538358688354,0.4561526994049549,0.30615006172507997
1772708616656068900,0.51706884765625,-0.0385293448805809,0.6641179889708757,0.4697653009003028
1772708616666093600,0.527093505859375,0.05567804808020591,0.823562408734858,0.4170151960307732
1772708616676118500,0.537118408203125,0.3089519674032926,0.7879954207912087,0.39502179274633525
1772708616686144500,0.54714453125,0.6198842949688435,0.5497513128176331,0.3958782269125804
1772708616696169700,0.557169677734375,0.7964028913915157,0.4757216154888272,0.4787236103164032
1772708616706194700,0.567194580078125,0.9671142628401518,0.5928925354078411,0.5570517720241099
1772708616716219600,0.5772197265625,1.4923948590070009,0.5096273922219872,0.4673411790259182
1772708616726245600,0.58724560546875,1.8292717751681804,0.6661994714200496,0.362028125889413
1772708616736270600,0.5972705078125,2.213144835782051,0.6604299481078982,0.29591332987099883
1772708616746295800,0.6072958984375,2.6627088044464586,0.43464141708165405,0.3418239075766876
1772708616756320800,0.61732080078125,2.9829437978863713,0.009582359598577022,0.4973838871227577
1772708616766346800,0.6273466796875,3.6334225530833004,-0.30443858163207765,0.43697676469404245
1772708616776371700,0.637371826171875,3.6101726103991267,-0.6661044866129756,0.11128208107613026
1772708616786396700,0.647396728515625,-0.5804202995866536,-1.760069644126296,-1.2451494061931967
1772708616796422000,0.657421875,-1.7727730583548544,-1.6487795989394187,-1.8947597079925238
1772708616806447900,0.66744775390625,0.46689445817172526,-0.7967764008790255,-2.9516987647950645
1772708616816472800,0.677472900390625,-1.981155112028122,-1.6768211598142981,-1.9280755560085177
1772708616826497800,0.687497802734375,-1.9466747502774,-1.8661440004914998,-1.6133894288673996
1772708616836522800,0.697522705078125,-2.076528041636944,-1.610307537204027,-1.4181100178733468
1772708616846548700,0.707548828125,-2.0275866083353757,-1.1252107751265168,-1.2866484145343302
1772708616856573700,0.71757373046875,-1.5936124229907989,-0.6261763808503746,-1.3737963905028998
1772708616866598700,0.7275986328125,-1.2061170802265404,-0.3709653559848666,-1.1576488173946737
1772708616876623600,0.73762353515625,-0.7051122626602649,-0.28677608369141816,-0.8206848805371671
1772708616886648600,0.747648681640625,-0.1471072084993124,-0.2836345707952976,-0.4608337333606556
1772708616896674600,0.757674560546875,0.5023720142662524,-0.1672100853294134,-0.3519790255619213
1772708616906699800,0.76769970703125,1.0932821436852216,0.08104863618016242,-0.46592367691081016
1772708616916724700,0.777724853515625,1.579549995368719,0.298113762524724,-0.6502003766469657
1772708616926749700,0.787749755859375,1.926801006028056,0.44071956795156,-0.9991979387126863
1772708616936775700,0.797775634765625,2.1866630715698,0.6826058318197726,-1.0549337813947348
1772708616946800600,0.807800537109375,2.409075404161215,0.9570362286791205,-0.9753916773200034
1772708616956825900,0.817825927734375,2.5981255653768778,1.1510828830078244,-0.8695574133209883
1772708616966850800,0.827850830078125,2.5613182219833135,1.275874799324572,-0.842563534868136
1772708616976876800,0.837876708984375,2.3510119222491976,1.3864263011038302,-0.9328008551541715
1772708616986901800,0.84790185546875,2.132046515241265,1.5702207337483762,-0.9467116724111139
1772708616996926700,0.8579267578125,2.132387876024842,1.974010208709538,-1.0487412103649227
1772708617006952000,0.867951904296875,2.453405544275045,2.399492460040748,-1.292243019670993
1772708617016977700,0.877977783203125,2.524057874125242,2.4996125841766594,-1.118831887744367
1772708617027003000,0.8880029296875,2.557904029625654,2.1807208220392464,-0.7668890660069883
1772708617037027600,0.898027587890625,2.7851749081641435,1.8113509185522794,-0.16531272727549076
1772708617047052500,0.908052490234375,3.0755729817450046,1.3044216793730854,0.6976590240448712
1772708617057078500,0.91807861328125,3.04503229753077,1.0397367237195372,0.8998466069921851
1772708617067103700,0.928103759765625,3.237660901755094,1.499047010372579,0.6750839118823408
1772708617077128700,0.938128662109375,2.140428559139371,0.5866986492037772,1.08529377527982
1772708617087153700,0.948153564453125,0.907939020293951,-0.9514458613261579,1.4527730427145957
1772708617097178600,0.9581787109375,0.6631470981121063,-1.7669599881619213,1.7115490665853021
1772708617107204600,0.96820458984375,1.2418746223062276,-2.0324682428970933,1.7041314838051795
1772708617117229800,0.978229736328125,1.8140695298612117,-2.408770868256688,1.6850322310596704
1772708617127254800,0.9882548828125,1.1107774683654308,-2.935871957848966,2.0806220329523084
1772708617137279700,0.99827978515625,-2.3964216742932796,-3.397142146398127,3.191448308895528
1772708617147305700,1.0083056640625,-18.875635713303087,-2.771379899306595,5.034366624361276
1772708617157330700,1.01833056640625,-14.095298795068263,-1.5344053240016102,5.326081041237711
1772708617167355600,1.028355712890625,-14.088023835629224,-1.6577274600267409,5.171646266329288
1772708617177380900,1.038380859375,-14.086650209188461,-1.7664593451634047,5.030017781502008
1772708617187406800,1.04840673828125,-14.085259047091007,-1.8334505221575497,4.951207864159345
1772708617197431800,1.058431884765625,-14.09808111926317,-1.828296792656183,4.910806880187988
1772708617207456500,1.06845654296875,-14.128010978102683,-1.7402508449345826,4.910487731236219
1772708617217481700,1.078481689453125,-14.175930082619189,-1.570998732383549,4.954347915750741
1772708617227507700,1.0885078125,-14.24084942177534,-1.3329974932551383,5.04862778942585
1772708617237532700,1.09853271484375,-10.21165469596982,-1.6689423892632125,3.5835189967513084
1772708617247557600,1.1085576171875,-7.0171320941954844,-2.4081197108715773,4.223601153357326
1772708617257582600,1.11858251953125,-3.560943592327833,-3.559947859288752,3.39156902244091
1772708617267608600,1.128608642578125,-0.34802491764128207,-5.245146386826038,1.2946210008487105
1772708617277633800,1.1386337890625,2.735928354436159,-6.114327514180541,-1.1341814325675368
1772708617287658800,1.14865869140625,4.833953942131996,-5.168313907036185,-2.3304881896585226
1772708617297683700,1.15868359375,4.728754030513763,-3.6662478411033748,-1.7680128582157193
1772708617307708700,1.168708740234375,3.332808205914497,-1.96494193611294,-0.6619088615540415
1772708617317734700,1.178734619140625,1.894540073892474,-0.11187690516412258,-0.15407942213211206
1772708617327759600,1.188759521484375,0.06656944445073604,1.2742305392488837,-0.3750572284083813
1772708617337784800,1.198784912109375,-1.9223107088714837,1.9902751148119568,-1.012811161262542
1772708617347809800,1.208809814453125,-2.8446242914766073,2.303662726575136,-1.9085757596381008
1772708617357835800,1.218835693359375,-2.885048656323552,2.7218744023814794,-2.2613884960778057
1772708617367860700,1.22886083984375,-2.127164588418603,3.5037481254220006,-2.0617226866930722
1772708617377885700,1.2388857421875,-0.9169336431324482,4.057065314027667,-1.4294222700044512
1772708617387910700,1.24891064453125,0.49884851631522176,4.2900183298557995,-0.9953939433198422
1772708617397937000,1.25893701171875,1.950178959006071,4.09894630742371,-0.8197801137171685
1772708617407961600,1.268961669921875,3.1130560324430463,3.572377425011992,-0.7478465849500149
1772708617417986600,1.278986572265625,3.7646997397661206,3.283321998211741,-0.38603922567181287
1772708617428011800,1.28901171875,3.808860368531942,3.4565848077088592,0.19805464786104857
1772708617438037800,1.299037841796875,3.3941759900689124,3.7693537030518054,0.8774641678575426
1772708617448062700,1.309062744140625,2.988552285417914,4.256393123629689,1.3622104359969496
1772708617458087700,1.319087646484375,2.8567811777383088,4.722392094266414,1.605628439477086
1772708617468112600,1.329112548828125,3.25644918885529,4.727294479355216,1.4376725042164324
1772708617478137900,1.339137939453125,3.903813611423969,4.261781830930709,1.0046140454772858
1772708617488163600,1.34916357421875,4.50150770189464,3.6266619729071854,0.46862551974803207
1772708617498188800,1.359188720703125,4.684436749881506,3.2308962299257513,0.14515470445835962
1772708617508213800,1.3692138671875,4.140639669293165,3.1904736186444755,0.011707242798060178
1772708617518238200,1.37923828125,3.3685634099066255,3.4197558370053764,0.07654891360811888
1772708617528264200,1.38926416015625,2.8005735528260467,3.789550103384256,0.3014995873044245
1772708617538289400,1.399289306640625,2.3108330565959214,4.334283003517985,0.5820189669549465
1772708617548314400,1.409314453125,1.7088684491991997,4.963230894908309,0.8723323579270392
1772708617558339300,1.41933935546875,1.1130477513849735,5.485421123844385,1.03460769026801
1772708617568365300,1.429365234375,0.8512374743849038,6.019086686518788,1.0439207314059138
1772708617578390300,1.439390380859375,0.9492670559823513,6.482065432551503,0.7979812466241419
1772708617588415500,1.44941552734375,1.3621335713684557,6.741224318259954,0.26049013431221246
1772708617598440400,1.4594404296875,1.8462778550267218,6.867095261985063,-0.41325244596377014
1772708617608466400,1.469466552734375,2.347048279315233,6.732814217311144,-1.1655143631380052
1772708617618491400,1.479491455078125,2.963462852346897,6.351300287044048,-1.6520879928350447
1772708617628516400,1.489516357421875,3.1457460036456584,5.778671079725027,-1.9204492989137767
1772708617638541300,1.499541259765625,2.551684716719389,5.205868853926658,-2.0113461060218514
1772708617648566300,1.509566162109375,1.6965578336805105,4.760406475362181,-2.029557031625509
1772708617658592300,1.51959228515625,1.0374012665092944,4.856698273381591,-2.7775822610780594
1772708617668617200,1.5296171875,0.5566168146729469,3.5851807924836874,-2.70507962718606
1772708617678642200,1.53964208984375,-0.40117315498292444,-0.2764204016327858,-0.17919658346027134
1772708617688667400,1.54966748046875,-1.4875240381002426,-4.095809762963652,2.353925325477868
1772708617698693400,1.559693359375,-0.8477306353077292,-5.19536616461277,3.205089588496089
1772708617708718300,1.56971826171875,1.184215337280929,-5.848160211014747,2.3833733921498057
1772708617718743300,1.579743408203125,2.400547814312577,-8.40802589610219,0.35270481908582146
1772708617728768300,1.589768310546875,0.5332751020520925,-10.73902086623907,-0.5950272824142128
1772708617738794200,1.599794189453125,-3.7066435643777247,-9.650960841116309,0.9723093472652137
1772708617748819500,1.6098193359375,-6.863526171326637,-7.13362906037569,2.9584914936751128
1772708617758844400,1.619844482421875,-6.987214510315656,-7.134343930646777,3.583894259804487
1772708617768869400,1.629869384765625,-4.570354443627596,-8.705172859421372,2.2938060800798237
1772708617778895400,1.639895263671875,-2.228974857598543,-10.034337642645836,1.0840053429044783
1772708617788920300,1.64992041015625,-0.7142588611900806,-11.32655421270132,2.8157074090719223
1772708617798945500,1.659945556640625,-0.5800491281867027,-10.357211167895793,4.343146985714137
1772708617808970200,1.66997021484375,-0.49000820725560185,-8.013467190822958,2.230081503666192
1772708617818996500,1.67999658203125,0.8898071512758732,-6.018884441944956,-0.08968217062130569
1772708617829021200,1.690021240234375,2.6527964822411536,-4.090998563289642,-1.3429641759961843
1772708617839046100,1.700046142578125,3.37663039650619,-2.3964941550076007,-1.1446584029182791
1772708617849071400,1.7100712890625,2.110793299332261,-0.6470891127586365,0.07656798363476991
1772708617859096300,1.720096435546875,-0.21627251466214656,1.5556243453800678,0.6243630478180945
1772708617869122300,1.730122314453125,-1.927905167877674,3.15683906006813,0.5466156451404094
1772708617879147300,1.740147216796875,-2.241155709257722,4.178477524778247,-0.16356778330430388
1772708617889172200,1.750172119140625,-1.6706401330918073,4.674867542025447,-0.39460269055143
1772708617899197400,1.760197509765625,-0.5569605135440826,4.72325718666315,0.02240625840164721
1772708617909223400,1.770223388671875,1.1880115146934986,4.566414181569218,0.11150807185173034
1772708617919248400,1.780248291015625,3.523625376802683,4.34067124325037,-0.21172179255522786
1772708617929273300,1.7902734375,5.537403824537992,4.220331045645475,-0.390504826778546
1772708617939298300,1.80029833984375,6.673477062201499,4.1617742272585625,0.02121229937672615
1772708617949324300,1.81032421875,6.1114300391733645,4.454714971059561,1.152635446212068
1772708617959349500,1.820349609375,4.185686433243752,5.133998964980244,2.7145275467500087
1772708617969374500,1.83037451171875,2.3197306488007308,5.841650390729308,3.535877540132403
1772708617979399400,1.8403994140625,0.9360533541440963,6.3030982739329335,3.009892302827537
1772708617989425400,1.85042529296875,0.07554302450120448,6.139371939066052,1.6025731435596942
1772708617999450400,1.860450439453125,0.04360884010195732,5.52927721670568,-0.17479655840303748
1772708618009475300,1.870475341796875,0.8003174344867467,4.604956970453262,-1.8786499924518167
1772708618019500300,1.880500244140625,2.0182284128814936,3.7690859920263287,-2.834587173847854
1772708618029525200,1.890525146484375,3.0879677684158087,3.5636265478014946,-2.669198458726704
1772708618039551200,1.90055126953125,3.9033255356460805,3.792827517619729,-1.9601098397813737
1772708618049576200,1.910576171875,4.325294225898385,3.9429987898647783,-0.9549825110197067
1772708618059601400,1.920601318359375,4.160251547735929,3.9327071129530666,0.07061882943939417
1772708618069626400,1.93062646484375,3.4949084008842703,4.106299008274078,0.5753518372159451
1772708618079652400,1.94065234375,2.349090598797798,4.416928553500771,0.6130139708079397
1772708618089677300,1.95067724609375,0.9770178172171116,4.677363450494409,0.47014374229125677
1772708618099702300,1.960702392578125,-0.09535071777701377,4.9474979037255045,-0.23585958745721727
1772708618109727500,1.9707275390625,-0.9263555514723062,5.130490080076456,-1.028319549909234
1772708618119753500,1.98075341796875,-1.090728367549181,5.243240845465659,-1.5249103504255412
1772708618129778400,1.9907783203125,-0.2927455134898424,5.226471496972441,-2.015190214229375
1772708618139803400,2.000803466796875,0.6772831754922867,5.118648251113295,-2.114547683429718
1772708618149828400,2.010828369140625,1.4563129072785377,5.2539387650907035,-1.8753239167690277
1772708618159853300,2.020853271484375,2.2023341034322974,5.374413987252116,-1.3314356507658958
1772708618169879600,2.030879638671875,2.4181296482324597,5.393077771189809,-0.8734551514118909
1772708618179904300,2.040904296875,1.8259318170905112,5.334834841057658,-0.29289105944037436
1772708618189929200,2.05092919921875,1.1760177100390194,4.693717203924059,1.2259516615092754
1772708618199954200,2.0609541015625,0.7820067017704248,3.3771687411665914,3.0075378486558795
1772708618209980200,2.070980224609375,-0.034462533833086485,1.0132534982025623,4.140217059966922
1772708618220005400,2.08100537109375,-1.1091945830881595,-2.1743290751755238,3.91195220195502
1772708618230030300,2.0910302734375,-1.7072423093020914,-4.40171227966845,2.795658308255672
1772708618240055300,2.10105517578125,-2.7655753046810627,-5.055451497966051,1.5105689597316085
1772708618250081300,2.111081298828125,-4.0728865680158135,-5.5939890505909915,0.12381254989057779
1772708618260106200,2.121106201171875,-4.541947264310718,-6.224019476521015,-2.5826567780882117
1772708618270131500,2.13113134765625,-3.5929371056988835,-8.25815273002088,-5.932044362881779
1772708618280156400,2.141156494140625,-1.903289197537303,-11.479212625586985,-7.155193241930007
1772708618290182400,2.151182373046875,-1.789525163452327,-13.548625866782665,-4.946621120890975
1772708618300207400,2.161207275390625,-1.9018240934208035,-13.504324952763318,-4.988534847512841
1772708618310232300,2.171232421875,-1.9762375293701886,-13.476222309350966,-5.036441092547774
1772708618320257500,2.181257568359375,-1.9995783652082084,-13.468078750383853,-5.078570507746934
1772708618330282200,2.1912822265625,-1.9672481672286986,-13.481464301657676,-5.128985520732402
1772708618340308500,2.20130859375,-1.8963050377383828,-13.510388782846928,-5.183600908017159
1772708618350333200,2.211333251953125,-1.8285382001966237,-13.538314900648594,-5.218591557377577
1772708618360358100,2.221358154296875,-1.8016341189190743,-13.549109850907325,-5.218586881202459
1772708618370383400,2.23138330078125,-6.3973068359375,-9.579987024226783,4.393400086136162
1772708618380409300,2.241409423828125,-4.840824704684317,-8.143905588594079,1.5766722479753195
1772708618390434300,2.251434326171875,-2.244404189659655,-6.660162238076329,-1.8388712320320306
1772708618400459300,2.261459228515625,-1.3129983690604567,-5.235305376291275,-3.537316048502922
1772708618410484200,2.271484130859375,-1.0706696221217513,-3.783862120875716,-2.864918306964636
1772708618420510200,2.28151025390625,0.1845624944075942,-2.808870256528258,-0.38236594398654994
1772708618430535400,2.291535400390625,1.7054904971987008,-1.540981487521529,2.5623411352902647
1772708618440560400,2.301560302734375,2.210101230302453,0.41697102809548375,4.910625678402186
1772708618450585300,2.31158544921875,1.2451517442807554,2.6095266648352147,6.165993404009938
1772708618460611300,2.321611328125,-1.5110364311128854,4.697126135584711,6.829383663228154
1772708618470636300,2.33163623046875,-4.387964909344912,6.508916030076146,6.234817349389195
1772708618480661500,2.34166162109375,-5.841397292751074,7.513759427329897,3.158454386310279
1772708618490686500,2.3516865234375,-5.411316607713699,7.396792505550384,-0.5446715253353118
1772708618500711400,2.36171142578125,-3.304055281899869,6.748768157768249,-2.4049235451787707
1772708618510737400,2.3717373046875,-0.6114212947890162,6.179813839569688,-1.9551953258633612
1772708618520762000,2.38176220703125,1.811575082696974,5.801223103272915,-0.5870200631778687
1772708618530787300,2.391787353515625,3.543386016066372,5.68278552441895,0.3395597255043685
1772708618540812300,2.401812255859375,4.738671028894186,5.420386049354076,1.18118736776188
1772708618550838300,2.41183837890625,5.246421813589334,5.141194429442286,1.4500583769284188
1772708618560863200,2.42186328125,4.720249529279768,5.195027141916752,1.0340038791559636
1772708618570888200,2.43188818359375,3.3550314358994364,5.132522462686896,0.31143275136835874
1772708618580913400,2.441913330078125,1.7954656594172118,4.871524671113491,-0.4003347313974052
1772708618590939400,2.451939453125,0.4839245034277439,4.90899369328618,-1.0270089057020841
1772708618600964400,2.46196435546875,-0.0075333181142807,4.8780531960994,-2.1115382724806664
1772708618610989000,2.471989013671875,0.3495782845631242,4.440930191335082,-3.271669554340839
1772708618621014000,2.482013916015625,1.1565543001562357,4.033264751723409,-3.720257663710415
1772708618631039200,2.492039306640625,2.0017934109091757,4.242615942689776,-3.278946559606492
1772708618641065200,2.502065185546875,2.4747128284588453,4.717724102455377,-2.2571927979536355
1772708618651090200,2.512090087890625,2.610302033121884,5.215774161869287,-1.0740475010570139
1772708618661115100,2.522115234375,2.3167077938482166,5.702579189169406,-0.06688084848746657
1772708618671140000,2.53214013671875,1.7709727309346197,6.141802381083369,0.48925742542091755
1772708618681166000,2.542166015625,1.3576976347476244,6.4096338180691,0.408132509134151
1772708618691191300,2.55219140625,0.49548576188385485,6.6242357691705225,-0.25996300516556947
1772708618701216300,2.56221630859375,-0.6801902951106429,6.8457391702234744,-0.6861332752935588
1772708618711241200,2.5722412109375,-1.473742473246157,6.895916282799839,-1.0004404861196874
1772708618721267200,2.58226708984375,-1.683231319117546,6.96008918750286,-1.6878467039585112
1772708618731292200,2.592292236328125,-1.4784122186228632,7.151715336686372,-2.018889214877784
1772708618741317400,2.6023173828125,-1.1601745364800096,7.544417015922069,-1.6452362272441385
1772708618751342300,2.61234228515625,-0.4474279795490205,7.911617758676409,-0.787663850749284
1772708618761368300,2.622368408203125,0.6009685820966959,8.021534761944412,-0.49430900972206143
1772708618771393300,2.632393310546875,1.1912982812792061,7.767356002736091,-0.556171482058242
1772708618781418200,2.642418212890625,1.27619087953642,7.161575636443495,-0.8306081625279038
1772708618791443200,2.652443115234375,0.6888461875140667,5.871520043814182,-1.4471750765770672
1772708618801468200,2.66246826171875,-0.4433281430147588,4.50053856460154,-0.9828333716280758
1772708618811494100,2.672494140625,-0.7522627208918332,2.948488570576906,0.4014106535332277
1772708618821519000,2.68251904296875,-0.48625250798389313,0.4745779984116554,1.382203276581317
1772708618831544000,2.6925439453125,0.14978446488454938,-1.645897906023264,1.6549606256619094
1772708618841569300,2.7025693359375,2.080110722429305,-3.731119541725516,1.9153104747205971
1772708618851595300,2.71259521484375,5.077222600269318,-6.991409039396047,2.4801272547230124
1772708618861620200,2.7226201171875,6.846242443570494,-9.841035084682703,1.7351006225645542
1772708618871645200,2.732645263671875,6.2870110624849795,-12.166364868664742,-0.44275458091050385
1772708618881670100,2.742670166015625,6.28120909820795,-12.165152570265532,-0.41375560971293596
1772708618891696000,2.752696044921875,6.315757849019765,-12.16992811410427,-0.4252217372315004
1772708618901721300,2.762721435546875,6.4019339112162585,-12.182717453050612,-0.4682828437902033
1772708618911746300,2.772746337890625,6.556606002011895,-12.207848387175797,-0.5355887127567083
1772708618921771300,2.782771240234375,6.774920836156606,-12.247558466273546,-0.6051466714989394
1772708618931797200,2.79279736328125,7.030043598216771,-12.299158889651299,-0.637672611246258
1772708618941822200,2.802822265625,7.275908702588081,-12.353458635115622,-0.6093817883180453
1772708618951847400,2.812847412109375,7.470847921842336,-12.399831094712018,-0.5371821559606119
1772708618961872100,2.8228720703125,7.6101991093873975,-12.435381716042757,-0.45922808826230466
1772708618971897000,2.83289697265625,-3.61216173838973,-8.95614843867421,-2.433751726386696
1772708618981923000,2.842923095703125,-0.17396423576474188,-8.064648512005805,-2.2961297007218002
1772708618991948000,2.852947998046875,1.5362211412519216,-6.778629043024778,-1.5106417327068746
1772708619001973200,2.86297314453125,0.9368798680961131,-5.5409992186814545,-1.644971584958583
1772708619011998200,2.872998291015625,-0.39428076512068505,-4.187641074442864,-2.5177348085835574
1772708619022024200,2.883024169921875,-1.2214347686067222,-2.841303038099408,-3.077973905406892
1772708619032049200,2.893049072265625,-1.5007719344690442,-1.5811878257036207,-3.094391663983464
1772708619042074000,2.90307421875,-1.4732064666733145,-0.011005962660908699,-2.3114399364478886
1772708619052099300,2.913099365234375,-1.4469994277492164,1.9674509963244198,-1.2488798248931765
1772708619062125300,2.923125244140625,-1.634864178572595,3.7281104230374096,-0.16274327864628285
1772708619072150300,2.933150390625,-1.2125965053737162,5.128125689032673,0.8498939508214592
1772708619082175200,2.94317529296875,0.22393559663593768,6.084518066850304,1.4476543845266103
1772708619092200200,2.9532001953125,1.979230281445384,6.358005337640643,1.8237661634892224
1772708619102225400,2.963225341796875,3.42441213837862,6.320826822847128,2.06923832302019
1772708619112251400,2.97325146484375,4.216827713699638,6.237200445133447,2.301487720623612
1772708619122276400,2.9832763671875,4.181917436099052,6.352217986410856,2.392541910250485
1772708619132301000,2.993301025390625,3.2197470594018696,6.7025985272675745,2.538164725410938
1772708619142326000,3.003325927734375,2.1733336343973875,6.928093628305196,2.739462958303094
1772708619152352000,3.01335205078125,1.5843313844263553,6.992770975399017,2.4458888850346208
1772708619162377200,3.023377197265625,1.255449266411364,6.732687960582971,1.9137486322313546
1772708619172402200,3.033402099609375,1.3644564613580703,6.408532578828931,1.1819405972819774
1772708619182427100,3.04342724609375,1.56791041097939,5.982400923678279,0.3420242159217596
1772708619192453000,3.053453125,2.0174416464179754,5.512665104600787,-0.40242549313157794
1772708619202478000,3.06347802734375,2.591108672352135,5.0706584194481366,-0.9874347279436886
1772708619212503300,3.07350341796875,3.0592671591103073,4.837736967802048,-1.2884988647066056
1772708619222528300,3.0835283203125,3.2502100022047755,4.877160631173849,-1.4848723545476794
1772708619232554200,3.09355419921875,3.283710413007438,5.259845943307877,-1.4528677352607249
1772708619242579200,3.1035791015625,2.970872544081509,5.808003557193279,-1.043804046223685
1772708619252604200,3.113604248046875,2.242363916003704,5.880713988617062,-0.32609066066555675
1772708619262629400,3.12362939453125,1.4080322759732604,5.830017236080765,0.06507401826120912
1772708619272654300,3.133654296875,0.8138017699599266,5.790504140859842,0.0606385200317949
1772708619282680300,3.143680419921875,0.5999392390489577,5.58420123154819,0.03328296865969896
1772708619292705300,3.153705322265625,0.802644416129589,5.277203320822119,0.04375131731256842
1772708619302730200,3.163730224609375,1.014841059654951,5.0143946804344655,-0.10085727930404245
1772708619312755200,3.173755126953125,0.8071651084244251,4.842764440575242,-0.4014349477242678
1772708619322781200,3.18378125,0.3349351344436407,4.734327446731925,-0.7561277988221496
1772708619332806100,3.19380615234375,0.08524316526055335,4.721145893597603,-1.1595363847069442
1772708619342831000,3.2038310546875,-0.18139526254832744,4.597746892943978,-1.2921204162046314
1772708619352856000,3.21385595703125,-0.4036448057934642,4.691162843266129,-0.83030530712381
1772708619362882000,3.223882080078125,-0.42611411949396133,4.946067578661442,-0.21125640353318303
1772708619372907300,3.2339072265625,-0.38503772047907114,5.030458511006832,0.10035581432161852
1772708619382932200,3.24393212890625,-0.7021583812907338,4.782582651335001,0.10513678325414658
1772708619392957200,3.253957275390625,-1.495891468951106,3.8660400533467527,0.21666653721472248
1772708619402983200,3.263983154296875,-2.6635782807573674,2.332831537914276,0.706695805524662
1772708619413008100,3.274008056640625,-3.5607878172442313,0.13173369827866555,1.5227441123023628
1772708619423033300,3.284033447265625,-3.445741926655173,-2.4787708716779946,2.11532743563056
1772708619433058300,3.294058349609375,-1.8673869862899184,-4.917588503152132,1.6288883190333843
1772708619443083300,3.304083251953125,0.25964199305027724,-7.872181235823035,-0.29927871465086936
1772708619453109200,3.314109130859375,0.5394274872019886,-11.887597027122974,-1.542624870814383
1772708619463134200,3.32413427734375,0.4493304521694779,-11.856287696623802,-1.5725851247921585
1772708619473159400,3.334159423828125,0.39014205788075923,-11.834309673571585,-1.6573986664637923
1772708619483184000,3.34418408203125,0.374802742190659,-11.826961064374446,-1.7729251801766455
1772708619493210400,3.35421044921875,0.41933629592210053,-11.840358306086063,-1.8904012205220757
1772708619503235000,3.364235107421875,0.515420588670671,-11.872559616988896,-1.9944043235711753
1772708619513260000,3.374260009765625,0.6436167604729532,-11.918155831515788,-2.0911365588344633
1772708619523285500,3.384285400390625,0.7769687076032161,-11.96791033476591,-2.160877326797694
1772708619533311500,3.3943115234375,0.8975961977168917,-12.013874798083304,-2.179824165460467
1772708619543336700,3.404336669921875,1.0079334722235798,-12.056479429578781,-2.1607157064951954
1772708619553361700,3.414361572265625,1.1230758089244366,-12.10215630812645,-2.121263109289855
1772708619563386600,3.42438671875,-0.7977835320949554,-9.850484465551375,-0.4741674448493868
1772708619573412600,3.43441259765625,-0.130466454821825,-7.34601684255898,-2.122795725684613
1772708619583437600,3.4444375,-1.0388944276764989,-5.010814483860135,-3.3286335505783557
1772708619593462800,3.454462890625,-2.5319296304136514,-2.71880595472157,-3.42552185318619
1772708619603487700,3.46448779296875,-3.488228484728932,-0.4682803595721721,-2.6332263971135017
1772708619613512400,3.474512451171875,-3.840511059814691,1.2700719582647084,-1.9658548131741582
1772708619623538700,3.48453857421875,-3.515112984523177,2.710008315759897,-1.3123761455088854
1772708619633563400,3.4945634765625,-2.835212320008874,3.930311742249131,-0.2937564623643644
1772708619643588600,3.504588623046875,-1.947235891291499,4.8661833100855345,0.6190156954407692
1772708619653613600,3.514613525390625,-0.6197688518956304,5.400827362403273,0.6880082753852009
1772708619663639600,3.5246396484375,1.1573510034918784,5.471447543549537,0.3613545009441674
1772708619673664500,3.53466455078125,3.05952434874177,5.398423223870992,0.11972995675206184
1772708619683689500,3.544689453125,4.853289341720938,5.040618085971475,-0.09236854189475997
1772708619693714700,3.554714599609375,6.074408176246285,4.667057160535454,-0.17165091732107102
1772708619703740700,3.56474072265625,6.472927601850032,5.0087394311517475,-0.49370351810958235
1772708619713765600,3.574765625,5.5232922970771785,5.780589480566978,-0.8486655780702829
1772708619723790600,3.58479052734375,3.0171015035539863,6.161458098667859,-0.6526422168411314
1772708619733815600,3.594815673828125,0.5184241544008255,6.444682335096597,-0.4951696816720068
1772708619743840800,3.6048408203125,-0.2918710687428713,6.811035521110892,-0.7822919484525919
1772708619753866800,3.61486669921875,0.21824293795228003,6.785766639819741,-0.98740192165263
1772708619763891700,3.6248916015625,1.3877654407531022,6.248281811118126,-1.198381736734137
1772708619773916700,3.634916748046875,2.6938772651702165,5.609765880915522,-1.0970774443149567
1772708619783941600,3.644941650390625,3.654708502218127,5.357354715901613,-1.0734000699989497
1772708619793967600,3.654967529296875,4.275754242181778,5.234130487293005,-1.06413766306974
1772708619803992600,3.66499267578125,4.696808447937667,5.264247393137216,-0.9681515699986368
1772708619814017500,3.675017578125,4.8485953386858105,5.2663966801255935,-1.1897715101033448
1772708619824042500,3.68504248046875,4.692285417555272,5.3171857871204615,-1.4316788167595862
1772708619834068500,3.695068359375,4.070946832124888,5.641879513534903,-1.4658382759928703
1772708619844093400,3.705093505859375,3.258476310768723,6.128177175834774,-1.2258032660145313
1772708619854118700,3.71511865234375,2.541296009173989,6.342492711210251,-0.5497906949799507
1772708619864143600,3.7251435546875,1.876552289520204,6.10409078232646,0.3749975341103971
1772708619874168600,3.73516845703125,1.3819512015163897,5.655336961001157,0.8907335454057902
1772708619884194600,3.745194580078125,1.323924836744368,5.12777906755209,1.1251717582903802
1772708619894219500,3.755219482421875,1.520451325190067,5.289714427348971,0.9225368699669837
1772708619904244700,3.76524462890625,1.5698068922504782,5.681030789706111,0.5180234646454454
1772708619914269700,3.775269775390625,1.2603358694091438,5.8088756638526915,0.11777217374779284
1772708619924295700,3.785295654296875,0.35079087522327895,5.849024134367704,-0.45812125953156496
1772708619934320600,3.795320556640625,-0.43929888749867674,6.364497622269392,-0.9291903365068137
1772708619944345600,3.805345703125,-1.1223039477691055,7.155269814297556,-1.0686724569551647
1772708619954370800,3.815370849609375,-1.6971210205212235,6.833124018800258,-0.906065481507033
1772708619964396800,3.825396728515625,-1.7344249152600764,5.337509613224864,-0.889901405430585
1772708619974421800,3.835421875,-1.7378148499593138,3.466208960622549,-0.9075683603506535
1772708619984446500,3.845446533203125,-1.9058862282931803,1.4263035534620285,-0.3884034705851227
1772708619994471400,3.855471435546875,-2.433780806350708,-0.29068215121924873,0.6772527072887867
1772708620004496600,3.86549658203125,-3.060869918131828,-1.9932664055824278,1.4846426374450326
1772708620014522600,3.875522705078125,-3.5711443760856985,-4.228310938483476,2.445297348882258
1772708620024547600,3.885547607421875,-3.039525224547088,-7.251760934281349,2.232541025647521
1772708620034572500,3.895572509765625,-2.826403575131297,-10.661522616016864,0.9447342348583042
1772708620044597500,3.905597412109375,-3.2882392886087297,-13.060070780944823,0.053236573212221264
1772708620054623500,3.91562353515625,-3.4017288896664977,-13.018223689818381,0.06173771344535053
1772708620064648700,3.925648681640625,-3.4645740528970954,-12.996355556881428,0.05184289036411792
1772708620074673700,3.935673583984375,-3.444876541997492,-13.004143726539612,0.03267367765493691
1772708620084698600,3.94569873046875,-3.346254839725792,-13.04133451629281,-0.00409326066300273
1772708620094724600,3.955724609375,-3.199788559478521,-13.098663254189491,-0.051134632496908305
1772708620104749600,3.96574951171875,-3.0392867396160956,-13.163276303875445,-0.07558763082791119
1772708620114774800,3.97577490234375,-2.8923978500425815,-13.223860828697681,-0.07252371321264654
1772708620124799700,3.9857998046875,-6.793229815307259,-9.429036584302782,0.336926637054421
1772708620134825700,3.99582568359375,-6.1050692719697945,-7.191418986043334,-1.242968555022776
1772708620144850700,4.0058505859375,-4.814591362275183,-6.3097507175594565,-3.1705425912499425
1772708620154875400,4.01587548828125,-2.739733591938019,-5.642374019053578,-4.236490153285861
1772708620164900600,4.025900634765625,-0.27359423829615115,-4.689728426548839,-3.9773873816788194
1772708620174925600,4.035925537109375,1.377174488633871,-3.517601294207573,-3.4262460758075117
1772708620184951600,4.04595166015625,2.069550019317865,-1.80689218557775,-2.8666028990507124
1772708620194976500,4.0559765625,1.775992897184193,0.23191139782071113,-2.068423499505967
1772708620205001500,4.06600146484375,0.8129518751323223,2.265730763065815,-0.9969300668459385
1772708620215026700,4.076026611328125,0.10802841304242611,4.293723029592633,0.5738918476659804
1772708620225052700,4.086052734375,-0.16052636978179216,5.906858483698964,2.1246841697797176
1772708620235077600,4.09607763671875,0.028686580780148505,6.7857035114556545,2.6030273659437895
1772708620245102600,4.1061025390625,0.7349217099905013,6.979630338796973,2.2737314064308998
1772708620255127600,4.11612744140625,2.1526655248999593,6.632915334710479,2.1200071178793904
1772708620265153500,4.126153564453125,3.295972220948338,6.04509966417551,1.9889954502649605
1772708620275178800,4.1361787109375,3.554361875849962,5.753613795357942,1.6975591196775435
1772708620285203700,4.14620361328125,2.9553602099120617,5.731943815341592,1.086663090871647
1772708620295228700,4.156228759765625,1.9096143089056015,5.734278980290889,0.2381651975184679
1772708620305253600,4.166253662109375,1.2040595631748436,5.76098461638689,-0.40480796782132233
1772708620315279600,4.176279541015625,0.969773252916336,5.800656117039918,-0.8418531215764582
1772708620325304600,4.1863046875,1.1136983242481946,5.43779778740406,-0.9756140878990291
1772708620335329500,4.19632958984375,1.3781225831389425,4.733752277192473,-0.6643453679859638
1772708620345354500,4.2063544921875,1.502306888951361,4.3520086298227305,-0.29747301693577316
1772708620355380500,4.21638037109375,1.9838509269833564,4.375610454684495,-0.6299288652516901
1772708620365405400,4.226405517578125,2.8990108384415505,5.133376449167728,-2.045162012514472
1772708620375430700,4.2364306640625,3.9331618709832425,6.263674610561132,-3.323521029870212
1772708620385455600,4.24645556640625,4.577940076451004,6.91100337729454,-3.5235695549622177
1772708620395481600,4.256481689453125,4.717101002120971,6.853086025854945,-2.592283561350405
1772708620405506600,4.266506591796875,4.506040961410105,6.522341913360357,-1.4319456510022281
1772708620415531500,4.276531494140625,4.05405561081767,6.34070348970592,-0.4881302845545113
1772708620425556700,4.286556640625,3.3989743302613493,6.308397549384832,0.16284524118341503
1772708620435581700,4.296581787109375,3.010276625970006,6.016432957139611,0.8570352739434689
1772708620445607700,4.306607666015625,2.985653933627903,5.968031622064113,0.8867691718194634
1772708620455632600,4.316632568359375,3.228741097718477,6.427710742029547,0.5839110643118619
1772708620465657600,4.32665771484375,3.3246015185832976,6.892613149601221,-0.006602467004954814
1772708620475682800,4.336682861328125,2.9728280620634555,6.802276460593938,-0.5401281828172505
1772708620485708800,4.346708740234375,2.751510538971424,6.114591133552789,-0.43179464934840794
1772708620495733800,4.356733642578125,2.6300401682928203,5.444499330869316,-0.48110301626622676
1772708620505758500,4.366758544921875,2.1670430098205804,5.4481894175589085,-0.8116523368410765
1772708620515783400,4.376783447265625,1.417350431677699,5.817428388142585,-0.9780204183883965
1772708620525809400,4.386809326171875,0.7433566531196236,6.148423260527849,-1.301377197110653
1772708620535834600,4.396834716796875,0.15163666862249373,5.7220250633955,-1.8613830697000027
1772708620545859300,4.406859375,-0.3331102571040392,4.843279988881945,-1.8922190835990012
1772708620555884300,4.41688427734375,-0.20538053376972673,3.4152351447105405,-0.8923945374205708
1772708620565909500,4.426909423828125,-0.05188830040842295,1.1558306620568037,0.869407921847701
1772708620575935500,4.436935546875,-0.7822723669692874,-0.8688082023888826,1.7797342756696044
1772708620585960400,4.44696044921875,-2.1552938275769353,-1.7045844882696866,0.9652915774576365
1772708620595985400,4.4569853515625,-2.575046887606382,-3.0424557250410316,0.87722414855659
1772708620606010400,4.46701025390625,-2.120452231298387,-5.218457701864838,2.205545905085653
1772708620616036400,4.477036376953125,-1.4953680295988916,-8.243347959598898,2.761535089379549
1772708620626061300,4.487061279296875,-0.8795525915041565,-13.093732227528095,3.005740443845093
1772708620636086500,4.49708642578125,-0.7269467855885624,-13.16524380455613,2.9485192579761144
1772708620646111500,4.507111572265625,-0.5504536158680916,-13.248421269458532,2.895977754355967
1772708620656137500,4.517137451171875,-0.37204438339322804,-13.330737149095535,2.864502419640124
1772708620666162400,4.527162353515625,-0.20466566349864004,-13.408169932866096,2.8479359002426263
1772708620676187400,4.5371875,-0.05594955849796533,-13.482662571531533,2.8256843209460376
1772708620686212600,4.547212646484375,0.07393792739212512,-13.555320980507135,2.7907994700476526
1772708620696237600,4.557237548828125,0.18293255511820317,-13.617510602438449,2.7643834645479917
1772708620706263600,4.567263671875,0.26941198417544365,-13.662834429764747,2.760039297863841
1772708620716288500,4.57728857421875,0.33817923093140123,-13.695322156393527,2.769998381820321
1772708620726313500,4.5873134765625,0.4005743123069405,-13.724683859956263,2.7812770239427684
1772708620736338400,4.59733837890625,-4.135691106975078,-9.3941686845392,2.788653690190613
1772708620746364400,4.607364501953125,-3.3670863230913874,-6.87599636132121,2.5772172173827883
1772708620756389400,4.617389404296875,-2.4781129922911522,-5.72183860091269,2.3969527124300596
1772708620766414300,4.627414306640625,-1.0109493129134177,-4.5762931860268115,2.056401783931255
1772708620776439600,4.637439453125,0.3728384563803673,-3.0449054562807083,2.338927808962762
1772708620786465300,4.64746533203125,0.28854630823433397,-1.6254694505006073,2.217462114459276
1772708620796490500,4.657490478515625,-1.2942962989389895,0.2933265282481909,2.279268290030956
1772708620806515500,4.667515380859375,-2.6439380530029535,2.8314643656522036,2.9454999101549384
1772708620816540400,4.67754052734375,-3.256016642656922,4.8780134486109015,2.828923448997736
1772708620826565600,4.687565673828125,-3.056261547553539,6.386132530972361,2.4399767383813855
1772708620836591400,4.69759130859375,-2.165009458166361,7.531739320656657,2.116925518476963
1772708620846616600,4.707616455078125,-1.0039543394595385,8.257623737710714,1.5189982037723064
1772708620856641500,4.7176416015625,0.4458177678734064,8.585917534443736,1.0828038581602275
1772708620866666500,4.72766650390625,1.9994956553608179,8.34063929004967,0.645476709125936
1772708620876692500,4.7376923828125,3.0539091392084954,7.742752891877293,-0.18747502085343
1772708620886717400,4.747717529296875,3.6787311828404663,6.932852805531025,-0.9969216643437743
1772708620896742400,4.757742431640625,3.851988731640577,6.16289309990704,-1.9024336036212741
1772708620906767400,4.767767333984375,3.4608313592374325,6.791781954586505,-2.5670377686738965
1772708620916793300,4.77779345703125,3.1876874950572844,7.141600185385346,-2.115026699118316
1772708620926818300,4.787818359375,3.11313289707154,5.930344573226571,-0.7713280713677406
1772708620936843500,4.797843505859375,3.270769390630722,6.155907478803396,-0.45639220724925395
1772708620946868500,4.807868408203125,3.348254781371355,6.566000437822938,-0.44080951125733553
1772708620956893400,4.8178935546875,2.9722452937394377,7.022770392343402,-0.6473824696820228
1772708620966919400,4.82791943359375,2.5884990743756293,7.441254747611284,-1.0693844046168028
1772708620976944400,4.8379443359375,1.8192565771102904,7.407264799726009,-1.4074506766930222
1772708620986969300,4.84796923828125,1.0447741333648561,7.351682613235711,-1.2371300581276417
1772708620996994600,4.85799462890625,0.7089937802687287,7.341697810316085,-1.1295678743574769
1772708621007020500,4.8680205078125,0.43790684861838813,7.175005611380934,-1.0539663976673037
1772708621017045500,4.87804541015625,0.34783933194130656,6.88427903649807,-0.9958047891430556
1772708621027070500,4.888070556640625,0.4489548968553543,6.599176731237769,-1.108660695407167
1772708621037095400,4.898095458984375,0.6778069071054458,6.486614766418933,-1.3461826996512711
1772708621047121400,4.908121337890625,1.0086188241392373,6.445846118178963,-1.2273941154025494
1772708621057146600,4.918146728515625,1.3829495649039745,6.3602306124746795,-0.7538872533537447
1772708621067171600,4.928171630859375,2.1552321605175733,6.4193555861383675,-0.5505830144014209
1772708621077196300,4.9381962890625,2.8380644945695996,6.324560748678445,-0.9584615853071212
1772708621087222300,4.94822216796875,2.7426620466053486,5.909990351983905,-1.4116383376412094
1772708621097247500,4.95824755859375,2.2210136694610116,5.799921957546472,-0.8823446333754807
1772708621107272400,4.9682724609375,2.076247763390839,5.909865264299512,-0.25558124641738833
1772708621117297400,4.97829736328125,1.9403993232697248,5.153808411821723,0.24824688494130967
1772708621127322400,4.988322265625,1.5702517134085296,4.147867282459139,0.5161388199426233
1772708621137348400,4.998348388671875,1.2069324882626533,2.6208710656702516,0.45348421084806323
1772708621147373300,5.008373291015625,-0.42463615589588877,-0.06110825643539428,0.7083483219720422
1772708621157398500,5.0183984375,-1.7874153316915034,-2.0835446424007413,0.7790521628137678
1772708621167423500,5.028423583984375,-2.530764093765616,-3.4888223589688536,0.7157368247881531
1772708621177449500,5.038449462890625,-3.470694289343059,-4.700642034751176,1.5841723944723605
1772708621187474400,5.048474365234375,-4.087846528999507,-7.026129639643431,1.1719335825305432
1772708621197499400,5.05849951171875,-2.3840964457273484,-10.086122774940728,0.01867391945592826
1772708621207524600,5.068524658203125,1.3888064742386341,-13.303204999047518,-2.2115673573322594
1772708621217550600,5.078550537109375,1.290005616007745,-13.276369599092005,-2.210275271695107
1772708621227575600,5.088575439453125,1.231644320192933,-13.260669341135024,-2.261244411431998
1772708621237600500,5.0986005859375,1.1949237782999873,-13.251181381821631,-2.33501560395509
1772708621247625500,5.10862548828125,1.1683061127483845,-13.244945702302456,-2.4074290982589126
1772708621257651500,5.1186513671875,1.1436102090395985,-13.239708386170863,-2.4738646871969103
1772708621267676400,5.128676513671875,1.1260102549411355,-13.236577686929701,-2.532946990762651
1772708621277701400,5.138701416015625,1.1269701860144734,-13.237648531031608,-2.565028182417154
1772708621287726300,5.148726318359375,1.1423445730179547,-13.24118839559555,-2.5545374758020043
1772708621297752300,5.15875244140625,1.1686787454530596,-13.246753043985366,-2.511291916054487
1772708621307777300,5.16877734375,1.2119155373722315,-13.256671211409568,-2.4527920885518193
1772708621317802500,5.178802490234375,1.6496341699421404,-8.560146548849344,0.1264320390734356
1772708621327827500,5.188827392578125,1.2943915760070084,-5.561252317637205,-1.622938616848737
1772708621337852400,5.198852294921875,0.0687038261309266,-3.248899504128098,-2.4178876561701297
1772708621347878400,5.20887841796875,-1.1254413690119982,-1.4199480469554662,-1.8543708528503775
1772708621357903400,5.2189033203125,-1.5202195622608066,0.467915033391118,-1.3218942076995968
1772708621367928600,5.228928466796875,-1.25523299331218,1.8592706075906753,-1.2245537043448538
1772708621377953500,5.23895361328125,-1.1967255670249461,3.2035400209665297,-1.23705392415151
1772708621387979500,5.2489794921875,-0.8601111011922359,4.650956505084038,-0.7394070387110113
1772708621398004500,5.25900439453125,-0.02265226905196905,6.154526838099956,-0.14638656607456504
1772708621408029400,5.269029541015625,0.7471367561802268,7.76786161417067,-0.18250442936662584
1772708621418054400,5.279054443359375,1.4105214624404907,8.767493414255975,-0.3573096460001543
1772708621428080600,5.28908056640625,2.2571748239055274,8.624396610441803,-0.5507224228721112
1772708621438105300,5.299105224609375,3.0542984307870267,7.778453150811791,-1.0132711799897254
1772708621448130300,5.30913037109375,3.315286577749252,7.009143433529138,-0.9941715619180351
1772708621466300400,5.327300537109375,2.814211325295269,6.682078886330127,1.503882759965956
1772708621476325600,5.33732568359375,1.5578861528322099,6.947088836154341,1.6421645647138357
1772708621486350600,5.3473505859375,-0.016845920860767364,7.092437802809476,1.3047455044999718
1772708621496376600,5.35737646484375,-0.874443577927351,6.6246776677191255,0.07698792607989162
1772708621506401500,5.367401611328125,-0.9214750859543681,6.567239624229073,-0.3879479819025844
1772708621516426500,5.377426513671875,-0.27249650618731974,7.133205282005667,0.5729436800956725
1772708621526451700,5.38745166015625,0.7175847907423972,7.123218140998483,0.9032511547386646
1772708621536477400,5.3974775390625,1.5435481231391428,6.844267344105243,0.95914942144081
1772708621546502700,5.407502685546875,2.2572087261751292,6.937189373430609,0.510851746385172
1772708621556527600,5.417527587890625,2.914036850398779,6.936430664017796,0.08349442189708352
1772708621566552600,5.427552490234375,3.183865014159679,6.6619801011532545,-0.6280858677335083
1772708621576578600,5.43757861328125,2.901716298007965,6.234439748248458,-1.5575608664005993
1772708621586603500,5.447603515625,2.5822511198967693,5.992530103504658,-1.8065496557503937
1772708621596628700,5.457628662109375,2.435596623601019,6.155111944511533,-1.2107742583826184
1772708621606653700,5.46765380859375,2.333888938012719,6.535175675970316,-0.3691453740160912
1772708621616679700,5.4776796875,2.292608833119273,6.966578549522161,0.605214841364324
1772708621626704600,5.48770458984375,2.3040777371168137,6.984350353056192,1.1132912778172641
1772708621636729600,5.4977294921875,2.4849013372570274,6.655028966841101,0.2606714456958696
1772708621646754600,5.507754638671875,2.285999059590697,5.699782836449146,-0.859438097301498
1772708621656779500,5.517779541015625,1.4985481209397316,4.366723383873701,-2.6521315885916352
1772708621666805500,5.527805419921875,0.8398626784116029,4.7317426909357305,-3.6017677701473234
1772708621676830500,5.53783056640625,-0.5275292518764734,7.347487499633431,-2.027402337809652
1772708621686855700,5.547855712890625,-1.4344021042436361,7.4139108136117455,-1.4315306404605508
1772708621696880600,5.557880615234375,-1.8185063432648776,6.581651595941185,-1.382299868823588
1772708621706906600,5.56790673828125,-2.338268468271196,6.774990978783369,-1.044646561462432
1772708621716931600,5.577931640625,-2.9250545034974813,5.668578719890117,0.11517601977474987
1772708621726956500,5.58795654296875,-3.480271095983684,3.836380243620276,1.5780219090186058
1772708621736981500,5.5979814453125,-4.137054212021828,2.0748148079782722,2.8153005818367003
1772708621747007500,5.608007568359375,-4.705172371657192,-1.0978075121551751,3.3401983161658046
1772708621757032700,5.61803271484375,-5.35437599235177,-5.547964966040849,1.5835883109740911
1772708621776456700,5.637456787109375,-4.119864007768035,-11.675210998505353,-1.4007935568913816
1772708621786482700,5.647482666015625,-0.8000134831041097,-13.349958566915989,-1.1404102439545094
1772708621796507600,5.657507568359375,1.6297463971674442,-16.376557966655493,-0.2988604527061805
1772708621806532600,5.66753271484375,3.561894024920463,-19.688076716303826,1.3860076373003423
1772708621816557600,5.6775576171875,6.978257881399989,-21.249367416882514,2.58002087662667
1772708621826583600,5.68758349609375,9.93986838387847,-21.186360633349416,2.3136351084046063
1772708621836608800,5.69760888671875,9.994531701958179,-21.614380294203755,2.1568102234892548
1772708621846633700,5.7076337890625,7.955629334360361,-20.972222208106515,2.5268118490085003
1772708621856658700,5.71765869140625,5.008597392332554,-18.784758926069735,3.265477713963389
1772708621866684700,5.7276845703125,1.0783581307977437,-16.104630200266836,4.624983274915814
1772708621876709600,5.737709716796875,-2.739501829008758,-12.802046452224253,4.202540829671919
1772708621886734800,5.74773486328125,-5.667804812908172,-9.78850293341279,2.688566299280524
1772708621896759600,5.757759521484375,-8.178301779192685,-7.723889201453328,-0.040904330383613706
1772708621906785800,5.767785888671875,-9.63891092236042,-5.879477724820375,-2.6771774747818706
1772708621916810500,5.777810546875,-9.865684372770787,-4.0343858647078275,-4.2269194841250775
1772708621926835500,5.78783544921875,-8.147125719684363,-2.4715958654820915,-4.452396757245063
1772708621936860700,5.797860595703125,-4.431342278778553,-0.9495201539605855,-3.814392868217826
1772708621946886700,5.80788671875,-0.9155167620718478,0.5226899951517582,-3.271660786512494
1772708621956911600,5.81791162109375,1.5142249980211258,2.514250765860081,-2.8048396858379245
1772708621966936600,5.8279365234375,2.9711908162504432,4.6746588677108285,-1.3230394322119652
1772708621976961500,5.83796142578125,3.7324598504185675,6.242314427146315,1.3772560294374823
1772708621986987500,5.847987548828125,4.415326671262085,7.744144053974747,3.455526238566637
1772708621997012700,5.8580126953125,4.543758697646856,9.06806801393628,4.166588349542021
1772708622007037700,5.86803759765625,3.9978351264238356,9.572914309361577,4.064636333803833
1772708622017062700,5.878062744140625,2.916540942174196,9.490835745611786,3.1260251118704674
1772708622027088600,5.888088623046875,1.5749892633244393,9.326674526458978,1.3785498686403035
1772708622037113600,5.898113525390625,-0.03077829236239195,9.151686208343506,-0.41031617331616577
1772708622047138800,5.908138916015625,-1.2360820103794337,9.000114421650768,-1.1955356265880166
1772708622057163800,5.918163818359375,-1.6765835516661405,8.94680777887702,-1.4726304203510283
1772708622067188700,5.928188720703125,-1.335557114610076,8.992487580034137,-1.1486492261201142
1772708622077214700,5.938214599609375,-0.5690086787343025,8.568086694198847,-0.5701700506638735
1772708622087239400,5.948239501953125,0.4984837746560573,7.797854601374268,-0.3419246280048042
1772708622097264600,5.9582646484375,1.6722747485563159,7.0363657869756215,-0.5242646240573376
1772708622107289600,5.96828955078125,2.5704823561698196,6.348211673378944,-1.037169649710506
1772708622117315600,5.978315673828125,3.1596585014030336,5.93942745887041,-1.2976701592862605
1772708622127340500,5.988340576171875,3.4766514441817997,5.754845967501401,-1.3817711687743663
1772708622137365500,5.998365478515625,3.3828955943807957,5.760175638091564,-1.7386682519182561
1772708622147390700,6.008390625,2.8041294917419552,5.894236902534962,-2.2737881050541997
1772708622157416700,6.018416748046875,2.2382059195414183,6.256373347637057,-2.1970003411889074
1772708622167441700,6.028441650390625,1.9618793336719274,6.87349811476469,-1.4796785852968692
1772708622177466600,6.038466552734375,2.015245305417478,7.2077598799914115,-0.5077682472866029
1772708622187491600,6.04849169921875,2.244805463936925,7.074819728532433,-0.41635004665292796
1772708622197517600,6.058517578125,2.179403309699893,6.642765697595476,0.2231404276702553
1772708622207542800,6.068542724609375,1.5959794443830846,7.406290401735902,0.4549148281730711
1772708622217567700,6.078567626953125,1.559083253662288,8.417686289373039,-0.16200469870604572
1772708622227592700,6.0885927734375,1.8809040549889207,8.240538747397064,-0.7604713809844106
1772708622237618700,6.09861865234375,1.4085501623675227,7.4570941217780105,-1.212981851429492
1772708622247643600,6.1086435546875,0.7219964697048068,6.995017877542972,-1.8101904964707791
1772708622257668600,6.118668701171875,0.5075362651616334,7.095272733974457,-2.8600156296148893
1772708622267693600,6.128693603515625,-0.3271118934720754,7.56957425353229,-3.7288065886080264
1772708622277719800,6.1387197265625,-1.5670277829259633,7.52216543662548,-4.301500970117748
1772708622287744500,6.14874462890625,-2.7100594614252445,6.930775999256968,-3.668032386432588
1772708622297769500,6.15876953125,-3.777107093657553,6.011106209158897,-1.6786979134716093
1772708622307794700,6.168794677734375,-4.470950066545606,3.7834482793778177,0.8250563005544245
1772708622317820700,6.178820556640625,-4.813274142196774,0.9424486081391572,3.1361449393466114
1772708622327845600,6.188845703125,-5.173820687758922,-1.4804536613225936,3.839150877377391
1772708622337870600,6.19887060546875,-4.866576401056349,-3.8803094017177817,3.700162677925825
1772708622347895600,6.2088955078125,-3.5236353136748075,-6.45728579608202,4.233543578439951
1772708622357921500,6.218921630859375,-1.7059031696528195,-9.746772746664286,4.253288435612618
1772708622367946800,6.22894677734375,-0.5354677897907794,-12.097049924898148,4.045676489529013
1772708622377971700,6.2389716796875,0.28491891151741144,-13.101000172704458,3.120507225231826
1772708622387996700,6.24899658203125,1.094808914861083,-16.03552568438053,1.6508458838194608
1772708622398021600,6.259021728515625,2.3959353520810605,-18.488571163171528,-0.8013989461131393
1772708622408047600,6.269047607421875,3.3899387908905743,-18.22660598787069,-2.8213147275596855
1772708622418072600,6.279072509765625,3.487863743069768,-18.268167832314965,-2.8746295536398887
1772708622428097800,6.289097900390625,3.5702287225455045,-19.16933224390745,-0.6077148414865136
1772708622438122500,6.29912255859375,4.220830811861157,-19.392491010951996,2.0996409139379857
1772708622448148700,6.309148681640625,4.958420864278078,-17.959592881530522,2.8165406450256705
1772708622458173400,6.31917333984375,5.673237943872809,-15.894723713505266,2.1738424607023594
1772708622468198700,6.32919873046875,6.157013394218683,-13.548732249766587,0.8277413018546999
1772708622478223600,6.3392236328125,6.507224423727393,-11.064267550361155,-0.4349306092865765
1772708622488249600,6.34924951171875,6.811514829060435,-9.50677273493409,-0.36171924260333177
1772708622498274600,6.359274658203125,5.65190055681169,-7.432116916909814,-0.32693646383993324
1772708622508299500,6.369299560546875,3.103765641528368,-5.286133646252751,-1.3111129937052726
1772708622518324700,6.37932470703125,0.9635714756667614,-3.6183196764975785,-3.122085142073035
1772708622528350500,6.3893505859375,-0.2776457056440413,-1.6634207032322883,-5.853424415153265
1772708622538375700,6.399375732421875,-0.5547796623736619,-0.17258476410508156,-8.26475607380867
1772708622548400600,6.409400634765625,-0.4711895250171423,1.3999977303385733,-8.352351355153322
1772708622558425600,6.419425537109375,-0.6438546608820557,2.9773522614896297,-5.870997481244802
1772708622568451600,6.42945166015625,-1.3356325179338455,4.4276831717491145,-2.39838406040743
1772708622578476500,6.4394765625,-0.9324763724401592,5.831116137233376,0.5125755745030939
1772708622588501800,6.449501708984375,0.4159831861019134,7.37192168366611,1.7170479562625287
1772708622598526500,6.4595263671875,0.901816153499484,8.916695549207926,2.9166861958637833
1772708622608552700,6.469552734375,1.4421113634467124,10.112198296439647,3.7985891498863693
1772708622618577400,6.479577392578125,1.3454504398539662,10.274675508028269,4.271445439071953
1772708622628602600,6.4896025390625,0.762513481271267,9.773982240629195,3.698448567484319
1772708622638627600,6.499627685546875,0.3942188058003783,9.238375480759144,1.9991534177944064
1772708622648652500,6.509652587890625,0.19337123928517103,8.543249190062284,0.3707846656557172
1772708622658678500,6.519678466796875,0.2697951382741332,7.8527166568964715,-0.6131329940777271
1772708622668703500,6.529703369140625,0.8346540038526058,7.28191583404839,-1.5527848841704428
1772708622678728700,6.539728759765625,1.2858660319849848,7.035291435742378,-2.385679477135092
1772708622688753700,6.549753662109375,1.565174848535657,6.776473910817503,-2.588178756380081
1772708622698779600,6.559779541015625,1.8118880941689013,6.365118384516239,-2.301335160410404
1772708622708804600,6.5698046875,1.8193910171449184,6.490804619324207,-2.0889144988708197
1772708622718829600,6.57982958984375,1.8511422461926936,6.784066265642642,-1.9447303382113574
1772708622728854800,6.589854736328125,1.8406389723569154,7.086590245825052,-1.8375977049648762
1772708622738880500,6.599880615234375,1.6921511231541633,7.621586764842271,-1.7541447841219604
1772708622748905700,6.60990576171875,1.2874477482184767,7.708491141313314,-1.2916551367804407
1772708622758930700,6.6199306640625,0.8761112188786268,7.4239365330636495,-0.1512867592062801
1772708622768955400,6.629955322265625,0.8433440907865762,7.353305830523372,1.0195470453888178
1772708622778981600,6.639981689453125,1.0348568427234888,7.309066875824332,1.7612664526954291
1772708622789006600,6.650006591796875,1.335075760833919,7.100735091033577,2.045567524575442
1772708622799031600,6.660031494140625,1.6981813432291148,6.955964801049232,1.862243778182566
1772708622809056500,6.670056396484375,1.966770028322935,6.876603679564595,1.5959961032569407
1772708622819082500,6.68008251953125,1.9685498974770306,6.968177801412343,1.1228362280149011
1772708622829107500,6.690107421875,1.6180366701513529,7.011090475943684,0.4815084552619606
1772708622839132700,6.700132568359375,1.1839429500803351,7.024698145535588,0.08997457769662141
1772708622849157600,6.71015771484375,0.9961629549309611,6.885404241135716,0.2476232731502503
1772708622859182600,6.7201826171875,1.2035980831429363,6.297792568740248,0.4452050062699243
1772708622869208600,6.73020849609375,1.6720882860735058,5.6261073593854904,0.16402780203148723
1772708622879233500,6.740233642578125,1.7313213962867855,5.157874930608272,-0.03521919741928577
1772708622889258500,6.750258544921875,1.001521267093718,5.351338816612959,0.16017393961492926
1772708622899283700,6.76028369140625,-0.16357026752233506,4.635571304425597,1.4313620058953762
1772708622909309700,6.770309814453125,-1.3691209460377691,2.355897940725088,3.3073329883962868
1772708622919334700,6.780334716796875,-2.278901210284233,-0.04044014693796635,4.311263070197403
1772708622929359600,6.790359619140625,-3.538114505404234,-2.2910265323638916,4.113842847782373
1772708622939384600,6.800384521484375,-3.4495173535406587,-4.500301833236217,2.525999655842781
1772708622949410600,6.81041064453125,-3.0375609387367963,-7.5511594759196035,1.122660725317523
1772708622959435500,6.820435546875,-2.076582986694574,-11.775654070985317,0.1638130633022636
1772708622969460500,6.83046044921875,-1.3086395893290639,-14.80594648002386,-0.490758587231487
1772708622979485400,6.8404853515625,-0.7376087571173906,-16.12663628036976,-0.09215002203956246
1772708622989511400,6.850511474609375,0.012791677033901213,-17.63059239783287,0.5253840565413236
1772708622999536600,6.86053662109375,-0.04684358423948288,-18.514086712700127,0.173057642313838
1772708623009561600,6.8705615234375,-1.5455018875554203,-19.207281743073462,1.1905884525094181
1772708623019586600,6.880586669921875,-2.8960870599493385,-20.468492934012414,4.517228418117761
1772708623029611500,6.890611572265625,-6.538287670511007,-19.772123949778077,8.786637090665101
1772708623039637500,6.900637451171875,-8.209923244380951,-18.126297355425358,7.881192225274443
1772708623049662500,6.910662353515625,-7.732675149977207,-15.111749628007411,3.5871155599385496
1772708623059687700,6.920687744140625,-6.663132778319716,-13.299717741453646,0.10030691541228443
1772708623069712600,6.930712646484375,-4.704021740317344,-13.142486029303074,-2.788161522759497
1772708623079738600,6.940738525390625,-2.239519632488489,-12.478733366513252,-5.000999776810407
1772708623089763600,6.950763671875,-1.177971474455297,-10.379855545902252,-6.386585535436868
1772708623099788500,6.96078857421875,-1.4502905782490967,-7.092352462613582,-6.491873709860443
1772708623109813800,6.970813720703125,-1.2445908955276013,-3.6720968593925236,-4.751723987212777
1772708623119839700,6.98083984375,-1.0870154845058917,-0.8849158721029758,-2.126330037290603
1772708623129864700,6.99086474609375,-0.9842015912413596,1.7729764719724654,0.281776375707984
1772708623139889400,7.000889404296875,-1.426591722753644,4.067067652603984,1.6778901042200625
1772708623149914600,7.01091455078125,-2.5785879212141034,5.811324226048589,2.6311478372737764
1772708623159940600,7.020940673828125,-3.436446275043487,7.1431386469990015,2.8576059381246566
1772708623169965600,7.030965576171875,-2.9440356828212737,7.892181236800551,1.5900073842361568
1772708623179990500,7.040990478515625,-1.278922204196453,8.079761909985542,-0.9541726559415459
1772708623190015500,7.051015380859375,0.6097983697623014,8.218084339004754,-3.1251968443527818
1772708623200040700,7.061040771484375,2.6654636561125513,7.736952681165933,-4.013662225630879
1772708623210066400,7.07106640625,4.461707021903991,6.8661968518406145,-3.8120015891671177
1772708623220091600,7.081091552734375,5.435994537374377,6.40101738089323,-3.278496185490489
1772708623230116600,7.09111669921875,6.030585985654592,6.658107059112191,-2.92644595785588
1772708623240141600,7.1011416015625,6.391427130249142,7.496677359625696,-2.1289899041496216
1772708623250167600,7.11116748046875,6.457137327522039,8.203132853588462,-1.3682944320857524
1772708623260192500,7.121192626953125,6.012798400029539,8.247014080891013,-0.6485626924425363
1772708623270217700,7.1312177734375,4.769712063845992,7.864001436498761,0.11631572786178439
1772708623280242700,7.14124267578125,2.402609423017502,7.061873153197765,0.7341855046704411
1772708623290268700,7.1512685546875,2.110886822834611,6.905050606369972,-0.7311436527565122
1772708623300293600,7.161293701171875,2.037380857118964,7.387304546236991,-1.9515286200493573
1772708623310318600,7.171318603515625,2.887135399469733,7.323751234737038,-2.5882021372556685
1772708623320343600,7.181343505859375,3.7604853369414806,6.804966430330276,-2.364112811362743
1772708623330369500,7.19136962890625,4.41326623160094,6.787416160592437,-1.6654565929740666
1772708623340394500,7.20139453125,4.744375962537527,7.051020919793844,-0.9428973748199642
1772708623350419500,7.21141943359375,4.560109528467059,7.360318924155831,-0.22723628214914351
1772708623360444700,7.221444580078125,4.240284869393706,7.1366428552389145,0.5274287871766835
1772708623370469600,7.2314697265625,4.326712860524654,6.593647154161333,0.7630703845016658
1772708623380495600,7.24149560546875,4.746356907221674,6.176126675489544,0.3914033099882304
1772708623390520600,7.2515205078125,5.09547721888423,5.976982405760884,-0.028760376668721437
1772708623400545500,7.261545654296875,4.887209146979451,6.0405614362239834,-0.39322519165314734
1772708623410570500,7.271570556640625,4.211269202789664,6.5498448373138904,-0.6222276432245969
1772708623420596500,7.281596435546875,3.340209422081709,6.979415234741568,-0.7122122308585792
1772708623430621700,7.29162158203125,2.5492194956496355,7.046157697671651,-0.36965515016913414
1772708623440646700,7.301646728515625,2.2581673420742154,7.299571902248263,0.23465850457176565
1772708623450671600,7.311671630859375,2.4660870389327405,7.5089453050464385,0.39681678640432655
1772708623460696600,7.321696533203125,2.4835358941227197,7.578716760408878,0.5494044721413404
1772708623470722600,7.33172265625,2.281579489582777,7.266460490763187,0.9781585116848349
1772708623480747500,7.34174755859375,2.1832816124379635,5.856525303778052,1.1789210302650928
1772708623490772500,7.3517724609375,2.003905873018503,3.81803970028758,1.3948276342242956
1772708623500797400,7.36179736328125,1.822578999531269,1.2403244702547789,1.6431984378062188
1772708623510823400,7.371823486328125,0.898020852869749,-1.8133295251488684,2.2183280836388466
1772708623520848600,7.3818486328125,-0.8696385157331824,-4.41984064155519,3.1572023404225704
1772708623530873900,7.391873779296875,-2.8037551054716108,-7.293656540724634,3.6606399380937216
1772708623540898800,7.40189892578125,-1.8863123437732456,-9.838509950119256,3.1510628147542477
1772708623550924800,7.4119248046875,0.11233780067414045,-12.404662752652168,1.0074830981075764
1772708623560949800,7.42194970703125,1.4123171136856079,-14.687384398007392,-1.3633254115015268
1772708623570974700,7.431974609375,0.8239876484096049,-14.682261648166179,-3.890437704761326
1772708623581000000,7.442,-1.649488039469719,-15.150957018280028,-4.240466071179509
1772708623591026000,7.45202587890625,-2.9765637414604424,-18.760884714007375,0.40290341284163295
1772708623601051000,7.46205078125,-2.1447446687728164,-20.859089165401457,3.336665465864539
1772708623611075800,7.472075927734375,-1.6129703266724944,-20.540164670038223,5.050751941972971
1772708623621100800,7.482100830078125,-2.2055501428693534,-20.32401315140724,5.834432714435458
1772708623631126000,7.4921259765625,-3.772022630000114,-19.255668465101717,4.772095451851189
1772708623641152000,7.502152099609375,-5.664781665694713,-17.905182076907156,1.6055841619439422
1772708623651177000,7.512177001953125,-6.700382020261883,-16.62231201186776,-1.14622316801697
1772708623661201700,7.52220166015625,-6.916532369849086,-15.022437021350859,-2.5062463231027126
1772708623671226600,7.5322265625,-6.530607052880526,-12.743180421757698,-3.6101506908282635
1772708623681252600,7.542252685546875,-5.448722501522302,-9.698560212159157,-4.299776922804117
1772708623691277800,7.55227783203125,-4.908579267266393,-6.629547319582104,-4.0594779281273485
1772708623701302800,7.562302734375,-4.254105889475345,-4.075488274946808,-3.101540951216221
1772708623711327700,7.57232763671875,-3.9861043566197156,-2.2783464990109206,-3.1472426719442006
1772708623721353700,7.582353759765625,-3.4753052902698514,-1.2716098353564738,-3.8523406138181686
1772708623731378700,7.592378662109375,-1.4780483537465332,-0.7793687544822693,-4.167818475858867
1772708623741404000,7.60240380859375,0.8953416967883706,0.16543138521909712,-4.11690691152811
1772708623751428900,7.612428955078125,2.6902082212686538,1.7631927445828914,-3.5311174861237404
1772708623761453800,7.622453857421875,4.083762182295322,3.8264784428089853,-2.3410968235649166
1772708623771479800,7.632479736328125,4.601614674288034,5.912648757538199,-0.4199572773646563
1772708623781504800,7.6425048828125,4.701812247574329,7.4350459560990325,2.0467513275325295
1772708623791530000,7.652530029296875,4.50150945546031,9.015311406260729,4.172943271526694
1772708623801555000,7.662554931640625,4.321697078189254,10.38157170217037,4.653343984742462
1772708623811581000,7.672580810546875,3.6330040354102846,10.903336983692645,3.759930041146278
1772708623821606000,7.68260595703125,2.379154605410993,10.733770690625905,2.72826118080914
1772708623831630800,7.692630859375,1.4247145307049154,10.227192456841468,1.7546341750741004
1772708623841655800,7.70265576171875,1.1622127643093465,9.891839389246702,0.8616396259337663
1772708623851682000,7.71268212890625,1.1229922222942113,9.548109538450836,0.27453756529456
1772708623861706800,7.722706787109375,1.3993927501827477,9.263235196727514,0.20481687200497833
1772708623871731700,7.732731689453125,2.1021444211915132,8.816898373416066,0.10168046878781169
1772708623881756700,7.742756591796875,2.5987171015292403,8.087868644073605,-0.08815481492355465
1772708623891782000,7.752781982421875,3.0191061213746666,7.7009829576402895,0.02701596242049709
1772708623901807900,7.762807861328125,3.3507547814935443,7.332415018185973,-0.028404421104211357
1772708623911832800,7.772832763671875,3.130378630904853,7.07639326145947,-0.1419673796591349
1772708623921857800,7.78285791015625,2.688167363090813,7.022859239670634,-0.034579511276260015
1772708623931882800,7.7928828125,1.9874585960865019,6.871001621773838,-0.15102993490099906
1772708623941908700,7.80290869140625,1.313269879478216,6.865617006126046,-0.528571965862438
1772708623951934000,7.812933837890625,0.8671262406513094,6.770491329276561,-0.9372750779587775
1772708623961959000,7.822958984375,1.0965315008699894,6.55969286211133,-1.0227149348352105
1772708623971984000,7.83298388671875,2.0063684637397525,6.080786479106545,-0.7238488926384598
1772708623982008800,7.8430087890625,2.9217344191640615,5.7230111518234015,0.03444656907897442
1772708623992034800,7.853034912109375,3.700869657151401,5.468313337177038,0.6637262131743132
1772708624002060000,7.86306005859375,4.339768156930804,5.15950223954916,1.0345718152370302
1772708624012084700,7.873084716796875,4.654544300442934,5.05839924185574,1.3525485814213751
1772708624022109700,7.883109619140625,4.552206792518496,5.028465291363,1.0707701598867774
1772708624032135700,7.8931357421875,4.065315840500593,5.010520469349623,0.3185649778684601
1772708624042160600,7.90316064453125,3.275782250356674,4.984105340632796,-0.35827629907522346
1772708624052185900,7.913185791015625,2.1969074022084474,5.280436895915866,-0.9869558583855629
1772708624062210800,7.9232109375,1.0013429879173636,5.953856381717324,-1.4078240400500595
1772708624072236800,7.93323681640625,-0.1455742998436093,6.489148668810725,-1.2849001095622776
1772708624082261800,7.94326171875,-1.249440089124441,6.471236580023169,-0.7096768671620637
1772708624092286700,7.95328662109375,-1.5809230372875929,5.963222760477661,-0.3592545329902321
1772708624102312000,7.96331201171875,-0.9592045126289128,5.017232534208894,-0.48067784965671595
1772708624112337000,7.9733369140625,-0.011959025602042674,3.585093698722124,-0.14972688947841525
1772708624122363000,7.98336279296875,0.2750190104022622,2.021935450705886,0.9061175039552152
1772708624132387800,7.993387939453125,-0.32907647154331204,0.3264163124233484,1.6224857585147021
1772708624142412800,8.003412841796875,-0.5830410034790635,-1.1642886938005685,1.0380662332240491
1772708624152438000,8.01343798828125,0.6172115686282516,-1.4796569579869507,-0.7029639255199581
1772708624162464000,8.023464111328124,2.462272741341591,-2.607261642512679,-2.247545118033886
1772708624172489000,8.033489013671876,3.5200481028378006,-4.86081973722577,-1.970423582394421
1772708624182513700,8.043513671875,2.9786218430340288,-6.8587114645212885,-1.1770609354816377
1772708624192538600,8.05353857421875,2.1850120894923806,-8.51315508057177,0.30916897115483877
1772708624202564600,8.063564697265624,2.1117007695659993,-10.091408021867275,1.8007851008743048
1772708624212589800,8.07358984375,2.2438205445528028,-11.935856323379278,2.466416417017579
1772708624222614800,8.08361474609375,2.1186329069167376,-12.893393195056914,0.8604457399740815
1772708624232639700,8.0936396484375,1.246105684004724,-12.878961349600553,-1.2387857163801788
1772708624242664700,8.103664794921874,0.43162762221843004,-12.399711852246522,-1.6245486823938786
1772708624252690700,8.113690673828126,-0.40697628830373284,-11.370535977768897,-0.008382043898105622
1772708624262716000,8.1237158203125,-3.4120626521542667,-10.015934555470944,3.4663469077885147
1772708624272740900,8.133740966796875,-5.328552984309196,-7.575883582809567,3.9145033477425573
1772708624282765800,8.143765869140625,-7.463999078860878,-4.320878747543692,3.4798712830111382
1772708624292791800,8.153791748046874,-9.724913381555677,-2.6797756745815278,3.079641838619113
1772708624302816800,8.163816650390626,-10.638151092779635,-1.2871592866659163,2.1488222934752703
1772708624312842000,8.173842041015625,-9.982046314394474,-0.3020259675323963,0.6550824496001004
1772708624322867000,8.183866943359375,-8.59784645716846,-0.6508434968560933,-0.2534060212701559
1772708624332892000,8.193891845703124,-6.731518916803598,-1.3466186068505048,-0.24429200983569024
1772708624342918000,8.20391796875,-4.172563624559342,-2.1435382155925033,-0.45057562992498273
1772708624352942800,8.21394287109375,-1.2960510336518287,-3.0670681882500648,-0.2510194914598018
1772708624362967800,8.2239677734375,1.1060732361972332,-3.48603185146749,-0.09745930742882192
1772708624372992800,8.23399267578125,2.256440372151136,-3.120540835240483,0.4243156917698681
1772708624383018800,8.244018798828124,1.6408049667984246,-2.1464999880075455,0.9989538277585058
1772708624393043700,8.254043701171875,-0.8125789501667022,-0.9591378771334886,1.6323048494786023
1772708624403068700,8.264068603515625,-2.2585750460922718,-0.2674479906260967,1.3013940021149812
1772708624413094000,8.274093994140625,-2.233265832790732,0.6251397312790155,0.5655369109705091
1772708624423118800,8.284118896484374,-1.6432506063848733,0.6455453904479742,0.5229324256055057
1772708624433144800,8.294144775390626,0.15305647229254246,0.09056874419748782,0.8770984763503075
1772708624443169800,8.304169677734375,1.5906863064110277,-0.585703208425641,0.3058651438364759
1772708624453194800,8.31419482421875,1.648303505860269,-0.8308972816675901,-0.5320302896227688
1772708624463220000,8.324219970703124,1.0907125854581594,-1.144710717627406,-1.2658271603018045
1772708624473246000,8.334245849609376,0.3939338513791561,-0.9534165768772364,-1.687705249661207
1772708624483271000,8.34427099609375,-0.26269027470499273,-0.30363223368525505,-1.3818946490235626
1772708624493295900,8.3542958984375,-1.0931669928729533,-0.32007834157347675,-0.5789001773472875
1772708624503320800,8.36432080078125,-0.8255255255013704,0.012376081970334052,-0.26469123926386234
1772708624513346800,8.374346923828124,-0.12128186236917972,0.45756665785610673,-0.45897911846991624
1772708624523372000,8.3843720703125,0.5181961908638477,0.665219812732935,-0.3711888625424355
1772708624533396000,8.39439599609375,0.5654857653051615,1.116730239289999,0.05985288607943803
1772708624543421000,8.4044208984375,0.07418634919524192,1.2915133902221918,0.4465748333184048
1772708624553446100,8.414446044921876,-0.27711159876734015,1.6058844600647686,0.23319577507544306
1772708624563472100,8.42447216796875,-0.5659466608151793,1.9816823507726191,-0.3366404039915651
1772708624573497000,8.4344970703125,-0.43906040256768464,1.975073161765933,-0.8110968218501656
1772708624583522000,8.44452197265625,0.13047931430339813,2.0088398222893473,-0.9830377350937575
1772708624593547000,8.454547119140624,0.2608925776332617,2.1074036568939682,-0.8062014510240405
1772708624603573000,8.464572998046876,-0.06567687952518463,2.149454161638021,-0.5653554899889975
1772708624613598200,8.47459814453125,-0.2565828977406025,2.37280991255939,-0.4379711460262537
1772708624623623200,8.484623046875,-0.7908031716883182,2.7973031528532504,-0.27912056396957485
1772708624633648000,8.494648193359374,-1.1956924245849252,2.87815188254714,-0.060054473066143685
1772708624643674000,8.504674072265624,-1.122252217581868,2.9665777694970368,-0.0005146349912509322
1772708624653699000,8.514698974609376,-1.1478633364394306,3.0281612422287463,0.30772253520619125
1772708624663724300,8.524724365234375,-0.8966448883414267,3.094761081817746,0.24714151751529423
1772708624673749200,8.534749267578125,-1.2377514048963785,3.214423818552494,-0.13384152074549346
1772708624683774200,8.544774169921874,-0.7542460036635399,3.184969760531187,-0.3209354333268478
1772708624693800200,8.55480029296875,0.3263131443098187,2.892097990313172,-0.4858118515443057
1772708624703825200,8.5648251953125,0.8249617541387677,2.6824071921288963,-0.5130963469741866
1772708624713850000,8.57485009765625,1.1000453542098403,2.397114332732558,-0.30486659778580066
1772708624723875000,8.584875,1.3003349945813416,1.9315607677757738,0.014456943365000188
1772708624733901000,8.594901123046874,1.2159917007699608,1.7393869215816258,-0.16813644292671232
1772708624743926000,8.604926025390625,0.8244257475659251,1.763863191190362,-0.42469062602948393
1772708624753951000,8.614950927734375,0.6497656384915113,1.432495978361368,-0.27610413875784723
1772708624763976200,8.62497607421875,0.7003612687408923,0.9614666123419999,-0.06412767732180655
1772708624774001200,8.635001220703124,0.9521505024641752,0.7018810256540775,-0.06469860907755792
1772708624784027100,8.645027099609376,1.2397025389641523,0.31646599629521366,-0.10296148504167794
1772708624794052000,8.655052001953125,1.549042044380307,-0.08217033368647098,0.11144764690138399
1772708624804077000,8.6650771484375,1.6092489680618047,-0.34078795212507246,0.8195582145947963
1772708624814102300,8.675102294921874,1.1074924553453922,-0.6090536888748407,1.6502013023056088
1772708624824128300,8.685128173828126,0.2845487630307674,-0.6265279707670212,1.9569315020062028
1772708624834153200,8.6951533203125,-0.2311070957005024,-0.5514782827407121,1.7296689529046416
1772708624844178200,8.70517822265625,-0.3395703930288553,-0.6568973900675773,1.2782764536388218
1772708624854203100,8.715203125,-0.11119301455318926,-0.9237620278477668,0.9758047151003032
1772708624864228000,8.72522802734375,0.588495177231729,-1.017577206620574,0.6978375954821705
1772708624874254300,8.73525439453125,1.2728899382948875,-1.0771259586542845,0.6575292582303285
1772708624884279000,8.745279052734375,1.1637257992208003,-0.46944355813264843,0.4853134005028754
1772708624894304000,8.755303955078125,-0.09373393023014068,0.1423527074486017,0.9980771179892122
1772708624904329000,8.765328857421874,-1.6877935124665497,0.5490718061208725,0.3303144889056682
1772708624914355000,8.77535498046875,-2.3062591728091237,0.9442162023335695,-0.20267302837669848
1772708624924380200,8.785380126953125,-1.421996211656928,1.0888730950713157,-0.30579543960113076
1772708624934405000,8.795405029296875,-0.5386182166457176,0.9430348835945129,-0.3078118939900771
1772708624944430000,8.80543017578125,-0.06362813030183315,0.9137158501297235,-0.008583448221720755
1772708624954455000,8.815455078125,0.16542963165342806,0.8616150760143995,-0.06165737821813672
1772708624964481000,8.82548095703125,0.06774696379750966,0.39961365058124065,0.015880436829477547
1772708624974506200,8.83550634765625,-0.1536845410630107,0.0524544098585844,0.00662201195564121
