time,seconds_elapsed,z,y,x
1772709143310470700,0.059470703125,0.1374333712249994,-0.04070285299476236,0.022178806321322915
1772709143320495600,0.06949560546875,0.09774082778394222,-0.023962986324355003,0.024569866176322102
1772709143330520600,0.0795205078125,-0.004368716603517532,-0.016031316542252896,0.00885601808540523
1772709143340545500,0.089545654296875,-0.035956279522180556,-0.003775719146430492,-0.02344550178889185
1772709143350570800,0.09957080078125,0.004614800319075584,-0.020266214165650307,-0.020325323941744862
1772709143360595700,0.109595703125,0.03858545898199081,-0.030359044037014244,0.01463956992290914
1772709143370620400,0.119620361328125,0.06504325779676437,-0.018168365103565155,0.042392194321192796
1772709143380645600,0.129645751953125,0.05871639286279678,-0.0070764777248725295,0.023878194117732343
1772709143390670600,0.139670654296875,0.03491583055853843,-0.018368125459365545,0.006648132777586579
1772709143400695600,0.149695556640625,0.013077508237957954,-0.03138776603024453,0.0005201148839667439
1772709143410720500,0.159720458984375,-0.004890694651007652,-0.027757373638637364,0.004464176334626972
1772709143420745700,0.169745849609375,0.021276596784591675,-0.021180698662064967,0.012270977628044783
1772709143430770700,0.179770751953125,0.03892915785312653,-0.009217544874176382,0.0016907295659184455
1772709143440795600,0.189795654296875,0.053583706149458885,-0.015590148646011947,-0.009484817508235573
1772709143450820600,0.199820556640625,0.04654372451007366,-0.01770462004933506,-0.0047600540086627004
1772709143460845800,0.209845703125,0.015707272219657897,-0.0014427826868370175,-0.00014207535181194543
1772709143470870500,0.21987060546875,0.015816577813029288,0.017639080532453954,-0.027056860686466098
1772709143480895500,0.2298955078125,-0.0015589198797941208,0.0054461731093004345,-0.0262015590313822
1772709143490920400,0.23992041015625,0.0029682021558284756,-0.019021292138472198,-0.01640405884478241
1772709143500945700,0.249945556640625,0.05669453164637089,-0.013439729146473109,0.004667078495584428
1772709143510970600,0.259970703125,0.06816869634091853,0.01153612401485443,-0.002444105216488242
1772709143520995600,0.26999560546875,0.01338788936138153,0.016310973733849824,-0.03137757342979312
1772709143531019800,0.280019775390625,0.007446224352717399,0.00654079994559288,-0.012256328048184514
1772709143541044700,0.290044677734375,0.03349836497604847,-0.021916794384270907,0.013149331365153193
1772709143551069400,0.3000693359375,0.03809913676977157,-0.027209092106111346,0.01229680618904531
1772709143561094400,0.310094482421875,0.037467853128910066,0.008316321718133986,-0.009768968211859463
1772709143571119600,0.32011962890625,0.03029576954245567,0.003822480897605419,-0.0007479322904720902
1772709143581144600,0.33014453125,0.04363455906510353,-0.0033600144850090144,0.006207841664180159
1772709143591169500,0.34016943359375,0.020128011271357535,-0.015428382213041186,0.009993278487026691
1772709143601194500,0.350194580078125,0.007967033356428146,-0.005315094075538217,0.009113390379957854
1772709143611219700,0.3602197265625,0.008097381737828254,0.012901640214398503,0.00668729574419558
1772709143621244700,0.37024462890625,0.011553659671545029,0.013890249392949043,0.005639686387404799
1772709143631269600,0.38026953125,0.0329652810126543,0.007216178456507623,0.017656287395581602
1772709143641294600,0.390294677734375,0.03490121751129627,-0.004996273917332292,0.01393025260977447
1772709143651319600,0.400319580078125,0.0171013569265604,-0.0014533771460875867,0.01773004675153643
1772709143661344500,0.410344482421875,0.009186930540204048,-0.0175232721330598,0.011631218419782817
1772709143671369500,0.420369384765625,-0.00035071313381195067,-0.011930822420865296,0.011338299887813628
1772709143681394700,0.430394775390625,0.02481120065152645,-0.0016983283504843712,-0.000592303337343037
1772709143691419600,0.440419677734375,0.051743046718835825,-0.010893259534053503,0.014640592836216092
1772709143701444600,0.450444580078125,0.05727028570771217,-0.010485993907414375,0.017650990165956316
1772709143711469600,0.460469482421875,0.04155950635671615,-0.01811477175280452,0.003933174730464816
1772709143721494800,0.470494873046875,0.010730652850866317,-0.014229235556349158,0.01634834660217166
1772709143731519700,0.480519775390625,-0.0003407762616872787,0.009980492070689797,0.019029585042782127
1772709143741544700,0.490544677734375,0.01807400135099888,0.00028005905039608475,0.010599866078048943
1772709143751569400,0.5005693359375,0.042916766184568404,-0.021150888045690954,0.01468034032471478
1772709143761594600,0.5105947265625,0.04514847075939178,-0.02492536508310586,0.007154694060236215
1772709143771619600,0.52061962890625,0.015357143607735633,-0.01577445570435375,0.010139810818247497
1772709143781644500,0.53064453125,0.0033656770408153533,-0.019286153619736433,-0.007498064137808978
1772709143791669500,0.54066943359375,0.01980184805691242,-0.024190621067769823,0.009238916455768048
1772709143801694700,0.55069482421875,0.03759469437897205,-0.02166508464552462,0.0002884615525603294
1772709143811719700,0.5607197265625,0.05013093534708023,-0.009220357885770499,-0.01293072017841041
1772709143821744600,0.57074462890625,0.030204584127664563,-0.002933605766482651,-0.005729045171290636
1772709143831769600,0.58076953125,0.02452712301313877,-0.0022290376937016843,0.017786562711745498
1772709143841794600,0.590794677734375,0.02857610614299774,-0.035152634989097716,0.009863879953697323
1772709143851819500,0.600819580078125,0.03303016294240951,-0.007481478329189121,-0.03065287588443607
1772709143861844500,0.610844482421875,0.025655834782123563,0.025302966223843395,-0.03721800655368715
1772709143871868700,0.62086865234375,-0.0018640403062105178,0.021507702126726508,-0.0420560211693868
1772709143881894700,0.630894775390625,0.023317747223377226,0.01610445484369993,0.002050685452111065
1772709143891918600,0.640918701171875,0.022419337078928948,0.014820004523731767,0.0010371244953945279
1772709143901943800,0.65094384765625,0.005205167427659034,-0.00675298139154911,-0.012702573978342116
1772709143911968800,0.66096875,0.017501754420995712,0.021733291043527423,-0.020152232397161424
1772709143921993500,0.670993408203125,0.048102059867978095,0.014720160878449677,-0.001102919740602374
1772709143932018400,0.681018310546875,0.03991407723724842,-0.020714652052894234,0.004713365322723984
1772709143942043600,0.691043701171875,0.043380292043089866,-0.029275413518771526,-0.0025158918110653756
1772709143952068600,0.701068603515625,0.026496377259492873,-0.028185207129269838,-0.015122786862589417
1772709143962093600,0.711093505859375,-0.00324643457531929,-0.01683894313070923,-0.011322919655591249
1772709143972118500,0.721118408203125,0.015945172628760336,0.0014197671374306083,0.0025491730261594054
1772709143982143700,0.731143798828125,0.013429974937438964,0.003992832495830953,0.012488383238390088
1772709143992168700,0.741168701171875,0.02106850699186325,0.03300528422947973,0.0009180281603708863
1772709144002193700,0.751193603515625,0.004490881678462028,0.009678769177757203,-0.002478811203688383
1772709144012218600,0.761218505859375,0.014423662149906157,0.021643311205133794,0.010154168137162923
1772709144022243600,0.77124365234375,0.024801263779401776,0.036243206704780456,0.008358809152990579
1772709144032268500,0.7812685546875,0.025440730726718902,0.006359050170518458,0.0008201207438483834
1772709144042293200,0.791293212890625,0.01845394057929516,-0.008949030131101607,0.011932575986534357
1772709144052318200,0.801318115234375,0.039895372536778446,-0.025809637104347347,0.0011166194723919033
1772709144062343200,0.81134326171875,0.042758945274353026,-0.0179080701995641,0.012217238146811723
1772709144072368000,0.8213681640625,0.01282499478161335,0.006328545434400439,0.004951923318952322
1772709144082393000,0.83139306640625,0.010135609567165374,0.01310468850582838,0.0005700549729168415
1772709144092418300,0.841418212890625,-0.0037526305317878723,0.017545009040832518,-0.020265994969941675
1772709144102443300,0.851443359375,0.0070709612995386115,0.000007525719329714775,-0.008278985382430255
1772709144112468200,0.86146826171875,0.029884850654006003,-0.05919738131277263,0.01644428125731647
1772709144122493200,0.8714931640625,0.06972469361126422,-0.06808288122098892,0.030918285354971885
1772709144132518400,0.881518310546875,0.08154255717694758,-0.02626454126499593,0.01598908483572304
1772709144142543400,0.89154345703125,0.04247486763596534,-0.016839783380925653,0.01560136415977031
1772709144152568300,0.901568359375,0.0007259761869907379,-0.02072835178468376,0.013562040351890027
1772709144162593000,0.911593017578125,0.01433773743212223,-0.010179339111037551,0.03241626882776618
1772709144172618200,0.9216181640625,0.02927110266983509,-0.01145882099494338,0.015168817961402237
1772709144182643200,0.931643310546875,0.02161445043683052,-0.008462415657937527,0.0022507746014744042
1772709144192668200,0.941668212890625,0.023415946900844573,0.006820201408863067,0.012223339094035326
1772709144202692400,0.9516923828125,0.036738369810581206,0.02411032237317413,0.027558928457088766
1772709144212717300,0.96171728515625,0.01369067170023918,-0.0005779460184276103,0.018515972964838145
1772709144222742300,0.9717421875,0.01443359902203083,0.01935169313661754,0.012114691087789833
1772709144232767200,0.981767333984375,0.0075467621177434914,0.026260047752968967,0.01613916083090007
1772709144242792200,0.991792236328125,0.010986088916659354,0.003602591069228947,-0.004551160498335957
1772709144252817200,1.001817138671875,0.020112229180336,0.0003111117757856846,-0.010574622038938105
1772709144262842000,1.011842041015625,0.03671323536932468,-0.002819514400139451,-0.016934220198728145
1772709144272867300,1.021867431640625,0.01590659418404102,-0.0011540288733318446,-0.012851882788538932
1772709144282892300,1.031892333984375,0.023822189614176748,-0.015330401731282473,-0.007858129621855914
1772709144292917200,1.041917236328125,0.028157588469982144,0.002484473759494722,-0.016506605903804303
1772709144302942200,1.051942138671875,0.02919745291173458,0.008128872854635118,-0.03022427520882338
1772709144312967400,1.061967529296875,0.03535831362903118,-0.03991619612909853,-0.015033939535357057
1772709144322992400,1.071992431640625,0.053508887347579,-0.04821158465705812,-0.0037158421853557225
1772709144333017300,1.082017333984375,0.08347323297858238,-0.01094838725477457,-0.01066120434384793
1772709144343042000,1.0920419921875,0.06435469101071357,-0.00660210167877376,0.02129150209277868
1772709144353067300,1.1020673828125,0.05182487978339195,0.0004923135615885258,0.021481362109072505
1772709144363092200,1.11209228515625,0.043324177941679955,-0.05776208781264722,0.0010091405099257825
1772709144373117200,1.1221171875,0.028519407519698142,-0.13737758591715246,0.004404299373552203
1772709144383142100,1.13214208984375,0.04421440477967262,-0.14929153026845304,0.033445356147177516
1772709144393167400,1.14216748046875,0.075978493309021,-0.0639342005763203,0.058436918334290384
1772709144403192300,1.1521923828125,0.059604281613230704,0.010903050275705754,0.04914674661532044
1772709144413217300,1.16221728515625,-0.020372925943136215,0.10192910978663712,0.03991404070463031
1772709144423242200,1.1722421875,-0.055256607797741886,0.1713167534632608,0.0038342078680172562
1772709144433267200,1.18226708984375,-0.07776713029146194,0.09773034292254597,-0.12852602481115608
1772709144443292200,1.192292236328125,-0.03864157308340072,-0.03820745598245412,-0.14065974939297884
1772709144453317000,1.202317138671875,0.057257426226139066,-0.11896788633838296,-0.08364533814247697
1772709144463342000,1.212342041015625,0.10026479330360889,-0.1469297695731744,-0.023865699962340295
1772709144473367300,1.2223671875,0.08195990580618381,-0.07125957502834498,0.03863696997351944
1772709144483392300,1.232392333984375,0.010658756658434868,-0.018340433734841642,0.035085159243457016
1772709144493416200,1.242416259765625,-0.013614683854579925,-0.040441973568871616,0.04418240220621228
1772709144503441400,1.25244140625,0.042004327514767646,-0.042611499627679586,0.05494030839018523
1772709144513466000,1.262466064453125,0.07076572709679603,-0.01773519785068929,0.003237447551265359
1772709144523491000,1.272490966796875,0.033630466923117636,-0.018468151767738163,-0.04779730476774275
1772709144533516300,1.282516357421875,-0.010046762239933013,-0.004871003569848835,-0.08526380618978291
1772709144543541200,1.292541259765625,0.0005324994415044785,0.001446289818175137,-0.06083177758157253
1772709144553566200,1.302566162109375,0.02985620908141136,0.0015745923729613422,0.01979461459852755
1772709144563591200,1.312591064453125,0.06285539236366748,0.029610527224652468,0.020286234040372074
1772709144573616400,1.322616455078125,0.02427402503490448,0.039981845243833955,0.02566288557741791
1772709144583641300,1.332641357421875,-0.012948328900337218,0.0321085545854643,0.005921243275143206
1772709144593666300,1.342666259765625,0.009731704941391944,0.03417264750842005,0.0008137640682980417
1772709144603691300,1.352691162109375,0.02901566660404205,0.01962470139171928,-0.021888700800947843
1772709144613716200,1.36271630859375,0.040541269224882125,0.030941885426267978,0.0008255275713279843
1772709144623741200,1.3727412109375,0.022333412361145017,0.022151516455598173,0.017517865305580197
1772709144633766100,1.38276611328125,0.04423486304581165,0.030298765217140314,0.03145319594927132
1772709144643791000,1.392791015625,0.021844752061367035,0.02338277528360486,0.03459934848789126
1772709144653816300,1.40281640625,0.018016133683919907,0.02589209122341126,-0.016011040939204396
1772709144663841300,1.41284130859375,0.02033259393274784,0.031514241954125465,-0.0018172420224174856
1772709144673866200,1.4228662109375,-0.0059223757863044735,0.011617080296576023,0.0025362039467319844
1772709144683891200,1.43289111328125,0.0196066177457571,0.009631569035165011,-0.012254245688952505
1772709144693916400,1.44291650390625,0.04900631523132324,0.012115604403242467,0.011432882836088537
1772709144703941400,1.45294140625,0.02049041484296322,0.008708389775641262,0.02094970291778445
1772709144713966000,1.462966064453125,0.037000235617160794,0.022164193274080753,0.010272716482914983
1772709144723991000,1.472990966796875,0.025260113462805746,0.02552490187883377,-0.024469036150351165
1772709144734016300,1.483016357421875,0.00829319657087326,0.03063972414191812,-0.01400492528118193
1772709144744041200,1.493041259765625,0.022034721675515175,-0.020783698701113462,0.011171601551398635
1772709144754066200,1.503066162109375,0.016662380987405776,-0.07749098023120314,0.009358378116972745
1772709144764090400,1.51309033203125,0.06480185025632382,-0.1139050499908626,-0.004885689682327211
1772709144774115300,1.523115234375,0.050340778705477714,-0.11856624673493206,0.03693411157839
1772709144784140300,1.533140380859375,0.03106090869605541,-0.08935052751414477,0.05030936065390706
1772709144794165200,1.543165283203125,0.022951836520433425,-0.0550588932685554,0.03693133509941399
1772709144804190200,1.553190185546875,-0.004635258585214614,-0.056000338837131854,0.04106032466292381
1772709144814215200,1.563215087890625,0.011934183421730995,-0.047005350672453636,0.031038769929483533
1772709144824240000,1.573240234375,0.04151742078065872,-0.03090988285280764,0.045545799513906235
1772709144834265300,1.583265380859375,0.04308160135746002,0.0023069983007386326,0.08097279446497559
1772709144844290300,1.593290283203125,0.028020225825905798,0.05233841879609972,0.02392860913071781
1772709144854315300,1.603315185546875,-0.012442717465758323,0.05474241119790822,0.02037193956244737
1772709144864340200,1.61334033203125,-0.018285598275065422,0.021751813080906866,0.03306768194120377
1772709144874365400,1.623365478515625,0.02749474064707756,0.013222981123253702,0.021511136192828417
1772709144884390100,1.63339013671875,0.03344984965920448,0.0161785064605996,0.03042429129295051
1772709144894415000,1.6434150390625,0.029365795215964316,0.060163997855223715,0.018535335252434015
1772709144904440000,1.653440185546875,0.008718728506565094,0.054804443583451205,-0.035858920094929636
1772709144914465300,1.66346533203125,-0.0018342296898365019,-0.03154186061341315,-0.02771137907244265
1772709144924490200,1.673490234375,0.032487142106890673,-0.06868512143045663,0.012396174910292029
1772709144934515200,1.68351513671875,0.04994739547371864,-0.05266732195690274,-0.0001425868084654212
1772709144944540200,1.6935400390625,0.01172609362900257,0.02741765682287514,-0.017921002746373413
1772709144954565400,1.7035654296875,0.01935702689886093,0.08625369400996714,-0.00582574701141566
1772709144964590300,1.71359033203125,0.02794306893646717,0.10116930439528077,-0.004198145809583366
1772709144974615300,1.723615234375,0.026669980260729788,0.06234926947243511,-0.015900456704199314
1772709144984640000,1.733639892578125,0.011950550034642219,0.009054645930044352,0.0013852803459390997
1772709144994665200,1.743665283203125,0.05467676208317279,-0.01894548695590347,-0.018828180719166993
1772709145004690200,1.753690185546875,0.04560907400846481,-0.020820340917073188,-0.023872604627162217
1772709145014715100,1.763715087890625,0.025936405289173126,-0.049194494747184216,-0.031990261968038974
1772709145024739300,1.7737392578125,0.03693067751228809,-0.07710234623979777,-0.017490977298654616
1772709145034764300,1.783764404296875,0.04293956253826618,-0.041482349467277524,-0.03300016966294497
1772709145044789500,1.79378955078125,0.01857376756668091,-0.057963893995061515,-0.028606318618170916
1772709145054814500,1.803814453125,0.020720131945610044,-0.0697467593125999,-0.069939140079543
1772709145064839700,1.813839599609375,0.05772679730355739,-0.07305544546917081,-0.03800564980003983
1772709145074864600,1.82386474609375,0.023317747223377226,-0.08352079844735562,-0.006060834408923983
1772709145084889600,1.8338896484375,0.026574118670821188,-0.07459240924548358,0.03104793961662799
1772709145094914600,1.84391455078125,0.016311667853593826,-0.0429052584098652,0.03720949445366859
1772709145104939500,1.853939453125,0.018750293177366255,0.009066811291873455,0.033814810514077545
1772709145114964500,1.863964599609375,0.02510872229337692,0.009226422300375998,0.017720767466537654
1772709145124989400,1.873989501953125,0.03524374733865261,0.01043828230816871,0.0012715543057769537
1772709145135014700,1.8840146484375,0.044937458357214924,-0.01703545208349824,-0.007470628141611814
1772709145145039600,1.89403955078125,0.026944705548882484,-0.012445092085935175,0.008405790099874138
1772709145155064600,1.904064697265625,0.007449731484055519,0.012520166616141795,0.02555339732095599
1772709145165089500,1.914089599609375,0.007995674929022789,0.002710866393893957,0.04015435226652771
1772709145175114800,1.92411474609375,0.010640051957964896,-0.010052315197885036,0.030944260046444832
1772709145185139700,1.9341396484375,0.030647651720046996,-0.023644458427093923,0.033713249835744495
1772709145195164700,1.94416455078125,0.056905544048547745,-0.04505107479952276,0.049423663860559464
1772709145205189400,1.954189453125,0.023414777857065198,-0.03930632060244679,0.07673267267718911
1772709145215214600,1.964214599609375,0.017108955711126327,0.015666976741887627,0.05086820011306554
1772709145225239600,1.974239501953125,-0.00329436537027359,0.022957024152204394,0.009433635310269892
1772709145235264500,1.984264404296875,-0.01770049186348915,-0.015248239873163401,-0.04869381521604955
1772709145245289500,1.99428955078125,0.009096914169192314,-0.03047174716386944,-0.04073185989353806
1772709145255314700,2.004314697265625,0.05224281293451786,-0.04357581461519003,0.01602221992034465
1772709145265339600,2.014339599609375,0.05388765753209591,-0.04246430970933288,0.05118698373865336
1772709145275363600,2.024363525390625,0.02599193486869335,-0.05491013244763016,0.045375922839716074
1772709145285388500,2.034388427734375,-0.002506429862976074,-0.07540913245584815,-0.02207804936058819
1772709145295413500,2.04441357421875,0.006729600515961646,-0.07065327969826757,-0.05036383078750223
1772709145305438500,2.0544384765625,0.04962649295628071,-0.051566082716733214,-0.02770578958187252
1772709145315463400,2.06446337890625,0.054014498782157895,0.0027012217827141285,0.004645012794248759
1772709145325488600,2.074488525390625,0.001934182932972908,0.08814056720249354,0.05114343685787171
1772709145335513600,2.084513671875,-0.012134674429893492,0.18397205423377452,0.05138853419274091
1772709145345538600,2.09453857421875,-0.02489829441308975,0.2702893515318632,0.03794080440290272
1772709145355563500,2.1045634765625,-0.008425883039832115,0.20188019749857483,-0.021274660555832086
1772709145365588700,2.114588623046875,0.04729892679154873,0.08169000282362103,-0.02029142167214304
1772709145375613400,2.124613525390625,0.11819909392297268,-0.08101509923674166,0.010256276804767548
1772709145385638400,2.134638427734375,0.13452946647703648,-0.19132789688929913,0.027499709083139895
1772709145395663600,2.14466357421875,0.06196224291622638,-0.18356844186894594,0.015774967161007226
1772709145405688600,2.1546884765625,-0.03495440900325775,-0.13856763595193625,-0.042161088979057966
1772709145415713500,2.164713623046875,-0.06333353126943111,-0.06229286311008036,-0.05925057280473411
1772709145425738500,2.174738525390625,-0.014463994160294532,-0.006775777745246887,-0.01793346036914736
1772709145435763700,2.184763671875,0.04264087185263633,-0.027427520629763603,0.001989237588457763
1772709145445788700,2.19478857421875,0.08222001804709433,-0.051519101769849654,-0.003292794467695057
1772709145455813600,2.204813720703125,0.0570031592041254,-0.0657543286755681,-0.029038243762031197
1772709145465838600,2.214838623046875,0.025070728370547295,-0.06916669440232216,-0.017253113422170282
1772709145475863600,2.224863525390625,0.024670915398001668,0.005773395769670606,0.020091624783724546
1772709145485888500,2.234888427734375,-0.00630289953649044,0.058750368197634815,-0.0017423136226832866
1772709145495913500,2.24491357421875,-0.01899462332725525,0.041686785998195405,-0.027183373142965137
1772709145505938400,2.2549384765625,-0.02472059975862503,0.005312938651069999,-0.02276278022173792
1772709145515962600,2.264962646484375,0.030637714847922323,0.018912571066990493,0.019286117087118325
1772709145525987600,2.274987548828125,0.07593231607973575,-0.011575360046699642,0.05254577793646604
1772709145536012500,2.285012451171875,0.06373509780764579,-0.04059752945676446,0.030868053005076942
1772709145546037800,2.295037841796875,0.047612815046310424,-0.04428695855922997,-0.04456778479460627
1772709145556062500,2.3050625,0.008760229560732842,-0.07125687161460519,-0.031910584327951075
1772709145566087400,2.31508740234375,0.020928806260228156,-0.04871938804872334,0.035386553342826664
1772709145576112400,2.3251123046875,0.03215396462976932,0.007121887769177555,0.03171191995069384
1772709145586137600,2.3351376953125,0.021957564786076543,0.009504691252484918,0.04041698525808751
1772709145596162600,2.34516259765625,0.015675123515725135,0.007730740382522344,-0.007809796968102455
1772709145606187500,2.3551875,0.015261282017827033,-0.01642667253538966,-0.05858381599169224
1772709145616212500,2.36521240234375,0.03524374733865261,0.036852716905251146,-0.00678450904097408
1772709145626237700,2.37523779296875,0.050310968089103694,0.011335633006691931,-0.05530925130043179
1772709145636262700,2.3852626953125,0.019784312400221823,-0.08339300734922289,0.005636471517011523
1772709145646287600,2.39528759765625,0.04952303258180618,-0.10672010692283511,0.03190846543610096
1772709145656312600,2.4053125,0.03919920696616173,-0.07750263413637876,-0.058938584246113895
1772709145666337500,2.415337646484375,0.011671733093261718,-0.015776611128821966,-0.09748199418466538
1772709145676362500,2.425362548828125,0.005875614035129547,0.03545614798031747,-0.07657079664636403
1772709145686387500,2.435387451171875,-0.04742284543216228,0.05837174414359033,0.010224712622724473
1772709145696412700,2.44541259765625,-0.02226619234383106,0.04270692282617092,0.10540011036545037
1772709145706437600,2.455437744140625,0.07600012061893939,0.04342741912044584,0.1317935387071222
1772709145716462600,2.465462646484375,0.08863397674262523,0.052321869520097965,0.02310991315897554
1772709145726487600,2.475487548828125,0.0310264219045639,0.007680836826190352,-0.0005478431411087513
1772709145736512800,2.4855126953125,0.02985620908141136,0.018101985336467622,-0.05067804783582687
1772709145746536400,2.495536376953125,0.0014735796838998795,0.07233940615430474,0.004013692620769143
1772709145756561400,2.5055615234375,0.0073918638169765466,0.11144618559665977,0.0006948869289830327
1772709145766586600,2.515586669921875,0.01156184297800064,0.10690613101422786,0.05518504039887338
1772709145776611600,2.525611572265625,0.039267596027255054,0.08917772823050618,-0.005267345943674445
1772709145786636500,2.535636474609375,0.05298106408119201,0.031140111412107943,0.011901852054707705
1772709145796661500,2.54566162109375,0.08315525307059288,0.008087810191884636,-0.022557795701548457
1772709145806686700,2.555686767578125,0.03623158933222294,-0.05628339356221258,-0.018227913271076975
1772709145816711700,2.565711669921875,0.011890928801894187,-0.06338453080430627,-0.03221848123334348
1772709145826736400,2.575736328125,0.006241524738073349,-0.11028064894862473,-0.052399428268335754
1772709145836761600,2.58576171875,0.02270925993621349,-0.13707863950319588,-0.023397169135138392
1772709145846786600,2.59578662109375,0.051524435532093044,-0.11250862719640135,-0.012740312172845006
1772709145856811500,2.6058115234375,0.04405366126000881,-0.08326711594723164,0.02534877812694758
1772709145866836500,2.61583642578125,0.004548164823651313,-0.05836969831697642,0.006548289132304489
1772709145876861700,2.62586181640625,0.006056231299042702,-0.05926438213437795,0.021857538477703928
1772709145886886700,2.63588671875,0.051805590561032296,-0.09315160029754042,-0.007419555541500449
1772709145896911600,2.64591162109375,0.061438511303067204,-0.06857771553322672,-0.06982278369087726
1772709145906936600,2.6559365234375,0.02562543964385986,-0.07467712838687002,-0.0747687887256965
1772709145916961800,2.6659619140625,0.014963175854086875,-0.05687383373603224,0.00040836160518229007
1772709145926986500,2.675986572265625,0.019525369203090667,-0.010549158804118632,0.07823869332596659
1772709145937011500,2.686011474609375,0.009548165068030356,0.015394553008675574,0.0598607771249488
1772709145947036400,2.696036376953125,0.02189151381254196,-0.004775616903975606,0.004250423986092209
1772709145957061600,2.7060615234375,0.05075637376904487,-0.013078165825083851,-0.0028698928805068135
1772709145967086600,2.716086669921875,0.07663257330358028,-0.029887115676328537,-0.026619199921563266
1772709145977111600,2.726111572265625,0.04770400046110153,-0.051988911238685244,0.018147358848154545
1772709145987135700,2.7361357421875,0.019520693027973175,-0.01595423271805048,0.03618617928791791
1772709145997160700,2.74616064453125,0.02751344534754753,0.003713832891359925,0.010186170710623263
1772709146007185400,2.756185302734375,0.010809563305974006,0.004243775049597024,0.01881762279253453
1772709146017210400,2.76621044921875,-0.0009060089290142059,0.024304785499349234,-0.00744589555915445
1772709146027235600,2.776235595703125,0.04068739969730377,0.05254720270857215,0.04749222087394446
1772709146037260500,2.786260498046875,0.04487257642745971,0.03576828266941011,0.04058803097605705
1772709146047286000,2.7962861328125,0.03512450487315655,-0.011249489093199372,0.0030416692508384584
1772709146057311000,2.80631103515625,0.027644378250837324,0.021543796353414652,0.029796441718190906
1772709146067336200,2.816336181640625,0.011643091520667075,0.008825476816669106,0.023911731061153112
1772709146077361200,2.826361083984375,0.001464227333664894,-0.027418898931890725,0.024596973378956315
1772709146087386000,2.83638623046875,0.019514263287186622,0.01619425201900303,0.05116009573172778
1772709146097411000,2.8464111328125,-0.0007984569013118743,0.041232101033255454,0.0013659545909613371
1772709146107436300,2.856436279296875,-0.03861293151080608,0.02389854278601706,-0.012753062056563794
1772709146117461000,2.8664609375,-0.028051790007948874,-0.001593114410340786,-0.005333908373862504
1772709146127486000,2.87648583984375,0.04778758709132671,0.010229206134751439,-0.021676190561428665
1772709146137511000,2.886510986328125,0.0862216549038887,0.009198036456108092,-0.04771905189976096
1772709146147536100,2.8965361328125,0.06933247942328452,0.007880012660101056,-0.07589530853759496
1772709146157561000,2.90656103515625,0.04771919803023338,-0.021432956390082834,-0.1102359695566818
1772709146167586000,2.9165859375,0.04318038555681705,-0.08815181924887001,-0.10446922272350638
1772709146177611000,2.926611083984375,0.03454524368047714,-0.0755599756360054,-0.08863043307866901
1772709146187636200,2.93663623046875,0.017340426379442213,-0.06304879604391753,-0.07715089808925986
1772709146197661200,2.9466611328125,0.03351297802329063,-0.046997094300761814,-0.06897219474352896
1772709146207686000,2.956685791015625,0.038760231027007104,-0.03921206644773483,-0.03452862133923918
1772709146217710000,2.9667099609375,0.02665244460403919,-0.07326433897949755,0.014176957379840314
1772709146227735000,2.976735107421875,0.03861468507647514,-0.026374358315020798,0.04204360007923096
1772709146237760000,2.986760009765625,0.02016951232552528,-0.053637189902365205,0.029247721794247627
1772709146247785200,2.99678515625,-0.00005377601385116577,-0.07076170850880444,0.04749419363532215
1772709146257810200,3.00681005859375,0.0369955594420433,-0.027440526241809128,0.07104293660297989
1772709146267835100,3.016835205078125,0.020536592072248457,0.0018357640597969293,0.07650266331359744
1772709146277860000,3.026860107421875,-0.013156418693065643,0.048886269048228854,0.07162300151325762
1772709146287885000,3.036885009765625,-0.007281973701715469,0.08561229083389044,0.05445716451574117
1772709146297910000,3.046909912109375,0.027685879305005073,0.18013583707176148,0.070696059394069
1772709146307935000,3.05693505859375,0.014939794978499411,0.2549471862975508,0.17053437091391532
1772709146317960000,3.0669599609375,-0.07634557305574417,0.057241571069881314,0.07633190985657275
1772709146327985200,3.076985107421875,-0.05730126536786556,-0.2548746325179934,-0.07591046957410871
1772709146338010000,3.087010009765625,0.17291560349464416,-0.1496428644567728,-0.02726940745860338
1772709146348035000,3.09703515625,0.28676936168968675,0.1445149269837886,0.0980323946090415
1772709146358060000,3.10706005859375,0.08208966966569423,0.1280145316250622,0.06891122180391103
1772709146368085200,3.117085205078125,-0.16140870557427406,-0.04799370412267744,-0.01562785030789673
1772709146378110200,3.127110107421875,-0.09351356547772884,-0.04772402033582329,-0.016431714036688208
1772709146388135000,3.137135009765625,0.09392857601940631,0.05889211475588381,-0.05559329240620136
1772709146398160000,3.147159912109375,0.12103344056606292,0.059961570618301624,-0.1250520650902763
1772709146408185000,3.15718505859375,-0.016096563798189162,-0.08272183008939027,-0.10573423769064247
1772709146418210000,3.1672099609375,-0.0018435820400714872,-0.12844853912815452,-0.038239166294969616
1772709146428235000,3.177235107421875,0.07130933245420455,-0.008364508241415023,0.06578147241082043
1772709146438260000,3.187260009765625,0.05875497130751609,-0.004564385306090117,0.03020111352894455
1772709146448284200,3.1972841796875,-0.0401981548756361,-0.0912814225114882,-0.048951004847511644
1772709146458309000,3.20730908203125,-0.048149406141042704,-0.10716164014525711,-0.07377407859992235
1772709146468334000,3.217333984375,-0.0025298107385635375,-0.07564860376752913,0.0005856544008478522
1772709146478359000,3.227359130859375,0.037294250127673144,-0.04043795498088002,0.06420589365717023
1772709146488384000,3.237384033203125,0.0108534024477005,0.02931830281242728,0.10452825943436472
1772709146498409000,3.247408935546875,-0.020394553253054618,0.07985555393807589,0.06050024407226592
1772709146508434200,3.25743408203125,0.0011222820281982422,0.08052132437042891,0.009481785300932823
1772709146518459100,3.267459228515625,0.04339373604655265,0.052210445034876464,0.031037637418322262
1772709146528484000,3.277484130859375,0.07250175710916519,0.027840485344827172,0.02831935490295291
1772709146538509000,3.287509033203125,0.04621873033940792,0.04722198909781873,0.036556546970270574
1772709146548534300,3.2975341796875,0.011733692413568496,0.03419759928658604,0.017253844074532388
1772709146558559200,3.307559326171875,0.006050970602035522,0.04261208414956927,-0.026617848214693367
1772709146568584000,3.317583984375,0.019123802664875983,0.01034559905603528,-0.035377822047099466
1772709146578609000,3.32760888671875,0.03615443244278431,-0.038644422627612945,-0.024372845766879616
1772709146588634000,3.337634033203125,0.06772445970475673,-0.05796411319077015,-0.029119492304697632
1772709146598659000,3.3476591796875,0.06171615920066833,-0.0139196581505239,-0.035217553451471026
1772709146608684000,3.35768408203125,0.008453940090537071,0.04552848305292427,-0.015026231152936815
1772709146618709000,3.367708984375,-0.02555237440764904,0.01052234386242926,-0.031787469404935834
1772709146628734200,3.377734130859375,0.01176701016128063,-0.04586560605280101,0.009071560532227158
1772709146638759200,3.38775927734375,0.07466624166667461,-0.09424107603468,0.06078852296173572
1772709146648784100,3.3977841796875,0.08285188620984554,-0.11533800540342927,0.045955439760722215
1772709146658809000,3.40780908203125,0.04637947385907173,-0.1359797383505851,0.055809236711822446
1772709146668833000,3.4178330078125,0.05159516268074512,-0.05167867624573409,0.07496818375531583
1772709146678858000,3.42785791015625,0.007823240971565245,0.016760069208219645,0.03519665679391473
1772709146688883000,3.437883056640625,-0.03788227914869785,-0.003173734665289521,0.025127098200283943
1772709146698908200,3.447908203125,0.008174538627266883,-0.020352759937942028,0.04476038475725799
1772709146708933000,3.45793310546875,0.05165478391349315,-0.042151846226677295,0.05216715388242155
1772709146718958000,3.4679580078125,0.04614274249374866,-0.09813830266892909,0.058209758514910934
1772709146728983000,3.477983154296875,0.04417465729117393,-0.09148089060634373,0.03308032222706824
1772709146739008000,3.488008056640625,0.025379940450191495,-0.011947262099012732,0.02561334734726697
1772709146749033000,3.498032958984375,-0.021870471024513245,0.009836699685826898,-0.028106698532961306
1772709146759058000,3.508057861328125,-0.02645955238044262,0.032813889843225474,-0.04824176059961319
1772709146769083100,3.518083251953125,0.004468085324764251,-0.005060863586142659,-0.05699146876633167
1772709146779108000,3.528108154296875,0.048125440743565555,-0.005559387692809104,-0.07066434908155352
1772709146789133000,3.538133056640625,0.06350245809555054,0.01662168365083635,-0.059653491049818694
1772709146799158000,3.548157958984375,0.01602700569331646,0.020623393572866914,-0.05046071529071778
1772709146809183200,3.558183349609375,-0.00615910715162754,-0.009883826763182878,-0.07508296924140304
1772709146819208200,3.568208251953125,0.016548399218916893,0.03968633289597928,-0.08806381217185408
1772709146829233200,3.578233154296875,0.01609013405740261,0.07701733483746648,-0.11625402426980436
1772709146839257900,3.5882578125,-0.001928337714076042,0.06018631928488612,-0.07409256996456533
1772709146849283000,3.598282958984375,0.018852584508061408,0.040299861684441565,-0.004075651941075921
1772709146859308000,3.60830810546875,0.03377776643931865,-0.012241349674761294,-0.006102554658800363
1772709146869333000,3.6183330078125,0.029389760613441465,-0.05265913865044713,-0.022113741728477177
1772709146879358000,3.62835791015625,0.03953530705273151,-0.05426935032606125,-0.007682371196150779
1772709146889382100,3.638382080078125,0.05985153437256813,-0.06013897301182151,0.014167093572951853
1772709146899407000,3.648406982421875,0.06771393831074238,-0.08108743382059037,0.047116592494584615
1772709146909432000,3.65843212890625,0.043650341156125066,-0.08676986337117851,0.04518967955261469
1772709146919457000,3.66845703125,0.03869125744402408,-0.10146225945986807,0.044916707830131054
1772709146929482000,3.67848193359375,0.03939560632109642,-0.08272964806966483,0.03314498496111482
1772709146939507000,3.6885068359375,0.03619125732183456,-0.02322057045921683,0.043766807142645116
1772709146949532200,3.6985322265625,0.033274493092298504,-0.01779094662591815,0.04692658634781837
1772709146959557000,3.70855712890625,0.0014899462968111037,-0.003050619742274284,0.04283876904491335
1772709146969582000,3.71858203125,-0.004071779483556747,-0.023263605883345008,0.05018978939484805
1772709146979607000,3.72860693359375,0.042128830677270884,-0.042936859124526376,0.06185056270267814
1772709146989632300,3.73863232421875,0.04652268172204494,-0.03630070904567838,0.02806329778265208
1772709146999657200,3.7486572265625,0.035953356912732125,-0.006744067432731389,0.04022420263234526
1772709147009682200,3.75868212890625,0.030510873597860335,0.0259646084703505,0.026766134111583233
1772709147019707000,3.768706787109375,0.006368365988135337,0.04061638028770685,0.011412497635185717
1772709147029732000,3.778732177734375,-0.0018652093499898909,0.02100004486553371,0.03175597828812897
1772709147039757000,3.788757080078125,0.03690320498347282,-0.031830285633355375,0.03826375274695456
1772709147049781800,3.79878173828125,0.04122925148904323,-0.06757642953619361,0.04055069464035332
1772709147059806500,3.808806396484375,0.00855330881178379,-0.06125044138506055,0.014555289172939955
1772709147069831700,3.818831787109375,0.021014146456122398,-0.019821648735925554,0.024140059924311934
1772709147079856600,3.828856689453125,0.017458499801158905,0.011674436507001519,0.031737894642166795
1772709147089881600,3.838881591796875,0.01868774933516979,0.017792480995878577,0.024744345960393547
1772709147099906600,3.848906494140625,0.023047113588452336,-0.02229030387178063,0.0038795083144679663
1772709147109930800,3.8589306640625,0.008550970724225044,-0.01586085534617305,-0.0006414031760767102
1772709147119955700,3.868955810546875,0.011701543709635734,-0.0052096244070678945,0.024294373703189192
1772709147129981000,3.87898095703125,0.010660510224103926,0.05201945250742137,0.026874051465466616
1772709147140005600,3.889005615234375,0.003649754679203033,0.0312437909822911,-0.045425059211067854
1772709147150030600,3.899030517578125,0.006593991437554359,0.029867388062551615,-0.022074907555431126
1772709147160055600,3.9090556640625,0.05222878440916538,0.03704107908420264,-0.04071194961667061
1772709147170080800,3.919080810546875,0.059554012730717656,0.02545395553447306,-0.02314049096032977
1772709147180105700,3.929105712890625,0.0013847323566675185,0.08066621273383498,0.013308065590821205
1772709147190130700,3.939130615234375,-0.009590835165977477,0.05437814446277916,-0.07377758573126048
1772709147200155600,3.94915576171875,0.027216508227586745,0.018018106445297596,-0.07174805266503244
1772709147210180900,3.959180908203125,0.04204933570027351,0.0017456746235489844,-0.07313501351140439
1772709147220205800,3.969205810546875,0.037434535381197925,-0.052440016007050866,-0.05304623827189207
1772709147230230800,3.979230712890625,0.03324585151970386,-0.08902750610485673,-0.031634616930782795
1772709147240255500,3.98925537109375,0.0004623568147420883,-0.09683262689784168,-0.009221015472896396
1772709147250280700,3.99928076171875,0.0520230327039957,-0.1225589696329087,-0.03345551221501082
1772709147260305700,4.0093056640625,0.05697568667531013,-0.07988339179307222,-0.025430026669614015
1772709147270330600,4.01933056640625,0.020461188748478888,-0.02828479504622519,-0.02285363684296608
1772709147280355600,4.02935546875,0.025545944666862486,-0.002910699814930558,0.020205350823886692
1772709147290380800,4.039380859375,0.017000819161534307,0.05992993337102234,0.023497926095873117
1772709147300405800,4.04940576171875,0.04857786068618297,0.05243928535468876,0.025144779987446964
1772709147310430700,4.0594306640625,0.03185176681280136,0.06752126528285443,0.044171771214343604
1772709147320454700,4.06945458984375,0.02082885301709175,0.0452451360668987,0.0304762041432783
1772709147330479600,4.079479736328125,0.013868366354703902,0.05056508898064494,0.0335175080679357
1772709147340504600,4.089504638671875,0.04254617930650711,0.04513678032159805,0.03802694831639528
1772709147350529800,4.09952978515625,0.049987727484107014,0.03461560550294816,-0.014638912335783242
1772709147360554800,4.1095546875,0.0439800115019083,-0.019339856568351386,-0.0327256270378828
1772709147370579700,4.119579833984375,0.01286591131389141,-0.059973334121331566,-0.017772826447337863
1772709147380604700,4.129604736328125,0.04638590359985828,-0.03408084103912115,0.02480425945408642
1772709147390630000,4.1396298828125,0.05395195493996143,-0.0241479144372046,0.029056729266792532
1772709147400654800,4.14965478515625,0.005967968493700027,-0.012739581520482896,0.016726386134326456
1772709147410679600,4.159679443359375,0.004983633631467819,-0.019940014418587088,-0.012773410724848508
1772709147420704500,4.16970458984375,0.008994038316607474,-0.05369827243983745,0.00739215607792139
1772709147430729700,4.179729736328125,0.061332712841033935,-0.020155228071846068,0.04165032644532621
1772709147440754700,4.189754638671875,0.054526539957523344,-0.04696026942171156,0.03985149686243385
1772709147450779600,4.199779541015625,0.029593758752942085,-0.08495685913246125,0.014054463511332868
1772709147460804600,4.2098046875,0.013792963030934333,-0.09245846693422645,-0.0026112054117023945
1772709147470829800,4.219829833984375,0.012632102558016776,-0.10357534262370317,0.015268223215267062
1772709147480854800,4.229854736328125,0.0112847796022892,-0.08028324129823596,0.010713774781301618
1772709147490879700,4.239879638671875,0.0012210662275552748,-0.04029138611704111,0.015476093812286852
1772709147500904700,4.24990478515625,-0.009904723420739173,-0.036228264863975346,0.022429054755344985
1772709147510929700,4.2599296875,-0.014609540110826491,-0.0379535177540034,0.006930310719832778
1772709147520953600,4.26995361328125,-0.0021066168904304503,-0.04301759621053934,0.008437756140716374
1772709147530978600,4.279978515625,0.03804594527781009,-0.023749599302001295,0.017212525683455167
1772709147541003800,4.290003662109375,0.021034604722261426,0.0021204992853105066,0.02529470985215157
1772709147551028700,4.30002880859375,0.037411154505610465,-0.005084975114092231,0.02370791558474302
1772709147561053700,4.3100537109375,0.057227615609765047,0.010922083769738673,0.019247136783599853
1772709147571078700,4.32007861328125,0.037970541954040524,0.022484730465337634,0.008383030278794466
1772709147581103900,4.330103759765625,0.018570260435342788,0.0435452733464539,0.005547733787633478
1772709147591128600,4.340128662109375,0.017304770544171334,0.04640913834497332,-0.00433123413734138
1772709147601153500,4.350153564453125,0.035684476843476295,0.052003597351163625,0.004901362175494432
1772709147611178800,4.3601787109375,0.049592590686678886,0.023741233332455158,0.01372124950159341
1772709147621203700,4.37020361328125,0.04136544508934021,0.033507278934866186,0.00241330821942538
1772709147631228700,4.380228759765625,0.015054361268877983,0.03621200784891843,0.019048472406342623
1772709147641253600,4.390253662109375,0.0028290859460830685,0.034726007074862716,0.007825505993887781
1772709147651278800,4.40027880859375,0.011259645161032675,0.0026479572255164383,0.02867514607068151
1772709147661303800,4.4103037109375,0.02295592817366123,-0.020804449228197335,0.01940663819424808
1772709147671328800,4.420328857421875,0.020708441507816314,-0.041990810446068644,0.0098373938055709
1772709147681353700,4.430353759765625,0.014104513198137282,-0.060761342693865295,-0.003555463991872966
1772709147691378700,4.440378662109375,0.017373159605264664,-0.06977445103712379,0.008461173548921942
1772709147701403600,4.450403564453125,0.024207974061369895,-0.06946553121842444,-0.003604381167516112
1772709147711428600,4.4604287109375,0.020838789889216423,-0.05669131677597761,-0.012022153966128825
1772709147721453600,4.47045361328125,0.023894670328497885,-0.04769157937094569,-0.025674612547829746
1772709147731477800,4.480477783203125,0.03175473617911339,-0.03218735544271767,-0.02544727006535977
1772709147741502700,4.490502685546875,0.03423310899138451,-0.020452128659188745,-0.0089327731160447
1772709147751527700,4.500527587890625,0.029229017093777655,-0.016930384273827075,0.012377506742440163
1772709147761552600,4.510552734375,0.024522446838021277,-0.04243468175604939,0.008966858048737049
1772709147771577600,4.52057763671875,0.035816578790545464,-0.07070442536361515,-0.02901705484353006
1772709147781602600,4.5306025390625,0.044832828938961025,-0.012673603612184524,-0.02725008170362562
1772709147791627500,4.54062744140625,0.013301964643597602,0.018299626800417898,-0.024733276577107607
1772709147801652700,4.55065283203125,0.014584990191459654,0.027920637908950448,-0.002753536491841078
1772709147811677700,4.560677734375,0.019936288091540334,0.021488778230547904,0.0011533347535878419
1772709147821702700,4.57070263671875,0.03484861054122448,-0.00891812353618443,-0.022437238061800598
1772709147831727600,4.5807275390625,0.03391746717095375,0.006992562301084399,-0.009598689678870141
1772709147841752800,4.5907529296875,0.03721826228201389,0.017835297224298118,-0.015198628577776253
1772709147851777800,4.60077783203125,0.02678630011677742,0.02853160941414535,0.007915449299663304
1772709147861802500,4.610802490234375,0.02191080303490162,0.03813252758271992,0.033357714396342636
1772709147871827700,4.62082763671875,0.03348784358203411,0.10554835972972214,0.04967172033749521
1772709147881852700,4.630852783203125,-0.009693711018562316,0.05618190594911575,0.02601739810351282
1772709147891877600,4.640877685546875,-0.029930443361401556,-0.10458441006839275,0.017685184696502983
1772709147901902600,4.650902587890625,0.06626549306809902,-0.14275193589925766,0.024087672149948773
1772709147911927800,4.660927734375,0.13992051186561583,-0.02077821880839765,0.006623582858219742
1772709147921952800,4.670952880859375,0.05986380933225154,0.10521174818649888,-0.07885759240929037
1772709147931976700,4.680976806640625,-0.06987199312746524,0.07988419551067054,-0.09491082852240651
1772709147942001700,4.691001708984375,-0.03534896127879619,-0.03553184356503188,-0.03217734550535679
1772709147952026600,4.701026611328125,-0.015952186891436577,-0.20366364684924482,0.18116992935985327
1772709147962051600,4.711051513671875,0.1370814890474081,-0.19639701684713362,0.15960954719781875
1772709147972076500,4.72107666015625,0.06477379320561885,-0.06203421217389404,-0.05572568661421537
1772709147982101800,4.731101806640625,-0.06443769311904907,-0.05304368098862469,-0.20909275922589002
1772709147992126700,4.741126708984375,0.0006336217284202575,-0.11126819868125021,-0.056767779545672234
1772709148002151700,4.751151611328125,0.10557868180274962,-0.14293905596919357,0.059861325114220376
1772709148012176600,4.7611767578125,-0.03493278169333935,-0.13427746447734534,0.09878679317291826
1772709148022201900,4.771201904296875,0.030608488753437996,-0.023709888346120714,0.04095540298372507
1772709148032226800,4.781226806640625,0.14966098463535307,0.08640965175665914,0.04627634227816015
1772709148042251500,4.79125146484375,-0.0036830724269151685,0.10825703416652976,-0.03059259706456214
1772709148052276700,4.80127685546875,0.00904781433045864,0.05359430060870945,-0.08099482363369315
1772709148062302000,4.811302001953125,0.08113456089794635,0.1333686060041189,0.04517134017832577
1772709148072327000,4.821326904296875,0.011923077505826949,0.0893372296411544,0.07126637009531259
1772709148082351900,4.831351806640625,-0.11815759286880492,-0.08631517840623855,0.060336687541007995
1772709148092376800,4.841376953125,-0.0019259996265172958,-0.012070157826319336,0.024641981564462182
1772709148102402000,4.851402099609375,0.14021277281045913,0.027335531497374176,-0.04591251393444836
1772709148112426800,4.8614267578125,0.07886193979084491,-0.0053214142184704535,-0.024832097309082746
1772709148122451700,4.87145166015625,-0.0038438159465789793,0.024642858347296712,0.06942742769774049
1772709148132476000,4.881475830078125,-0.04201309534311294,0.013390227448940277,0.04046042254101485
1772709148142500900,4.8915009765625,-0.03068096946775913,-0.03167524120211601,0.011029818460531532
1772709148152525800,4.90152587890625,0.05265840799808502,-0.030680311880633235,-0.03491948382034898
1772709148162551000,4.911551025390625,0.08214110759198665,-0.03274126299843192,0.0015171630972996353
1772709148172576000,4.921575927734375,0.043829789376258844,-0.051546793494373556,0.017135953315906227
1772709148182601000,4.93160107421875,0.007883446726202965,-0.0489838111385703,0.00002966448590159416
1772709148192625700,4.941625732421875,-0.023289105650782585,-0.03617708266600966,-0.0009801336111500858
1772709148202651000,4.95165087890625,-0.026333295652270317,-0.014797317767888308,-0.00912402137182653
1772709148212675800,4.96167578125,0.008790624698996543,-0.0030909517526626585,-0.012231558933109045
1772709148222700800,4.97170068359375,0.029562779092788694,-0.05092391235567629,0.012130838504992424
1772709148232725800,4.981725830078125,0.07066226672232151,-0.06770896987468004,0.008697831849008799
1772709148242751000,4.9917509765625,0.053360418787598604,-0.06293766381964087,0.016458346315287052
1772709148252776000,5.00177587890625,0.04425999748706817,-0.028385113615542648,-0.004660867950506508
1772709148262801000,5.01180078125,-0.009721183547377586,0.013950126354023814,-0.019865926269069314
1772709148272825900,5.021825927734375,0.0016167875468730926,0.00004186638034880161,-0.007628120258264243
1772709148282850800,5.031850830078125,0.03722586106657982,-0.011781550143286586,0.025659378446079788
1772709148292875800,5.041875732421875,0.07621990084946155,-0.027202187441289424,0.018482472554035484
1772709148302900700,5.051900634765625,0.05908288808763027,-0.002413125556334853,-0.0028755919689312575
1772709148312925700,5.06192578125,0.01686345651745796,0.015038286916911602,-0.021781842892989515
1772709148322951000,5.071950927734375,-0.009739888247847557,0.010915800159424543,-0.0036642581285908815
1772709148332974800,5.081974853515625,0.011985621348023414,-0.005864215858280658,-0.0024390271825715897
1772709148342999800,5.091999755859375,0.042669513425230975,-0.03487191835157573,-0.005861074053123593
1772709148353025000,5.10202490234375,0.05030687643587589,0.0041630379635840655,-0.02705514365341514
1772709148363049700,5.1120498046875,0.04001169239282608,0.0020661387495696545,-0.0033134719295427203
1772709148373074700,5.12207470703125,0.02239128002822399,-0.00426905562132597,0.02611431913934648
1772709148383100000,5.132099853515625,0.0045966801404953,-0.002460544894635677,0.026207806109078226
1772709148393124900,5.142124755859375,0.03137479695081711,0.011310060174018144,0.030364304734021425
1772709148403149800,5.15214990234375,0.037222353935241696,0.0018681319594383238,0.022883995448611676
1772709148413174800,5.1621748046875,0.03276011382937431,0.00029423370622098444,0.014276618362031876
1772709148423200000,5.172199951171875,0.02172550959587097,-0.02572371238656342,0.01662771153282374
1772709148433225000,5.182224853515625,0.007948328655958176,-0.027261662543565032,0.010200674160011112
1772709148443250000,5.19225,0.006436755049228668,-0.03756342245787382,0.012554799538105725
1772709148453275000,5.20227490234375,0.018402502653002736,-0.03003733780197799,-0.0039872795378789305
1772709148463299800,5.2122998046875,0.028251696494221684,-0.021549276246130466,-0.006246237445808947
1772709148473324800,5.22232470703125,0.01938274586200714,-0.012424451156705617,-0.006475296961329877
1772709148483349800,5.232349853515625,0.010977905610203743,-0.021122575266659258,-0.006848514187894761
1772709148493374700,5.242374755859375,0.003017301994562149,-0.009878127674758434,-0.004798778583854436
1772709148503400000,5.25239990234375,0.029219080221652982,0.007622019311040639,-0.004325388918444514
1772709148513425000,5.2624248046875,0.026843583261966703,0.00858794173374772,0.015893515506759284
1772709148523448800,5.27244873046875,0.022255670949816703,-0.013333017368987201,0.008029540666006505
1772709148533474000,5.28247412109375,0.038295536124706264,-0.017635317672789096,-0.0031026787230744955
1772709148543498800,5.292498779296875,0.03933364700078964,0.004201689473539591,-0.0029490590639412403
1772709148553523700,5.302523681640625,0.00476268435716629,-0.005730141149833798,0.003697575876303017
1772709148563549000,5.312548828125,0.021850012758374213,0.0038110096555203196,-0.000027107202634215352
1772709148582972000,5.331971923828125,0.020203414595127103,0.012408084543794393,0.013161935118399559
1772709148592996900,5.341996826171875,0.023024317234754562,-0.0034315088186413047,0.006611563626863062
1772709148603021800,5.352021728515625,0.022431027516722678,0.013430851720273494,-0.0012328662632033228
1772709148613046800,5.362046875,0.02246668335199356,0.0010677022967487573,0.0017137451153248547
1772709148623071000,5.372071044921875,0.023090368208289146,-0.017172303270921112,0.00869257115200162
1772709148633095700,5.382095703125,0.027247487887740132,-0.012253259308263658,0.003820617734082043
1772709148643120600,5.39212060546875,0.04430909732580185,-0.011897066281735896,0.006094006026163697
1772709148653145900,5.402145751953125,0.014354104045033454,-0.03036642362587154,0.00676364891603589
1772709148663170800,5.4121708984375,0.015373510220646857,-0.05288593314364552,-0.00027622312549501653
1772709148673195800,5.42219580078125,0.024767946031689643,-0.03785108029283583,-0.009779599203728138
1772709148683220700,5.432220703125,0.03773907128572464,-0.008754311276599765,-0.005325871197879314
1772709148693246000,5.442245849609375,0.03321837899088859,-0.009248670664802193,0.0009661050857976078
1772709148703271000,5.45227099609375,0.017353285861015318,-0.024721841867640613,0.004816387305781245
1772709148713296000,5.4622958984375,0.023477321699261665,-0.021230492620542645,0.00950220703445375
1772709148723321000,5.472321044921875,0.027037060007452964,-0.031079101939871904,0.009441672486253083
1772709148733345800,5.482345703125,0.055741176444292065,-0.019463044556602836,0.01467865982428193
1772709148743370800,5.492370849609375,0.05367664512991905,0.010710706041380762,-0.011248685375601053
1772709148753395700,5.502395751953125,0.012853636354207991,0.03561199612915516,-0.006892572525329888
1772709148763421000,5.5124208984375,-0.0033387890338897703,-0.008423764147982,0.041658838545344766
1772709148773446000,5.52244580078125,0.0185872115701437,-0.02980294452421367,0.02990742781199515
1772709148783470800,5.532470947265625,0.02497720486819744,-0.020706907137855887,0.007065189145877957
1772709148793495800,5.542495849609375,0.023624036693572995,0.009063377225771546,-0.02814856491331011
1772709148803521000,5.55252099609375,0.0375491016715765,-0.004781608253344893,-0.027144465904682873
1772709148813546000,5.5625458984375,0.04934007723033428,0.018454744296893477,0.005559387692809104
1772709148823571000,5.572571044921875,0.0105178868830204,-0.004750190201774239,-0.002760477689281106
1772709148833595000,5.582594970703125,-0.023480244308710096,0.010946487558633089,-0.01924571201149374
1772709148843619800,5.592619873046875,-0.0010100538253784179,0.013240955171361564,0.0046325917040929195
1772709148853644800,5.602644775390625,0.0314841025441885,0.011544453451782464,0.008676094941236077
1772709148863669800,5.612669677734375,0.06514321103990077,-0.0073193100374191996,0.011729966086521744
1772709148873695000,5.622695068359375,0.047754269343614576,-0.00833681651689112,0.025952881499938664
1772709148883720000,5.632719970703125,0.018842647635936734,-0.004618672776594758,0.009574358955211937
1772709148893745000,5.642744873046875,-0.011420973202586173,-0.01679667489156127,0.00634860184174031
1772709148903769900,5.652769775390625,0.00305646496117115,-0.026107670202851294,0.01400262372624129
1772709148913794800,5.662794921875,0.045342532026767725,-0.038053251801431175,-0.005492533001676202
1772709148933219000,5.682218994140625,0.018241759133338926,0.0026540947053581474,0.014647168707475065
1772709148943243800,5.692243896484375,-0.013094459372758865,0.014507102649658918,0.012428433212079107
1772709148953268700,5.702268798828125,0.004670914420485496,0.02684679813235998,-0.0009585063012316822
1772709148963293700,5.712293701171875,0.03726502403318882,0.023716464217379687,0.001370484635606408
1772709148973319000,5.72231884765625,0.040709027007222176,0.016208718935772776,-0.0081672321036458
1772709148983343900,5.73234375,0.06018178924024105,-0.0008947568826377392,-0.00013491495866328477
1772709148993368800,5.742368896484375,0.04104804970324039,-0.03332717312760651,0.009806852536834776
1772709149003393800,5.752393798828125,0.04074760545194149,-0.04024645099677145,0.002097264540195465
1772709149013419000,5.7624189453125,0.017547347128391264,-0.03912088103294372,-0.012224215876869856
1772709149023444000,5.77244384765625,0.0171013569265604,-0.006021306116133928,-0.008303498769178986
1772709149033469000,5.782468994140625,0.005429039311408996,-0.02579590083993971,0.0011499006874859333
1772709149043493600,5.79249365234375,0.03998071273267269,-0.03430390920527279,0.017789777582138774
1772709149053519000,5.80251904296875,0.04309212275147438,-0.03224083919562399,0.007722447478212415
1772709149063544000,5.8125439453125,0.008808744877576827,-0.03589475859329104,0.0004753989594057202
1772709149073569000,5.822569091796875,0.011944120293855666,-0.024650384066626427,-0.0008626447113230824
1772709149083594000,5.832593994140625,0.022559622332453726,-0.02334938447065651,-0.011254859388060867
1772709149093619200,5.842619140625,0.021045126116275785,-0.0297309022013098,0.00947926455028355
1772709149103644200,5.85264404296875,0.0250572843670845,-0.02305712352581322,0.010818221536464988
1772709149113669000,5.862669189453125,0.022353286105394363,-0.011142886913567782,0.00463799853157252
1772709149123693000,5.872693115234375,0.026255554240942,0.005489025870338082,0.009074044750258326
1772709149133718000,5.882718017578125,0.00007189619243144989,0.018480170999094842,0.006852057851850986
1772709149143743000,5.892742919921875,0.025965046861767767,0.012298413624241947,0.0018023001816123722
1772709149153768000,5.902767822265625,0.019704232901334762,0.029151567943394182,-0.010351188546605408
1772709149163793200,5.912793212890625,0.028731004443764686,0.031057109303772448,0.003315481223538518
1772709149173818000,5.922818115234375,0.028043022179603576,0.015158406165242194,0.004677088432945311
1772709149183843000,5.932843017578125,0.03558043194711208,0.008490984165295958,0.020392434361204505
1772709149193868300,5.942868408203125,0.025443068814277648,-0.027365342113748192,0.021405008937232194
1772709149203893200,5.952893310546875,0.039082302588224406,-0.02611519592218101,0.011481398152932525
1772709149213918000,5.96291796875,0.05095277312397956,-0.00045994566194713113,-0.012150967977568506
1772709149223943000,5.97294287109375,0.01723813504874706,0.0356521089438349,-0.012301043972745536
1772709149233968000,5.982968017578125,-0.0005032733470201492,-0.014981149902194738,0.030237207755632697
1772709149243993000,5.9929931640625,0.024625322690606116,-0.04744491113349795,0.03390482688508928
1772709149254018000,6.00301806640625,0.011449614775180816,-0.057637730780616396,-0.01352196406982839
1772709149264043000,6.01304296875,0.021052724900841712,-0.03649856970533728,-0.025976298908144235
1772709149274068200,6.023068115234375,0.04204407500326633,-0.015940423388406632,-0.012055690909549593
1772709149284093200,6.03309326171875,0.049994741746783256,-0.0026730186015367506,0.0050978345956653355
1772709149294118100,6.0431181640625,0.029042554610967636,-0.01362849318422377,0.004017674676142633
1772709149304142800,6.053142822265625,-0.006269581788778305,0.0002326397120952606,-0.02760309639237821
1772709149314168000,6.06316796875,0.013222469666600227,0.009911007031053303,-0.009245821120589972
1772709149324193000,6.073193115234375,0.033467969837784765,0.0026132512383162973,0.009417232164740563
1772709149334218000,6.083218017578125,0.05191021997928619,-0.006158814890682697,0.006751848880387842
1772709149344243000,6.093242919921875,0.02590951728224754,0.0008177461236715316,0.006717033295333385
1772709149354268200,6.10326806640625,0.008587211081385613,-0.006908025822788476,0.020100063818506896
1772709149364293000,6.113293212890625,0.004873158994317055,-0.004749605679884553,0.009213416688330471
1772709149374318000,6.123318115234375,0.015523147824406622,-0.011467442692816257,-0.0032169527525082228
1772709149384343000,6.133343017578125,0.01673018552660942,-0.0248918646723032,0.018040026016160844
1772709149394367000,6.143366943359375,0.037683541706204415,-0.010222776393964886,0.009527743334509432
1772709149404392000,6.153391845703125,0.03859598037600517,-0.02275003033801913,0.01037672484666109
1772709149414417200,6.163417236328125,0.019465747970342635,-0.015653642336279153,0.014746427830867468
1772709149424442000,6.173442138671875,-0.005807809495925903,0.005084536722674966,0.011019698925316334
1772709149434467000,6.183467041015625,0.006198854640126228,-0.012838073458895087,0.019979469646140932
1772709149444492000,6.193491943359375,0.03718494453430175,-0.04149272473081946,0.012486885401047766
1772709149454517200,6.203517333984375,0.03746902217268944,-0.03378784944191575,-0.003970985990203917
1772709149464542200,6.213542236328125,0.026117607074975967,-0.02856558474898338,0.00018467238452285527
1772709149474567200,6.223567138671875,0.028797639939188956,-0.007208104747906327,0.015117453100346028
1772709149484591900,6.233591796875,0.0021539631634950635,-0.02995207067131996,0.011225085304304957
1772709149494617000,6.2436171875,0.01711713901758194,-0.005789689317345619,-0.007634951857849955
1772709149504642000,6.25364208984375,0.03551087384223938,0.00668283876478672,-0.0019282646488398313
1772709149514667000,6.2636669921875,0.039730537363886834,0.008035276287049054,-0.010831227148510515
1772709149524692000,6.27369189453125,0.033930326652526856,0.015984116399660707,0.004727795706875622
1772709149534717200,6.28371728515625,0.012697569009661673,-0.0043524961210787295,0.006454290705919265
1772709149544742100,6.2937421875,0.029626491978764533,0.018353475879505275,-0.011763612627796828
1772709149554767000,6.30376708984375,0.025299860951304435,0.01678505751900375,-0.0028832272861152885
1772709149564792000,6.3137919921875,0.018269231662154196,0.01514298940040171,0.009230660084076225
1772709149574817300,6.3238173828125,0.023068740898370743,0.06888195917680859,0.00504939234405756
1772709149584842000,6.333842041015625,0.008171616017818451,0.04469729292578995,-0.018209500831551848
1772709149594867000,6.343866943359375,0.019051906472444532,0.025315131585672498,-0.014130597487464546
1772709149604892000,6.353891845703125,0.051308746954798694,-0.025877806969732044,-0.0004000687008723616
1772709149614917000,6.363917236328125,0.07366086401641368,-0.05190247506424785,-0.00037610330339521165
1772709149624942000,6.373942138671875,0.04394610923230648,-0.024617723906040192,-0.009001125644519924
1772709149634967000,6.383967041015625,-0.002802197939157486,-0.009366890216991304,-0.03472538602035492
1772709149644992000,6.393991943359375,0.00941080242395401,-0.03469049737006426,-0.028564050379022956
1772709149655017200,6.404017333984375,0.016800912675261497,-0.061161082601174706,-0.011416771951504052
1772709149665041000,6.414041015625,0.05302899487614631,-0.054446460458636284,0.0003637552784755826
1772709149675066000,6.424066162109375,0.04675590595602989,-0.059151642474904655,-0.0044352425010874864
1772709149685091000,6.434091064453125,0.02135609176158905,-0.027163462866097686,-0.014684139716997741
1772709149695116000,6.444115966796875,0.04701075749993324,0.0006368365988135337,-0.013480389950424432
1772709149705141000,6.45414111328125,0.020602058523893355,-0.01923003951832652,0.018706490568257867
1772709149715166200,6.464166259765625,0.010289923346042633,-0.06192527190670371,0.017840777117013932
1772709149725191200,6.474191162109375,0.027021862438321113,-0.05930142620913684,0.024752456201612948
1772709149735216000,6.484216064453125,0.012478957822918892,-0.03879647138416767,0.009901106691546738
1772709149745241000,6.494240966796875,0.018319500544667244,0.0018046382691711187,-0.004297404932975769
1772709149755266000,6.50426611328125,0.030607904231548307,0.01883066493719816,0.02134264775812626
1772709149765291000,6.514291015625,0.019221417820453644,0.01948920191116631,0.029470278503745794
1772709149775316000,6.52431591796875,0.026978607818484306,0.01417005271501839,0.004942351773008704
1772709149785341000,6.5343408203125,0.01875087769925594,0.03385938030816615,-0.0001247954234480858
1772709149795366100,6.5443662109375,0.0024766192466020584,0.04337305858470499,-0.009977825189568102
1772709149805391000,6.55439111328125,0.0393354005664587,0.054162236689776176,0.01590151615012437
1772709149815416000,6.564416015625,0.0358235930532217,0.057067164351046085,0.010009754697792231
1772709149825441000,6.57444091796875,0.039400867018103594,0.06657419369108974,-0.0036138431156054135
1772709149835466200,6.58446630859375,0.021935352954268454,0.08715038712136447,-0.00541745847146958
1772709149845491200,6.5944912109375,0.0030184710383415222,0.08830306428782642,-0.007211611879244446
1772709149855516000,6.604515869140625,-0.00902384893298149,0.04811725743710994,0.011850121867470443
1772709149865540900,6.614540771484375,-0.021913141122460365,-0.05465929949171841,-0.00564995205309242
1772709149875566000,6.624566162109375,-0.020137948143482208,-0.19629121838510036,0.01805829232521355
1772709149885591000,6.634591064453125,0.009063011899590492,-0.20497290281690655,0.015374167807772754
1772709149895616000,6.644615966796875,0.07567278836071491,-0.06844203338958323,0.03367134692277759
1772709149905641000,6.654640869140625,0.07424655494987964,0.00782535986341536,0.035839192481152714
1772709149915666200,6.664666259765625,0.059224342384934424,-0.015479527878388761,0.006077018358744681
1772709149925691100,6.674691162109375,0.04658288747668266,-0.060210796139016746,0.01019066422265023
1772709149935715000,6.684715087890625,0.021028759503364563,-0.06065693247132003,0.01728018409218639
1772709149945740000,6.694739990234375,0.021522680500149726,-0.012937880571559071,0.019851715080626307
1772709149955765000,6.704764892578125,0.024009821140766142,0.030901261154934762,-0.00790960408076644
1772709149965790000,6.7147900390625,0.05707037922143936,0.046924102129787204,-0.03928684871699661
1772709149975815200,6.724815185546875,0.05169686948955059,0.02852810228280723,-0.030341362249851227
1772709149985840000,6.734840087890625,0.028530513435602187,0.045747824892029165,-0.017671777225658297
1772709149995865000,6.744864990234375,0.004498480463027954,0.05501278910450637,-0.020072408626601097
1772709150005890000,6.75489013671875,0.0026268413722515104,0.03171929953955114,-0.010906630472280084
1772709150015915300,6.764915283203125,0.01630231550335884,0.014622545722872018,-0.007419847802445292
1772709150025940200,6.774940185546875,0.043135377371311186,0.008197042720019816,-0.01358238902017474
1772709150035965000,6.78496484375,0.02178396178483963,-0.00520838229805231,0.007205657062493264
1772709150045989000,6.794989013671875,0.012085574591159819,-0.02089548851251602,0.008119118645600974
1772709150056013800,6.805013916015625,0.017923779225349424,-0.013625132183358072,0.006496047488413751
1772709150066038800,6.815038818359375,0.008800561571121215,-0.047213586595654486,0.016531448084115982
1772709150076063700,6.825063720703125,0.013117840248346328,-0.05788922132365405,0.004550649041682482
1772709150086089000,6.8350888671875,0.030574586483836173,-0.05377024169750511,0.015262633724696934
1772709150096114000,6.845114013671875,0.032004327026009555,-0.05501797673627734,0.009014167789183557
1772709150106139000,6.855138916015625,0.017872925820946694,-0.01656213548332453,-0.010164287672378123
1772709150116164000,6.8651640625,0.016028759258985517,-0.007204159225150942,-0.016147490267828107
1772709150126189000,6.87518896484375,0.02752396674156189,-0.010271510906517504,-0.0067893678791821
1772709150136214000,6.885214111328125,0.026734862190484997,-0.006405117801949381,-0.006675787969492375
1772709150146239000,6.895239013671875,0.031034605211019514,-0.01942110511101782,0.009271284355409443
1772709150156264000,6.905263916015625,0.038489597392082214,-0.005834989763796329,-0.012996771151944994
1772709150166289000,6.915288818359375,0.039080549022555346,0.005233224478363991,-0.00747296622917056
1772709150176312800,6.925312744140625,0.03326747882962227,0.03453654891736805,-0.030376214367523788
1772709150186338000,6.935338134765625,0.007872925332188606,0.01610708519220352,-0.001540032516233623
1772709150196363000,6.945363037109375,0.03002747399508953,-0.014452961309626698,0.027334946975484487
1772709150206388000,6.955387939453125,0.06023322716653347,-0.008702800285071133,0.028075974601134656
1772709150216413000,6.965412841796875,0.041374797439575194,0.01429068342000246,-0.007772825958579779
1772709150226438100,6.975438232421875,0.011483517044782638,0.0008069324687123298,-0.018080540689639747
1772709150236462800,6.985462890625,0.016426234143972394,-0.013072612867131829,0.01088493009712547
1772709150246487800,6.99548779296875,0.02418810031712055,-0.018239055719599127,0.002021167096681893
1772709150256512800,7.0055126953125,0.024107436296343803,-0.016117241260036826,-0.002492145609296858
1772709150266538000,7.0155380859375,0.02857435257732868,-0.01746880199946463,-0.00097428839225322
1772709150276563000,7.02556298828125,0.03981996921300888,-0.0035171412754803895,0.02234850033242255
1772709150286588000,7.035587890625,0.03158347126543522,-0.022941315126419067,0.015493373740650712
1772709150296612900,7.04561279296875,0.03288227890431881,0.0013112287290394306,0.02559179310258478
1772709150306638000,7.05563818359375,0.016253800186514854,0.015541048807278274,0.002249970883876085
1772709150316663000,7.0656630859375,0.02165536696910858,0.010526143254712223,0.004550429845973849
1772709150326688000,7.07568798828125,0.035140286964178084,0.010122677020356059,0.018149331609532235
1772709150336713000,7.085712890625,0.0357493587732315,0.010648600590601564,-0.000050378480367362496
1772709150346738000,7.095738037109375,0.03472176929116249,0.018559446780383584,-0.008278254730068147
1772709150356763000,7.105762939453125,0.02952595421373844,0.01915653589069843,-0.009092347591929137
1772709150366787800,7.115787841796875,0.02554477562308311,-0.02624759013019502,-0.009845978970825672
1772709150376813000,7.12581298828125,0.03962883055508137,-0.02746851022727787,0.012991985378973185
1772709150386838000,7.135838134765625,0.040075405278801914,-0.01946530957892537,0.0032401509650051593
1772709150396863000,7.145863037109375,0.015543021568655967,-0.02077916865646839,-0.008238909100368619
1772709150406887200,7.15588720703125,0.005222118562459945,-0.026939517917111515,-0.009483100475184619
1772709150416912000,7.165911865234375,0.030340777727961538,-0.023482509331032634,-0.0035111133934929966
1772709150426936800,7.175936767578125,0.0367430459856987,-0.013924553521350025,-0.006078625793941319
1772709150436961800,7.1859619140625,0.019513094243407247,-0.009099836778640747,0.004068783808872103
1772709150446987000,7.195987060546875,0.01741466065943241,-0.012506868743151425,0.00031878362558782097
1772709150457012000,7.206011962890625,0.019946809485554693,-0.01655870141722262,0.006778773419931531
1772709150467037000,7.216036865234375,0.029058921223878858,-0.016036284978315232,-0.0051794119318947195
1772709150477062000,7.226061767578125,0.024105098208785057,-0.014436083240061997,-0.009886932035721838
1772709150487087000,7.236087158203125,0.03352934463620186,0.00611819061934948,0.0009020634062588214
1772709150497112000,7.246112060546875,0.02605330966711044,0.007051452881470322,-0.002841726231947541
1772709150507137000,7.256136962890625,0.034274025523662564,0.014549699682369827,0.005803425581753253
1772709150517161700,7.26616162109375,0.028593641799688336,0.020131299206987023,-0.006994425464607774
1772709150527187000,7.27618701171875,0.03278349470496177,0.009753332251310348,0.018004589376598594
1772709150537212000,7.2862119140625,0.023812837263941764,0.008556377551704644,0.012680910135805606
1772709150547236900,7.29623681640625,0.02441957098543644,-0.004022752710059285,0.0021686858085915445
1772709150557261800,7.30626171875,0.027112463331222532,-0.001219385727122426,0.004094173978455364
1772709150567287000,7.316287109375,0.03591770107746124,-0.0038027532838284966,-0.007445311037264764
1772709150577312000,7.32631201171875,0.03095978640913963,-0.01319090548455715,0.003939604471251368
1772709150587337000,7.3363369140625,0.018057050216197967,-0.021187749457359312,0.014351802490092814
1772709150597362000,7.34636181640625,0.006933598655462264,-0.0031426819398999214,0.003845496447011828
1772709150607387000,7.356386962890625,0.03639700902700424,-0.005287511948868632,-0.012356062095612286
1772709150617411800,7.366411865234375,0.028016718694567677,-0.008691329042986034,-0.011173610845394432
1772709150627436000,7.37643603515625,0.02397767243683338,-0.02252082469202578,-0.013463073489442466
1772709150637461000,7.3864609375,0.028905776488780975,-0.01707812218144536,0.0019008651852607725
1772709150647486000,7.39648583984375,0.033517069676518435,-0.031975904649123546,0.00018332067765295504
1772709150657511000,7.406510986328125,0.026763503763079642,-0.02578844818584621,-0.001776690816320479
1772709150667536100,7.4165361328125,0.03051028907597065,0.007379077400639653,0.0044642859324812885
1772709150677561000,7.42656103515625,0.04203998335003853,0.029199571803584692,-0.011241963373869656
1772709150687585800,7.436585693359375,0.003906944310665131,0.010412746008113026,0.005658902544528246
1772709150697610800,7.44661083984375,0.004049567651748657,-0.021684300802648066,0.015171704038232564
1772709150707636000,7.456635986328125,0.02629997790455818,-0.04123516977317631,0.016343524296581743
1772709150717661000,7.466660888671875,0.037787586602568625,-0.017427520141005515,-0.026164880282804368
1772709150727686000,7.476685791015625,0.019091069439053535,-0.0014925766453146934,-0.018104323424026368
1772709150737710800,7.4867109375,0.025229718324542044,0.003941358036920428,-0.012075747316889464
1772709150747736000,7.496736083984375,0.032220015603303905,-0.0031892244953662155,-0.004728014902584255
1772709150757761000,7.506760986328125,0.011364859101176262,-0.004087488509342074,-0.011302169128507376
1772709150767786000,7.516785888671875,0.018678396984934807,0.009292071415111422,-0.01446567466072738
1772709150777811000,7.52681103515625,0.027217677271366116,0.017228563502803444,0.015237718479149042
1772709150787836000,7.5368359375,0.05116261648237705,0.0028284283589571713,0.017435484251752495
1772709150797860900,7.54686083984375,0.05264262590706348,-0.0013695347875356673,0.010939875154756008
1772709150807885800,7.5568857421875,0.01700783342421055,-0.003769946992769837,0.005065101369842887
1772709150817910800,7.566910888671875,0.015635960549116135,0.002985007160156965,0.0023935440730303527
1772709150827936000,7.57693603515625,0.016966916891932485,-0.009183131147921084,-0.005017499368451536
1772709150837960000,7.5869599609375,0.025316227564215657,-0.028817221422493457,-0.006158120770938694
1772709150847985200,7.596985107421875,0.029759762969613072,-0.006902253669127821,0.019393376853875814
1772709150858010000,7.607010009765625,0.02135433819591999,0.0007682809587568044,0.004298062520101666
1772709150868034800,7.617034912109375,0.02926876458227634,-0.00666603376045823,0.002411518121138215
1772709150878059800,7.627059814453125,0.026555998492240905,-0.007290522334352135,0.0017511910488829017
1772709150888085000,7.6370849609375,0.014575053319334983,-0.011196151470765471,-0.00021320435926318166
1772709150898110000,7.64710986328125,0.020545944422483444,-0.010659633441269398,-0.005440985477529466
1772709150908135000,7.657135009765625,0.021290040788054465,0.0009946370605379343,-0.0023794424824416637
1772709150918160000,7.667159912109375,0.03760755386054516,-0.007329612235724926,-0.005803681310079992
1772709150928185000,7.67718505859375,0.03445814991891384,0.001158668515831232,0.0007916983669623732
1772709150938210000,7.6872099609375,0.03622866672277451,-0.0033143121797591444,0.012616831923648715
1772709150948235000,7.697235107421875,0.026492285606265067,0.005220803388208151,0.0005141965998336673
1772709150958260000,7.707260009765625,0.034704818156361575,-0.0030305998675525187,0.005442665977962315
1772709150968285000,7.717284912109375,0.03245440888106823,-0.010391191763430833,-0.005383519669249654
1772709150978310000,7.727309814453125,0.034551088899374006,-0.005853402203321457,-0.003251951000653207
1772709150988334800,7.7373349609375,0.03453355324268341,-0.017279416907206177,0.004186711100116372
1772709150998359800,7.74735986328125,0.03016775924861431,-0.01674501776956022,0.0010338730923831463
1772709151008385000,7.757385009765625,0.016532032606005668,0.0021221797857433554,-0.001062003208324313
1772709151018410000,7.767409912109375,0.026413375151157378,-0.005431304333731532,-0.015525997368618845
1772709151028435000,7.77743505859375,0.042855975908041,-0.01075922135822475,0.00471029658280313
1772709151038459000,7.787458984375,0.024430676901340483,-0.003762567403912544,0.0005559533823281526
1772709151048484600,7.797484619140625,0.027271453285217285,-0.0015454028110951183,0.00545822887327522
1772709151058509600,7.807509521484375,0.018294950625300406,-0.003182064102217555,0.008122479646466672
1772709151068534500,7.817534423828125,0.027722704184055327,0.00249539701230824,0.0003067643942311406
1772709151078559700,7.827559814453125,0.022026538369059562,-0.013921996238082646,0.008468005148507655
1772709151088584700,7.837584716796875,0.007931377521157265,-0.010271291710808872,0.008245156178064645
1772709151098609700,7.847609619140625,0.013746201279759406,0.011718714040145278,0.0023569749223068355
1772709151108634600,7.857634521484375,0.028251111972332,0.008693740195780992,-0.004571326503530144
1772709151118659600,7.86765966796875,0.03287935629487038,0.005437441813573241,-0.005792210067994893
1772709151128684500,7.8776845703125,0.015364157870411873,-0.008245704167336224,-0.00011189940925687551
1772709151138709500,7.88770947265625,0.017297756281495092,-0.01012815691307187,0.001583360201306641
1772709151148734500,7.897734375,0.011586977419257164,-0.006859729701653123,0.0014965587006881833
1772709151158759700,7.907759765625,0.025060206976532936,-0.0069501844640821216,-0.00766779468152672
1772709151168784600,7.91778466796875,0.03179740627706051,-0.00521809997446835,-0.017642258870229122
1772709151178809600,7.9278095703125,0.043291444715857504,-0.0009512363102287053,-0.007737023992836475
1772709151188834600,7.93783447265625,0.04027531176507473,0.01138517123684287,-0.014039886996708809
1772709151198859800,7.94785986328125,0.017708090648055074,0.02572634273506701,-0.018018837097659706
1772709151208884700,7.957884765625,-0.015169512081146239,-0.009648556702584028,0.010598331708088517
1772709151218909400,7.967909423828125,0.029691373908519742,-0.043300212544202805,0.04141209724266082
1772709151228934400,7.977934326171875,0.04533727132976055,-0.04277333912588656,0.020989012014865874
1772709151238959600,7.987959716796875,0.027047581401467322,-0.0029261896450072525,-0.03535798483546823
1772709151248983600,7.997983642578125,0.023604162949323652,-0.01025149103179574,-0.04028207029942423
1772709151259008800,8.0080087890625,0.040194063222408295,-0.011274331273511051,-0.0011317805089056492
1772709151269033700,8.01803369140625,0.038948447075486184,0.0025421587634831665,0.008141257412172854
1772709151279058700,8.02805859375,-0.0017868834167718887,0.0059945642396807665,0.006296141002140939
1772709151289083600,8.038083740234375,0.0039174657046794886,0.01534888723604381,0.001644625401869416
1772709151299108600,8.048108642578125,0.029539982739090916,0.0002659574598073959,0.010031710801273583
1772709151309133600,8.058133544921875,0.05213467638492584,-0.0035208676025271415,0.008562113172747195
1772709151319158500,8.068158447265626,0.035060207465291024,-0.00508848224543035,0.011523556794226168
1772709151329183500,8.07818359375,0.0004851531684398651,-0.003226268570125103,-0.006946275473944843
1772709151339208700,8.088208740234375,0.011858195576071739,0.00005859831944108009,-0.016705708672478795
1772709151349233700,8.098233642578125,0.021125790137052534,-0.0003317892376333475,-0.014514591836370527
1772709151359258600,8.108258544921876,0.03189268334507942,-0.010942322840169072,-0.005435615182667971
1772709151369283600,8.11828369140625,0.04370470169186592,-0.002562617029622197,0.008902414510399102
1772709151379308800,8.128308837890625,0.029487375769019126,-0.002518777887895703,-0.0022954539934173226
1772709151389333800,8.138333740234375,-0.0040332010388374325,0.0032758798655122515,0.002462663786485791
1772709151399358500,8.1483583984375,0.014670330387353896,0.01140467965491116,0.004579290614277124
1772709151409383400,8.158383544921875,0.03965688760578632,-0.012713131904974579,0.0037091932488605376
1772709151419408600,8.16840869140625,0.025740005934238433,-0.0055171559862792485,0.005233480206690728
1772709151429433600,8.17843359375,0.029028526085615156,-0.007610767264664173,-0.0038028263490647077
1772709151439457500,8.18845751953125,0.024248890593647956,-0.0038973727647215128,0.002475596333295107
1772709151449482800,8.198482666015625,0.02215045700967312,0.008964885287359356,0.003501505314931273
1772709151459507700,8.2085078125,0.08383563655018805,0.06429243942946196,-0.04771671381220221
1772709151469532400,8.218532470703124,0.36881811482310295,0.15262852920405565,-0.025797654405608772
1772709151479557600,8.2285576171875,0.09406067796647548,-0.11936061198301613,0.1443932733654976
1772709151489582600,8.23858251953125,-0.40057577361166474,-0.19651333670318125,-0.016742460486292837
1772709151499607600,8.248607666015625,-0.3213806563436985,0.08251176753528415,-0.048435894932225346
1772709151509632500,8.258632568359374,0.03925765915513038,0.08562025494463742,-0.041875002046674485
1772709151519657700,8.26865771484375,0.23578970055878162,-0.08695435309261083,0.07356671945955603
1772709151529682700,8.2786826171875,0.18181845639646052,-0.12329714771434663,0.07936236359365284
1772709151539707600,8.288707763671875,-0.07072948673963546,-0.02651040578484535,-0.07782956453580409
1772709151549732600,8.298732666015624,-0.1997393130123615,0.04187134878486395,-0.06536200488973408
1772709151559757800,8.3087578125,0.007568973949551582,0.038277708207070826,0.001887859573215246
1772709151569782500,8.318782470703125,0.23832418747246265,0.050490343244001264,0.10100125435199588
