time,seconds_elapsed,z,y,x
1772709143304204800,0.053204833984375,-0.987213134765625,0.059173583984375,-0.040802001953125
1772709143314229800,0.063229736328125,-0.98388671875,0.055877685546875,-0.0360565185546875
1772709143324254500,0.07325439453125,-0.98931884765625,0.0577239990234375,-0.0360870361328125
1772709143334279400,0.083279541015625,-0.9984283447265625,0.059112548828125,-0.0385284423828125
1772709143344304600,0.0933046875,-1.0008392333984375,0.0597381591796875,-0.0419921875
1772709143354329600,0.10332958984375,-0.995697021484375,0.05853271484375,-0.039947509765625
1772709143364354600,0.1133544921875,-0.9925537109375,0.0579376220703125,-0.0360260009765625
1772709143374379500,0.123379638671875,-0.9898223876953125,0.05877685546875,-0.03436279296875
1772709143384404700,0.13340478515625,-0.9910430908203125,0.0599212646484375,-0.0370330810546875
1772709143394429700,0.1434296875,-0.9943084716796875,0.0584716796875,-0.0382537841796875
1772709143404454700,0.15345458984375,-0.9964599609375,0.0574798583984375,-0.03955078125
1772709143414479600,0.163479736328125,-0.997955322265625,0.0584716796875,-0.0386199951171875
1772709143424504600,0.173504638671875,-0.9954833984375,0.0584259033203125,-0.037750244140625
1772709143434529500,0.183529541015625,-0.9929046630859375,0.060211181640625,-0.0392608642578125
1772709143444554500,0.193554443359375,-0.9918365478515625,0.0590972900390625,-0.0400848388671875
1772709143454579700,0.203579833984375,-0.9931488037109375,0.0589599609375,-0.03912353515625
1772709143464604700,0.213604736328125,-0.99591064453125,0.060577392578125,-0.039306640625
1772709143474629600,0.223629638671875,-0.9963531494140625,0.061492919921875,-0.0427398681640625
1772709143484654600,0.233654541015625,-0.99798583984375,0.0608673095703125,-0.042449951171875
1772709143494679800,0.2436796875,-0.9966583251953125,0.0585784912109375,-0.040802001953125
1772709143504704800,0.253704833984375,-0.99066162109375,0.059173583984375,-0.0389556884765625
1772709143514729500,0.2637294921875,-0.9910430908203125,0.061553955078125,-0.0406036376953125
1772709143524754400,0.27375439453125,-0.995849609375,0.06256103515625,-0.04229736328125
1772709143534778600,0.283778564453125,-0.995819091796875,0.0601043701171875,-0.040802001953125
1772709143544803600,0.293803466796875,-0.99462890625,0.058074951171875,-0.0378265380859375
1772709143554828500,0.30382861328125,-0.9942169189453125,0.0578765869140625,-0.039886474609375
1772709143564853800,0.313853759765625,-0.9940032958984375,0.0612335205078125,-0.041046142578125
1772709143574878700,0.323878662109375,-0.9947052001953125,0.060882568359375,-0.0399322509765625
1772709143584903700,0.333903564453125,-0.9933624267578125,0.059661865234375,-0.0390167236328125
1772709143594928400,0.343928466796875,-0.995849609375,0.0588226318359375,-0.03961181640625
1772709143604953600,0.35395361328125,-0.9964447021484375,0.06048583984375,-0.03900146484375
1772709143614978600,0.363978515625,-0.9961395263671875,0.0621337890625,-0.039825439453125
1772709143625003500,0.37400341796875,-0.9956512451171875,0.0608978271484375,-0.0389556884765625
1772709143635028500,0.384028564453125,-0.9934539794921875,0.0601348876953125,-0.0383758544921875
1772709143645053700,0.3940537109375,-0.9945831298828125,0.0599212646484375,-0.03936767578125
1772709143655078700,0.40407861328125,-0.995452880859375,0.0593109130859375,-0.03839111328125
1772709143665103600,0.414103515625,-0.996673583984375,0.05755615234375,-0.0386505126953125
1772709143675128600,0.424128662109375,-0.99725341796875,0.0588226318359375,-0.0392913818359375
1772709143685153800,0.43415380859375,-0.9948272705078125,0.0600433349609375,-0.0398101806640625
1772709143695178500,0.444178466796875,-0.992645263671875,0.058624267578125,-0.0385284423828125
1772709143705203500,0.454203369140625,-0.9914703369140625,0.059112548828125,-0.038970947265625
1772709143715228700,0.464228759765625,-0.9940948486328125,0.0582122802734375,-0.0391387939453125
1772709143725253600,0.474253662109375,-0.996734619140625,0.059600830078125,-0.0381011962890625
1772709143735278600,0.484278564453125,-0.9971466064453125,0.0612335205078125,-0.0383148193359375
1772709143745303600,0.494303466796875,-0.99603271484375,0.0604705810546875,-0.0388641357421875
1772709143755328800,0.504328857421875,-0.9927215576171875,0.0578765869140625,-0.03851318359375
1772709143765353700,0.514353759765625,-0.99237060546875,0.0578460693359375,-0.03912353515625
1772709143775378700,0.524378662109375,-0.996490478515625,0.058837890625,-0.038360595703125
1772709143785403400,0.5344033203125,-0.997283935546875,0.0582122802734375,-0.040252685546875
1772709143795428600,0.5444287109375,-0.9957122802734375,0.057891845703125,-0.0386199951171875
1772709143805453600,0.55445361328125,-0.9930267333984375,0.057830810546875,-0.0397796630859375
1772709143815478500,0.564478515625,-0.99285888671875,0.0598297119140625,-0.0409088134765625
1772709143825503500,0.57450341796875,-0.99444580078125,0.0603790283203125,-0.03955078125
1772709143835528700,0.58452880859375,-0.9946441650390625,0.059967041015625,-0.03839111328125
1772709143845553700,0.5945537109375,-0.994842529296875,0.0572052001953125,-0.03912353515625
1772709143855578600,0.60457861328125,-0.99383544921875,0.060394287109375,-0.0428924560546875
1772709143865603600,0.614603515625,-0.995086669921875,0.0624847412109375,-0.044097900390625
1772709143875627500,0.62462744140625,-0.9980316162109375,0.06182861328125,-0.04388427734375
1772709143885653500,0.634653564453125,-0.994781494140625,0.062469482421875,-0.039764404296875
1772709143895677400,0.644677490234375,-0.995574951171875,0.061492919921875,-0.039093017578125
1772709143905702700,0.65470263671875,-0.996612548828125,0.060760498046875,-0.041595458984375
1772709143915727600,0.6647275390625,-0.9952239990234375,0.0631256103515625,-0.0420989990234375
1772709143925752600,0.674752685546875,-0.9922637939453125,0.0613555908203125,-0.039703369140625
1772709143935777800,0.68477783203125,-0.993438720703125,0.0582275390625,-0.0392608642578125
1772709143945802800,0.694802734375,-0.993194580078125,0.0576324462890625,-0.039276123046875
1772709143955827700,0.70482763671875,-0.9953155517578125,0.0572662353515625,-0.0421905517578125
1772709143965852400,0.714852294921875,-0.997100830078125,0.0589599609375,-0.0404205322265625
1772709143975877600,0.724877685546875,-0.9954986572265625,0.0600738525390625,-0.0399932861328125
1772709143985902600,0.734902587890625,-0.99591064453125,0.0605926513671875,-0.0381622314453125
1772709143995927600,0.744927490234375,-0.996124267578125,0.0631561279296875,-0.0399017333984375
1772709144005952500,0.754952392578125,-0.9964752197265625,0.0619049072265625,-0.039764404296875
1772709144015977700,0.764977783203125,-0.9952545166015625,0.06195068359375,-0.038238525390625
1772709144026002700,0.775002685546875,-0.99542236328125,0.0634307861328125,-0.038360595703125
1772709144036027600,0.785027587890625,-0.9947967529296875,0.0609130859375,-0.0391082763671875
1772709144046052000,0.795052001953125,-0.9954833984375,0.0594329833984375,-0.0379638671875
1772709144056077300,0.805077392578125,-0.9932403564453125,0.0574798583984375,-0.0390472412109375
1772709144066102300,0.815102294921875,-0.9935302734375,0.058563232421875,-0.0376129150390625
1772709144076127200,0.825127197265625,-0.995330810546875,0.060516357421875,-0.038818359375
1772709144086152200,0.835152099609375,-0.9971771240234375,0.0612030029296875,-0.038665771484375
1772709144096177400,0.845177490234375,-0.9985809326171875,0.0623626708984375,-0.0411376953125
1772709144106202000,0.8552021484375,-0.9967193603515625,0.059539794921875,-0.039459228515625
1772709144116227000,0.86522705078125,-0.9930572509765625,0.053375244140625,-0.03759765625
1772709144126252300,0.875252197265625,-0.9893035888671875,0.0541534423828125,-0.035858154296875
1772709144136277200,0.88527734375,-0.990203857421875,0.0572357177734375,-0.0369415283203125
1772709144146302200,0.89530224609375,-0.993499755859375,0.0583953857421875,-0.0372314453125
1772709144156327200,0.9053271484375,-0.99700927734375,0.058135986328125,-0.0369873046875
1772709144166352400,0.915352294921875,-0.9965057373046875,0.059112548828125,-0.03533935546875
1772709144176377300,0.92537744140625,-0.994354248046875,0.0593414306640625,-0.0369873046875
1772709144186402300,0.93540234375,-0.995574951171875,0.059234619140625,-0.0377960205078125
1772709144196427300,0.94542724609375,-0.9948272705078125,0.061798095703125,-0.037017822265625
1772709144206451200,0.955451171875,-0.9942474365234375,0.0616607666015625,-0.03570556640625
1772709144216476200,0.96547607421875,-0.9960479736328125,0.060546875,-0.036865234375
1772709144226501000,0.975501220703125,-0.9958343505859375,0.0619659423828125,-0.0372161865234375
1772709144236526300,0.9855263671875,-0.9961395263671875,0.062347412109375,-0.0371856689453125
1772709144246551300,0.99555126953125,-0.9959716796875,0.060760498046875,-0.038970947265625
1772709144256576300,1.005576171875,-0.99505615234375,0.0596466064453125,-0.038909912109375
1772709144266601200,1.015601318359375,-0.994140625,0.0602569580078125,-0.0397491455078125
1772709144276626400,1.02562646484375,-0.995574951171875,0.0599822998046875,-0.0402374267578125
1772709144286651100,1.035651123046875,-0.994964599609375,0.0595855712890625,-0.039093017578125
1772709144296676000,1.045676025390625,-0.993988037109375,0.060943603515625,-0.0404815673828125
1772709144306701000,1.055701171875,-0.993621826171875,0.059906005859375,-0.040740966796875
1772709144316726300,1.065726318359375,-0.9936065673828125,0.0552978515625,-0.040130615234375
1772709144326751200,1.075751220703125,-0.991424560546875,0.0561981201171875,-0.03900146484375
1772709144336776200,1.085776123046875,-0.9886474609375,0.0584716796875,-0.039459228515625
1772709144346801400,1.095801513671875,-0.991363525390625,0.0591583251953125,-0.0356292724609375
1772709144356826400,1.105826416015625,-0.9927978515625,0.0592498779296875,-0.03643798828125
1772709144366851300,1.115851318359375,-0.992889404296875,0.0527496337890625,-0.0388031005859375
1772709144376876000,1.1258759765625,-0.994659423828125,0.04486083984375,-0.037872314453125
1772709144386901200,1.1359013671875,-0.9929962158203125,0.0448760986328125,-0.035614013671875
1772709144396926200,1.14592626953125,-0.98944091796875,0.053924560546875,-0.0333709716796875
1772709144406951200,1.155951171875,-0.9918060302734375,0.0620574951171875,-0.0344390869140625
1772709144416976100,1.16597607421875,-1.000579833984375,0.0719146728515625,-0.03607177734375
1772709144427001300,1.17600146484375,-1.003448486328125,0.07781982421875,-0.0418243408203125
1772709144437026300,1.1860263671875,-1.0057220458984375,0.0677642822265625,-0.0541534423828125
1772709144447051300,1.19605126953125,-1.00006103515625,0.0550384521484375,-0.0553436279296875
1772709144457076200,1.206076171875,-0.9903411865234375,0.0461578369140625,-0.048736572265625
1772709144467101400,1.216101318359375,-0.98663330078125,0.045257568359375,-0.0420379638671875
1772709144477126100,1.226126220703125,-0.990509033203125,0.05267333984375,-0.0364990234375
1772709144487151000,1.236151123046875,-0.9969024658203125,0.057373046875,-0.037506103515625
1772709144497175300,1.24617529296875,-0.9985809326171875,0.05584716796875,-0.035797119140625
1772709144507200300,1.2562001953125,-0.992523193359375,0.0557708740234375,-0.0355987548828125
1772709144517225200,1.26622509765625,-0.989776611328125,0.057586669921875,-0.0411376953125
1772709144527250200,1.276250244140625,-0.9947509765625,0.0575408935546875,-0.0466766357421875
1772709144537275400,1.286275390625,-0.998382568359375,0.059051513671875,-0.0495147705078125
1772709144547300400,1.29630029296875,-0.9962310791015625,0.0594482421875,-0.0472412109375
1772709144557325000,1.306324951171875,-0.993865966796875,0.0600128173828125,-0.0395355224609375
1772709144567350300,1.316350341796875,-0.9911041259765625,0.06341552734375,-0.0388641357421875
1772709144577375200,1.326375244140625,-0.995880126953125,0.0644073486328125,-0.0397186279296875
1772709144587400200,1.336400146484375,-0.998046875,0.064544677734375,-0.040313720703125
1772709144597425200,1.346425048828125,-0.99560546875,0.0643463134765625,-0.0418853759765625
1772709144607450400,1.356450439453125,-0.993927001953125,0.063201904296875,-0.0438385009765625
1772709144617475300,1.366475341796875,-0.99383544921875,0.063873291015625,-0.040771484375
1772709144627500300,1.376500244140625,-0.9950408935546875,0.0623016357421875,-0.040069580078125
1772709144637525200,1.386525146484375,-0.993072509765625,0.0631866455078125,-0.0385894775390625
1772709144647550500,1.396550537109375,-0.9951324462890625,0.0628204345703125,-0.0390777587890625
1772709144657575200,1.4065751953125,-0.995269775390625,0.0625152587890625,-0.0433502197265625
1772709144667600100,1.41660009765625,-0.9952545166015625,0.063018798828125,-0.0420684814453125
1772709144677625000,1.426625,-0.9976043701171875,0.060791015625,-0.0411224365234375
1772709144687650300,1.436650390625,-0.9940948486328125,0.0606536865234375,-0.04290771484375
1772709144697675300,1.44667529296875,-0.9925537109375,0.0606536865234375,-0.0402679443359375
1772709144707700200,1.4567001953125,-0.9954376220703125,0.060882568359375,-0.0391693115234375
1772709144717725200,1.46672509765625,-0.9936370849609375,0.061309814453125,-0.04058837890625
1772709144727750400,1.47675048828125,-0.99542236328125,0.0625152587890625,-0.043365478515625
1772709144737775400,1.486775390625,-0.9957122802734375,0.061798095703125,-0.0424957275390625
1772709144747800300,1.49680029296875,-0.9950714111328125,0.05731201171875,-0.040313720703125
1772709144757825000,1.506824951171875,-0.9951934814453125,0.0496673583984375,-0.0411224365234375
1772709144767849200,1.51684912109375,-0.9908447265625,0.0471038818359375,-0.041351318359375
1772709144777874200,1.526874267578125,-0.9922637939453125,0.0470428466796875,-0.037261962890625
1772709144787899100,1.536899169921875,-0.993927001953125,0.0499420166015625,-0.0357818603515625
1772709144797924400,1.54692431640625,-0.995147705078125,0.053253173828125,-0.0366973876953125
1772709144807949300,1.55694921875,-0.9976806640625,0.0533599853515625,-0.037445068359375
1772709144817974300,1.566974365234375,-0.9962005615234375,0.0548553466796875,-0.0375823974609375
1772709144827999200,1.576999267578125,-0.992523193359375,0.056488037109375,-0.0361480712890625
1772709144838024200,1.587024169921875,-0.993408203125,0.05963134765625,-0.0336456298828125
1772709144848049200,1.597049072265625,-0.995269775390625,0.0644683837890625,-0.04034423828125
1772709144858074000,1.60707421875,-0.9985504150390625,0.0646820068359375,-0.038421630859375
1772709144868099300,1.617099365234375,-0.9980926513671875,0.0609283447265625,-0.0382080078125
1772709144878124300,1.627124267578125,-0.9946746826171875,0.05963134765625,-0.039306640625
1772709144888149200,1.637149169921875,-0.9938201904296875,0.0614013671875,-0.03857421875
1772709144898174200,1.64717431640625,-0.9948577880859375,0.0654296875,-0.0407257080078125
1772709144908199400,1.657199462890625,-0.9969024658203125,0.0630340576171875,-0.045684814453125
1772709144918224400,1.667224365234375,-0.9975433349609375,0.0544891357421875,-0.04302978515625
1772709144928249000,1.6772490234375,-0.9938812255859375,0.0518646240234375,-0.040679931640625
1772709144938274000,1.687274169921875,-0.9925079345703125,0.0545196533203125,-0.0423583984375
1772709144948299300,1.69729931640625,-0.9961395263671875,0.0633392333984375,-0.0436553955078125
1772709144958324200,1.70732421875,-0.995513916015625,0.067535400390625,-0.04290771484375
1772709144968349200,1.71734912109375,-0.9943695068359375,0.068511962890625,-0.04278564453125
1772709144978374100,1.7273740234375,-0.995697021484375,0.0645599365234375,-0.0429534912109375
1772709144988399400,1.7373994140625,-0.995849609375,0.05853271484375,-0.0422210693359375
1772709144998424300,1.74742431640625,-0.9917144775390625,0.0569915771484375,-0.0446624755859375
1772709145008449300,1.75744921875,-0.99334716796875,0.055999755859375,-0.044921875
1772709145018474200,1.76747412109375,-0.995391845703125,0.05194091796875,-0.044830322265625
1772709145028498200,1.777498291015625,-0.9938201904296875,0.0504150390625,-0.0444488525390625
1772709145038523100,1.787523193359375,-0.99273681640625,0.05426025390625,-0.0447998046875
1772709145048548400,1.79754833984375,-0.996063232421875,0.0515594482421875,-0.0457305908203125
1772709145058573600,1.807573486328125,-0.9941558837890625,0.049713134765625,-0.0486602783203125
1772709145068598500,1.8175986328125,-0.9916229248046875,0.0506744384765625,-0.045684814453125
1772709145078623500,1.82762353515625,-0.994964599609375,0.04931640625,-0.0426177978515625
1772709145088648400,1.8376484375,-0.9944000244140625,0.049560546875,-0.03857421875
1772709145098673700,1.847673583984375,-0.9950408935546875,0.0539093017578125,-0.03900146484375
1772709145108698600,1.85769873046875,-0.995269775390625,0.0583648681640625,-0.039031982421875
1772709145118723600,1.8677236328125,-0.9940643310546875,0.059173583984375,-0.0409698486328125
1772709145128748500,1.87774853515625,-0.99456787109375,0.0582275390625,-0.0426788330078125
1772709145138773800,1.887773681640625,-0.993408203125,0.0568389892578125,-0.042449951171875
1772709145148798500,1.897798583984375,-0.9945220947265625,0.057647705078125,-0.0411834716796875
1772709145158823400,1.907823486328125,-0.997589111328125,0.059661865234375,-0.038909912109375
1772709145168848600,1.9178486328125,-0.9967498779296875,0.058135986328125,-0.03765869140625
1772709145178873600,1.92787353515625,-0.9957427978515625,0.0574798583984375,-0.038665771484375
1772709145188898600,1.937898681640625,-0.993499755859375,0.0562591552734375,-0.0391693115234375
1772709145198923500,1.947923583984375,-0.9925994873046875,0.053741455078125,-0.036834716796875
1772709145208948700,1.95794873046875,-0.9955291748046875,0.0554962158203125,-0.0351715087890625
1772709145218973700,1.9679736328125,-0.995269775390625,0.0615234375,-0.03741455078125
1772709145228998700,1.97799853515625,-0.9981842041015625,0.062103271484375,-0.0423583984375
1772709145239023400,1.9880234375,-0.9987640380859375,0.05731201171875,-0.0472564697265625
1772709145249048600,1.998048583984375,-0.9962615966796875,0.05682373046875,-0.046112060546875
1772709145259073500,2.008073486328125,-0.9920806884765625,0.056671142578125,-0.0399169921875
1772709145269098500,2.018098388671875,-0.9911956787109375,0.0562591552734375,-0.0359344482421875
1772709145279122700,2.028122802734375,-0.99530029296875,0.055572509765625,-0.038055419921875
1772709145289147600,2.038147705078125,-0.9981536865234375,0.053924560546875,-0.0447540283203125
1772709145299172600,2.048172607421875,-0.9967498779296875,0.0555572509765625,-0.046051025390625
1772709145309197600,2.058197509765625,-0.99102783203125,0.0586395263671875,-0.0431976318359375
1772709145319222500,2.068222412109375,-0.99224853515625,0.0643157958984375,-0.0401763916015625
1772709145329247500,2.07824755859375,-0.9972381591796875,0.07415771484375,-0.034271240234375
1772709145339272400,2.0882724609375,-0.997833251953125,0.0843963623046875,-0.0352020263671875
1772709145349297400,2.09829736328125,-0.9999237060546875,0.0931549072265625,-0.0374908447265625
1772709145359322600,2.108322509765625,-0.9977874755859375,0.084381103515625,-0.0425567626953125
1772709145369347600,2.11834765625,-0.9910888671875,0.070770263671875,-0.0419921875
1772709145379372500,2.12837255859375,-0.9849700927734375,0.0532379150390625,-0.0391845703125
1772709145389397500,2.1383974609375,-0.984161376953125,0.044464111328125,-0.036895751953125
1772709145399422700,2.148422607421875,-0.9918670654296875,0.0456085205078125,-0.038665771484375
1772709145409447700,2.15844775390625,-1.0022125244140625,0.0512237548828125,-0.0448760986328125
1772709145419472400,2.168472412109375,-1.0030364990234375,0.0586090087890625,-0.0466766357421875
1772709145429497600,2.17849755859375,-0.9981536865234375,0.0637664794921875,-0.0413055419921875
1772709145439522600,2.1885224609375,-0.991546630859375,0.0604095458984375,-0.0401153564453125
1772709145449547500,2.198547607421875,-0.9884796142578125,0.059326171875,-0.0401458740234375
1772709145459572500,2.208572509765625,-0.9921875,0.058441162109375,-0.043121337890625
1772709145469597700,2.21859765625,-0.9942779541015625,0.0587158203125,-0.0406951904296875
1772709145479622700,2.22862255859375,-0.994537353515625,0.0666656494140625,-0.037506103515625
1772709145489647600,2.238647705078125,-0.9986724853515625,0.07122802734375,-0.0406036376953125
1772709145499672600,2.248672607421875,-0.9988555908203125,0.0689849853515625,-0.042144775390625
1772709145509697800,2.25869775390625,-0.99932861328125,0.066650390625,-0.0411834716796875
1772709145519721500,2.268721435546875,-0.9929962158203125,0.0672607421875,-0.035858154296875
1772709145529746400,2.278746337890625,-0.9891510009765625,0.0638580322265625,-0.0333251953125
1772709145539771600,2.288771728515625,-0.9913330078125,0.0614166259765625,-0.036895751953125
1772709145549796600,2.298796630859375,-0.99267578125,0.0614166259765625,-0.04376220703125
1772709145559821600,2.308821533203125,-0.996490478515625,0.0595855712890625,-0.041229248046875
1772709145569846500,2.318846435546875,-0.9945068359375,0.0621490478515625,-0.0345001220703125
1772709145579871700,2.328871826171875,-0.9930877685546875,0.067962646484375,-0.0354766845703125
1772709145589896700,2.338896728515625,-0.9941558837890625,0.0688323974609375,-0.0340118408203125
1772709145599921400,2.34892138671875,-0.9948272705078125,0.0680694580078125,-0.041290283203125
1772709145609946400,2.3589462890625,-0.995391845703125,0.06658935546875,-0.043731689453125
1772709145619971600,2.3689716796875,-0.99224853515625,0.07318115234375,-0.0396575927734375
1772709145629996500,2.37899658203125,-0.992095947265625,0.0674896240234375,-0.0436859130859375
1772709145640021500,2.389021484375,-0.995452880859375,0.0598907470703125,-0.035980224609375
1772709145650046500,2.39904638671875,-0.99224853515625,0.0579986572265625,-0.03582763671875
1772709145660071700,2.40907177734375,-0.9935302734375,0.0618438720703125,-0.045318603515625
1772709145670096600,2.4190966796875,-0.99554443359375,0.06719970703125,-0.04803466796875
1772709145680121600,2.42912158203125,-0.9967193603515625,0.072967529296875,-0.0446014404296875
1772709145690146600,2.439146484375,-1.002410888671875,0.0748291015625,-0.03485107421875
1772709145700171500,2.449171630859375,-0.9984283447265625,0.0742950439453125,-0.0250091552734375
1772709145710196500,2.459196533203125,-0.9880218505859375,0.074310302734375,-0.0236968994140625
1772709145720221400,2.469221435546875,-0.9882659912109375,0.0745849609375,-0.0350189208984375
1772709145730246700,2.47924658203125,-0.9945220947265625,0.0705108642578125,-0.038848876953125
1772709145740271600,2.489271728515625,-0.994293212890625,0.0711212158203125,-0.0414581298828125
1772709145750295600,2.499295654296875,-0.996612548828125,0.077301025390625,-0.036285400390625
1772709145760320800,2.50932080078125,-0.9964447021484375,0.0803070068359375,-0.0369873046875
1772709145770345500,2.519345458984375,-0.99542236328125,0.080596923828125,-0.0314788818359375
1772709145780370400,2.529370361328125,-0.9928741455078125,0.0767822265625,-0.0378875732421875
1772709145790395400,2.5393955078125,-0.9906768798828125,0.0709686279296875,-0.0368194580078125
1772709145800420600,2.549420654296875,-0.9888763427734375,0.067840576171875,-0.0406494140625
1772709145810445600,2.559445556640625,-0.9934234619140625,0.0617218017578125,-0.039154052734375
1772709145820470500,2.569470458984375,-0.9958038330078125,0.059661865234375,-0.0424957275390625
1772709145830495500,2.57949560546875,-0.996063232421875,0.0544891357421875,-0.043212890625
1772709145840520700,2.589520751953125,-0.9937591552734375,0.0523834228515625,-0.039947509765625
1772709145850545700,2.599545654296875,-0.99139404296875,0.05535888671875,-0.0389404296875
1772709145860570600,2.609570556640625,-0.9930572509765625,0.058380126953125,-0.0349578857421875
1772709145870595300,2.61959521484375,-0.9967498779296875,0.06121826171875,-0.037628173828125
1772709145880620500,2.62962060546875,-0.995697021484375,0.06024169921875,-0.035003662109375
1772709145890645500,2.6396455078125,-0.9914093017578125,0.0568695068359375,-0.0400390625
1772709145900670500,2.64967041015625,-0.9905548095703125,0.059661865234375,-0.0450592041015625
1772709145910695700,2.65969580078125,-0.9946746826171875,0.0591278076171875,-0.0453338623046875
1772709145920720600,2.669720703125,-0.9949798583984375,0.060882568359375,-0.0370330810546875
1772709145930745600,2.67974560546875,-0.9957122802734375,0.0665283203125,-0.030609130859375
1772709145940770600,2.6897705078125,-0.995819091796875,0.0684356689453125,-0.0333099365234375
1772709145950795800,2.699795654296875,-0.9940338134765625,0.06585693359375,-0.0384521484375
1772709145960820700,2.70982080078125,-0.9917755126953125,0.065673828125,-0.03948974609375
1772709145970845400,2.719845458984375,-0.98968505859375,0.0632171630859375,-0.0423431396484375
1772709145980870400,2.729870361328125,-0.9926605224609375,0.061279296875,-0.0359649658203125
1772709145990894600,2.73989453125,-0.9951019287109375,0.06549072265625,-0.036376953125
1772709146000919600,2.74991943359375,-0.99407958984375,0.067291259765625,-0.037872314453125
1772709146010944500,2.759944580078125,-0.9956512451171875,0.0673828125,-0.03875732421875
1772709146020969700,2.7699697265625,-0.9962005615234375,0.0698394775390625,-0.0404052734375
1772709146030994700,2.77999462890625,-0.9925384521484375,0.0718841552734375,-0.034332275390625
1772709146041019600,2.79001953125,-0.99285888671875,0.069732666015625,-0.036346435546875
1772709146051045000,2.800045166015625,-0.9939117431640625,0.06549072265625,-0.04010009765625
1772709146061070000,2.810070068359375,-0.9946746826171875,0.068603515625,-0.0369415283203125
1772709146071095000,2.820094970703125,-0.99615478515625,0.0664215087890625,-0.0384674072265625
1772709146081120000,2.8301201171875,-0.9967498779296875,0.0637054443359375,-0.037628173828125
1772709146091145000,2.84014501953125,-0.9951019287109375,0.0690155029296875,-0.03619384765625
1772709146101170200,2.850170166015625,-0.99749755859375,0.0709228515625,-0.040679931640625
1772709146111195100,2.860195068359375,-1.00140380859375,0.0690155029296875,-0.041473388671875
1772709146121220000,2.87022021484375,-0.998809814453125,0.067230224609375,-0.040771484375
1772709146131245000,2.8802451171875,-0.990570068359375,0.0686187744140625,-0.0428466796875
1772709146141270300,2.890270263671875,-0.9884796142578125,0.0683746337890625,-0.044921875
1772709146151295200,2.900295166015625,-0.990814208984375,0.0677642822265625,-0.047882080078125
1772709146161320000,2.91031982421875,-0.99163818359375,0.06353759765625,-0.050689697265625
1772709146171345000,2.920344970703125,-0.9926605224609375,0.0578765869140625,-0.0495452880859375
1772709146181370000,2.9303701171875,-0.993255615234375,0.0598602294921875,-0.048736572265625
1772709146191395000,2.94039501953125,-0.995391845703125,0.0614166259765625,-0.047271728515625
1772709146201420000,2.950419921875,-0.9928131103515625,0.0624237060546875,-0.046142578125
1772709146211445000,2.960445068359375,-0.9931488037109375,0.062957763671875,-0.0420989990234375
1772709146221469200,2.97046923828125,-0.993988037109375,0.0606536865234375,-0.0372467041015625
1772709146231494000,2.980493896484375,-0.9924468994140625,0.0647735595703125,-0.0354766845703125
1772709146241518800,2.990518798828125,-0.9955902099609375,0.061370849609375,-0.0355377197265625
1772709146251544000,3.0005439453125,-0.996673583984375,0.0606536865234375,-0.0338897705078125
1772709146261569000,3.010569091796875,-0.993743896484375,0.0657501220703125,-0.0316009521484375
1772709146271594000,3.020593994140625,-0.994659423828125,0.0686798095703125,-0.0309295654296875
1772709146281619000,3.030618896484375,-0.998016357421875,0.073272705078125,-0.0323333740234375
1772709146291644200,3.04064404296875,-0.9968719482421875,0.07733154296875,-0.0347900390625
1772709146301669000,3.050669189453125,-0.993316650390625,0.087860107421875,-0.030120849609375
1772709146311694000,3.060694091796875,-0.996429443359375,0.0941619873046875,-0.021728515625
1772709146321719300,3.07071923828125,-1.005828857421875,0.06884765625,-0.033966064453125
1772709146331744000,3.080743896484375,-1.0001983642578125,0.0411376953125,-0.0484771728515625
1772709146341769000,3.09076904296875,-0.9759674072265625,0.05609130859375,-0.041900634765625
1772709146351794000,3.1007939453125,-0.9694061279296875,0.0843353271484375,-0.0289154052734375
1772709146361819100,3.110819091796875,-0.992828369140625,0.0789031982421875,-0.034820556640625
1772709146371844000,3.120843994140625,-1.0146636962890625,0.060577392578125,-0.04248046875
1772709146381869000,3.130869140625,-1.0040130615234375,0.063629150390625,-0.043121337890625
1772709146391894000,3.14089404296875,-0.986358642578125,0.073638916015625,-0.0477142333984375
1772709146401919200,3.150919189453125,-0.9863128662109375,0.0718841552734375,-0.05413818359375
1772709146411944200,3.160944091796875,-0.999542236328125,0.0563507080078125,-0.051605224609375
1772709146421969200,3.17096923828125,-0.9953460693359375,0.0544281005859375,-0.0438079833984375
1772709146431993900,3.180993896484375,-0.9888458251953125,0.065643310546875,-0.03460693359375
1772709146442019000,3.19101904296875,-0.992218017578125,0.0644073486328125,-0.03857421875
1772709146452043000,3.20104296875,-1.0019073486328125,0.0569305419921875,-0.04754638671875
1772709146462068000,3.21106787109375,-1.001983642578125,0.0563201904296875,-0.0475921630859375
1772709146472093200,3.22109326171875,-0.996002197265625,0.0592041015625,-0.0402374267578125
1772709146482118100,3.2311181640625,-0.9931793212890625,0.063201904296875,-0.03277587890625
1772709146492143000,3.24114306640625,-0.9965667724609375,0.0718994140625,-0.0303497314453125
1772709146502168000,3.25116796875,-0.99908447265625,0.0757598876953125,-0.0354461669921875
1772709146512193000,3.261193115234375,-0.9961090087890625,0.07550048828125,-0.03973388671875
1772709146522218000,3.271218017578125,-0.991851806640625,0.0735015869140625,-0.036956787109375
1772709146532243000,3.281242919921875,-0.98895263671875,0.0710296630859375,-0.0368804931640625
1772709146542268200,3.29126806640625,-0.9918670654296875,0.0733184814453125,-0.0362091064453125
1772709146552293000,3.301293212890625,-0.995635986328125,0.0724945068359375,-0.0386962890625
1772709146562318000,3.311318115234375,-0.9965972900390625,0.0732574462890625,-0.0434722900390625
1772709146572343000,3.321343017578125,-0.99371337890625,0.0691680908203125,-0.043701171875
1772709146582368300,3.3313681640625,-0.992645263671875,0.0643310546875,-0.042510986328125
1772709146592393200,3.341393310546875,-0.9896392822265625,0.0634613037109375,-0.042633056640625
1772709146602418200,3.351418212890625,-0.991058349609375,0.06768798828125,-0.042633056640625
1772709146612443000,3.36144287109375,-0.9960784912109375,0.0722503662109375,-0.0413055419921875
1772709146622468000,3.371468017578125,-0.99945068359375,0.067840576171875,-0.0418853759765625
1772709146632493000,3.3814931640625,-0.9952392578125,0.061798095703125,-0.0376739501953125
1772709146642518000,3.39151806640625,-0.989044189453125,0.0572052001953125,-0.0336456298828125
1772709146652543000,3.40154296875,-0.9893341064453125,0.05377197265625,-0.03466796875
1772709146662568200,3.411568115234375,-0.99176025390625,0.0522308349609375,-0.0330810546875
1772709146672592100,3.421592041015625,-0.992156982421875,0.0618438720703125,-0.0314483642578125
1772709146682616800,3.431616943359375,-0.997344970703125,0.067047119140625,-0.0358734130859375
1772709146692642000,3.44164208984375,-1.0007781982421875,0.0644989013671875,-0.037567138671875
1772709146702667000,3.4516669921875,-0.9947509765625,0.0631866455078125,-0.0346221923828125
1772709146712692000,3.46169189453125,-0.991485595703125,0.060089111328125,-0.0343170166015625
1772709146722717000,3.471717041015625,-0.992523193359375,0.054473876953125,-0.03521728515625
1772709146732742100,3.4817421875,-0.9927978515625,0.05670166015625,-0.0371856689453125
1772709146742767000,3.49176708984375,-0.995025634765625,0.0633392333984375,-0.03857421875
1772709146752792000,3.5017919921875,-0.999755859375,0.0670013427734375,-0.043914794921875
1772709146762817000,3.511817138671875,-0.9999847412109375,0.0680694580078125,-0.046295166015625
1772709146772842200,3.52184228515625,-0.99615478515625,0.0640869140625,-0.0465087890625
1772709146782867000,3.531866943359375,-0.9915313720703125,0.064056396484375,-0.048095703125
1772709146792892000,3.541891845703125,-0.9910430908203125,0.0669097900390625,-0.047271728515625
1772709146802917000,3.551917236328125,-0.9962158203125,0.066650390625,-0.04705810546875
1772709146812942000,3.561942138671875,-0.99798583984375,0.0647735595703125,-0.049072265625
1772709146822967000,3.571967041015625,-0.9951934814453125,0.0702972412109375,-0.0507659912109375
1772709146832992000,3.581991943359375,-0.9953765869140625,0.0730743408203125,-0.0526275634765625
1772709146843017200,3.592017333984375,-0.99652099609375,0.0702972412109375,-0.048370361328125
1772709146853042200,3.602042236328125,-0.994781494140625,0.068084716796875,-0.0415191650390625
1772709146863067100,3.612067138671875,-0.9938507080078125,0.062896728515625,-0.0412445068359375
1772709146873092000,3.622092041015625,-0.993682861328125,0.0591278076171875,-0.0426483154296875
1772709146883117000,3.632116943359375,-0.992767333984375,0.0587921142578125,-0.04205322265625
1772709146893141000,3.64214111328125,-0.99029541015625,0.0579986572265625,-0.0378875732421875
1772709146903166000,3.652166015625,-0.990570068359375,0.0554962158203125,-0.0354156494140625
1772709146913191200,3.662191162109375,-0.9930877685546875,0.0549774169921875,-0.035430908203125
1772709146923216100,3.672216064453125,-0.9931640625,0.0540618896484375,-0.036102294921875
1772709146933241000,3.682240966796875,-0.9926910400390625,0.05706787109375,-0.037445068359375
1772709146943266000,3.69226611328125,-0.9939117431640625,0.061981201171875,-0.036407470703125
1772709146953291300,3.702291259765625,-0.993682861328125,0.0630645751953125,-0.035888671875
1772709146963316000,3.71231591796875,-0.9971160888671875,0.063507080078125,-0.03607177734375
1772709146973341000,3.7223408203125,-0.9964599609375,0.0616455078125,-0.0360565185546875
1772709146983366000,3.732365966796875,-0.992919921875,0.0593109130859375,-0.0352935791015625
1772709146993391000,3.74239111328125,-0.99267578125,0.060546875,-0.0382232666015625
1772709147003416000,3.752416015625,-0.993499755859375,0.064300537109375,-0.0374908447265625
1772709147013441000,3.76244091796875,-0.9937896728515625,0.066986083984375,-0.03887939453125
1772709147023466000,3.772466064453125,-0.997039794921875,0.068695068359375,-0.039337158203125
1772709147033491200,3.7824912109375,-0.99700927734375,0.0665130615234375,-0.0384674072265625
1772709147043516200,3.79251611328125,-0.9922027587890625,0.060302734375,-0.0373382568359375
1772709147053540600,3.80254052734375,-0.9933929443359375,0.0574798583984375,-0.0383758544921875
1772709147063565800,3.81256591796875,-0.9960784912109375,0.05902099609375,-0.0401611328125
1772709147073590800,3.8225908203125,-0.9942626953125,0.0633087158203125,-0.0390472412109375
1772709147083615700,3.83261572265625,-0.9962310791015625,0.06689453125,-0.0378265380859375
1772709147093640700,3.842640625,-0.99542236328125,0.0659637451171875,-0.039276123046875
1772709147103665700,3.852665771484375,-0.9950408935546875,0.06298828125,-0.041015625
1772709147113689600,3.862689697265625,-0.9962005615234375,0.064239501953125,-0.0415496826171875
1772709147123714600,3.872714599609375,-0.9956207275390625,0.0667724609375,-0.0380096435546875
1772709147133739800,3.88273974609375,-0.9961395263671875,0.0714111328125,-0.0399017333984375
1772709147143764700,3.8927646484375,-0.9963836669921875,0.0689697265625,-0.0460205078125
1772709147153789700,3.902789794921875,-0.9955291748046875,0.069488525390625,-0.044036865234375
1772709147163814700,3.912814697265625,-0.99163818359375,0.070526123046875,-0.0452117919921875
1772709147173840000,3.92283984375,-0.9903717041015625,0.069549560546875,-0.0430145263671875
1772709147183864600,3.932864501953125,-0.9977569580078125,0.0748138427734375,-0.041534423828125
1772709147193889500,3.9428896484375,-0.9967498779296875,0.070953369140625,-0.04974365234375
1772709147203914800,3.952914794921875,-0.9942474365234375,0.0679779052734375,-0.0488128662109375
1772709147213939700,3.962939697265625,-0.991973876953125,0.0650482177734375,-0.0497589111328125
1772709147223964700,3.972964599609375,-0.9932708740234375,0.0592041015625,-0.0473785400390625
1772709147233989600,3.98298974609375,-0.9942626953125,0.0560150146484375,-0.0445556640625
1772709147244014800,3.993014892578125,-0.9968414306640625,0.055084228515625,-0.04302978515625
1772709147254039800,4.003039794921875,-0.9914398193359375,0.0530548095703125,-0.0450286865234375
1772709147264064800,4.013064697265625,-0.991851806640625,0.057342529296875,-0.0436248779296875
1772709147274089500,4.02308935546875,-0.995208740234375,0.0623779296875,-0.0431976318359375
1772709147284114700,4.03311474609375,-0.9947662353515625,0.0648651123046875,-0.0391693115234375
1772709147294139600,4.0431396484375,-0.99554443359375,0.070831298828125,-0.0395965576171875
1772709147304164600,4.05316455078125,-0.9924163818359375,0.07012939453125,-0.03887939453125
1772709147314189600,4.063189453125,-0.9943695068359375,0.0720672607421875,-0.0376739501953125
1772709147324213800,4.0732138671875,-0.995330810546875,0.069366455078125,-0.0384979248046875
1772709147334238700,4.08323876953125,-0.9952239990234375,0.0696868896484375,-0.0381622314453125
1772709147344263700,4.093263671875,-0.9933319091796875,0.068328857421875,-0.0389251708984375
1772709147354288600,4.10328857421875,-0.9919281005859375,0.06610107421875,-0.0436248779296875
1772709147364313600,4.113313720703125,-0.992156982421875,0.0608062744140625,-0.045928955078125
1772709147374338600,4.123338623046875,-0.9959564208984375,0.0568695068359375,-0.0437164306640625
1772709147384363800,4.13336376953125,-0.9922637939453125,0.0596466064453125,-0.0402069091796875
1772709147394388700,4.143388671875,-0.9921417236328125,0.060455322265625,-0.0406951904296875
1772709147404413700,4.15341357421875,-0.996490478515625,0.061126708984375,-0.0417022705078125
1772709147414438700,4.163438720703125,-0.9968414306640625,0.059600830078125,-0.045135498046875
1772709147424464000,4.1734638671875,-0.995941162109375,0.0565338134765625,-0.04132080078125
1772709147434488800,4.18348876953125,-0.99114990234375,0.0597686767578125,-0.03900146484375
1772709147444513800,4.193513671875,-0.9921112060546875,0.0558624267578125,-0.039093017578125
1772709147454538500,4.20353857421875,-0.9948883056640625,0.05224609375,-0.0427398681640625
1772709147464563700,4.213563720703125,-0.9958648681640625,0.051910400390625,-0.043426513671875
1772709147474588700,4.223588623046875,-0.9954986572265625,0.0508270263671875,-0.04168701171875
1772709147484613600,4.233613525390625,-0.996124267578125,0.053314208984375,-0.0426025390625
1772709147494638600,4.243638671875,-0.9978485107421875,0.0566864013671875,-0.0417327880859375
1772709147504663800,4.253663818359375,-0.9981842041015625,0.05731201171875,-0.0416259765625
1772709147514688800,4.263688720703125,-0.9987640380859375,0.0581207275390625,-0.0426025390625
1772709147524712700,4.273712646484375,-0.9967498779296875,0.05755615234375,-0.041412353515625
1772709147534737700,4.283737548828125,-0.9933319091796875,0.06011962890625,-0.0410003662109375
1772709147544762600,4.2937626953125,-0.9947509765625,0.06195068359375,-0.0397796630859375
1772709147554787600,4.30378759765625,-0.99322509765625,0.0624542236328125,-0.0399169921875
1772709147564812500,4.3138125,-0.9918212890625,0.0637664794921875,-0.0405120849609375
1772709147574837800,4.323837646484375,-0.9940032958984375,0.0656890869140625,-0.04150390625
1772709147584862700,4.33386279296875,-0.99554443359375,0.0667724609375,-0.0417938232421875
1772709147594887700,4.3438876953125,-0.99554443359375,0.0681610107421875,-0.04327392578125
1772709147604912600,4.35391259765625,-0.9933929443359375,0.068206787109375,-0.0416259765625
1772709147614937900,4.363937744140625,-0.9911346435546875,0.0666351318359375,-0.04150390625
1772709147624962800,4.373962890625,-0.992950439453125,0.066619873046875,-0.0419158935546875
1772709147634987500,4.383987548828125,-0.99560546875,0.06683349609375,-0.0406494140625
1772709147645012700,4.3940126953125,-0.996734619140625,0.0660858154296875,-0.0420379638671875
1772709147655037700,4.40403759765625,-0.9962921142578125,0.0636444091796875,-0.039276123046875
1772709147665062700,4.414062744140625,-0.9941253662109375,0.061065673828125,-0.0404205322265625
1772709147675087600,4.424087646484375,-0.99481201171875,0.058349609375,-0.0415191650390625
1772709147685112800,4.43411279296875,-0.9955291748046875,0.0576324462890625,-0.0424041748046875
1772709147695137800,4.4441376953125,-0.9952850341796875,0.0564117431640625,-0.041717529296875
1772709147705162800,4.454162841796875,-0.994598388671875,0.0561981201171875,-0.04290771484375
1772709147715187700,4.464187744140625,-0.9950714111328125,0.0580902099609375,-0.044219970703125
1772709147725212700,4.474212646484375,-0.9948577880859375,0.0589141845703125,-0.04473876953125
1772709147735236600,4.484236572265625,-0.99371337890625,0.0600433349609375,-0.04412841796875
1772709147745261600,4.494261474609375,-0.993865966796875,0.0624237060546875,-0.043670654296875
1772709147755286800,4.504286865234375,-0.993865966796875,0.0621185302734375,-0.0397491455078125
1772709147765311700,4.514311767578125,-0.99407958984375,0.0587310791015625,-0.04150390625
1772709147775336700,4.524336669921875,-0.9931640625,0.0577850341796875,-0.0447998046875
1772709147785361700,4.534361572265625,-0.9929962158203125,0.064453125,-0.043548583984375
1772709147795387000,4.544386962890625,-0.99615478515625,0.06707763671875,-0.0436553955078125
1772709147805411600,4.55441162109375,-0.995697021484375,0.067596435546875,-0.0417327880859375
1772709147815436500,4.5644365234375,-0.994537353515625,0.0665740966796875,-0.0409698486328125
1772709147825461500,4.57446142578125,-0.993560791015625,0.0649871826171875,-0.04302978515625
1772709147835486700,4.58448681640625,-0.9942626953125,0.0667266845703125,-0.0421142578125
1772709147845511700,4.59451171875,-0.9926910400390625,0.0678253173828125,-0.042877197265625
1772709147855536600,4.60453662109375,-0.9940338134765625,0.0688934326171875,-0.03997802734375
1772709147865561600,4.6145615234375,-0.9946136474609375,0.0696258544921875,-0.0372314453125
1772709147875586800,4.6245869140625,-0.993560791015625,0.0760955810546875,-0.035736083984375
1772709147885611800,4.63461181640625,-0.9983062744140625,0.0684356689453125,-0.0392303466796875
1772709147895636700,4.64463671875,-0.99932861328125,0.053070068359375,-0.0402679443359375
1772709147905661700,4.65466162109375,-0.98919677734375,0.0509033203125,-0.0392913818359375
1772709147915686700,4.664686767578125,-0.9823760986328125,0.06427001953125,-0.0421905517578125
1772709147925711600,4.674711669921875,-0.9934844970703125,0.074951171875,-0.0502166748046875
1772709147935735800,4.68473583984375,-1.00433349609375,0.0710906982421875,-0.0506744384765625
1772709147945760800,4.6947607421875,-1,0.057647705078125,-0.0428314208984375
1772709147955785700,4.70478564453125,-0.9975738525390625,0.0414886474609375,-0.0200347900390625
1772709147965810700,4.714810791015625,-0.9825286865234375,0.0450592041015625,-0.0276947021484375
1772709147975836000,4.7248359375,-0.993316650390625,0.058929443359375,-0.0491943359375
1772709147985860600,4.734860595703125,-1.0041961669921875,0.0585479736328125,-0.062591552734375
1772709147995885600,4.744885498046875,-0.9943389892578125,0.0528717041015625,-0.045318603515625
1772709148005910500,4.75491064453125,-0.9868316650390625,0.0511474609375,-0.033477783203125
1772709148015935700,4.764935791015625,-1.001953125,0.0528106689453125,-0.0309600830078125
1772709148025960700,4.774960693359375,-0.99072265625,0.0654144287109375,-0.036834716796875
1772709148035985700,4.784985595703125,-0.9821319580078125,0.076141357421875,-0.0363616943359375
1772709148046010600,4.7950107421875,-0.9987335205078125,0.077362060546875,-0.0452880859375
1772709148056035800,4.805035888671875,-0.994476318359375,0.071441650390625,-0.04705810546875
1772709148066060800,4.815060791015625,-0.988861083984375,0.080535888671875,-0.0353546142578125
1772709148076085800,4.825085693359375,-0.9972076416015625,0.072509765625,-0.033477783203125
1772709148086110700,4.83511083984375,-1.00909423828125,0.056732177734375,-0.0347900390625
1772709148096136000,4.845135986328125,-0.994720458984375,0.0654449462890625,-0.0394287109375
1772709148106161000,4.855160888671875,-0.98272705078125,0.067413330078125,-0.0471038818359375
1772709148116185900,4.865185791015625,-0.9898223876953125,0.0643157958984375,-0.042388916015625
1772709148126210800,4.8752109375,-0.9989471435546875,0.0688934326171875,-0.03436279296875
1772709148136234800,4.88523486328125,-1.0017242431640625,0.0661773681640625,-0.0374755859375
1772709148146259700,4.895259765625,-0.99981689453125,0.062255859375,-0.0416717529296875
1772709148156285000,4.905284912109375,-0.9910125732421875,0.0631561279296875,-0.0445709228515625
1772709148166310000,4.915309814453125,-0.9889373779296875,0.0622711181640625,-0.04071044921875
1772709148176334800,4.9253349609375,-0.992889404296875,0.0602569580078125,-0.0393829345703125
1772709148186359800,4.93535986328125,-0.99609375,0.0599212646484375,-0.0410003662109375
1772709148196385000,4.945385009765625,-0.9992523193359375,0.0624542236328125,-0.041534423828125
1772709148206410000,4.955409912109375,-0.9991912841796875,0.064971923828125,-0.0420684814453125
1772709148216435000,4.96543505859375,-0.9953460693359375,0.06475830078125,-0.0421142578125
1772709148226459600,4.975459716796875,-0.992889404296875,0.0610809326171875,-0.03955078125
1772709148236484900,4.98548486328125,-0.9895477294921875,0.0593719482421875,-0.0397186279296875
1772709148246509800,4.995509765625,-0.991851806640625,0.061065673828125,-0.0392913818359375
1772709148256534800,5.00553466796875,-0.993560791015625,0.064910888671875,-0.04095458984375
1772709148266559700,5.015559814453125,-0.9978485107421875,0.0691986083984375,-0.0419158935546875
1772709148276585000,5.0255849609375,-0.99658203125,0.0668792724609375,-0.039825439453125
1772709148286610000,5.03560986328125,-0.9924774169921875,0.06597900390625,-0.0375823974609375
1772709148296635000,5.045634765625,-0.98974609375,0.064910888671875,-0.03857421875
1772709148306659800,5.055659912109375,-0.9917144775390625,0.066741943359375,-0.0417633056640625
1772709148316685000,5.06568505859375,-0.995513916015625,0.0687255859375,-0.0428924560546875
1772709148326709800,5.075709716796875,-0.9978485107421875,0.069091796875,-0.04034423828125
1772709148336733700,5.085733642578125,-0.995452880859375,0.066070556640625,-0.040435791015625
1772709148346759000,5.095759033203125,-0.9928436279296875,0.064239501953125,-0.041656494140625
1772709148356783900,5.105783935546875,-0.99169921875,0.0677490234375,-0.0436553955078125
1772709148366808800,5.115808837890625,-0.9923858642578125,0.0673675537109375,-0.0412139892578125
1772709148376833800,5.125833740234375,-0.9952239990234375,0.066009521484375,-0.0378570556640625
1772709148386859000,5.13585888671875,-0.995819091796875,0.0663909912109375,-0.0386199951171875
1772709148396884000,5.145884033203125,-0.9935760498046875,0.067840576171875,-0.0378265380859375
1772709148406908700,5.15590869140625,-0.9930572509765625,0.0661468505859375,-0.03985595703125
1772709148416934000,5.165933837890625,-0.9935760498046875,0.065948486328125,-0.03955078125
1772709148426958800,5.175958740234375,-0.9946746826171875,0.06396484375,-0.039337158203125
1772709148436983800,5.18598388671875,-0.996612548828125,0.0634918212890625,-0.040557861328125
1772709148447008800,5.1960087890625,-0.99615478515625,0.062744140625,-0.0409698486328125
1772709148457034000,5.206033935546875,-0.9949798583984375,0.0630340576171875,-0.0421295166015625
1772709148467059000,5.216058837890625,-0.994293212890625,0.0646514892578125,-0.042327880859375
1772709148477084000,5.226083984375,-0.9946136474609375,0.0653228759765625,-0.041351318359375
1772709148487108900,5.23610888671875,-0.9959564208984375,0.06463623046875,-0.04150390625
1772709148497134000,5.246134033203125,-0.99609375,0.0658416748046875,-0.041229248046875
1772709148507158800,5.25615869140625,-0.9933929443359375,0.067901611328125,-0.041656494140625
1772709148517183700,5.266183837890625,-0.9947509765625,0.06805419921875,-0.0389251708984375
1772709148527208000,5.2762080078125,-0.994232177734375,0.065765380859375,-0.04058837890625
1772709148537233000,5.28623291015625,-0.993011474609375,0.065704345703125,-0.0415802001953125
1772709148547257900,5.2962578125,-0.9936981201171875,0.066680908203125,-0.0409698486328125
1772709148557282800,5.30628271484375,-0.9964447021484375,0.06646728515625,-0.041351318359375
1772709148567308000,5.31630810546875,-0.9946441650390625,0.0671539306640625,-0.0405120849609375
1772709148577959000,5.326958984375,-0.9948272705078125,0.0680084228515625,-0.039520263671875
1772709148587984000,5.33698388671875,-0.9948577880859375,0.0662689208984375,-0.040313720703125
1772709148598008800,5.3470087890625,-0.99505615234375,0.067840576171875,-0.0406646728515625
1772709148608033800,5.35703369140625,-0.9943389892578125,0.0663909912109375,-0.040618896484375
1772709148618059000,5.36705908203125,-0.9949493408203125,0.0644378662109375,-0.0397796630859375
1772709148628084000,5.377083984375,-0.994232177734375,0.06512451171875,-0.0405120849609375
1772709148638109000,5.38710888671875,-0.9928131103515625,0.0656585693359375,-0.039764404296875
1772709148648133600,5.397133544921875,-0.9958953857421875,0.0630340576171875,-0.0404815673828125
1772709148658158800,5.407158935546875,-0.9957733154296875,0.06170654296875,-0.0405120849609375
1772709148668183800,5.417183837890625,-0.9944000244140625,0.0636749267578125,-0.042327880859375
1772709148678208800,5.427208740234375,-0.99322509765625,0.0664215087890625,-0.041229248046875
1772709148688233700,5.437233642578125,-0.993560791015625,0.0655975341796875,-0.04144287109375
1772709148698259000,5.447259033203125,-0.9949951171875,0.0645751953125,-0.040069580078125
1772709148708284000,5.457283935546875,-0.9949188232421875,0.064178466796875,-0.040283203125
1772709148718308900,5.467308837890625,-0.993438720703125,0.063812255859375,-0.0399322509765625
1772709148728332800,5.477332763671875,-0.990753173828125,0.0648193359375,-0.0396270751953125
1772709148738357800,5.487357666015625,-0.9926300048828125,0.0684814453125,-0.0426177978515625
1772709148748382700,5.4973828125,-0.995391845703125,0.070648193359375,-0.040679931640625
1772709148758408000,5.507407958984375,-0.9969940185546875,0.065216064453125,-0.0363616943359375
1772709148768433000,5.517432861328125,-0.99505615234375,0.06463623046875,-0.0379486083984375
1772709148778457900,5.527457763671875,-0.994720458984375,0.066131591796875,-0.040496826171875
1772709148788482800,5.53748291015625,-0.9942169189453125,0.068145751953125,-0.044677734375
1772709148798508000,5.547508056640625,-0.9920501708984375,0.067108154296875,-0.042816162109375
1772709148808533000,5.557532958984375,-0.9922332763671875,0.068939208984375,-0.040130615234375
1772709148818557700,5.5675576171875,-0.995941162109375,0.0672454833984375,-0.041595458984375
1772709148828582700,5.577582763671875,-0.999359130859375,0.068389892578125,-0.0425567626953125
1772709148838608000,5.58760791015625,-0.9962615966796875,0.0692901611328125,-0.040191650390625
1772709148848632800,5.5976328125,-0.9929962158203125,0.0683746337890625,-0.0401458740234375
1772709148858657800,5.60765771484375,-0.99053955078125,0.0655975341796875,-0.0402679443359375
1772709148868682800,5.617682861328125,-0.993133544921875,0.0669097900390625,-0.03887939453125
1772709148878708000,5.6277080078125,-0.995269775390625,0.0663299560546875,-0.039520263671875
1772709148888733000,5.63773291015625,-0.997833251953125,0.0657958984375,-0.0395050048828125
1772709148898758000,5.6477578125,-0.9959564208984375,0.065032958984375,-0.0398406982421875
1772709148908782800,5.657782958984375,-0.992156982421875,0.06378173828125,-0.0414886474609375
1772709148918806800,5.667806884765625,-0.993560791015625,0.065948486328125,-0.0404815673828125
1772709148929459700,5.678459716796875,-0.9954986572265625,0.068389892578125,-0.0394744873046875
1772709148939485000,5.68848486328125,-0.9982147216796875,0.0699920654296875,-0.0395660400390625
1772709148949510000,5.698510009765625,-0.996185302734375,0.0709381103515625,-0.040374755859375
1772709148959534800,5.708534912109375,-0.9926910400390625,0.0711517333984375,-0.0403594970703125
1772709148969559800,5.718559814453125,-0.992645263671875,0.06964111328125,-0.0416107177734375
1772709148979585000,5.7285849609375,-0.9903564453125,0.0677947998046875,-0.0402984619140625
1772709148989610000,5.73860986328125,-0.992889404296875,0.0644378662109375,-0.0395355224609375
1772709148999634700,5.748634765625,-0.993255615234375,0.063568115234375,-0.04168701171875
1772709149009659000,5.758658935546875,-0.99566650390625,0.064453125,-0.0416717529296875
1772709149019683800,5.768683837890625,-0.99554443359375,0.0677032470703125,-0.0411376953125
1772709149029708800,5.778708740234375,-0.996185302734375,0.064971923828125,-0.0403900146484375
1772709149039733800,5.788733642578125,-0.9918670654296875,0.06390380859375,-0.0389404296875
1772709149049759200,5.79875927734375,-0.9931182861328125,0.064422607421875,-0.0406646728515625
1772709149059784200,5.8087841796875,-0.995880126953125,0.06463623046875,-0.0403900146484375
1772709149069809000,5.818808837890625,-0.9959869384765625,0.0663604736328125,-0.0409393310546875
1772709149079834000,5.828834228515625,-0.9951324462890625,0.065185546875,-0.0408782958984375
1772709149089859000,5.838859130859375,-0.9950408935546875,0.0660400390625,-0.03955078125
1772709149099884000,5.848884033203125,-0.9945068359375,0.0664215087890625,-0.039337158203125
1772709149109909000,5.858908935546875,-0.9944915771484375,0.067901611328125,-0.039825439453125
1772709149119934200,5.868934326171875,-0.994903564453125,0.069244384765625,-0.040069580078125
1772709149129959200,5.878959228515625,-0.9958953857421875,0.0699462890625,-0.0399627685546875
1772709149139984100,5.888984130859375,-0.9947052001953125,0.0704345703125,-0.040130615234375
1772709149150009000,5.899009033203125,-0.9945068359375,0.072113037109375,-0.0408935546875
1772709149160034300,5.909034423828125,-0.9939422607421875,0.07080078125,-0.0405731201171875
1772709149170059000,5.91905908203125,-0.9939727783203125,0.07012939453125,-0.0403594970703125
1772709149180084000,5.929083984375,-0.9937896728515625,0.068511962890625,-0.037872314453125
1772709149190109000,5.93910888671875,-0.9946136474609375,0.0646514892578125,-0.0392608642578125
1772709149200134100,5.949134033203125,-0.992645263671875,0.0657196044921875,-0.040283203125
1772709149210159000,5.9591591796875,-0.992279052734375,0.0689544677734375,-0.0415191650390625
1772709149220184000,5.96918408203125,-0.9952545166015625,0.0713653564453125,-0.041290283203125
1772709149230209000,5.979208984375,-0.996917724609375,0.065093994140625,-0.0364990234375
1772709149240234200,5.989234130859375,-0.994293212890625,0.0630645751953125,-0.037841796875
1772709149250258000,5.9992578125,-0.99530029296875,0.06158447265625,-0.042144775390625
1772709149260283000,6.009282958984375,-0.9945526123046875,0.0641326904296875,-0.0434417724609375
1772709149270308000,6.01930810546875,-0.992431640625,0.0667724609375,-0.0417938232421875
1772709149280333000,6.0293330078125,-0.9922943115234375,0.0676727294921875,-0.0398712158203125
1772709149290358000,6.03935791015625,-0.994171142578125,0.0655975341796875,-0.040130615234375
1772709149300383000,6.049383056640625,-0.99749755859375,0.0673675537109375,-0.0431671142578125
1772709149310408200,6.059408203125,-0.996002197265625,0.069427490234375,-0.041748046875
1772709149320433200,6.06943310546875,-0.9928436279296875,0.0668792724609375,-0.039794921875
1772709149330458000,6.0794580078125,-0.992034912109375,0.0669097900390625,-0.0391693115234375
1772709149340483000,6.089483154296875,-0.993743896484375,0.0673370361328125,-0.039642333984375
1772709149350508000,6.099508056640625,-0.9957427978515625,0.0671539306640625,-0.0384063720703125
1772709149360533000,6.109532958984375,-0.99615478515625,0.066192626953125,-0.0393218994140625
1772709149370558000,6.119557861328125,-0.994903564453125,0.0666961669921875,-0.040008544921875
1772709149380583200,6.129583251953125,-0.9947509765625,0.0652923583984375,-0.0388031005859375
1772709149390608100,6.139608154296875,-0.9923248291015625,0.06591796875,-0.0393524169921875
1772709149400633000,6.149633056640625,-0.9937591552734375,0.064849853515625,-0.039947509765625
1772709149410658000,6.159657958984375,-0.9946136474609375,0.0658416748046875,-0.039825439453125
1772709149420683300,6.169683349609375,-0.997589111328125,0.0669708251953125,-0.03985595703125
1772709149430708200,6.179708251953125,-0.9954376220703125,0.06463623046875,-0.038482666015625
1772709149440733000,6.18973291015625,-0.99359130859375,0.0632171630859375,-0.0396575927734375
1772709149450758000,6.1997578125,-0.99383544921875,0.063812255859375,-0.040618896484375
1772709149460783000,6.209783203125,-0.9942474365234375,0.0646209716796875,-0.0406036376953125
1772709149470808000,6.21980810546875,-0.994659423828125,0.0663299560546875,-0.0392608642578125
1772709149480833000,6.2298330078125,-0.996185302734375,0.0640716552734375,-0.039642333984375
1772709149490858000,6.23985791015625,-0.9947662353515625,0.0673675537109375,-0.041046142578125
1772709149500883200,6.24988330078125,-0.9931793212890625,0.06719970703125,-0.0399932861328125
1772709149510908200,6.259908203125,-0.9925537109375,0.0688018798828125,-0.041656494140625
1772709149520933000,6.26993310546875,-0.9940643310546875,0.068389892578125,-0.0393829345703125
1772709149530958000,6.2799580078125,-0.9952392578125,0.0667877197265625,-0.03985595703125
1772709149540982000,6.28998193359375,-0.9938507080078125,0.069793701171875,-0.0406646728515625
1772709149551007000,6.300007080078125,-0.9944305419921875,0.068939208984375,-0.041107177734375
1772709149561032000,6.310031982421875,-0.99444580078125,0.069732666015625,-0.03875732421875
1772709149571057200,6.32005712890625,-0.9946746826171875,0.0738372802734375,-0.0399322509765625
1772709149581082000,6.33008203125,-0.9959259033203125,0.071075439453125,-0.0420074462890625
1772709149591107000,6.340107177734375,-0.9948883056640625,0.0686492919921875,-0.0411834716796875
1772709149601132000,6.350132080078125,-0.9908905029296875,0.063690185546875,-0.0405120849609375
1772709149611157200,6.3601572265625,-0.989288330078125,0.062408447265625,-0.0397491455078125
1772709149621182000,6.370181884765625,-0.992919921875,0.064300537109375,-0.0419464111328125
1772709149631207000,6.38020703125,-0.9975738525390625,0.06591796875,-0.043670654296875
1772709149641232100,6.390232177734375,-0.9961700439453125,0.0615997314453125,-0.0428619384765625
1772709149651257000,6.400257080078125,-0.9951019287109375,0.0603179931640625,-0.04046630859375
1772709149661282000,6.410281982421875,-0.9915618896484375,0.060760498046875,-0.040557861328125
1772709149671307000,6.42030712890625,-0.9920501708984375,0.060516357421875,-0.0408935546875
1772709149681332200,6.430332275390625,-0.9943084716796875,0.064361572265625,-0.0419464111328125
1772709149691357200,6.440357177734375,-0.9920196533203125,0.0663909912109375,-0.041015625
1772709149701382100,6.450382080078125,-0.9952239990234375,0.06329345703125,-0.0379791259765625
1772709149711407000,6.460406982421875,-0.995513916015625,0.05938720703125,-0.0383148193359375
1772709149721432000,6.47043212890625,-0.994903564453125,0.0597686767578125,-0.0384521484375
1772709149731457000,6.48045703125,-0.9951629638671875,0.06256103515625,-0.0396270751953125
1772709149741482000,6.49048193359375,-0.9946136474609375,0.06640625,-0.0405426025390625
1772709149751507000,6.5005068359375,-0.9945220947265625,0.0675201416015625,-0.037872314453125
1772709149761532200,6.5105322265625,-0.9946136474609375,0.06781005859375,-0.0375518798828125
1772709149771557000,6.52055712890625,-0.99383544921875,0.0667266845703125,-0.039459228515625
1772709149781582000,6.53058203125,-0.9956512451171875,0.069732666015625,-0.040557861328125
1772709149791607000,6.54060693359375,-0.99591064453125,0.0703125,-0.0411834716796875
1772709149801632300,6.55063232421875,-0.99273681640625,0.070404052734375,-0.038726806640625
1772709149811656000,6.560656005859375,-0.9932861328125,0.0718536376953125,-0.0394287109375
1772709149821681000,6.570680908203125,-0.993194580078125,0.0726776123046875,-0.0416412353515625
1772709149831706000,6.5807060546875,-0.994964599609375,0.0743560791015625,-0.0414581298828125
1772709149841731000,6.59073095703125,-0.9969940185546875,0.073486328125,-0.04144287109375
1772709149851756000,6.600756103515625,-0.9984283447265625,0.068206787109375,-0.039459228515625
1772709149861781200,6.61078125,-0.9992828369140625,0.0568695068359375,-0.0409393310546875
1772709149871806200,6.62080615234375,-0.9989013671875,0.0433349609375,-0.038177490234375
1772709149881831200,6.6308310546875,-0.9951171875,0.0455474853515625,-0.038543701171875
1772709149891856000,6.64085595703125,-0.9886474609375,0.0595855712890625,-0.0361175537109375
1772709149901881000,6.650881103515625,-0.9899749755859375,0.0661163330078125,-0.0370635986328125
1772709149911906000,6.660906005859375,-0.9912109375,0.0633544921875,-0.0399627685546875
1772709149921931000,6.670930908203125,-0.9927215576171875,0.0587921142578125,-0.0379638671875
1772709149931956000,6.6809560546875,-0.9951324462890625,0.0596923828125,-0.038177490234375
1772709149941981200,6.690981201171875,-0.994384765625,0.0648040771484375,-0.03802490234375
1772709149952006100,6.701006103515625,-0.9947662353515625,0.06878662109375,-0.0411529541015625
1772709149962031000,6.711031005859375,-0.9911346435546875,0.06915283203125,-0.044189453125
1772709149972056000,6.72105615234375,-0.99176025390625,0.068450927734375,-0.04327392578125
1772709149982081300,6.731081298828125,-0.9944610595703125,0.0694732666015625,-0.0426025390625
1772709149992106000,6.74110595703125,-0.9972686767578125,0.0706939697265625,-0.0420989990234375
1772709150002131000,6.751130859375,-0.9968414306640625,0.068572998046875,-0.0415496826171875
1772709150012156000,6.761156005859375,-0.9945831298828125,0.065887451171875,-0.040740966796875
1772709150022181000,6.77118115234375,-0.9928741455078125,0.06585693359375,-0.0413665771484375
1772709150032206000,6.7812060546875,-0.99432373046875,0.064422607421875,-0.0394439697265625
1772709150042231000,6.79123095703125,-0.9951171875,0.0630340576171875,-0.038909912109375
1772709150052254000,6.80125390625,-0.9954833984375,0.0629119873046875,-0.0393524169921875
1772709150062279000,6.81127880859375,-0.9957427978515625,0.059661865234375,-0.0398101806640625
1772709150072304000,6.82130419921875,-0.9952239990234375,0.0586090087890625,-0.0397796630859375
1772709150082329000,6.8313291015625,-0.99371337890625,0.0591583251953125,-0.038177490234375
1772709150092354000,6.84135400390625,-0.9947357177734375,0.0597991943359375,-0.0402984619140625
1772709150102378800,6.851378662109375,-0.99591064453125,0.064361572265625,-0.0421142578125
1772709150112404000,6.861404052734375,-0.9946746826171875,0.0641326904296875,-0.0422210693359375
1772709150122429000,6.871428955078125,-0.9938507080078125,0.0645904541015625,-0.0416412353515625
1772709150132454000,6.881453857421875,-0.9940643310546875,0.0648651123046875,-0.0410003662109375
1772709150142478800,6.891478759765625,-0.99310302734375,0.063140869140625,-0.0396270751953125
1772709150152504000,6.901504150390625,-0.9932098388671875,0.06494140625,-0.041107177734375
1772709150162529000,6.911529052734375,-0.9927215576171875,0.06561279296875,-0.0416717529296875
1772709150172554000,6.921553955078125,-0.994293212890625,0.069366455078125,-0.0433349609375
1772709150182579000,6.931578857421875,-0.9968414306640625,0.0662994384765625,-0.039825439453125
1772709150192604000,6.94160400390625,-0.9931640625,0.0635528564453125,-0.03729248046875
1772709150202628900,6.95162890625,-0.99072265625,0.0644683837890625,-0.0375823974609375
1772709150212653800,6.96165380859375,-0.99395751953125,0.0670013427734375,-0.041778564453125
1772709150222678800,6.9716787109375,-0.995758056640625,0.065643310546875,-0.0406494140625
1772709150232704000,6.9817041015625,-0.994842529296875,0.0640411376953125,-0.038421630859375
1772709150242729000,6.99172900390625,-0.9944000244140625,0.063232421875,-0.039215087890625
1772709150252754000,7.00175390625,-0.9950408935546875,0.06341552734375,-0.040496826171875
1772709150262779000,7.01177880859375,-0.9940032958984375,0.064544677734375,-0.040283203125
1772709150272804000,7.02180419921875,-0.9930419921875,0.065277099609375,-0.03826904296875
1772709150282829000,7.0318291015625,-0.9947662353515625,0.063751220703125,-0.03729248046875
1772709150292853000,7.04185302734375,-0.994476318359375,0.066192626953125,-0.03765869140625
1772709150302878000,7.0518779296875,-0.9956512451171875,0.06768798828125,-0.03997802734375
1772709150312903000,7.06190283203125,-0.9948577880859375,0.0662078857421875,-0.0388641357421875
1772709150322927900,7.071927978515625,-0.99334716796875,0.066375732421875,-0.0382080078125
1772709150332953000,7.081953125,-0.99365234375,0.066802978515625,-0.0397186279296875
1772709150342978000,7.09197802734375,-0.99444580078125,0.0676422119140625,-0.0405731201171875
1772709150353003000,7.1020029296875,-0.9939117431640625,0.0670318603515625,-0.04144287109375
1772709150363028000,7.112028076171875,-0.9948272705078125,0.062286376953125,-0.0401153564453125
1772709150373053000,7.122052978515625,-0.992156982421875,0.063568115234375,-0.0394134521484375
1772709150383078000,7.132077880859375,-0.994171142578125,0.06317138671875,-0.0400390625
1772709150393102800,7.142102783203125,-0.9955596923828125,0.063568115234375,-0.0407257080078125
1772709150403127800,7.1521279296875,-0.996429443359375,0.0631103515625,-0.04071044921875
1772709150413153000,7.162153076171875,-0.9933929443359375,0.06317138671875,-0.0398712158203125
1772709150423178000,7.172177978515625,-0.9934539794921875,0.0644073486328125,-0.0408172607421875
1772709150433203000,7.182202880859375,-0.99481201171875,0.064849853515625,-0.0397796630859375
1772709150443228000,7.192227783203125,-0.9954071044921875,0.0641632080078125,-0.040130615234375
1772709150453253000,7.202253173828125,-0.9940032958984375,0.0634307861328125,-0.0396728515625
1772709150463278000,7.212278076171875,-0.993804931640625,0.06402587890625,-0.041107177734375
1772709150473302800,7.222302734375,-0.9947052001953125,0.0643310546875,-0.0412750244140625
1772709150483327700,7.23232763671875,-0.9931182861328125,0.0670928955078125,-0.040252685546875
1772709150493353000,7.24235302734375,-0.9940948486328125,0.0664215087890625,-0.0403594970703125
1772709150503378000,7.2523779296875,-0.9937591552734375,0.06756591796875,-0.0396728515625
1772709150513403000,7.26240283203125,-0.9943695068359375,0.06744384765625,-0.040802001953125
1772709150523427000,7.272427001953125,-0.9941253662109375,0.0664825439453125,-0.03826904296875
1772709150533452000,7.2824521484375,-0.995361328125,0.0657196044921875,-0.039642333984375
1772709150543477000,7.29247705078125,-0.9942779541015625,0.0652923583984375,-0.0408172607421875
1772709150553502000,7.302501953125,-0.99395751953125,0.0654449462890625,-0.0404815673828125
1772709150563527000,7.31252685546875,-0.9938201904296875,0.0652923583984375,-0.0411529541015625
1772709150573551900,7.3225517578125,-0.9940185546875,0.063690185546875,-0.0404815673828125
1772709150583576800,7.332576904296875,-0.9952239990234375,0.0642547607421875,-0.039276123046875
1772709150593602000,7.34260205078125,-0.9959716796875,0.064453125,-0.040435791015625
1772709150603627000,7.352626953125,-0.9926910400390625,0.06488037109375,-0.0410614013671875
1772709150613652000,7.36265185546875,-0.9950714111328125,0.0648345947265625,-0.041015625
1772709150623677000,7.372677001953125,-0.9952545166015625,0.0631256103515625,-0.040985107421875
1772709150633702100,7.3827021484375,-0.994293212890625,0.0639190673828125,-0.0396881103515625
1772709150643726800,7.392726806640625,-0.9941558837890625,0.0617828369140625,-0.04095458984375
1772709150653751800,7.402751708984375,-0.9945831298828125,0.0634307861328125,-0.0413360595703125
1772709150663776800,7.41277685546875,-0.993408203125,0.0672607421875,-0.0406341552734375
1772709150673802000,7.422802001953125,-0.9936981201171875,0.0693817138671875,-0.04144287109375
1772709150683827000,7.432826904296875,-0.99658203125,0.06610107421875,-0.039947509765625
1772709150693852000,7.442851806640625,-0.99627685546875,0.06378173828125,-0.03863525390625
1772709150703876900,7.452876953125,-0.99371337890625,0.061767578125,-0.039825439453125
1772709150713902000,7.462902099609375,-0.9933929443359375,0.0647735595703125,-0.0436248779296875
1772709150723927000,7.472927001953125,-0.996002197265625,0.065155029296875,-0.04217529296875
1772709150733951000,7.482950927734375,-0.9946136474609375,0.0661163330078125,-0.0417938232421875
1772709150743976000,7.492975830078125,-0.993927001953125,0.06524658203125,-0.041168212890625
1772709150754001000,7.5030009765625,-0.995758056640625,0.0655364990234375,-0.042022705078125
1772709150764025900,7.51302587890625,-0.995208740234375,0.067657470703125,-0.04180908203125
1772709150774051000,7.523051025390625,-0.993682861328125,0.0668792724609375,-0.038818359375
1772709150784076000,7.533075927734375,-0.9919891357421875,0.0657958984375,-0.03826904296875
1772709150794101000,7.54310107421875,-0.992218017578125,0.0662841796875,-0.0401611328125
1772709150804126000,7.5531259765625,-0.99462890625,0.0648040771484375,-0.0399322509765625
1772709150814151200,7.563151123046875,-0.9954071044921875,0.066436767578125,-0.0406036376953125
1772709150824175900,7.57317578125,-0.9954681396484375,0.063873291015625,-0.041046142578125
1772709150834200800,7.583200927734375,-0.994232177734375,0.06292724609375,-0.0410308837890625
1772709150844225800,7.593225830078125,-0.9933319091796875,0.0647125244140625,-0.039520263671875
1772709150854251000,7.6032509765625,-0.994903564453125,0.06536865234375,-0.0406646728515625
1772709150864276000,7.61327587890625,-0.9933013916015625,0.0656585693359375,-0.040557861328125
1772709150874301000,7.623301025390625,-0.994171142578125,0.06561279296875,-0.040191650390625
1772709150884326000,7.633325927734375,-0.994903564453125,0.0644683837890625,-0.0410308837890625
1772709150894351000,7.64335107421875,-0.994354248046875,0.0653228759765625,-0.0418243408203125
1772709150904376000,7.6533759765625,-0.99468994140625,0.06561279296875,-0.0405426025390625
1772709150914401000,7.663401123046875,-0.9934844970703125,0.0652618408203125,-0.0416107177734375
1772709150924425700,7.67342578125,-0.99365234375,0.0657196044921875,-0.041290283203125
1772709150934451000,7.683450927734375,-0.993377685546875,0.0659637451171875,-0.039581298828125
1772709150944475000,7.693474853515625,-0.994720458984375,0.066802978515625,-0.0411834716796875
1772709150954499800,7.703499755859375,-0.9940643310546875,0.0662078857421875,-0.04010009765625
1772709150964525000,7.713525146484375,-0.9939422607421875,0.0654449462890625,-0.042266845703125
1772709150974550000,7.723550048828125,-0.993255615234375,0.0658111572265625,-0.04132080078125
1772709150984575000,7.733574951171875,-0.99359130859375,0.064971923828125,-0.0409393310546875
1772709150994600000,7.743599853515625,-0.99322509765625,0.0652313232421875,-0.0402984619140625
1772709151004625000,7.753625,-0.996002197265625,0.06622314453125,-0.0418701171875
1772709151014649900,7.76364990234375,-0.9938507080078125,0.065582275390625,-0.04168701171875
1772709151024674800,7.7736748046875,-0.9927978515625,0.0657958984375,-0.0404815673828125
1772709151034700000,7.783699951171875,-0.99444580078125,0.0661773681640625,-0.0408935546875
1772709151044725000,7.79372509765625,-0.99505615234375,0.06561279296875,-0.040252685546875
1772709151054750700,7.803750732421875,-0.9951629638671875,0.06585693359375,-0.0409698486328125
1772709151064775700,7.813775634765625,-0.993682861328125,0.0665435791015625,-0.040557861328125
1772709151074800400,7.82380029296875,-0.9947967529296875,0.0642852783203125,-0.039794921875
1772709151084825600,7.83382568359375,-0.9958648681640625,0.0657196044921875,-0.0399322509765625
1772709151094850600,7.8438505859375,-0.9959564208984375,0.067108154296875,-0.0408782958984375
1772709151104875500,7.85387548828125,-0.9939422607421875,0.0673675537109375,-0.0406341552734375
1772709151114900500,7.863900390625,-0.994476318359375,0.067169189453125,-0.0416107177734375
1772709151124925700,7.87392578125,-0.996063232421875,0.0659027099609375,-0.0403594970703125
1772709151134950700,7.88395068359375,-0.9951629638671875,0.06561279296875,-0.04156494140625
1772709151144974600,7.893974609375,-0.9953765869140625,0.06573486328125,-0.0414581298828125
1772709151154999600,7.90399951171875,-0.9937744140625,0.065704345703125,-0.0419921875
1772709151165024500,7.9140244140625,-0.993408203125,0.0651702880859375,-0.0422210693359375
1772709151175049500,7.924049560546875,-0.9923553466796875,0.06585693359375,-0.041778564453125
1772709151185074700,7.93407470703125,-0.9933013916015625,0.0684814453125,-0.042205810546875
1772709151195099600,7.944099609375,-0.99578857421875,0.06842041015625,-0.0430450439453125
1772709151205124600,7.95412451171875,-0.998046875,0.06500244140625,-0.0394287109375
1772709151215149600,7.964149658203125,-0.9929656982421875,0.0618438720703125,-0.037322998046875
1772709151225174800,7.9741748046875,-0.9927978515625,0.0626678466796875,-0.040069580078125
1772709151235199700,7.98419970703125,-0.9939727783203125,0.0665740966796875,-0.0444793701171875
1772709151245224700,7.994224609375,-0.9947357177734375,0.0648345947265625,-0.0447998046875
1772709151255249400,8.00424951171875,-0.991973876953125,0.065032958984375,-0.040679931640625
1772709151265274600,8.014274658203124,-0.993194580078125,0.06646728515625,-0.0398712158203125
1772709151275299600,8.024299560546876,-0.997314453125,0.0667266845703125,-0.040374755859375
1772709151285324500,8.034324462890625,-0.996337890625,0.068634033203125,-0.0406646728515625
1772709151295349500,8.044349609375,-0.9939117431640625,0.066497802734375,-0.04010009765625
1772709151305374700,8.054374755859374,-0.9913482666015625,0.0666046142578125,-0.0395355224609375
1772709151315399700,8.064399658203126,-0.9935760498046875,0.0659027099609375,-0.03997802734375
1772709151325424600,8.074424560546875,-0.9964752197265625,0.0667877197265625,-0.041534423828125
1772709151335449600,8.08444970703125,-0.9962005615234375,0.0662078857421875,-0.042205810546875
1772709151345473500,8.0944736328125,-0.9945831298828125,0.066375732421875,-0.042266845703125
1772709151355498500,8.10449853515625,-0.9934234619140625,0.065460205078125,-0.0410308837890625
1772709151365523500,8.1145234375,-0.9923095703125,0.065673828125,-0.04071044921875
1772709151375548700,8.124548583984375,-0.9950103759765625,0.0655975341796875,-0.0417022705078125
1772709151385573600,8.13457373046875,-0.9974212646484375,0.0671844482421875,-0.0406494140625
1772709151395598600,8.1445986328125,-0.99591064453125,0.06744384765625,-0.0404052734375
1772709151405623600,8.15462353515625,-0.992767333984375,0.0660858154296875,-0.041290283203125
1772709151415648800,8.164648681640625,-0.993896484375,0.06561279296875,-0.040435791015625
1772709151425673700,8.174673828125,-0.9936676025390625,0.0667266845703125,-0.04107666015625
1772709151435698400,8.184698486328125,-0.9951934814453125,0.066741943359375,-0.0408935546875
1772709151445723600,8.1947236328125,-0.9950408935546875,0.0679779052734375,-0.0403594970703125
1772709151455748600,8.20474853515625,-0.9852294921875,0.0728302001953125,-0.0466156005859375
1772709151465773600,8.214773681640626,-0.958038330078125,0.0785675048828125,-0.0400238037109375
1772709151475798500,8.224798583984375,-0.9951934814453125,0.04901123046875,-0.026458740234375
1772709151485823700,8.23482373046875,-1.040191650390625,0.0470123291015625,-0.044921875
1772709151495848700,8.2448486328125,-1.026519775390625,0.075408935546875,-0.045166015625
1772709151505873700,8.254873779296876,-0.9895477294921875,0.07086181640625,-0.044403076171875
1772709151515898600,8.264898681640625,-0.9720611572265625,0.0548858642578125,-0.0313873291015625
1772709151525923600,8.274923583984375,-0.9813995361328125,0.0535736083984375,-0.0351715087890625
1772709151535948500,8.284948486328124,-1.007781982421875,0.0641326904296875,-0.049530029296875
1772709151545972500,8.294972412109376,-1.0157623291015625,0.0698394775390625,-0.046478271484375
1772709151555997700,8.304997802734375,-0.9921875,0.0701446533203125,-0.0391082763671875
1772709151566022700,8.315022705078125,-0.9710845947265625,0.0696258544921875,-0.0306549072265625
