time,seconds_elapsed,z,y,x
1772709143310470700,0.059470703125,0.0025596506893634796,0.016650114208459854,-0.013136629946529865
1772709143320495600,0.06949560546875,-0.0008017979562282562,0.00040427129715681076,-0.01035626232624054
1772709143330520600,0.0795205078125,-0.0008247010409832001,-0.0016189320012927055,-0.005511439871042967
1772709143340545500,0.089545654296875,-0.0005268617533147335,0.005147884134203196,-0.0018053080420941114
1772709143350570800,0.09957080078125,-0.0007977050263434649,0.008930105715990067,-0.0036764449905604124
1772709143360595700,0.109595703125,-0.002444033045321703,0.00269114226102829,-0.002675719326362014
1772709143370620400,0.119620361328125,-0.00363659649156034,-0.01054663211107254,-0.002380907302722335
1772709143380645600,0.129645751953125,-0.001649402780458331,-0.009278669022023678,0.0014184580650180578
1772709143390670600,0.139670654296875,-0.003818014869466424,-0.0023118392564356327,0.0021843831054866314
1772709143400695600,0.149695556640625,-0.002144161146134138,-0.0009065223857760429,0.0006953098345547915
1772709143410720500,0.159720458984375,-0.0016967498231679201,-0.004597663413733244,0.0011712167179211974
1772709143420745700,0.169745849609375,-0.0032475143671035767,-0.0033875503577291965,0.0007451376877725124
1772709143430770700,0.179770751953125,-0.003087724791839719,-0.004123382270336151,0.0011936139781028032
1772709143440795600,0.189795654296875,-0.0035276566632092,-0.0033725551329553127,0.0007384000346064568
1772709143450820600,0.199820556640625,-0.004159091971814632,-0.003952591679990292,0.000536532374098897
1772709143460845800,0.209845703125,-0.002240018453449011,-0.007826426066458225,-0.0006701459642499685
1772709143470870500,0.21987060546875,-0.0007425227668136358,-0.010306893847882748,-0.0007476438768208027
1772709143480895500,0.2298955078125,-0.0003628937993198633,-0.0005890335887670517,0.0032646877225488424
1772709143490920400,0.23992041015625,-0.0013511930592358112,0.004987891763448715,0.003525144886225462
1772709143500945700,0.249945556640625,0.000626429682597518,-0.009221427142620087,-0.001045548589900136
1772709143510970600,0.259970703125,-0.0007323150057345629,-0.008550310507416725,-0.0014956227969378233
1772709143520995600,0.26999560546875,-0.0007380503229796886,-0.00003196392208337784,0.004957523196935654
1772709143531019800,0.280019775390625,0.0000505116768181324,0.0003848210908472538,0.007056892849504948
1772709143541044700,0.290044677734375,-0.0008662138134241104,-0.006556968204677105,0.002889172174036503
1772709143551069400,0.3000693359375,-0.00012532249093055725,-0.011522432789206505,0.002806347794830799
1772709143561094400,0.310094482421875,-0.0007197333034127951,-0.00856469850987196,0.002525890013203025
1772709143571119600,0.32011962890625,-0.0011405127588659525,-0.0035483683459460735,0.006291333585977554
1772709143581144600,0.33014453125,-0.001977544277906418,-0.004502045921981335,0.005594650283455849
1772709143591169500,0.34016943359375,-0.0009626136161386967,-0.007801169995218515,0.002342664636671543
1772709143601194500,0.350194580078125,-0.0011580721475183964,-0.00575580820441246,0.00011541042476892471
1772709143611219700,0.3602197265625,-0.0018720657099038363,-0.0022707958705723286,0.00004749977961182594
1772709143621244700,0.37024462890625,-0.001650394406169653,-0.0012950235977768898,0.0022071332205086946
1772709143631269600,0.38026953125,-0.00024291384033858776,-0.004287350922822952,0.003511016955599189
1772709143641294600,0.390294677734375,-0.0017419839277863503,-0.0007895859889686108,0.0005021407268941402
1772709143651319600,0.400319580078125,0.0012620617635548115,0.00449359230697155,0.00018362654373049736
1772709143661344500,0.410344482421875,0.00017289328388869762,0.00761028379201889,-0.003179006977006793
1772709143671369500,0.420369384765625,0.00019473140127956867,0.005403322167694569,-0.002425332320854068
1772709143681394700,0.430394775390625,-0.0027928906492888927,0.0036978712305426598,-0.0012930594384670258
1772709143691419600,0.440419677734375,-0.001240267651155591,0.0037205079570412636,0.000640129204839468
1772709143701444600,0.450444580078125,-0.0024449117481708527,0.0016722804866731167,-0.0018806287553161383
1772709143711469600,0.460469482421875,-0.003668101504445076,-0.000531218945980072,-0.001146927708759904
1772709143721494800,0.470494873046875,-0.0034112336579710245,0.002892975229769945,-0.0013919093180447817
1772709143731519700,0.480519775390625,-0.003126807976514101,0.0016617965884506702,-0.0027530507650226355
1772709143741544700,0.490544677734375,-0.0017834324389696121,0.0008152248337864876,-0.0005553239025175571
1772709143751569400,0.5005693359375,-0.0033155488781630993,0.0021100537851452827,-0.0025990335270762444
1772709143761594600,0.5105947265625,-0.0024165755603462458,0.0026045581325888634,-0.005688856355845928
1772709143771619600,0.52061962890625,-0.002483687363564968,0.002332383766770363,-0.004995369352400303
1772709143781644500,0.53064453125,-0.004125972744077444,0.0007563992403447628,-0.006265637464821339
1772709143791669500,0.54066943359375,-0.0037360861897468567,-0.0006401627324521542,-0.004757222719490528
1772709143801694700,0.55069482421875,-0.0033965972252190113,0.000463191419839859,-0.005146450363099575
1772709143811719700,0.5607197265625,-0.0023089624010026455,-0.0019743996672332287,-0.006571508012712002
1772709143821744600,0.57074462890625,-0.0030792539473623037,-0.0024031857028603554,-0.0012196693569421768
1772709143831769600,0.58076953125,-0.007194104138761759,-0.004081243649125099,0.0015340392710641026
1772709143841794600,0.590794677734375,-0.0053298440761864185,-0.005920243449509144,-0.00016377191059291363
1772709143851819500,0.600819580078125,-0.0056401025503873825,-0.008196713402867317,-0.005598485004156828
1772709143861844500,0.610844482421875,-0.0013372879475355148,-0.002314262092113495,-0.004488406702876091
1772709143871868700,0.62086865234375,-0.0016267735045403242,0.0060608466155827045,0.0029596558306366205
1772709143881894700,0.630894775390625,-0.003407298354431987,0.0045236628502607346,0.001042053336277604
1772709143891918600,0.640918701171875,0.001201568404212594,0.00005674315616488457,-0.0030480294954031706
1772709143901943800,0.65094384765625,0.0019868132658302784,0.003157767467200756,-0.0012991714756935835
1772709143911968800,0.66096875,0.002322371583431959,0.0057479580864310265,0.004003182053565979
1772709143921993500,0.670993408203125,0.0030430438928306103,0.004472091794013977,0.006840461865067482
1772709143932018400,0.681018310546875,0.0028819222934544086,-0.000835854560136795,0.008710267022252083
1772709143942043600,0.691043701171875,0.001898492919281125,-0.0011821291409432888,0.006332992110401392
1772709143952068600,0.701068603515625,0.003521689446642995,0.0018546734936535358,0.0059425728395581245
1772709143962093600,0.711093505859375,0.0026477044448256493,0.004049910232424736,0.004756274167448282
1772709143972118500,0.721118408203125,0.0031310683116316795,0.003699704073369503,0.004303004126995802
1772709143982143700,0.731143798828125,0.003198914462700486,0.002350287977606058,0.0018660720670595765
1772709143992168700,0.741168701171875,0.004266309551894665,0.003121006768196821,0.0015456938417628407
1772709144002193700,0.751193603515625,0.003966235555708408,0.006713070906698704,0.006350975017994642
1772709144012218600,0.761218505859375,0.006504761055111885,0.004907980561256409,0.004955212119966745
1772709144022243600,0.77124365234375,0.007340734824538231,0.008465724997222424,0.003265410428866744
1772709144032268500,0.7812685546875,0.0073159681633114815,0.005356750451028347,0.002637437079101801
1772709144042293200,0.791293212890625,0.0053652022033929825,0.0075424062088131905,0.00412214919924736
1772709144052318200,0.801318115234375,0.005281312391161919,0.005477657541632652,0.0018174496944993734
1772709144062343200,0.81134326171875,0.006068906746804714,0.00543903186917305,-0.0023234232794493437
1772709144072368000,0.8213681640625,0.005227880552411079,0.005110664293169975,-0.0034496739972382784
1772709144082393000,0.83139306640625,0.007147559896111488,0.0054214755073189735,-0.00047694006934762
1772709144092418300,0.841418212890625,0.007515609264373779,0.01072249747812748,0.0021270988509058952
1772709144102443300,0.851443359375,0.007261688821017742,0.01524713821709156,0.0026895615737885237
1772709144112468200,0.86146826171875,0.006695500575006008,0.013103293254971504,0.0016900773625820875
1772709144122493200,0.8714931640625,0.006083030719310045,0.003746886271983385,-0.0021040046121925116
1772709144132518400,0.881518310546875,0.004950655158609152,0.0024568517692387104,-0.00382573832757771
1772709144142543400,0.89154345703125,0.003586767241358757,0.006103470455855131,-0.0044753700494766235
1772709144152568300,0.901568359375,0.0013696854002773762,0.005919712129980326,-0.0033041120041161776
1772709144162593000,0.911593017578125,0.0011535838712006807,0.0030070533975958824,-0.004651977680623531
1772709144172618200,0.9216181640625,0.00184041284956038,-0.00006729969754815102,-0.003962219227105379
1772709144182643200,0.931643310546875,-0.0024013896472752094,0.002747064922004938,-0.005590346176177263
1772709144192668200,0.941668212890625,-0.0021851412020623684,0.0023172306828200817,-0.0027514160610735416
1772709144202692400,0.9516923828125,-0.002485965844243765,0.00017183180898427963,-0.0024288843851536512
1772709144212717300,0.96171728515625,-0.0014798236079514027,-0.0026737558655440807,-0.00003496883437037468
1772709144222742300,0.9717421875,-0.0023582465946674347,-0.001396014355123043,0.000011613359674811363
1772709144232767200,0.981767333984375,-0.002790743950754404,-0.00040824804455041885,-0.0006784116849303246
1772709144242792200,0.991792236328125,-0.0018316272180527449,-0.00016479194164276123,-0.001397175481542945
1772709144252817200,1.001817138671875,-0.001159711740911007,0.0008120555430650711,-0.0019915930461138487
1772709144262842000,1.011842041015625,0.0004985958803445101,0.0031351912766695023,-0.0028040490578860044
1772709144272867300,1.021867431640625,-0.000646563246846199,0.00059480220079422,-0.00127246486954391
1772709144282892300,1.031892333984375,0.00197499874047935,-0.0023248717188835144,-0.0018758221995085478
1772709144292917200,1.041917236328125,0.0016080148052424192,-0.0012678629718720913,-0.001545323757454753
1772709144302942200,1.051942138671875,0.0002792507875710726,-0.0007347413338720798,0.0006949035450816154
1772709144312967400,1.061967529296875,0.0026710357051342726,-0.000677749514579773,0.009673219174146652
1772709144322992400,1.071992431640625,0.0043981606140732765,-0.006435510702431202,0.012281924486160278
1772709144333017300,1.082017333984375,0.003506534034386277,-0.00753752700984478,0.010480562224984169
1772709144343042000,1.0920419921875,0.004693521186709404,-0.011682150885462761,0.013978571631014347
1772709144353067300,1.1020673828125,0.0004958468489348888,-0.015630818903446198,0.01660817675292492
1772709144363092200,1.11209228515625,-0.0009759010281413794,-0.023607749491930008,0.018017420545220375
1772709144373117200,1.1221171875,-0.0024749943986535072,-0.024800313636660576,0.017226727679371834
1772709144383142100,1.13214208984375,-0.0068553173914551735,-0.019220784306526184,0.0042991358786821365
1772709144393167400,1.14216748046875,-0.008027374744415283,-0.028263812884688377,-0.010334135964512825
1772709144403192300,1.1521923828125,-0.009869569912552834,-0.0316888689994812,-0.017747147008776665
1772709144413217300,1.16221728515625,-0.01183578185737133,-0.026061873883008957,-0.017327697947621346
1772709144423242200,1.1722421875,-0.00629329401999712,-0.025695472955703735,-0.00457390770316124
1772709144433267200,1.18226708984375,-0.0005086418241262436,-0.019857022911310196,0.013308154419064522
1772709144443292200,1.192292236328125,-0.0010141099337488413,-0.001835146453231573,0.0237746424973011
1772709144453317000,1.202317138671875,0.003634704276919365,0.0058054630644619465,0.014873560518026352
1772709144463342000,1.212342041015625,0.00622792961075902,0.0006261640228331089,-0.0005420979578047991
1772709144473367300,1.2223671875,0.007977358996868134,-0.006926294881850481,-0.010496461763978004
1772709144483392300,1.232392333984375,0.005813807714730501,-0.006013096775859594,-0.004492631182074547
1772709144493416200,1.242416259765625,-0.0012217313051223755,-0.0022093039005994797,-0.0015817962121218443
1772709144503441400,1.25244140625,-0.0028321989811956882,-0.00964375026524067,-0.006148750893771648
1772709144513466000,1.262466064453125,-0.003768300171941519,-0.01981835812330246,-0.012979758903384209
1772709144523491000,1.272490966796875,-0.0025123851373791695,-0.01909716986119747,-0.01589106395840645
1772709144533516300,1.282516357421875,0.002941768616437912,-0.007516680285334587,-0.009752742946147919
1772709144543541200,1.292541259765625,0.006930236704647541,0.0061796498484909534,-0.005727068986743689
1772709144553566200,1.302566162109375,0.010526569560170174,0.0064811198972165585,-0.008985979482531548
1772709144563591200,1.312591064453125,0.011254857294261456,-0.00931831169873476,-0.014156077057123184
1772709144573616400,1.322616455078125,0.006868098862469196,-0.00910099782049656,-0.0155734121799469
1772709144583641300,1.332641357421875,0.008174645714461803,-0.006079375743865967,-0.012119291350245476
1772709144593666300,1.342666259765625,0.015267441980540752,-0.0031600184738636017,-0.004861910827457905
1772709144603691300,1.352691162109375,0.01614684984087944,-0.0036290043499320745,0.000982865458354354
1772709144613716200,1.36271630859375,0.019229194149374962,-0.0006545195356011391,0.005730482749640942
1772709144623741200,1.3727412109375,0.02126864157617092,0.0015380610711872578,0.008200830779969692
1772709144633766100,1.38276611328125,0.02261698991060257,-0.0025216895155608654,0.009082629345357418
1772709144643791000,1.392791015625,0.023604191839694977,-0.0053749969229102135,0.014087304472923279
1772709144653816300,1.40281640625,0.019555388018488884,-0.004161660559475422,0.014614344574511051
1772709144663841300,1.41284130859375,0.024104470387101173,-0.0015024803578853607,0.013399397023022175
1772709144673866200,1.4228662109375,0.02655324712395668,0.006807647179812193,0.011561550199985504
1772709144683891200,1.43289111328125,0.02855268493294716,0.004685114603489637,0.01085913460701704
1772709144693916400,1.44291650390625,0.02608686499297619,0.007818855345249176,0.008008487522602081
1772709144703941400,1.45294140625,0.027325015515089035,0.0008170786313712597,0.01076345331966877
1772709144713966000,1.462966064453125,0.02850266359746456,0.0004178709350526333,0.010633757337927818
1772709144723991000,1.472990966796875,0.028858941048383713,0.00454287463799119,0.015261632390320301
1772709144734016300,1.483016357421875,0.030454173684120178,0.004836887586861849,0.019710175693035126
1772709144744041200,1.493041259765625,0.031208252534270287,0.004226771183311939,0.02609056420624256
1772709144754066200,1.503066162109375,0.026253974065184593,-0.0024487082846462727,0.02759125642478466
1772709144764090400,1.51309033203125,0.02513434737920761,-0.008237884379923344,0.018631912767887115
1772709144774115300,1.523115234375,0.02416682243347168,-0.0016319132409989834,0.008267156779766083
1772709144784140300,1.533140380859375,0.018728306517004967,0.0009063244797289371,-0.0009797182865440845
1772709144794165200,1.543165283203125,0.0166395902633667,-0.0037502124905586243,-0.006367027293890715
1772709144804190200,1.553190185546875,0.01526164822280407,-0.004101452883332968,-0.005632756277918816
1772709144814215200,1.563215087890625,0.009179254062473774,-0.0009477376006543636,-0.005078553222119808
1772709144824240000,1.573240234375,0.004044211003929377,-0.0034702899865806103,-0.009663044475018978
1772709144834265300,1.583265380859375,0.0031704274006187916,-0.00438615120947361,-0.011917943134903908
1772709144844290300,1.593290283203125,0.0002757417969405651,-0.010276254266500473,-0.009706797078251839
1772709144854315300,1.603315185546875,-0.005437004845589399,-0.0034641544334590435,-0.0024054746609181166
1772709144864340200,1.61334033203125,-0.007292681373655796,-0.003165938425809145,-0.00007175724022090435
1772709144874365400,1.623365478515625,-0.007392017170786858,-0.004621355794370174,0.0014451792230829597
1772709144884390100,1.63339013671875,-0.006310425698757172,-0.007531344424933195,-0.0025321650318801403
1772709144894415000,1.6434150390625,-0.007032675202935934,-0.008255191147327423,0.0011866732966154814
1772709144904440000,1.653440185546875,-0.007108468562364578,-0.004694794770330191,0.009651847183704376
1772709144914465300,1.66346533203125,-0.007785976864397526,0.008914491161704063,0.010751733556389809
1772709144924490200,1.673490234375,-0.007047140970826149,-0.004454025067389011,0.002794853877276182
1772709144934515200,1.68351513671875,-0.007584300823509693,-0.011358270421624184,-0.005309677682816982
1772709144944540200,1.6935400390625,-0.008157466538250446,-0.00660191522911191,-0.0026288246735930443
1772709144954565400,1.7035654296875,-0.007817912846803665,0.0008557350374758244,0.005859468597918749
1772709144964590300,1.71359033203125,-0.004572169855237007,-0.000028127804398536682,0.012011864222586155
1772709144974615300,1.723615234375,-0.004847274627536535,-0.003581583732739091,0.017618883401155472
1772709144984640000,1.733639892578125,-0.002900439780205488,-0.0015730340965092182,0.017493322491645813
1772709144994665200,1.743665283203125,-0.0018737914506345987,-0.01008130144327879,0.018779894337058067
1772709145004690200,1.753690185546875,-0.0029118526726961136,-0.0073777479119598866,0.015441576018929482
1772709145014715100,1.763715087890625,-0.0031973435543477535,0.0005286443047225475,0.015465011820197105
1772709145024739300,1.7737392578125,-0.0006101317703723907,-0.007842941209673882,0.01320858858525753
1772709145034764300,1.783764404296875,-0.0002308976836502552,-0.01267498079687357,0.010595494881272316
1772709145044789500,1.79378955078125,0.002812978345900774,-0.005569360218942165,0.010938471183180809
1772709145054814500,1.803814453125,0.003570913802832365,-0.0004345192573964596,0.011258582584559917
1772709145064839700,1.813839599609375,0.004820150323212147,0.0008024685084819794,0.0039619035087525845
1772709145074864600,1.82386474609375,0.004401767626404762,0.0055812448263168335,-0.005112818442285061
1772709145084889600,1.8338896484375,0.0025662744883447886,0.0018744515255093575,-0.013453764840960503
1772709145094914600,1.84391455078125,-0.0015219443012028933,-0.004228448495268822,-0.01560213603079319
1772709145104939500,1.853939453125,-0.0028581381775438786,-0.004920384846627712,-0.013371028006076813
1772709145114964500,1.863964599609375,-0.002481300849467516,-0.0018761251121759415,-0.00883752852678299
1772709145124989400,1.873989501953125,-0.0015898416750133038,-0.0009276997298002243,-0.00516523327678442
1772709145135014700,1.8840146484375,-0.002262822352349758,-0.0020044157281517982,-0.0050477879121899605
1772709145145039600,1.89403955078125,-0.0036540606524795294,0.0010022087953984737,-0.007634235545992851
1772709145155064600,1.904064697265625,-0.0038186439778655767,0.00021444540470838547,-0.009395384229719639
1772709145165089500,1.914089599609375,-0.002723914571106434,-0.0024164803326129913,-0.01031265314668417
1772709145175114800,1.92411474609375,-0.004862166941165924,0.0019377879798412323,-0.007331244647502899
1772709145185139700,1.9341396484375,-0.004691006615757942,0.004289045464247465,-0.012626227922737598
1772709145195164700,1.94416455078125,-0.00645188894122839,0.004381989594548941,-0.0209033340215683
1772709145205189400,1.954189453125,-0.010626163333654404,0.004406311549246311,-0.028355874121189117
1772709145215214600,1.964214599609375,-0.011122576892375946,0.0030909767374396324,-0.03500125929713249
1772709145225239600,1.974239501953125,-0.014763605780899525,0.0015365132130682468,-0.03600509464740753
1772709145235264500,1.984264404296875,-0.013404861092567444,0.004635100718587637,-0.03252434358000755
1772709145245289500,1.99428955078125,-0.015381141565740108,0.020020414143800735,-0.032793689519166946
1772709145255314700,2.004314697265625,-0.013938507065176964,0.029331091791391373,-0.03914240002632141
1772709145265339600,2.014339599609375,-0.016312289983034134,0.019848626106977463,-0.046750035136938095
1772709145275363600,2.024363525390625,-0.018907273188233376,0.009473215788602829,-0.04613857343792915
1772709145285388500,2.034388427734375,-0.020458169281482697,0.01073900330811739,-0.04300748184323311
1772709145295413500,2.04441357421875,-0.018770791590213776,0.01973516121506691,-0.04357100650668144
1772709145305438500,2.0544384765625,-0.018901105970144272,0.03004881925880909,-0.055648013949394226
1772709145315463400,2.06446337890625,-0.018072063103318214,0.03379722312092781,-0.06579571962356567
1772709145325488600,2.074488525390625,-0.01603524573147297,0.020822830498218536,-0.06579791754484177
1772709145335513600,2.084513671875,-0.014758526347577572,0.008076674304902554,-0.048366729170084
1772709145345538600,2.09453857421875,-0.009319020435214043,-0.0025879545137286186,-0.016253266483545303
1772709145355563500,2.1045634765625,-0.009124875999987125,0.006607940420508385,0.01533182431012392
1772709145365588700,2.114588623046875,-0.008639829233288765,0.005906426347792149,0.038750700652599335
1772709145375613400,2.124613525390625,-0.012296615168452263,0.005415606312453747,0.03404915705323219
1772709145385638400,2.134638427734375,-0.013888098299503326,-0.003946150653064251,0.017863743007183075
1772709145395663600,2.14466357421875,-0.01090029813349247,-0.012162534520030022,-0.003773375879973173
1772709145405688600,2.1546884765625,-0.011761031113564968,-0.00583299994468689,-0.01358393020927906
1772709145415713500,2.164713623046875,-0.00961132813245058,0.008251925930380821,-0.016565337777137756
1772709145425738500,2.174738525390625,-0.009007036685943604,0.01863875612616539,-0.0191505067050457
1772709145435763700,2.184763671875,-0.00962036196142435,0.012229859828948975,-0.01734594814479351
1772709145445788700,2.19478857421875,-0.006626862566918135,0.005749340634793043,-0.01686040312051773
1772709145455813600,2.204813720703125,-0.007498781196773052,0.012511638924479485,-0.018465757369995117
1772709145465838600,2.214838623046875,-0.0095951147377491,0.01300806924700737,-0.021287059411406517
1772709145475863600,2.224863525390625,-0.005226464942097664,0.008048463612794876,-0.02557874284684658
1772709145485888500,2.234888427734375,-0.0037940579932183027,0.004351181443780661,-0.02593565732240677
1772709145495913500,2.24491357421875,0.0003956267610192299,0.015038179233670235,-0.023809922859072685
1772709145505938400,2.2549384765625,-0.0012788090389221907,0.023737644776701927,-0.015389056876301765
1772709145515962600,2.264962646484375,-0.0031012101098895073,0.018603602424263954,-0.013814596459269524
1772709145525987600,2.274987548828125,-0.004160857293754816,0.010088199749588966,-0.015941182151436806
1772709145536012500,2.285012451171875,-0.006672751158475876,0.0009873788803815842,-0.016408035531640053
1772709145546037800,2.295037841796875,-0.009626124985516071,0.0019777449779212475,-0.01769181713461876
1772709145556062500,2.3050625,-0.011987816542387009,0.012400824576616287,-0.019388515502214432
1772709145566087400,2.31508740234375,-0.005598765332251787,0.011410116218030453,-0.024189116433262825
1772709145576112400,2.3251123046875,-0.008115186356008053,0.008656938560307026,-0.029771901667118073
1772709145586137600,2.3351376953125,-0.013842748478055,0.006757646799087524,-0.028542790561914444
1772709145596162600,2.34516259765625,-0.010370252653956413,0.0007833773270249367,-0.021873436868190765
1772709145606187500,2.3551875,-0.012690335512161255,0.003660032991319895,-0.015177296474575996
1772709145616212500,2.36521240234375,-0.0016952091827988625,0.0059335739351809025,-0.014554649591445923
1772709145626237700,2.37523779296875,-0.005265975371003151,0.01607968471944332,-0.011059517040848732
1772709145636262700,2.3852626953125,-0.007871612906455994,0.01529298722743988,-0.00954151526093483
1772709145646287600,2.39528759765625,-0.004950954113155603,-0.0012504816986620426,-0.014220373705029488
1772709145656312600,2.4053125,-0.0005239814054220915,-0.006880670320242643,-0.02253183349967003
1772709145666337500,2.415337646484375,0.004067359492182732,0.016962312161922455,-0.02766171470284462
1772709145676362500,2.425362548828125,0.009818455204367638,0.033692821860313416,-0.029330186545848846
1772709145686387500,2.435387451171875,0.0035963980481028557,0.05010379105806351,-0.023391375318169594
1772709145696412700,2.44541259765625,-0.0002966106403619051,0.012632850557565689,-0.008945856243371964
1772709145706437600,2.455437744140625,-0.0037484103813767433,-0.00931641086935997,-0.006656184792518616
1772709145716462600,2.465462646484375,-0.008549557067453861,-0.005009546875953674,-0.007952079176902771
1772709145726487600,2.475487548828125,-0.003457060782238841,-0.0001564687117934227,0.004352790303528309
1772709145736512800,2.4855126953125,-0.00779295340180397,-0.0011927043087780476,0.005700616165995598
1772709145746536400,2.495536376953125,-0.004973027855157852,-0.000871867872774601,0.010925143957138062
1772709145756561400,2.5055615234375,-0.007115274667739868,0.0011619883589446545,0.01639421097934246
1772709145766586600,2.515586669921875,-0.003523576073348522,-0.010208843275904655,0.027071291580796242
1772709145776611600,2.525611572265625,-0.006463439669460058,-0.01475565880537033,0.03921424224972725
1772709145786636500,2.535636474609375,-0.0009781380649656057,-0.01231356617063284,0.04607243835926056
1772709145796661500,2.54566162109375,-0.002332621719688177,-0.013837160542607307,0.04149046912789345
1772709145806686700,2.555686767578125,-0.0014550036285072565,-0.011732980608940125,0.038709647953510284
1772709145816711700,2.565711669921875,-0.000966313760727644,-0.014343943446874619,0.03667818754911423
1772709145826736400,2.575736328125,-0.0017105983570218086,-0.007983606308698654,0.03247055038809776
1772709145836761600,2.58576171875,-0.000661046477034688,-0.004279149696230888,0.021730022504925728
1772709145846786600,2.59578662109375,0.0009038539137691259,-0.00037034740671515465,0.008038097992539406
1772709145856811500,2.6058115234375,0.00556678231805563,0.0002645500935614109,-0.0019333092495799065
1772709145866836500,2.61583642578125,0.00005405070260167122,0.008055655285716057,-0.000879788538441062
1772709145876861700,2.62586181640625,0.0019424986094236374,0.002781530376523733,-0.0011639476288110018
1772709145886886700,2.63588671875,0.0029626479372382164,-0.015363400802016258,-0.00539363082498312
1772709145896911600,2.64591162109375,0.005968824494630098,-0.0050252764485776424,-0.010228865779936314
1772709145906936600,2.6559365234375,0.006754882633686066,0.010865522548556328,-0.010583915747702122
1772709145916961800,2.6659619140625,0.006076042540371418,0.0029745767824351788,-0.011454503051936626
1772709145926986500,2.675986572265625,0.004252245649695396,-0.010163323022425175,-0.008917715400457382
1772709145937011500,2.686011474609375,0.003236516611650586,-0.024136129766702652,-0.0016811080276966095
1772709145947036400,2.696036376953125,0.0020326084922999144,-0.022423166781663895,0.004887628834694624
1772709145957061600,2.7060615234375,0.0020326084922999144,-0.011212591081857681,0.005157673731446266
1772709145967086600,2.716086669921875,-0.00005744025111198425,-0.01745770499110222,0.0034873387776315212
1772709145977111600,2.726111572265625,0.0014677520375698805,-0.017356770113110542,0.00450093811377883
1772709145987135700,2.7361357421875,-0.001323164440691471,-0.02367589809000492,0.003984398674219847
1772709145997160700,2.74616064453125,-0.002418256364762783,-0.0281824991106987,-0.0006377834361046553
1772709146007185400,2.756185302734375,0.00013208156451582909,-0.02507460117340088,0.0030132203828543425
1772709146017210400,2.76621044921875,-0.0018154880963265896,-0.012429379858076572,0.0060593439266085625
1772709146027235600,2.776235595703125,-0.003641820512712002,-0.011134558357298374,0.006378796882927418
1772709146037260500,2.786260498046875,-0.00670019444078207,-0.016453422605991364,0.007672560401260853
1772709146047286000,2.7962861328125,-0.006698704324662685,-0.018673185259103775,0.00897665973752737
1772709146057311000,2.80631103515625,-0.006631325930356979,-0.009565972723066807,0.006502050440758467
1772709146067336200,2.816336181640625,-0.007509114686399698,0.0014861193485558033,0.0010652330238372087
1772709146077361200,2.826361083984375,-0.007482483051717281,0.0015028971247375011,-0.0046001095324754715
1772709146087386000,2.83638623046875,-0.006936194375157356,0.0010818708688020706,-0.015129068866372108
1772709146097411000,2.8464111328125,-0.008449934422969818,0.003171653486788273,-0.019018882885575294
1772709146107436300,2.856436279296875,-0.006615613587200642,0.010495885275304317,-0.018883999437093735
1772709146117461000,2.8664609375,-0.0030176828149706125,0.01177500281482935,-0.013975527137517929
1772709146127486000,2.87648583984375,0.0037157710175961256,0.009428261779248714,-0.010484226047992706
1772709146137511000,2.886510986328125,0.005992772988975048,0.008048477582633495,-0.005865239072591066
1772709146147536100,2.8965361328125,0.01385034341365099,0.01075286976993084,0.0002152023371309042
1772709146157561000,2.90656103515625,0.01844296231865883,0.018131956458091736,0.006525296252220869
1772709146167586000,2.9165859375,0.020015444606542587,0.013052607886493206,0.004429629072546959
1772709146177611000,2.926611083984375,0.02466931752860546,0.006448767147958279,-0.001442907378077507
1772709146187636200,2.93663623046875,0.027360159903764725,0.010777974501252174,-0.005905008874833584
1772709146197661200,2.9466611328125,0.026526322588324547,0.01069328561425209,-0.004880757071077824
1772709146207686000,2.956685791015625,0.02591724507510662,0.008010124787688255,-0.0024556571152061224
1772709146217710000,2.9667099609375,0.024556104093790054,0.010839201509952545,-0.0027491373475641012
1772709146227735000,2.976735107421875,0.02294924482703209,0.0004071136936545372,-0.005084907170385122
1772709146237760000,2.986760009765625,0.020110581070184708,0.000045190099626779556,-0.004589026793837547
1772709146247785200,2.99678515625,0.01573812961578369,0.00411548838019371,-0.004715386778116226
1772709146257810200,3.00681005859375,0.013106128200888634,0.003198562189936638,-0.017657017335295677
1772709146267835100,3.016835205078125,0.009353745728731155,-0.005344033241271973,-0.023800689727067947
1772709146277860000,3.026860107421875,0.0081220343708992,-0.006436195690184832,-0.020522339269518852
1772709146287885000,3.036885009765625,0.005692154169082642,-0.0015655672177672386,-0.010131457820534706
1772709146297910000,3.046909912109375,0.005823713727295399,-0.0015775514766573906,-0.0044410815462470055
1772709146307935000,3.05693505859375,-0.002773192711174488,-0.00014954106882214546,-0.003930642269551754
1772709146317960000,3.0669599609375,-0.013866323977708817,-0.03163342922925949,0.018528593704104424
1772709146327985200,3.076985107421875,-0.01543751172721386,-0.04953305050730705,0.03949231281876564
1772709146338010000,3.087010009765625,-0.008260292932391167,-0.01455003209412098,0.015643971040844917
1772709146348035000,3.09703515625,0.004508454352617264,0.00318340165540576,-0.016411609947681427
1772709146358060000,3.10706005859375,-0.0009973652195185423,-0.016383908689022064,-0.009265284053981304
1772709146368085200,3.117085205078125,-0.007557953707873821,-0.03161371126770973,0.026191294193267822
1772709146378110200,3.127110107421875,-0.005991748999804258,-0.034531205892562866,0.0430951751768589
1772709146388135000,3.137135009765625,0.0005758593324571848,-0.030485356226563454,0.02600516565144062
1772709146398160000,3.147159912109375,0.012295099906623363,-0.014763117767870426,0.011653922498226166
1772709146408185000,3.15718505859375,0.014149033464491367,0.010867428034543991,0.017681505531072617
1772709146418210000,3.1672099609375,0.016678504645824432,0.005666805896908045,0.02336895279586315
1772709146428235000,3.177235107421875,0.015715112909674644,-0.006803698372095823,0.015213808044791222
1772709146438260000,3.187260009765625,0.0118322242051363,-0.013367058709263802,0.004168613813817501
1772709146448284200,3.1972841796875,0.011246893554925919,-0.0042539918795228004,-0.0034542158246040344
1772709146458309000,3.20730908203125,0.012862632051110268,0.020347224548459053,-0.012544117867946625
1772709146468334000,3.217333984375,0.010550742968916893,0.036062806844711304,-0.030177704989910126
1772709146478359000,3.227359130859375,0.0071919639594852924,0.026439739391207695,-0.04667305946350098
1772709146488384000,3.237384033203125,0.00499581266194582,0.01366560347378254,-0.05133683606982231
1772709146498409000,3.247408935546875,0.002253555692732334,0.009143555536866188,-0.044151630252599716
1772709146508434200,3.25743408203125,-0.0016374618280678988,0.021671585738658905,-0.029186248779296875
1772709146518459100,3.267459228515625,-0.0019194907508790493,0.022043095901608467,-0.02211741916835308
1772709146528484000,3.277484130859375,-0.003066780511289835,0.008988013491034508,-0.019930964335799217
1772709146538509000,3.287509033203125,-0.0055272746831178665,-0.00014156848192214966,-0.01350742019712925
1772709146548534300,3.2975341796875,-0.00605923542752862,-0.0016068262048065662,-0.005743785761296749
1772709146558559200,3.307559326171875,-0.004571061115711927,0.0005543292500078678,0.0024449017364531755
1772709146568584000,3.317583984375,-0.0015491268131881952,0.005022870842367411,0.010211922228336334
1772709146578609000,3.32760888671875,0.001878894167020917,0.009863432496786118,0.01685810647904873
1772709146588634000,3.337634033203125,0.006631120573729277,0.004766104742884636,0.018712833523750305
1772709146598659000,3.3476591796875,0.008245795965194702,0.00030344584956765175,0.019537881016731262
1772709146608684000,3.35768408203125,0.012486687861382961,0.004789294209331274,0.02589389495551586
1772709146618709000,3.367708984375,0.013873930089175701,0.011748667806386948,0.04160068556666374
1772709146628734200,3.377734130859375,0.012632021680474281,0.011916693300008774,0.05149874463677406
1772709146638759200,3.38775927734375,0.01268688216805458,0.0015687141567468643,0.04462406039237976
1772709146648784100,3.3977841796875,0.011644236743450165,-0.0037775523960590363,0.0352814607322216
1772709146658809000,3.40780908203125,0.004455565940588713,-0.00143823167309165,0.026523923501372337
1772709146668833000,3.4178330078125,0.005678507965058088,-0.012074127793312073,0.02103830687701702
1772709146678858000,3.42785791015625,0.0005665700882673264,-0.016235049813985825,0.020227374508976936
1772709146688883000,3.437883056640625,-0.002869068179279566,-0.010194926522672176,0.02359873242676258
1772709146698908200,3.447908203125,-0.003913559950888157,-0.007565587759017944,0.022886337712407112
1772709146708933000,3.45793310546875,-0.006531603634357452,-0.015409969724714756,0.01664392463862896
1772709146718958000,3.4679580078125,-0.012388160452246666,-0.01480703055858612,0.009125555865466595
1772709146728983000,3.477983154296875,-0.013209822587668896,-0.018207374960184097,0.0022539531346410513
1772709146739008000,3.488008056640625,-0.015295610763132572,-0.023920919746160507,-0.004377317614853382
1772709146749033000,3.498032958984375,-0.015350723639130592,-0.02242233231663704,-0.004851919133216143
1772709146759058000,3.508057861328125,-0.015964848920702934,-0.011846387758851051,-0.003097428474575281
1772709146769083100,3.518083251953125,-0.012031986378133297,-0.011268205009400845,0.0022509219124913216
1772709146779108000,3.528108154296875,-0.009039925411343575,-0.011998177506029606,0.0006684716790914536
1772709146789133000,3.538133056640625,-0.00795800518244505,-0.0032302960753440857,-0.005754033103585243
1772709146799158000,3.548157958984375,-0.00430947495624423,-0.003944555763155222,-0.0042906254529953
1772709146809183200,3.558183349609375,-0.0008177913259714842,-0.006750169210135937,-0.0017979324329644442
1772709146819208200,3.568208251953125,0.0071309455670416355,-0.003953050822019577,-0.00555751658976078
1772709146829233200,3.578233154296875,0.011348760686814785,0.011181087233126163,-0.0002629486843943596
1772709146839257900,3.5882578125,0.013932826928794384,0.01678517833352089,0.010071448050439358
1772709146849283000,3.598282958984375,0.01814108155667782,0.01092708669602871,0.012123018503189087
1772709146859308000,3.60830810546875,0.020164817571640015,0.005120062734931707,0.013810664415359497
1772709146869333000,3.6183330078125,0.02109532617032528,0.007052719127386808,0.01252888422459364
1772709146879358000,3.62835791015625,0.020960036665201187,0.009495103731751442,0.013964062556624413
1772709146889382100,3.638382080078125,0.020758703351020813,0.0064332676120102406,0.012465501204133034
1772709146899407000,3.648406982421875,0.018486494198441505,0.002634002361446619,0.008458775468170643
1772709146909432000,3.65843212890625,0.01565660536289215,-0.003637503134086728,0.002913834061473608
1772709146919457000,3.66845703125,0.014180682599544525,-0.006194404326379299,-0.0023538984823971987
1772709146929482000,3.67848193359375,0.010643137618899345,-0.007152812089771032,-0.0041660405695438385
1772709146939507000,3.6885068359375,0.008585579693317413,-0.007125381380319595,-0.006631062366068363
1772709146949532200,3.6985322265625,0.006924919784069061,-0.01195458509027958,-0.004140917211771011
1772709146959557000,3.70855712890625,0.004596251994371414,-0.011218488216400146,0.0007182864937931299
1772709146969582000,3.71858203125,0.001862883334979415,-0.010903894901275635,0.0037892397958785295
1772709146979607000,3.72860693359375,0.0003078638110309839,-0.013551076874136925,-0.0036399145610630512
1772709146989632300,3.73863232421875,-0.0014272637199610472,-0.0186038538813591,-0.006271750666201115
1772709146999657200,3.7486572265625,-0.000004869420081377029,-0.0070603834465146065,-0.008283503353595734
1772709147009682200,3.75868212890625,-0.0004888277035206556,-0.002661690581589937,-0.00827806256711483
1772709147019707000,3.768706787109375,-0.0027567758224904537,-0.007574157323688269,-0.0007972433231770992
1772709147029732000,3.778732177734375,-0.002914498094469309,0.0004070764407515526,0.0021619219332933426
1772709147039757000,3.788757080078125,-0.004050069954246283,0.0017373254522681236,-0.0003680810332298279
1772709147049781800,3.79878173828125,-0.005650317296385765,0.0011368063278496265,-0.007714233361184597
1772709147059806500,3.808806396484375,-0.009509503841400146,0.0024050031788647175,-0.01477560494095087
1772709147069831700,3.818831787109375,-0.012202617712318897,0.00005690800026059151,-0.02013416402041912
1772709147079856600,3.828856689453125,-0.010355981066823006,0.0034718792885541916,-0.020346684381365776
1772709147089881600,3.838881591796875,-0.013939984142780304,0.0007853028364479542,-0.019138293340802193
1772709147099906600,3.848906494140625,-0.01825297251343727,0.0008417614735662937,-0.01985095627605915
1772709147109930800,3.8589306640625,-0.01658794656395912,0.0018257126212120056,-0.02387131378054619
1772709147119955700,3.868955810546875,-0.017581306397914886,0.00485931895673275,-0.02858457714319229
1772709147129981000,3.87898095703125,-0.01681233011186123,-0.0011021234095096588,-0.02183077484369278
1772709147140005600,3.889005615234375,-0.01735880970954895,-0.007740318775177002,-0.011108356527984142
1772709147150030600,3.899030517578125,-0.011815878562629223,0.0034057986922562122,-0.0045569040812551975
1772709147160055600,3.9090556640625,-0.009584150277078152,0.004205545876175165,-0.0030008191242814064
1772709147170080800,3.919080810546875,-0.0068984609097242355,-0.0031903348863124847,0.0023355726152658463
1772709147180105700,3.929105712890625,-0.0003364318981766701,-0.0034611783921718597,0.013545882888138294
1772709147190130700,3.939130615234375,0.000898709986358881,-0.009346171282231808,0.023038264364004135
1772709147200155600,3.94915576171875,0.005052974913269281,-0.0009407023899257183,0.026834866032004356
1772709147210180900,3.959180908203125,0.0074717216193675995,0.003280610777437687,0.024501796811819077
1772709147220205800,3.969205810546875,0.009024344384670258,0.003942405804991722,0.025737237185239792
1772709147230230800,3.979230712890625,0.009146944619715214,-0.0027008596807718277,0.02369786612689495
1772709147240255500,3.98925537109375,0.009890499524772167,0.00044486671686172485,0.01912788115441799
1772709147250280700,3.99928076171875,0.007172585465013981,-0.006494781468063593,0.01127293799072504
1772709147260305700,4.0093056640625,0.009113230742514133,-0.0017397073097527027,0.0024759843945503235
1772709147270330600,4.01933056640625,0.0059026191011071205,0.0024872510693967342,-0.0018118948210030794
1772709147280355600,4.02935546875,0.008681361563503742,-0.0033442722633481026,0.000742076663300395
1772709147290380800,4.039380859375,0.009174843318760395,-0.006486212369054556,0.0036398747470229864
1772709147300405800,4.04940576171875,0.0090209124609828,-0.004865146242082119,0.004226036369800568
1772709147310430700,4.0594306640625,0.011344301514327526,-0.004396463744342327,0.00904812105000019
1772709147320454700,4.06945458984375,0.011913951486349106,-0.01200085412710905,0.014929445460438728
1772709147330479600,4.079479736328125,0.012158194556832314,-0.01546589657664299,0.02332739345729351
1772709147340504600,4.089504638671875,0.013517472892999649,-0.01822865940630436,0.02951871044933796
1772709147350529800,4.09952978515625,0.014111073687672615,-0.01647014357149601,0.029909702017903328
1772709147360554800,4.1095546875,0.01830288954079151,-0.01345730945467949,0.030752059072256088
1772709147370579700,4.119579833984375,0.019380688667297363,-0.008751477114856243,0.033378709107637405
1772709147380604700,4.129604736328125,0.020213725045323372,-0.01017600204795599,0.028145331889390945
1772709147390630000,4.1396298828125,0.01906948909163475,-0.02106967568397522,0.022738860920071602
1772709147400654800,4.14965478515625,0.02062237821519375,-0.01867309771478176,0.019703922793269157
1772709147410679600,4.159679443359375,0.01876075007021427,-0.00999094545841217,0.02279893308877945
1772709147420704500,4.16970458984375,0.020876633003354073,-0.006710197776556015,0.02509644255042076
1772709147430729700,4.179729736328125,0.01982964761555195,-0.007501679006963968,0.022055037319660187
1772709147440754700,4.189754638671875,0.016853298991918564,-0.008649235591292381,0.016438696533441544
1772709147450779600,4.199779541015625,0.012493564747273922,-0.008863100782036781,0.015411528758704662
1772709147460804600,4.2098046875,0.008364332839846611,-0.0067288437858223915,0.014095660299062729
1772709147470829800,4.219829833984375,0.008995283395051956,-0.001308488193899393,0.004608327057212591
1772709147480854800,4.229854736328125,0.006982998922467232,0.0008105887100100517,-0.004584105685353279
1772709147490879700,4.239879638671875,0.004803218878805637,0.004548628814518452,-0.011758686974644661
1772709147500904700,4.24990478515625,0.0011677383445203304,0.007584632374346256,-0.017115101218223572
1772709147510929700,4.2599296875,-0.0006618872284889221,0.013143926858901978,-0.021626446396112442
1772709147520953600,4.26995361328125,-0.0005990366917103529,0.015068594366312027,-0.028031881898641586
1772709147530978600,4.279978515625,-0.0018607324454933405,0.014266200363636017,-0.028690697625279427
1772709147541003800,4.290003662109375,-0.0017779080662876368,0.012936484068632126,-0.02666349895298481
1772709147551028700,4.30002880859375,-0.0017565686721354723,0.009625847451388836,-0.021845385432243347
1772709147561053700,4.3100537109375,-0.0036982796154916286,0.01068099308758974,-0.021839259192347527
1772709147571078700,4.32007861328125,-0.002925135660916567,0.007191506214439869,-0.022300835698843002
1772709147581103900,4.330103759765625,-0.002398628741502762,0.0029168659821152687,-0.01693270169198513
1772709147591128600,4.340128662109375,-0.005121941678225994,0.0013572582975029945,-0.00830173958092928
1772709147601153500,4.350153564453125,-0.0020180274732410908,0.0022491514682769775,-0.0033503901213407516
1772709147611178800,4.3601787109375,-0.0035626795142889023,-0.0010067420080304146,-0.000005941838026046753
1772709147621203700,4.37020361328125,-0.0025847668293863535,-0.0033569815568625927,0.004345396999269724
1772709147631228700,4.380228759765625,-0.0030311576556414366,-0.003925381228327751,0.007905053906142712
1772709147641253600,4.390253662109375,-0.0016055675223469734,-0.00176635617390275,0.00925208069384098
1772709147651278800,4.40027880859375,-0.0029260581359267235,-0.0006837709806859493,0.007808038964867592
1772709147661303800,4.4103037109375,-0.0029652065131813288,-0.00213306350633502,0.003470282070338726
1772709147671328800,4.420328857421875,-0.004639490507543087,0.00010241707786917686,-0.00021668709814548492
1772709147681353700,4.430353759765625,-0.004053062293678522,0.0018494511023163795,-0.003160545602440834
1772709147691378700,4.440378662109375,-0.004047217313200235,0.006090774666517973,-0.009043709374964237
1772709147701403600,4.450403564453125,-0.005276798736304045,0.004063843283802271,-0.012544168159365654
1772709147711428600,4.4604287109375,-0.005469534080475569,0.004293218720704317,-0.015981383621692657
1772709147721453600,4.47045361328125,-0.0037944058421999216,0.008761737495660782,-0.018667979165911674
1772709147731477800,4.480477783203125,-0.004832961596548557,0.013456054031848907,-0.018659889698028564
1772709147741502700,4.490502685546875,-0.0029205456376075745,0.014179367572069168,-0.01965591311454773
1772709147751527700,4.500527587890625,-0.0054713049903512,0.012170838192105293,-0.018613308668136597
1772709147761552600,4.510552734375,-0.0039961799047887325,0.009816603735089302,-0.018189067021012306
1772709147771577600,4.52057763671875,-0.005126376636326313,0.008035506121814251,-0.022117583081126213
1772709147781602600,4.5306025390625,-0.004518110770732164,0.007446947507560253,-0.025022558867931366
1772709147791627500,4.54062744140625,-0.0028173555620014668,0.013389726169407368,-0.022839175537228584
1772709147801652700,4.55065283203125,-0.005342032294720411,0.013433136977255344,-0.01571415364742279
1772709147811677700,4.560677734375,-0.002811009529978037,0.00898377038538456,-0.012392038479447365
1772709147821702700,4.57070263671875,-0.0003465202171355486,0.0062135495245456696,-0.013043712824583054
1772709147831727600,4.5807275390625,-0.000050439732149243355,0.010301776230335236,-0.007562002167105675
1772709147841752800,4.5907529296875,0.001966904615983367,0.007250325288623571,-0.0021025219466537237
1772709147851777800,4.60077783203125,0.0021962171886116266,0.006411456502974033,0.004073589574545622
1772709147861802500,4.610802490234375,0.00030350848101079464,0.00034903641790151596,0.010352523997426033
1772709147871827700,4.62082763671875,-0.006576813757419586,-0.008654601871967316,0.01356092281639576
1772709147881852700,4.630852783203125,-0.010554777458310127,-0.014682667329907417,0.023983735591173172
1772709147891877600,4.640877685546875,-0.007921412587165833,-0.0108237499371171,0.028488144278526306
1772709147901902600,4.650902587890625,-0.0013220992404967546,-0.00871772225946188,0.01973113790154457
1772709147911927800,4.660927734375,0.00794772058725357,-0.014742285013198853,0.008277909830212593
1772709147921952800,4.670952880859375,0.010504355654120445,-0.0055818092077970505,0.011757595464587212
1772709147931976700,4.680976806640625,0.011621050536632538,0.01549550797790289,0.02722890116274357
1772709147942001700,4.691001708984375,0.010642338544130325,0.02588476613163948,0.025808369740843773
1772709147952026600,4.701026611328125,0.00779997743666172,0.035406630486249924,0.005629002116620541
1772709147962051600,4.711051513671875,-0.0011847284622490406,-0.025111041963100433,-0.0261228010058403
1772709147972076500,4.72107666015625,-0.004784631077200174,-0.028976313769817352,-0.03468676656484604
1772709147982101800,4.731101806640625,-0.003393395571038127,0.01972118392586708,-0.02729995734989643
1772709147992126700,4.741126708984375,-0.002023921813815832,0.047985807061195374,-0.03058539517223835
1772709148002151700,4.751151611328125,-0.0013051347341388464,0.012702652253210545,-0.034536466002464294
1772709148012176600,4.7611767578125,-0.001885061152279377,0.010208352468907833,-0.024010267108678818
1772709148022201900,4.771201904296875,-0.005020134150981903,-0.007095537148416042,-0.026773830875754356
1772709148032226800,4.781226806640625,-0.007564064580947161,-0.010332629084587097,-0.026992589235305786
1772709148042251500,4.79125146484375,-0.012600102461874485,-0.009446063078939915,-0.0014637946151196957
1772709148052276700,4.80127685546875,-0.0020456344354897738,-0.018065661191940308,0.021812576800584793
1772709148062302000,4.811302001953125,0.001234580995514989,0.02644374966621399,0.0052285389974713326
1772709148072327000,4.821326904296875,-0.0026781195774674416,0.005249276757240295,-0.006715763825923204
1772709148082351900,4.831351806640625,-0.0056259725242853165,-0.031410202383995056,0.009577454999089241
1772709148092376800,4.841376953125,-0.00869186595082283,-0.01955992728471756,0.007726685609668493
1772709148102402000,4.851402099609375,-0.00210933038033545,-0.0022485805675387383,-0.0005895672366023064
1772709148112426800,4.8614267578125,-0.0006570285186171532,0.008382778614759445,-0.0005593590904027224
1772709148122451700,4.87145166015625,-0.004194239154458046,0.003091077320277691,0.0033738636411726475
1772709148132476000,4.881475830078125,-0.004928334150463343,-0.017461644485592842,0.005541117861866951
1772709148142500900,4.8915009765625,-0.005323014687746763,-0.008337389677762985,0.0013586233835667372
1772709148152525800,4.90152587890625,-0.003940958995372057,0.0038069048896431923,-0.0013591451570391655
1772709148162551000,4.911551025390625,-0.003975047264248133,0.005907073616981506,-0.003601260483264923
1772709148172576000,4.921575927734375,-0.001811258727684617,0.003581281751394272,-0.005920822732150555
1772709148182601000,4.93160107421875,0.0010298015549778938,0.005630583502352238,-0.009802380576729774
1772709148192625700,4.941625732421875,0.0013222461566329002,0.012709585949778557,-0.015162574127316475
1772709148202651000,4.95165087890625,0.003050371538847685,0.014842778444290161,-0.016775118187069893
1772709148212675800,4.96167578125,0.00233598705381155,0.017652692273259163,-0.01546459086239338
1772709148222700800,4.97170068359375,0.0008065332658588886,0.017368266358971596,-0.015789495781064034
1772709148232725800,4.981725830078125,-0.0023007160052657127,0.012670112773776054,-0.019427107647061348
1772709148242751000,4.9917509765625,-0.003919119015336037,0.006869749631732702,-0.021207164973020554
1772709148252776000,5.00177587890625,-0.0025840471498668194,0.0036993096582591534,-0.02203119732439518
1772709148262801000,5.01180078125,-0.0024916352704167366,0.004572560545057058,-0.014839064329862595
1772709148272825900,5.021825927734375,-0.005639664363116026,0.008979815989732742,-0.005153072066605091
1772709148282850800,5.031850830078125,-0.005975755397230387,-0.0010222182609140873,-0.0036166938953101635
1772709148292875800,5.041875732421875,-0.006209956482052803,-0.011405633762478828,-0.007259949576109648
1772709148302900700,5.051900634765625,-0.006960968021303415,-0.009348342195153236,-0.0053557888604700565
1772709148312925700,5.06192578125,-0.004485997371375561,-0.004033690318465233,0.002703824546188116
1772709148322951000,5.071950927734375,-0.0059478068724274635,-0.005162604618817568,0.007214686833322048
1772709148332974800,5.081974853515625,-0.0026665576733648777,-0.009320652112364769,0.008547117002308369
1772709148342999800,5.091999755859375,-0.00207826541736722,-0.009752083569765091,0.006724449340254068
1772709148353025000,5.10202490234375,-0.0003867081832140684,-0.006768953520804644,0.005400277674198151
1772709148363049700,5.1120498046875,-0.0011843247339129448,-0.0026397225446999073,0.005804278887808323
1772709148373074700,5.12207470703125,0.0014238692820072174,-0.004570618271827698,0.007292615715414286
1772709148383100000,5.132099853515625,0.000005735782906413078,-0.009531820192933083,0.006735748611390591
1772709148393124900,5.142124755859375,0.0001789985690265894,-0.01015634834766388,0.007016395218670368
1772709148403149800,5.15214990234375,0.000781139126047492,-0.008228220045566559,0.009084606543183327
1772709148413174800,5.1621748046875,-0.0008203731849789619,-0.005891222506761551,0.007823397405445576
1772709148423200000,5.172199951171875,-0.0007889480330049992,-0.0045939963310956955,0.006002061069011688
1772709148433225000,5.182224853515625,-0.0008415880147367716,-0.006696629337966442,0.004126459360122681
1772709148443250000,5.19225,-0.0029350989498198032,-0.001138612162321806,-0.001173763768747449
1772709148453275000,5.20227490234375,-0.0008777116890996695,-0.0002530640922486782,-0.006295465398579836
1772709148463299800,5.2122998046875,-0.002555236918851733,0.002960838843137026,-0.009280070662498474
1772709148473324800,5.22232470703125,-0.0014705001376569271,0.003450857475399971,-0.009191717021167278
1772709148483349800,5.232349853515625,-0.0010859398171305656,0.005416536703705788,-0.011088686995208263
1772709148493374700,5.242374755859375,-0.0021974346600472927,0.0057989261113107204,-0.011259623803198338
1772709148503400000,5.25239990234375,-0.0004253673832863569,0.00528440298512578,-0.00958662573248148
1772709148513425000,5.2624248046875,-0.0013323926832526922,0.0032843928784132004,-0.005839913617819548
1772709148523448800,5.27244873046875,-0.0014897854998707771,0.0025815842673182487,-0.005095293279737234
1772709148533474000,5.28247412109375,-0.0003413679078221321,0.00041669420897960663,-0.004202728625386953
1772709148543498800,5.292498779296875,-0.002741142176091671,-0.003025440964847803,-0.0013052094727754593
1772709148553523700,5.302523681640625,-0.0008065910078585148,-0.00045309774577617645,0.0007056798785924911
1772709148563549000,5.312548828125,-0.0015674559399485588,-0.0022957385517656803,0.0023368659894913435
1772709148582972000,5.331971923828125,-0.0014977436512708664,-0.0027037281543016434,0.0020565621089190245
1772709148592996900,5.341996826171875,-0.001181714003905654,-0.0028533311560750008,0.0012626118259504437
1772709148603021800,5.352021728515625,0.0007631925400346518,-0.0021561156027019024,0.0036184440832585096
1772709148613046800,5.362046875,-0.0014737271703779697,-0.0019705365411937237,0.0016452815616503358
1772709148623071000,5.372071044921875,-0.00023935199715197086,-0.004868322052061558,0.0014641867019236088
1772709148633095700,5.382095703125,-0.000146565493196249,-0.003918146714568138,-0.0007587163709104061
1772709148643120600,5.39212060546875,-0.0004981027450412512,-0.001004648394882679,-0.0012396830134093761
1772709148653145900,5.402145751953125,-0.0028205513954162598,-0.00006456300616264343,-0.0011093788780272007
1772709148663170800,5.4121708984375,0.0006594012957066298,-0.0006944006308913231,-0.0049352762289345264
1772709148673195800,5.42219580078125,0.002241334645077586,0.0014563961885869503,-0.006526006851345301
1772709148683220700,5.432220703125,0.00038271420635282993,0.0027309847064316273,-0.007676492910832167
1772709148693246000,5.442245849609375,0.001394200138747692,0.0031736292876303196,-0.007108998019248247
1772709148703271000,5.45227099609375,-0.0005432497709989548,0.00516274431720376,-0.006538815330713987
1772709148713296000,5.4622958984375,-0.00005053449422121048,0.0027056504040956497,-0.006040880456566811
1772709148723321000,5.472321044921875,-0.0009248503483831882,-0.004284881055355072,-0.005791075527667999
1772709148733345800,5.482345703125,0.00024944660253822803,-0.0019585927948355675,-0.006888248026371002
1772709148743370800,5.492370849609375,-0.0014501828700304031,0.009122820571064949,-0.0014852266758680344
1772709148753395700,5.502395751953125,-0.001069206977263093,0.0031839273869991302,-0.0023124294821172953
1772709148763421000,5.5124208984375,-0.004475656431168318,-0.004744037054479122,-0.00549251027405262
1772709148773446000,5.52244580078125,-0.0014739439357072115,-0.0030295001342892647,-0.009634118527173996
1772709148783470800,5.532470947265625,-0.0019011148251593113,0.0014792317524552345,-0.006459631025791168
1772709148793495800,5.542495849609375,-0.0007096205372363329,0.004256699699908495,-0.0029032332822680473
1772709148803521000,5.55252099609375,-0.0014020425733178854,0.001476092729717493,-0.0030648871324956417
1772709148813546000,5.5625458984375,0.00007016980089247227,-0.0037522551137953997,-0.006283355411142111
1772709148823571000,5.572571044921875,-0.00028030225075781345,-0.0010267761535942554,-0.005205573979765177
1772709148833595000,5.582594970703125,-0.00011012633331120014,0.0013572853058576584,-0.0006425136234611273
1772709148843619800,5.592619873046875,-0.00241722259670496,0.0008547473698854446,0.00103368004783988
1772709148853644800,5.602644775390625,-0.0013968392740935087,-0.001867016777396202,-0.000036631710827350616
1772709148863669800,5.612669677734375,-0.0015323942061513662,-0.002943466417491436,-0.0025900707114487886
1772709148873695000,5.622695068359375,-0.0014742212370038033,-0.002583181019872427,-0.002182834083214402
1772709148883720000,5.632719970703125,-0.0031592033337801695,-0.00040684547275304794,-0.004740534350275993
1772709148893745000,5.642744873046875,-0.0024165320210158825,-0.0001772446557879448,-0.005095901433378458
1772709148903769900,5.652769775390625,-0.002965409541502595,0.0029282676987349987,-0.008415265008807182
1772709148913794800,5.662794921875,-0.005792791955173016,0.004785013385117054,-0.01219181902706623
1772709148933219000,5.682218994140625,-0.0044778501614928246,0.0031517106108367443,-0.013635531067848206
1772709148943243800,5.692243896484375,-0.0020573032088577747,0.004423635546118021,-0.010969706811010838
1772709148953268700,5.702268798828125,-0.0026565142907202244,0.0013476847670972347,-0.007346476428210735
1772709148963293700,5.712293701171875,-0.0017811334691941738,0.00031038373708724976,-0.003026562510058284
1772709148973319000,5.72231884765625,-0.001970673678442836,0.0006305156275629997,0.0013770883670076728
1772709148983343900,5.73234375,0.0004919511266052723,0.0005650017410516739,0.0012548492522910237
1772709148993368800,5.742368896484375,-0.002493870910257101,-0.0012838044203817844,0.0016157460631802678
1772709149003393800,5.752393798828125,0.00010217842645943165,-0.0026063304394483566,-0.0008897560182958841
1772709149013419000,5.7624189453125,0.0001574973575770855,0.0010158144868910313,-0.0008794830646365881
1772709149023444000,5.77244384765625,0.0003833337686955929,0.003616125788539648,-0.00012634112499654293
1772709149033469000,5.782468994140625,-0.001885357778519392,0.00281775975599885,-0.00004549650475382805
1772709149043493600,5.79249365234375,0.0005181452725082636,0.000147141981869936,-0.0030452811624854803
1772709149053519000,5.80251904296875,0.00045946822501719,0.0018390016630291939,-0.0044390009716153145
1772709149063544000,5.8125439453125,0.0007132671307772398,0.002344469539821148,-0.0028954327572137117
1772709149073569000,5.822569091796875,-0.001001519849523902,0.0041540563106536865,-0.005329865962266922
1772709149083594000,5.832593994140625,0.0004602894186973572,0.003350847400724888,-0.004946636967360973
1772709149093619200,5.842619140625,0.0010942500084638596,0.003170088864862919,-0.005717091262340546
1772709149103644200,5.85264404296875,-0.00252711633220315,0.0030787428840994835,-0.006679557263851166
1772709149113669000,5.862669189453125,-0.0008318987675011158,0.0034898947924375534,-0.005078958347439766
1772709149123693000,5.872693115234375,0.00020753289572894573,0.001802516169846058,-0.004639004357159138
1772709149133718000,5.882718017578125,0.0016824475023895502,-0.00013674749061465263,-0.0030958177521824837
1772709149143743000,5.892742919921875,0.0019253275822848082,-0.00019320659339427948,-0.000600169412791729
1772709149153768000,5.902767822265625,0.0009074360132217407,0.0036468077450990677,0.003294767113402486
1772709149163793200,5.912793212890625,0.002390550449490547,0.0030513256788253784,0.007291905581951141
1772709149173818000,5.922818115234375,0.0009631039574742317,0.0024206326343119144,0.005843933206051588
1772709149183843000,5.932843017578125,0.001899471040815115,-0.0022124690003693104,0.008570743724703789
1772709149193868300,5.942868408203125,0.0004100613296031952,-0.00607060082256794,0.00748904375359416
1772709149203893200,5.952893310546875,0.0036585847847163677,-0.005377113353461027,0.006463194265961647
1772709149213918000,5.96291796875,0.0019807724747806787,0.0018121199682354927,0.012699821963906288
1772709149223943000,5.97294287109375,0.00034133042208850384,0.004602047614753246,0.014292126521468163
1772709149233968000,5.982968017578125,0.0014316816814243793,-0.004853805527091026,0.006161660887300968
1772709149243993000,5.9929931640625,0.0011067762970924377,-0.004870583303272724,0.0016942084766924381
1772709149254018000,6.00301806640625,0.0039695571176707745,0.0012901471927762032,0.0018616822781041265
1772709149264043000,6.01304296875,0.001217713113874197,0.00433760229498148,0.00366863701492548
1772709149274068200,6.023068115234375,0.0017300867475569248,0.002770095132291317,0.003612748347222805
1772709149284093200,6.03309326171875,0.0031442251056432724,-0.0020291870459914207,0.0009234885219484568
1772709149294118100,6.0431181640625,0.0005210009403526783,-0.0021251714788377285,0.0008217967115342617
1772709149304142800,6.053142822265625,0.002435813657939434,0.0007939189672470093,0.0032431427389383316
1772709149314168000,6.06316796875,0.001469723880290985,-0.0006534080021083355,0.005365983583033085
1772709149324193000,6.073193115234375,0.0007421481423079967,-0.0011990894563496113,0.005538556259125471
1772709149334218000,6.083218017578125,0.0015285038389265537,-0.0012920540757477283,0.005496364552527666
1772709149344243000,6.093242919921875,-0.0010070917196571827,-0.0013879276812076569,0.005868940614163876
1772709149354268200,6.10326806640625,0.0016753198578953743,-0.002040648367255926,0.005807802081108093
1772709149364293000,6.113293212890625,0.0005426774732768536,-0.0008211871609091759,0.003212285228073597
1772709149374318000,6.123318115234375,0.0006799574475735426,-0.0006262571550905704,0.003874360118061304
1772709149384343000,6.133343017578125,0.0006195034366101027,-0.0002552787773311138,0.003656513523310423
1772709149394367000,6.143366943359375,-0.00018275342881679535,-0.0008901357650756836,0.002615445526316762
1772709149404392000,6.153391845703125,-0.0002693061251193285,-0.002125576138496399,0.004319335799664259
1772709149414417200,6.163417236328125,-0.002649750327691436,-0.0007062125951051712,0.0025925058871507645
1772709149424442000,6.173442138671875,-0.003341106930747628,0.00021950248628854752,0.003278269898146391
1772709149434467000,6.183467041015625,-0.0030411933548748493,0.0004110070876777172,0.0026411523576825857
1772709149444492000,6.193491943359375,-0.003923764917999506,-0.0007123141549527645,-0.0016286938916891813
1772709149454517200,6.203517333984375,-0.003917064052075148,0.002558337524533272,-0.0051316386088728905
1772709149464542200,6.213542236328125,-0.005078734830021858,0.004285397939383984,-0.007404114119708538
1772709149474567200,6.223567138671875,-0.004086452070623636,0.002577751874923706,-0.006905544549226761
1772709149484591900,6.233591796875,-0.0036438344977796078,0.0024563120678067207,-0.006924453191459179
1772709149494617000,6.2436171875,-0.0017030048184096813,0.006770319305360317,-0.008242804557085037
1772709149504642000,6.25364208984375,-0.0015682489611208439,0.006654737517237663,-0.005385765805840492
1772709149514667000,6.2636669921875,-0.0015880530700087547,0.0040877265855669975,-0.0030273469164967537
1772709149524692000,6.27369189453125,-0.0005182614549994469,0.005432889796793461,-0.003940544556826353
1772709149534717200,6.28371728515625,-0.00045250472612679005,0.004546088166534901,-0.0021205036900937557
1772709149544742100,6.2937421875,-0.00121976132504642,0.007131484337151051,-0.0016821473836898804
1772709149554767000,6.30376708984375,-0.0008098452817648649,0.006158331874758005,-0.003757116151973605
1772709149564792000,6.3137919921875,0.0007446417585015297,0.0004264102317392826,-0.002469477476552129
1772709149574817300,6.3238173828125,0.0023102054838091135,0.0003314027562737465,0.005862156394869089
1772709149584842000,6.333842041015625,0.003470544470474124,0.0034699374809861183,0.012722458690404892
1772709149594867000,6.343866943359375,0.004390698857605457,0.0007100999355316162,0.015239615924656391
1772709149604892000,6.353891845703125,0.007019238546490669,-0.003971204161643982,0.01405663974583149
1772709149614917000,6.363917236328125,0.0063891662284731865,-0.008081796579062939,0.012652823701500893
1772709149624942000,6.373942138671875,0.007723143324255943,-0.0027738502249121666,0.014042461290955544
1772709149634967000,6.383967041015625,0.008123639971017838,0.0010850471444427967,0.015347499400377274
1772709149644992000,6.393991943359375,0.007627760525792837,-0.0001461324281990528,0.012987938709557056
1772709149655017200,6.404017333984375,0.0054504238069057465,-0.0035110432654619217,0.007815155200660229
1772709149665041000,6.414041015625,0.0055620102211833,-0.007745735812932253,0.005790353287011385
1772709149675066000,6.424066162109375,0.006930378265678883,-0.0038001821376383305,0.005842739716172218
1772709149685091000,6.434091064453125,0.0064728474244475365,-0.001768989022821188,0.008308560587465763
1772709149695116000,6.444115966796875,0.004844767972826958,0.0009013153612613678,0.011448872275650501
1772709149705141000,6.45414111328125,0.0021714866161346436,-0.0005173506215214729,0.00936920940876007
1772709149715166200,6.464166259765625,0.0010045964736491442,-0.0040862360037863255,-0.0005789778660982847
1772709149725191200,6.474191162109375,0.0017020783852785826,-0.0011551608331501484,-0.004458936862647533
1772709149735216000,6.484216064453125,0.00241077714599669,0.0018057385459542274,-0.005187109112739563
1772709149745241000,6.494240966796875,0.0017335356678813696,0.0034007057547569275,0.0014843754470348358
1772709149755266000,6.50426611328125,0.0014041026588529348,0.00033034756779670715,-0.000850684242323041
1772709149765291000,6.514291015625,0.00013360357843339443,-0.002830302342772484,-0.0013291772920638323
1772709149775316000,6.52431591796875,0.00032473448663949966,-0.005298301111906767,0.0002872736658900976
1772709149785341000,6.5343408203125,-0.00046222982928156853,-0.0034814924001693726,0.0031815972179174423
1772709149795366100,6.5443662109375,0.002646213863044977,-0.007979488000273705,0.01149304211139679
1772709149805391000,6.55439111328125,0.0018440699204802513,-0.012918053194880486,0.01788356341421604
1772709149815416000,6.564416015625,0.004959741607308388,-0.01285313256084919,0.02352379634976387
1772709149825441000,6.57444091796875,0.007863120175898075,-0.006207746919244528,0.030947359278798103
1772709149835466200,6.58446630859375,0.01127629168331623,-0.0037872062530368567,0.035872749984264374
1772709149845491200,6.5944912109375,0.011772703379392624,0.0053064231760799885,0.03532520309090614
1772709149855516000,6.604515869140625,0.006955546326935291,0.013454101979732513,0.02167763002216816
1772709149865540900,6.614540771484375,0.00343538005836308,0.015855740755796432,-0.0005166211631149054
1772709149875566000,6.624566162109375,0.0029954048804938793,0.010536639019846916,-0.021024521440267563
1772709149885591000,6.634591064453125,-0.0006129122339189053,0.006418060045689344,-0.0280520711094141
1772709149895616000,6.644615966796875,-0.0011979448609054089,0.005279019474983215,-0.01825629360973835
1772709149905641000,6.654640869140625,-0.006557823158800602,0.004536530002951622,-0.012340079993009567
1772709149915666200,6.664666259765625,-0.006965659558773041,0.0052595618180930614,-0.010020517744123936
1772709149925691100,6.674691162109375,-0.0064514027908444405,0.002470433246344328,-0.017205992713570595
1772709149935715000,6.684715087890625,-0.0047321682795882225,-0.005225502885878086,-0.01619458943605423
1772709149945740000,6.694739990234375,-0.006301835644990206,-0.007028995547443628,-0.010591298341751099
1772709149955765000,6.704764892578125,-0.006689607631415129,-0.004948769696056843,-0.001985254231840372
1772709149965790000,6.7147900390625,-0.004333775490522385,-0.00332211097702384,0.003515504999086261
1772709149975815200,6.724815185546875,-0.001595980254933238,-0.005628739017993212,0.006187315098941326
1772709149985840000,6.734840087890625,-0.0012279313523322344,-0.005515820812433958,0.009778055362403393
1772709149995865000,6.744864990234375,0.00043879146687686443,-0.0026116836816072464,0.013041531667113304
1772709150005890000,6.75489013671875,0.00048273359425365925,-0.0028031649999320507,0.010648681782186031
1772709150015915300,6.764915283203125,0.0005340906791388988,-0.0031456714496016502,0.008306254632771015
1772709150025940200,6.774940185546875,-0.0008355728350579739,-0.0019914573058485985,0.008763785474002361
1772709150035965000,6.78496484375,0.0006991955451667309,-0.0022164369001984596,0.008836501277983189
1772709150045989000,6.794989013671875,0.00010637613013386726,-0.004182382486760616,0.005459879525005817
1772709150056013800,6.805013916015625,-0.0009975084103643894,-0.0019932067953050137,0.002638006117194891
1772709150066038800,6.815038818359375,-0.0010896536987274885,0.00024065235629677773,-0.0005508631002157927
1772709150076063700,6.825063720703125,-0.001430800650268793,0.00013273721560835838,-0.005801031365990639
1772709150086089000,6.8350888671875,-0.0014355944003909826,0.0016174493357539177,-0.010576345026493073
1772709150096114000,6.845114013671875,0.0004270791541785002,0.0019839508458971977,-0.012369565665721893
1772709150106139000,6.855138916015625,-0.0005463059060275555,0.004741920158267021,-0.012400991283357143
1772709150116164000,6.8651640625,0.0009494577534496784,0.007157870102673769,-0.008721300400793552
1772709150126189000,6.87518896484375,0.001645608339458704,0.005597523879259825,-0.009648347273468971
1772709150136214000,6.885214111328125,-0.0013014781288802624,0.002980172634124756,-0.009732972830533981
1772709150146239000,6.895239013671875,-0.0005171771626919508,0.0003518983721733093,-0.00740483682602644
1772709150156264000,6.905263916015625,0.00058214389719069,0.002203065436333418,-0.006202356889843941
1772709150166289000,6.915288818359375,0.0017888222355395555,0.0030496842227876186,-0.002817744854837656
1772709150176312800,6.925312744140625,0.0009192170109599829,0.008450612425804138,0.0018328310688957572
1772709150186338000,6.935338134765625,-0.001497867750003934,0.003939750138670206,0.003943386022001505
1772709150196363000,6.945363037109375,0.0011652696412056684,-0.0018098028376698494,-0.001195930177345872
1772709150206388000,6.955387939453125,0.0007881659548729658,0.0006666709668934345,-0.0038745373021811247
1772709150216413000,6.965412841796875,-0.00044435332529246807,0.0045065307058393955,-0.00034502544440329075
1772709150226438100,6.975438232421875,0.0004981392994523048,0.003581881057471037,0.0027823245618492365
1772709150236462800,6.985462890625,0.00008446304127573967,-0.0006662309169769287,-0.00005031470209360123
1772709150246487800,6.99548779296875,0.0003736824728548527,-0.00006755255162715912,-0.0021009487099945545
1772709150256512800,7.0055126953125,0.000517269829288125,0.004751994274556637,-0.0022989113349467516
1772709150266538000,7.0155380859375,-0.0010183088015764952,0.0042377375066280365,-0.0033926714677363634
1772709150276563000,7.02556298828125,-0.0015049183275550604,0.0007184031419456005,-0.002819458022713661
1772709150286588000,7.035587890625,-0.001586943631991744,-0.0031881877221167088,-0.003955295775085688
1772709150296612900,7.04561279296875,-0.000505212927237153,0.0016430295072495937,-0.003556531621143222
1772709150306638000,7.05563818359375,-0.00107353157363832,0.0020691356621682644,-0.00268940650857985
1772709150316663000,7.0656630859375,-0.000788179924711585,0.0012842882424592972,0.0004025362432003021
1772709150326688000,7.07568798828125,-0.0014760743360966444,-0.00215997826308012,0.0007138599175959826
1772709150336713000,7.085712890625,0.0005017281509935856,-0.002189259510487318,0.0009932126849889755
1772709150346738000,7.095738037109375,0.00016803434118628502,-0.004736572969704866,0.004725899081677198
1772709150356763000,7.105762939453125,-0.000858616316691041,-0.0044289203360676765,0.007178416941314936
1772709150366787800,7.115787841796875,-0.001275667455047369,-0.006012702360749245,0.005020190961658955
1772709150376813000,7.12581298828125,-0.0004524055402725935,-0.0062486957758665085,0.003573130816221237
1772709150386838000,7.135838134765625,0.0000490676611661911,-0.004854797385632992,0.006397679448127747
1772709150396863000,7.145863037109375,-0.0005117547698318958,-0.003932870924472809,0.003772792872041464
1772709150406887200,7.15588720703125,-0.0006398528348654509,-0.0024100756272673607,0.0005676785949617624
1772709150416912000,7.165911865234375,-0.0016037533059716225,-0.0019093346782028675,-0.0014681066386401653
1772709150426936800,7.175936767578125,-0.0002793632447719574,-0.0008872132748365402,-0.00007633864879608154
1772709150436961800,7.1859619140625,-0.0003921471070498228,0.0006243265233933926,-0.0014294891152530909
1772709150446987000,7.195987060546875,-0.0007852294947952032,-0.00018607359379529953,-0.00325987976975739
1772709150457012000,7.206011962890625,-0.0018787484150379896,-0.0008696191944181919,-0.003932012245059013
1772709150467037000,7.216036865234375,-0.0016920608468353748,0.0011077779345214367,-0.0038787489756941795
1772709150477062000,7.226061767578125,-0.0018624546937644482,0.00029548024758696556,-0.004334517754614353
1772709150487087000,7.236087158203125,-0.001227823318913579,-0.001215064898133278,-0.0017930625472217798
1772709150497112000,7.246112060546875,-0.0007402747869491577,-0.0007668747566640377,-0.0020613570231944323
1772709150507137000,7.256136962890625,-0.0005434672348201275,-0.0004717963747680187,-0.0014269922394305468
1772709150517161700,7.26616162109375,0.001765931025147438,-0.0007988228462636471,0.0007615175563842058
1772709150527187000,7.27618701171875,-0.0017928513698279858,-0.0025133658200502396,-0.0020718195009976625
1772709150537212000,7.2862119140625,-0.0009147436358034611,-0.001848115585744381,0.000395206268876791
1772709150547236900,7.29623681640625,-0.00046653347089886665,-0.0013410495594143867,0.00015525566413998604
1772709150557261800,7.30626171875,-0.001858631381765008,-0.0028332117944955826,-0.00004808325320482254
1772709150567287000,7.316287109375,-0.0022328055929392576,-0.0023748818784952164,0.000346330925822258
1772709150577312000,7.32631201171875,-0.0030948726925998926,-0.003567920532077551,0.0005279709585011005
1772709150587337000,7.3363369140625,-0.0017153553199023008,-0.002925565931946039,-0.00036685122177004814
1772709150597362000,7.34636181640625,-0.00022696168161928654,-0.0019516716711223125,-0.001820315606892109
1772709150607387000,7.356386962890625,-0.00108263548463583,-0.00048533547669649124,-0.0008109775371849537
1772709150617411800,7.366411865234375,-0.0015882598236203194,-0.0007721404545009136,0.00049615278840065
1772709150627436000,7.37643603515625,-0.0012950459495186806,-0.0008554975502192974,0.0004964189138263464
1772709150637461000,7.3864609375,-0.0013304033782333136,-0.002718652132898569,-0.0015293085016310215
1772709150647486000,7.39648583984375,-0.003087290795519948,-0.005875563248991966,0.00003343448042869568
1772709150657511000,7.406510986328125,-0.0028106661047786474,-0.0045954021625220776,-0.0026745819486677647
1772709150667536100,7.4165361328125,-0.0008332689758390188,-0.005132295191287994,0.0003323934506624937
1772709150677561000,7.42656103515625,-0.0006673699244856834,0.003258822951465845,0.0024251434952020645
1772709150687585800,7.436585693359375,-0.0019502146169543266,-0.0001899702474474907,0.0027891977224498987
1772709150697610800,7.44661083984375,-0.0014142682775855064,-0.005909739062190056,-0.001929630758240819
1772709150707636000,7.456635986328125,-0.0020036259666085243,-0.004956327378749847,-0.005609054118394852
1772709150717661000,7.466660888671875,-0.00008303835056722164,0.0025048209354281425,-0.0042373621836304665
1772709150727686000,7.476685791015625,-0.002098252298310399,0.005024171434342861,-0.0016937770415097475
1772709150737710800,7.4867109375,-0.0007406268268823624,-0.0009834375232458115,-0.0026726399082690477
1772709150747736000,7.496736083984375,-0.000006925780326128006,-0.0016257916577160358,-0.005873493850231171
1772709150757761000,7.506760986328125,-0.0001672056969255209,0.00042486609891057014,-0.004040795378386974
1772709150767786000,7.516785888671875,0.0008724923245608807,0.0023822891525924206,-0.001123302150517702
1772709150777811000,7.52681103515625,0.0004773666150867939,-0.0000533335842192173,-0.0002472875639796257
1772709150787836000,7.5368359375,-0.0006414272356778383,-0.002271746750921011,-0.001652637729421258
1772709150797860900,7.54686083984375,-0.0008584114257246256,-0.0009066746570169926,-0.0013209476601332426
1772709150807885800,7.5568857421875,-0.001282120356336236,-0.0010217227973043919,-0.001479938393458724
1772709150817910800,7.566910888671875,0.0001352773979306221,0.00007069902494549751,-0.002198319649323821
1772709150827936000,7.57693603515625,-0.001689254306256771,-0.00008456315845251083,-0.0018441190477460623
1772709150837960000,7.5869599609375,-0.001046240096911788,0.0002019796520471573,-0.004112853202968836
1772709150847985200,7.596985107421875,-0.0016933882143348455,-0.0005423738621175289,-0.004372511524707079
1772709150858010000,7.607010009765625,-0.0012600792106240988,0.00015300419181585312,-0.0034308433532714844
1772709150868034800,7.617034912109375,-0.0012060170993208885,-0.001619329210370779,-0.004500368610024452
1772709150878059800,7.627059814453125,-0.0026344594080001116,0.0005865865387022495,-0.002887710463255644
1772709150888085000,7.6370849609375,-0.002510888734832406,-0.0012547224760055542,-0.001216044183820486
1772709150898110000,7.64710986328125,-0.003929147031158209,0.0002563684247434139,-0.0026765346992760897
1772709150908135000,7.657135009765625,-0.0021208608523011208,-0.0006786673329770565,-0.002565214643254876
1772709150918160000,7.667159912109375,-0.0021916069090366364,-0.0014898763038218021,-0.0024748574942350388
1772709150928185000,7.67718505859375,-0.002101325895637274,-0.0008544460870325565,-0.004032007418572903
1772709150938210000,7.6872099609375,-0.0004231107886880636,-0.003351975232362747,-0.0011342724319547415
1772709150948235000,7.697235107421875,-0.0013405696954578161,-0.00016417168080806732,-0.0034405698534101248
1772709150958260000,7.707260009765625,-0.0014518899843096733,-0.0022837817668914795,-0.002163318218663335
1772709150968285000,7.717284912109375,-0.0020234042312949896,0.0008683362975716591,-0.0014482594560831785
1772709150978310000,7.727309814453125,-0.0007596712093800306,0.0014478331431746483,-0.0015099053271114826
1772709150988334800,7.7373349609375,0.0004483384545892477,-0.0011631296947598457,-0.002429228276014328
1772709150998359800,7.74735986328125,-0.00181937450543046,-0.0013101333752274513,-0.003553817979991436
1772709151008385000,7.757385009765625,-0.001269431784749031,0.001309884712100029,-0.0017924034036695957
1772709151018410000,7.767409912109375,-0.0015823848079890013,0.0006062807515263557,-0.0016394744161516428
1772709151028435000,7.77743505859375,-0.0022287340834736824,-0.0008315597660839558,-0.00014251144602894783
1772709151038459000,7.787458984375,-0.0005649796221405268,-0.002845156006515026,-0.001818857155740261
1772709151048484600,7.797484619140625,-0.00021077925339341164,-0.0007796082645654678,0.000938313314691186
1772709151058509600,7.807509521484375,-0.0018407728057354689,0.00040793977677822113,-0.0031586678232997656
1772709151068534500,7.817534423828125,-0.000023964326828718185,-0.00044533703476190567,-0.003014058107510209
1772709151078559700,7.827559814453125,-0.001555893337354064,-0.0018062903545796871,-0.003871723311021924
1772709151088584700,7.837584716796875,-0.0012688045389950275,-0.0002938811667263508,-0.0032573321368545294
1772709151098609700,7.847609619140625,-0.0013012634590268135,0.00016524456441402435,-0.003069909056648612
1772709151108634600,7.857634521484375,-0.0008589124772697687,0.0008997442200779915,-0.003125569084659219
1772709151118659600,7.86765966796875,0.0012597409076988697,0.0017477115616202354,-0.00205785664729774
1772709151128684500,7.8776845703125,0.0000764983706176281,0.0018859300762414932,-0.0019462702330201864
1772709151138709500,7.88770947265625,-0.00001256144605576992,-0.0017764084041118622,-0.004182298667728901
1772709151148734500,7.897734375,-0.0003750177565962076,-0.0007132743485271931,-0.0035292915999889374
1772709151158759700,7.907759765625,-0.0011290055699646473,-0.0012805517762899399,-0.0008655092678964138
1772709151168784600,7.91778466796875,-0.0013883975334465504,-0.0024747136048972607,0.00008577201515436172
1772709151178809600,7.9278095703125,0.00008307723328471184,-0.005367951467633247,0.00012210523709654808
1772709151188834600,7.93783447265625,0.0002782871015369892,-0.0006818529218435287,0.0008898945525288582
1772709151198859800,7.94785986328125,-0.0012596091255545616,0.006186459679156542,0.004386473447084427
1772709151208884700,7.957884765625,-0.000879309605807066,0.0008995519019663334,0.0001517808996140957
1772709151218909400,7.967909423828125,-0.0010666828602552414,-0.005790938623249531,-0.005557744763791561
1772709151228934400,7.977934326171875,-0.001205433625727892,-0.0026148525066673756,-0.008605466224253178
1772709151238959600,7.987959716796875,0.00016960036009550095,0.004489419050514698,-0.003068310907110572
1772709151248983600,7.997983642578125,-0.0009510577656328678,0.005402084439992905,-0.002444065874442458
1772709151259008800,8.0080087890625,-0.0007786278147250414,-0.0009407224133610725,-0.005788971669971943
1772709151269033700,8.01803369140625,-0.00015251850709319115,-0.0014595063403248787,-0.004650736227631569
1772709151279058700,8.02805859375,0.001469493843615055,0.0014471374452114105,-0.0011175188701599836
1772709151289083600,8.038083740234375,0.0007328633219003677,0.002456475980579853,0.0017227422213181853
1772709151299108600,8.048108642578125,-0.00015110732056200504,-0.0004595261998474598,0.0011747638927772641
1772709151309133600,8.058133544921875,0.00017566257156431675,-0.0029218848794698715,-0.0015648298431187868
1772709151319158500,8.068158447265626,-0.001207850407809019,-0.000752683263272047,-0.0011192699894309044
1772709151329183500,8.07818359375,-0.0006754845380783081,0.002002889756113291,-0.0008702646009624004
1772709151339208700,8.088208740234375,-0.0015020205173641443,-0.0005772216245532036,-0.0005048410966992378
1772709151349233700,8.098233642578125,-0.0013422307092696428,-0.0013500708155333996,-0.00024331873282790184
1772709151359258600,8.108258544921876,-0.00036516226828098297,0.0013269158080220222,-0.0007050218991935253
1772709151369283600,8.11828369140625,-0.0011257610749453306,0.00036498159170150757,-0.0018624316435307264
1772709151379308800,8.128308837890625,-0.0022700130939483643,-0.0009785662405192852,-0.0009702218230813742
1772709151389333800,8.138333740234375,-0.001798100769519806,0.0006811153143644333,-0.0004953802563250065
1772709151399358500,8.1483583984375,-0.0013151606544852257,0.0005272021517157555,-0.00020690937526524067
1772709151409383400,8.158383544921875,0.00016289367340505123,0.0008534388616681099,-0.0003198273479938507
1772709151419408600,8.16840869140625,0.0001588398590683937,-0.0005044429562985897,-0.000787870492786169
1772709151429433600,8.17843359375,0.0010760328732430935,0.0008915862999856472,0.00022732652723789215
1772709151439457500,8.18845751953125,0.0004917967598885298,0.000807423610240221,0.0009302739053964615
1772709151449482800,8.198482666015625,-0.0004176725633442402,0.009662168100476265,0.10708573460578918
1772709151459507700,8.2085078125,-0.016407528892159462,0.04106929898262024,0.07683800905942917
1772709151469532400,8.218532470703124,0.0029001219663769007,-0.005839088000357151,0.019470058381557465
1772709151479557600,8.2285576171875,-0.0003722251858562231,-0.026462003588676453,-0.0018376256339251995
1772709151489582600,8.23858251953125,0.004557551816105843,-0.006344219669699669,-0.0004189596511423588
1772709151499607600,8.248607666015625,-0.00040139886550605297,0.009405644610524178,0.005678080953657627
1772709151509632500,8.258632568359374,-0.0018405711743980646,-0.006184233818203211,-0.009670781902968884
1772709151519657700,8.26865771484375,0.0035208736080676317,-0.03196922317147255,-0.03929758816957474
1772709151529682700,8.2786826171875,0.004279342480003834,-0.015922078862786293,-0.04929189756512642
1772709151539707600,8.288707763671875,0.00998001080006361,0.020492132753133774,-0.030698580667376518
1772709151549732600,8.298732666015624,0.0041564758867025375,0.02076137810945511,-0.005222250707447529
1772709151559757800,8.3087578125,-0.001513470197096467,-0.0026248684152960777,0.00929294154047966
1772709151569782500,8.318782470703125,-0.002474072389304638,-0.018145505338907242,0.006886242888867855
