time,seconds_elapsed,z,y,x
1772709163138606000,0.049606201171875,-0.9879302978515625,0.0623779296875,-0.0495452880859375
1772709163148631000,0.059631103515625,-0.9880828857421875,0.0638885498046875,-0.045166015625
1772709163158656000,0.069656005859375,-0.993927001953125,0.06597900390625,-0.0452423095703125
1772709163168681200,0.07968115234375,-0.99676513671875,0.0655517578125,-0.0474090576171875
1772709163178706200,0.0897060546875,-0.9920806884765625,0.065185546875,-0.0462646484375
1772709163188731000,0.09973095703125,-0.9882659912109375,0.064910888671875,-0.04632568359375
1772709163198756000,0.109756103515625,-0.988067626953125,0.06488037109375,-0.04559326171875
1772709163208781000,0.119781005859375,-0.9909820556640625,0.067138671875,-0.045440673828125
1772709163218806000,0.129805908203125,-0.9984588623046875,0.0647430419921875,-0.048431396484375
1772709163228831000,0.1398310546875,-1.0039520263671875,0.0634307861328125,-0.0498809814453125
1772709163238856200,0.149856201171875,-0.9952545166015625,0.0670623779296875,-0.04876708984375
1772709163248881200,0.159881103515625,-0.9889373779296875,0.0679779052734375,-0.0482635498046875
1772709163258906000,0.169906005859375,-0.9901885986328125,0.0641937255859375,-0.0504302978515625
1772709163268930000,0.179929931640625,-0.9974365234375,0.0650787353515625,-0.049072265625
1772709163278955000,0.189955078125,-0.999786376953125,0.065704345703125,-0.0444488525390625
1772709163288980000,0.19997998046875,-0.9944610595703125,0.0676116943359375,-0.0457916259765625
1772709163299005000,0.2100048828125,-0.99066162109375,0.0679779052734375,-0.0479278564453125
1772709163309030100,0.220030029296875,-0.9947509765625,0.06427001953125,-0.04766845703125
1772709163319055000,0.23005517578125,-0.9951324462890625,0.0629425048828125,-0.0432891845703125
1772709163329080000,0.240080078125,-0.9933929443359375,0.0647125244140625,-0.042938232421875
1772709163339105000,0.25010498046875,-0.9908599853515625,0.064605712890625,-0.0474700927734375
1772709163349130200,0.260130126953125,-0.9922943115234375,0.0655059814453125,-0.049285888671875
1772709163359155000,0.270155029296875,-0.9967193603515625,0.066131591796875,-0.048095703125
1772709163369180000,0.280179931640625,-0.9983673095703125,0.065399169921875,-0.04803466796875
1772709163379204900,0.290204833984375,-0.997650146484375,0.06610107421875,-0.0465087890625
1772709163389230000,0.30022998046875,-0.9921112060546875,0.06536865234375,-0.048187255859375
1772709163399255000,0.310255126953125,-0.9887542724609375,0.06500244140625,-0.0474700927734375
1772709163409280000,0.320280029296875,-0.99224853515625,0.065826416015625,-0.04620361328125
1772709163419305000,0.330304931640625,-0.9975128173828125,0.0660400390625,-0.0475921630859375
1772709163429330200,0.340330078125,-0.99853515625,0.067047119140625,-0.0472869873046875
1772709163439355100,0.350355224609375,-0.995880126953125,0.064056396484375,-0.04656982421875
1772709163449379000,0.360379150390625,-0.992431640625,0.0648193359375,-0.048675537109375
1772709163459404000,0.370404052734375,-0.990692138671875,0.06634521484375,-0.04840087890625
1772709163469429000,0.380428955078125,-0.993255615234375,0.0651702880859375,-0.0470733642578125
1772709163479454000,0.390453857421875,-0.9954071044921875,0.063262939453125,-0.0455169677734375
1772709163489479200,0.400479248046875,-0.99420166015625,0.06573486328125,-0.0460662841796875
1772709163499504000,0.410504150390625,-0.994232177734375,0.066497802734375,-0.0478057861328125
1772709163509529000,0.420529052734375,-0.9944305419921875,0.064483642578125,-0.046966552734375
1772709163519554000,0.430553955078125,-0.992767333984375,0.0637359619140625,-0.0455169677734375
1772709163529579300,0.440579345703125,-0.9913177490234375,0.0618133544921875,-0.0457611083984375
1772709163539604000,0.45060400390625,-0.992462158203125,0.06341552734375,-0.04547119140625
1772709163549629000,0.46062890625,-0.993408203125,0.0654296875,-0.0455474853515625
1772709163559654000,0.47065380859375,-0.995391845703125,0.0635833740234375,-0.046234130859375
1772709163569679000,0.48067919921875,-0.9947357177734375,0.0648651123046875,-0.0451812744140625
1772709163579704000,0.4907041015625,-0.9938201904296875,0.0632171630859375,-0.04486083984375
1772709163589729000,0.50072900390625,-0.9930877685546875,0.0644989013671875,-0.046905517578125
1772709163599754000,0.51075390625,-0.9920196533203125,0.063812255859375,-0.0465240478515625
1772709163609779200,0.520779296875,-0.993804931640625,0.065185546875,-0.045745849609375
1772709163619803000,0.530802978515625,-0.99700927734375,0.0653533935546875,-0.0465240478515625
1772709163629828000,0.540828125,-0.9958038330078125,0.066009521484375,-0.046966552734375
1772709163639853000,0.55085302734375,-0.992340087890625,0.0664215087890625,-0.04595947265625
1772709163649878000,0.5608779296875,-0.9929656982421875,0.0655517578125,-0.0469512939453125
1772709163659903000,0.570903076171875,-0.99554443359375,0.0670013427734375,-0.047332763671875
1772709163669928200,0.58092822265625,-0.9958953857421875,0.06591796875,-0.0464324951171875
1772709163679953200,0.590953125,-0.9949951171875,0.065185546875,-0.04510498046875
1772709163689978000,0.60097802734375,-0.994781494140625,0.0662841796875,-0.0480194091796875
1772709163700003000,0.611003173828125,-0.9945831298828125,0.063323974609375,-0.047607421875
1772709163710028300,0.6210283203125,-0.9960174560546875,0.0640411376953125,-0.0468597412109375
1772709163720053000,0.631052978515625,-0.9933013916015625,0.064361572265625,-0.045135498046875
1772709163730078000,0.641077880859375,-0.993438720703125,0.065399169921875,-0.04754638671875
1772709163740103000,0.65110302734375,-0.9955596923828125,0.066986083984375,-0.0472259521484375
1772709163750128000,0.661128173828125,-0.9963226318359375,0.0665283203125,-0.044891357421875
1772709163760153000,0.671153076171875,-0.995697021484375,0.06298828125,-0.0449371337890625
1772709163770178000,0.681177978515625,-0.9937744140625,0.061614990234375,-0.0457611083984375
1772709163780203000,0.691203125,-0.991058349609375,0.064971923828125,-0.0459442138671875
1772709163790228200,0.701228271484375,-0.9934539794921875,0.066680908203125,-0.0482330322265625
1772709163800252000,0.711251953125,-0.995361328125,0.0642547607421875,-0.0485687255859375
1772709163810276900,0.72127685546875,-0.9931488037109375,0.062286376953125,-0.046966552734375
1772709163820302000,0.731302001953125,-0.9927520751953125,0.0623321533203125,-0.0442962646484375
1772709163830327000,0.7413271484375,-0.9904937744140625,0.0619964599609375,-0.0469207763671875
1772709163840352000,0.75135205078125,-0.9920501708984375,0.0636749267578125,-0.0451202392578125
1772709163850377000,0.761376953125,-0.9915618896484375,0.063446044921875,-0.04449462890625
1772709163860402200,0.771402099609375,-0.9916229248046875,0.0624237060546875,-0.0437774658203125
1772709163870427100,0.78142724609375,-0.9945068359375,0.062042236328125,-0.0457000732421875
1772709163880452000,0.7914521484375,-0.9957733154296875,0.0630035400390625,-0.047271728515625
1772709163890477000,0.80147705078125,-0.994842529296875,0.0640106201171875,-0.0464630126953125
1772709163900502000,0.811501953125,-0.995269775390625,0.0646514892578125,-0.044921875
1772709163910527000,0.82152685546875,-0.997100830078125,0.066192626953125,-0.0467529296875
1772709163920552000,0.831552001953125,-0.9959716796875,0.064910888671875,-0.047393798828125
1772709163930577200,0.8415771484375,-0.9932403564453125,0.0647125244140625,-0.045166015625
1772709163940602000,0.85160205078125,-0.9918670654296875,0.064910888671875,-0.044158935546875
1772709163950627000,0.861626953125,-0.9925689697265625,0.0662689208984375,-0.0460357666015625
1772709163960652000,0.871652099609375,-0.993865966796875,0.0645751953125,-0.0471038818359375
1772709163970676000,0.881676025390625,-0.9957733154296875,0.0647430419921875,-0.0454254150390625
1772709163980701000,0.891700927734375,-0.996337890625,0.064788818359375,-0.0459747314453125
1772709163990726000,0.901725830078125,-0.9927215576171875,0.0655364990234375,-0.0471649169921875
1772709164000751000,0.911751220703125,-0.9925537109375,0.0653533935546875,-0.0467376708984375
1772709164010776000,0.921776123046875,-0.9926605224609375,0.065765380859375,-0.047088623046875
1772709164020801000,0.931801025390625,-0.9937744140625,0.0640106201171875,-0.0468902587890625
1772709164030826000,0.941825927734375,-0.9956817626953125,0.0650787353515625,-0.04742431640625
1772709164040851200,0.951851318359375,-0.994781494140625,0.0632476806640625,-0.0476531982421875
1772709164050876200,0.961876220703125,-0.99383544921875,0.062530517578125,-0.046478271484375
1772709164060901400,0.9719013671875,-0.992889404296875,0.0626983642578125,-0.0475616455078125
1772709164070926300,0.98192626953125,-0.99456787109375,0.0628509521484375,-0.048675537109375
1772709164080951600,0.99195166015625,-0.9942626953125,0.06488037109375,-0.046630859375
1772709164090976500,1.0019765625,-0.995758056640625,0.0657196044921875,-0.0457000732421875
1772709164101001500,1.01200146484375,-0.994354248046875,0.0655975341796875,-0.046478271484375
1772709164111026400,1.0220263671875,-0.9931488037109375,0.0647430419921875,-0.04693603515625
1772709164121051600,1.0320517578125,-0.993988037109375,0.0670166015625,-0.048187255859375
1772709164131076400,1.042076416015625,-0.9936981201171875,0.0687713623046875,-0.0483856201171875
1772709164141100300,1.052100341796875,-0.9928131103515625,0.06634521484375,-0.04608154296875
1772709164151125500,1.06212548828125,-0.99237060546875,0.0655670166015625,-0.045562744140625
1772709164161150500,1.072150390625,-0.9958343505859375,0.0632781982421875,-0.045440673828125
1772709164171175400,1.082175537109375,-0.994842529296875,0.0620574951171875,-0.047760009765625
1772709164181200400,1.092200439453125,-0.9952392578125,0.0634918212890625,-0.048004150390625
1772709164191225600,1.1022255859375,-0.9959869384765625,0.0634002685546875,-0.048370361328125
1772709164201250300,1.112250244140625,-0.9942474365234375,0.0629425048828125,-0.0478363037109375
1772709164211275300,1.122275146484375,-0.9932708740234375,0.06341552734375,-0.04779052734375
1772709164221300500,1.132300537109375,-0.996734619140625,0.064422607421875,-0.0477294921875
1772709164231325400,1.142325439453125,-0.99493408203125,0.0632171630859375,-0.04766845703125
1772709164241350400,1.152350341796875,-0.9946746826171875,0.060516357421875,-0.0461273193359375
1772709164251375400,1.162375244140625,-0.9922332763671875,0.0614471435546875,-0.04638671875
1772709164261400600,1.172400634765625,-0.9911651611328125,0.063262939453125,-0.047607421875
1772709164271425500,1.182425537109375,-0.9929656982421875,0.0649871826171875,-0.0458221435546875
1772709164281450500,1.192450439453125,-0.9958648681640625,0.064422607421875,-0.04486083984375
1772709164291474400,1.202474365234375,-0.9954986572265625,0.0641326904296875,-0.046630859375
1772709164301499400,1.21249951171875,-0.9929656982421875,0.0633392333984375,-0.047210693359375
1772709164311524400,1.2225244140625,-0.9913177490234375,0.0625457763671875,-0.047332763671875
1772709164321549300,1.23254931640625,-0.9910736083984375,0.062591552734375,-0.04632568359375
1772709164331574500,1.242574462890625,-0.992767333984375,0.06365966796875,-0.048583984375
1772709164341599500,1.252599609375,-0.996826171875,0.0637664794921875,-0.0480804443359375
1772709164351624400,1.26262451171875,-0.99737548828125,0.0648956298828125,-0.048492431640625
1772709164361649400,1.2726494140625,-0.996307373046875,0.0667572021484375,-0.0480499267578125
1772709164371674600,1.282674560546875,-0.9930877685546875,0.065277099609375,-0.0477752685546875
1772709164381699300,1.29269921875,-0.992218017578125,0.06585693359375,-0.0466461181640625
1772709164391724300,1.302724365234375,-0.992034912109375,0.065765380859375,-0.0458526611328125
1772709164401749200,1.312749267578125,-0.995208740234375,0.06536865234375,-0.047637939453125
1772709164411774500,1.3227744140625,-0.997314453125,0.0644378662109375,-0.04888916015625
1772709164421799400,1.33279931640625,-0.9990234375,0.065155029296875,-0.048004150390625
1772709164431824400,1.342824462890625,-0.996978759765625,0.06488037109375,-0.048095703125
1772709164441849300,1.352849365234375,-0.99627685546875,0.0649566650390625,-0.0481719970703125
1772709164451873500,1.36287353515625,-0.9916229248046875,0.0644378662109375,-0.04803466796875
1772709164461898200,1.372898193359375,-0.9930877685546875,0.0647735595703125,-0.0496063232421875
1772709164471923500,1.38292333984375,-0.995849609375,0.066497802734375,-0.048187255859375
1772709164481948400,1.392948486328125,-0.996826171875,0.06549072265625,-0.0467987060546875
1772709164491973400,1.402973388671875,-0.9968109130859375,0.063140869140625,-0.0470123291015625
1772709164501998300,1.412998291015625,-0.9921722412109375,0.062774658203125,-0.0465850830078125
1772709164512023600,1.4230234375,-0.9901885986328125,0.0649566650390625,-0.0481719970703125
1772709164522048500,1.433048583984375,-0.9931640625,0.0646209716796875,-0.0485992431640625
1772709164532073500,1.443073486328125,-0.99615478515625,0.0656585693359375,-0.0484466552734375
1772709164542098400,1.453098388671875,-0.9948272705078125,0.0657806396484375,-0.0467987060546875
1772709164552123600,1.46312353515625,-0.9951019287109375,0.062652587890625,-0.047210693359375
1772709164562148400,1.4731484375,-0.9940338134765625,0.0639190673828125,-0.047454833984375
1772709164572173300,1.48317333984375,-0.9936065673828125,0.064117431640625,-0.0474395751953125
1772709164582198300,1.4931982421875,-0.993865966796875,0.0626678466796875,-0.04632568359375
1772709164592223500,1.503223388671875,-0.9923095703125,0.062774658203125,-0.047332763671875
1772709164602247400,1.513247314453125,-0.99456787109375,0.06341552734375,-0.048828125
1772709164612272400,1.5232724609375,-0.9940948486328125,0.0652008056640625,-0.0480499267578125
1772709164622297600,1.533297607421875,-0.9958648681640625,0.0666046142578125,-0.047607421875
1772709164632322600,1.543322509765625,-0.9955902099609375,0.0658416748046875,-0.04730224609375
1772709164642347300,1.55334716796875,-0.9945526123046875,0.0649261474609375,-0.046356201171875
1772709164652372500,1.56337255859375,-0.9916839599609375,0.0653533935546875,-0.0459747314453125
1772709164662397400,1.5733974609375,-0.993560791015625,0.0642547607421875,-0.0471649169921875
1772709164672422400,1.58342236328125,-0.993743896484375,0.06390380859375,-0.0472412109375
1772709164682447400,1.593447265625,-0.9948272705078125,0.0648651123046875,-0.04815673828125
1772709164692472600,1.60347265625,-0.9962310791015625,0.0645599365234375,-0.046356201171875
1772709164702497500,1.61349755859375,-0.99407958984375,0.066070556640625,-0.0478515625
1772709164712522500,1.6235224609375,-0.992919921875,0.0661468505859375,-0.04730224609375
1772709164722547500,1.63354736328125,-0.9937896728515625,0.066131591796875,-0.0477752685546875
1772709164732572400,1.643572509765625,-0.994354248046875,0.0660400390625,-0.0486907958984375
1772709164742597400,1.653597412109375,-0.996368408203125,0.065460205078125,-0.0483245849609375
1772709164752621300,1.663621337890625,-0.996826171875,0.064971923828125,-0.0482635498046875
1772709164762646500,1.673646484375,-0.99407958984375,0.0640869140625,-0.047882080078125
1772709164772671500,1.68367138671875,-0.9911956787109375,0.0644378662109375,-0.0464019775390625
1772709164782696400,1.693696533203125,-0.992431640625,0.064483642578125,-0.0474090576171875
1772709164792721400,1.703721435546875,-0.9964752197265625,0.0662689208984375,-0.0479736328125
1772709164802746600,1.71374658203125,-0.9990386962890625,0.0662841796875,-0.046600341796875
1772709164812771300,1.723771240234375,-0.9957733154296875,0.063385009765625,-0.0447235107421875
1772709164822796300,1.73379638671875,-0.9929962158203125,0.0629119873046875,-0.0463409423828125
1772709164832821200,1.7438212890625,-0.992950439453125,0.0662841796875,-0.0498504638671875
1772709164842846500,1.753846435546875,-0.994110107421875,0.0673980712890625,-0.049530029296875
1772709164852871400,1.763871337890625,-0.9940948486328125,0.0667266845703125,-0.048126220703125
1772709164862896400,1.773896484375,-0.9936370849609375,0.0673980712890625,-0.04498291015625
1772709164872921300,1.78392138671875,-0.9940338134765625,0.0675201416015625,-0.04620361328125
1772709164882946600,1.793946533203125,-0.9949951171875,0.0668182373046875,-0.0465087890625
1772709164892971500,1.803971435546875,-0.9932403564453125,0.0672607421875,-0.047882080078125
1772709164902995500,1.813995361328125,-0.9913330078125,0.0671234130859375,-0.0451812744140625
1772709164913020400,1.8240205078125,-0.991912841796875,0.0650482177734375,-0.0455780029296875
1772709164923045400,1.83404541015625,-0.9931640625,0.0644378662109375,-0.04693603515625
1772709164933070300,1.8440703125,-0.9934234619140625,0.06353759765625,-0.045166015625
1772709164943095600,1.854095458984375,-0.993988037109375,0.0653076171875,-0.0446624755859375
1772709164953120500,1.86412060546875,-0.9952545166015625,0.0641937255859375,-0.0469207763671875
1772709164963145500,1.8741455078125,-0.9971771240234375,0.0628509521484375,-0.0462799072265625
1772709164973170400,1.88417041015625,-0.9944915771484375,0.063690185546875,-0.0471649169921875
1772709164983195600,1.894195556640625,-0.9925079345703125,0.0661468505859375,-0.0476531982421875
1772709164993220400,1.904220458984375,-0.9948883056640625,0.0644073486328125,-0.047027587890625
1772709165003245300,1.914245361328125,-0.992462158203125,0.0653076171875,-0.0461578369140625
1772709165013270300,1.924270263671875,-0.9926300048828125,0.064910888671875,-0.046417236328125
1772709165023295500,1.93429541015625,-0.992431640625,0.0647430419921875,-0.0469512939453125
1772709165033320400,1.944320556640625,-0.9942474365234375,0.06573486328125,-0.04833984375
1772709165043344400,1.954344482421875,-0.993682861328125,0.065887451171875,-0.046844482421875
1772709165053369600,1.96436962890625,-0.992919921875,0.0674896240234375,-0.0476226806640625
1772709165063394000,1.97439404296875,-0.9946746826171875,0.0680694580078125,-0.04718017578125
1772709165073419000,1.9844189453125,-0.9944610595703125,0.0665435791015625,-0.045379638671875
1772709165083444200,1.9944443359375,-0.9927215576171875,0.0666656494140625,-0.04461669921875
1772709165093469200,2.00446923828125,-0.9924774169921875,0.067291259765625,-0.04559326171875
1772709165103494100,2.014494140625,-0.99285888671875,0.065643310546875,-0.0467987060546875
1772709165113519000,2.02451904296875,-0.994842529296875,0.066802978515625,-0.0485992431640625
1772709165123544300,2.03454443359375,-0.9975738525390625,0.067230224609375,-0.04833984375
1772709165133569300,2.0445693359375,-0.9978485107421875,0.067291259765625,-0.045684814453125
1772709165143594200,2.05459423828125,-0.9941253662109375,0.0662841796875,-0.0461273193359375
1772709165153619200,2.064619140625,-0.9926300048828125,0.06719970703125,-0.0462188720703125
1772709165163644200,2.07464404296875,-0.9945068359375,0.0677032470703125,-0.04595947265625
1772709165173669000,2.084669189453125,-0.9941864013671875,0.0672454833984375,-0.0445404052734375
1772709165183693000,2.094693115234375,-0.9921722412109375,0.06768798828125,-0.0447998046875
1772709165193718300,2.10471826171875,-0.9964599609375,0.0684661865234375,-0.0453643798828125
1772709165203743200,2.1147431640625,-1.000823974609375,0.0689849853515625,-0.0490264892578125
1772709165213768200,2.124768310546875,-0.9966278076171875,0.068084716796875,-0.0465240478515625
1772709165223793200,2.134793212890625,-0.99041748046875,0.0673370361328125,-0.0457000732421875
1772709165233818400,2.144818359375,-0.9888763427734375,0.0694732666015625,-0.0455322265625
1772709165243843000,2.154843017578125,-0.99407958984375,0.068817138671875,-0.0504608154296875
1772709165253868000,2.164867919921875,-0.996826171875,0.0671234130859375,-0.0450897216796875
1772709165263893200,2.174893310546875,-0.99456787109375,0.0689697265625,-0.0436553955078125
1772709165273918200,2.184918212890625,-0.9910736083984375,0.068359375,-0.044281005859375
1772709165283943200,2.194943115234375,-0.9920501708984375,0.0663909912109375,-0.0448455810546875
1772709165293968100,2.204968017578125,-0.9957122802734375,0.065155029296875,-0.0455474853515625
1772709165303993300,2.214993408203125,-0.994537353515625,0.067962646484375,-0.0457000732421875
1772709165314018300,2.225018310546875,-0.9960784912109375,0.06646728515625,-0.047210693359375
1772709165324043300,2.235043212890625,-0.99627685546875,0.0659332275390625,-0.0434722900390625
1772709165334067200,2.245067138671875,-0.993743896484375,0.0645294189453125,-0.04248046875
1772709165344092200,2.255092041015625,-0.9944000244140625,0.06201171875,-0.044097900390625
1772709165354117000,2.2651171875,-0.9927215576171875,0.0632476806640625,-0.0454559326171875
1772709165364142000,2.27514208984375,-0.992462158203125,0.0640106201171875,-0.044219970703125
1772709165374167300,2.285167236328125,-0.9908447265625,0.0626373291015625,-0.044921875
1772709165384192300,2.295192138671875,-0.99249267578125,0.0645599365234375,-0.0445556640625
1772709165394217200,2.30521728515625,-0.9972991943359375,0.06658935546875,-0.0450592041015625
1772709165404242200,2.3152421875,-0.9954681396484375,0.066558837890625,-0.044647216796875
1772709165414267400,2.325267333984375,-0.988494873046875,0.067962646484375,-0.0440216064453125
1772709165424292000,2.3352919921875,-0.98553466796875,0.066375732421875,-0.0458526611328125
1772709165434317000,2.345317138671875,-0.9879150390625,0.064971923828125,-0.046173095703125
1772709165444342000,2.355342041015625,-0.9944610595703125,0.06695556640625,-0.0457916259765625
1772709165454367200,2.3653671875,-0.99810791015625,0.0690765380859375,-0.04583740234375
1772709165464392200,2.37539208984375,-0.99755859375,0.06683349609375,-0.0468292236328125
1772709165474416000,2.385416015625,-0.995025634765625,0.0640106201171875,-0.047698974609375
1772709165484441300,2.39544140625,-0.9918365478515625,0.063568115234375,-0.043975830078125
1772709165494466000,2.405466064453125,-0.9880828857421875,0.0640869140625,-0.0435638427734375
1772709165504491000,2.415490966796875,-0.9931182861328125,0.0638275146484375,-0.045074462890625
1772709165514516200,2.42551611328125,-0.998809814453125,0.0650787353515625,-0.0471038818359375
1772709165524541200,2.435541259765625,-1.000946044921875,0.0649566650390625,-0.04541015625
1772709165534566100,2.445566162109375,-0.996612548828125,0.0643768310546875,-0.0448760986328125
1772709165544591000,2.455591064453125,-0.992431640625,0.0634918212890625,-0.044677734375
1772709165554616300,2.4656162109375,-0.99188232421875,0.0634765625,-0.0459442138671875
1772709165564641300,2.475641357421875,-0.993865966796875,0.06524658203125,-0.0460205078125
1772709165574666200,2.485666259765625,-0.9940948486328125,0.0665435791015625,-0.0445709228515625
1772709165584691200,2.495691162109375,-0.9948272705078125,0.0663299560546875,-0.0451812744140625
1772709165594716200,2.505716064453125,-0.994903564453125,0.0672760009765625,-0.04644775390625
1772709165604741000,2.5157412109375,-0.99462890625,0.069854736328125,-0.0485382080078125
1772709165614766000,2.52576611328125,-0.9949798583984375,0.072021484375,-0.048828125
1772709165624791000,2.535791015625,-0.9962921142578125,0.0698699951171875,-0.0478973388671875
1772709165634815200,2.545815185546875,-0.99566650390625,0.0671539306640625,-0.046142578125
1772709165644840200,2.555840087890625,-0.9935760498046875,0.0667724609375,-0.0465087890625
1772709165654865200,2.565865234375,-0.99481201171875,0.0665130615234375,-0.0485076904296875
1772709165664890400,2.575890380859375,-0.9949798583984375,0.0657196044921875,-0.04888916015625
1772709165674915000,2.5859150390625,-0.99359130859375,0.0653228759765625,-0.0493927001953125
1772709165684940000,2.59593994140625,-0.991607666015625,0.0640106201171875,-0.04876708984375
1772709165694965200,2.60596533203125,-0.9926300048828125,0.06231689453125,-0.0485382080078125
1772709165704990200,2.615990234375,-0.994232177734375,0.061431884765625,-0.047637939453125
1772709165715015200,2.62601513671875,-0.995269775390625,0.063995361328125,-0.049896240234375
1772709165725040000,2.6360400390625,-0.995574951171875,0.0637054443359375,-0.0500335693359375
1772709165735065300,2.6460654296875,-0.9964447021484375,0.0632171630859375,-0.04925537109375
1772709165745090300,2.65609033203125,-0.9928436279296875,0.0632781982421875,-0.04937744140625
1772709165755115300,2.666115234375,-0.993560791015625,0.065460205078125,-0.04962158203125
1772709165765140200,2.67614013671875,-0.996978759765625,0.067047119140625,-0.049591064453125
1772709165775165200,2.686165283203125,-0.9987640380859375,0.067108154296875,-0.0479583740234375
1772709165785189000,2.696189208984375,-0.9975128173828125,0.06561279296875,-0.04705810546875
1772709165795214000,2.706214111328125,-0.995452880859375,0.0657806396484375,-0.0468292236328125
1772709165805239300,2.7162392578125,-0.995025634765625,0.06768798828125,-0.0467987060546875
1772709165815264300,2.72626416015625,-0.993499755859375,0.0698699951171875,-0.0470428466796875
1772709165825289200,2.736289306640625,-0.9962005615234375,0.0716400146484375,-0.0479736328125
1772709165835314200,2.746314208984375,-0.99658203125,0.0702056884765625,-0.046173095703125
1772709165845339400,2.75633935546875,-0.9929351806640625,0.064178466796875,-0.043426513671875
1772709165855364000,2.766364013671875,-0.9885406494140625,0.06201171875,-0.045074462890625
1772709165865389000,2.77638916015625,-0.988555908203125,0.0625,-0.047149658203125
1772709165875414000,2.7864140625,-0.993988037109375,0.063262939453125,-0.0478363037109375
1772709165885439200,2.796439208984375,-0.9979400634765625,0.0631256103515625,-0.0490570068359375
1772709165895464200,2.806464111328125,-0.9966888427734375,0.0618743896484375,-0.047271728515625
1772709165905489200,2.8164892578125,-0.994842529296875,0.061767578125,-0.0465545654296875
1772709165915514000,2.82651416015625,-0.9947052001953125,0.06280517578125,-0.047149658203125
1772709165925539300,2.836539306640625,-0.994720458984375,0.0635528564453125,-0.0475921630859375
1772709165935563000,2.84656298828125,-0.9944915771484375,0.062164306640625,-0.0465087890625
1772709165945588200,2.856588134765625,-0.99102783203125,0.0619659423828125,-0.045166015625
1772709165955613200,2.86661328125,-0.9906158447265625,0.0625457763671875,-0.04473876953125
1772709165965638100,2.87663818359375,-0.9905853271484375,0.062347412109375,-0.0465545654296875
1772709165975663000,2.8866630859375,-0.9919281005859375,0.0638885498046875,-0.0472412109375
1772709165985688300,2.896688232421875,-0.994232177734375,0.063018798828125,-0.0454864501953125
1772709165995713300,2.90671337890625,-0.9944610595703125,0.0639190673828125,-0.0464630126953125
1772709166005738200,2.91673828125,-0.9919586181640625,0.06414794921875,-0.045806884765625
1772709166015763200,2.92676318359375,-0.9915618896484375,0.066741943359375,-0.0485076904296875
1772709166025788200,2.9367880859375,-0.99481201171875,0.0653533935546875,-0.046661376953125
1772709166035813000,2.946813232421875,-0.9959564208984375,0.0673980712890625,-0.0467681884765625
1772709166045838000,2.956838134765625,-0.9951629638671875,0.0684356689453125,-0.0475921630859375
1772709166055863000,2.966863037109375,-0.995361328125,0.0642242431640625,-0.04815673828125
1772709166065888300,2.97688818359375,-0.993682861328125,0.0652008056640625,-0.0475921630859375
1772709166075913200,2.986913330078125,-0.9913177490234375,0.0644073486328125,-0.0466766357421875
1772709166085938200,2.996938232421875,-0.9933929443359375,0.0662841796875,-0.046630859375
1772709166095962000,3.006962158203125,-0.996368408203125,0.06378173828125,-0.0458984375
1772709166105987000,3.016987060546875,-0.994354248046875,0.0633697509765625,-0.0445098876953125
1772709166116012000,3.027011962890625,-0.990936279296875,0.0639190673828125,-0.0465240478515625
1772709166126037200,3.037037353515625,-0.9937744140625,0.065185546875,-0.04669189453125
1772709166136062200,3.047062255859375,-0.9962310791015625,0.0650634765625,-0.0477294921875
1772709166146087200,3.057087158203125,-0.9979095458984375,0.063690185546875,-0.0454864501953125
1772709166156112100,3.067112060546875,-0.9949798583984375,0.06390380859375,-0.0462188720703125
1772709166166137300,3.077137451171875,-0.992919921875,0.0629119873046875,-0.0475311279296875
1772709166176162000,3.087162109375,-0.9940185546875,0.064117431640625,-0.0470123291015625
1772709166186187000,3.09718701171875,-0.9937744140625,0.065093994140625,-0.0452117919921875
1772709166196212000,3.1072119140625,-0.99542236328125,0.0671539306640625,-0.046356201171875
1772709166206237200,3.1172373046875,-0.9944610595703125,0.065460205078125,-0.0480499267578125
1772709166216262100,3.12726220703125,-0.99176025390625,0.0666351318359375,-0.0460662841796875
1772709166226287000,3.137287109375,-0.9922943115234375,0.0660858154296875,-0.0450286865234375
1772709166236312000,3.14731201171875,-0.995849609375,0.0660858154296875,-0.0468902587890625
1772709166246336000,3.1573359375,-0.9974822998046875,0.065826416015625,-0.0469207763671875
1772709166256361000,3.16736083984375,-0.9959869384765625,0.06561279296875,-0.04638671875
1772709166266386000,3.177385986328125,-0.99346923828125,0.0659027099609375,-0.047271728515625
1772709166276411100,3.1874111328125,-0.993133544921875,0.0653839111328125,-0.0493011474609375
1772709166286436000,3.19743603515625,-0.99432373046875,0.0654144287109375,-0.0473175048828125
1772709166296461000,3.2074609375,-0.9953765869140625,0.0660858154296875,-0.0457763671875
1772709166306486000,3.217486083984375,-0.9947662353515625,0.06378173828125,-0.0455169677734375
1772709166316511200,3.22751123046875,-0.9935760498046875,0.062957763671875,-0.046722412109375
1772709166326536200,3.2375361328125,-0.9920654296875,0.063507080078125,-0.0467987060546875
1772709166336561200,3.24756103515625,-0.9915008544921875,0.0668487548828125,-0.0460357666015625
1772709166346586000,3.257586181640625,-0.99420166015625,0.0655517578125,-0.048126220703125
1772709166356611000,3.267611083984375,-0.9963836669921875,0.0621185302734375,-0.0461883544921875
1772709166366636000,3.277635986328125,-0.993804931640625,0.06390380859375,-0.0461273193359375
1772709166376661000,3.287660888671875,-0.991729736328125,0.064117431640625,-0.04779052734375
1772709166386686200,3.297686279296875,-0.99505615234375,0.0662384033203125,-0.0491790771484375
1772709166396710100,3.307710205078125,-0.9944305419921875,0.065673828125,-0.0480194091796875
1772709166406735000,3.317735107421875,-0.9940338134765625,0.06329345703125,-0.0467987060546875
1772709166416760300,3.32776025390625,-0.9937591552734375,0.0649566650390625,-0.0478973388671875
1772709166426785000,3.337784912109375,-0.9946746826171875,0.0645294189453125,-0.0475921630859375
1772709166436810000,3.34781005859375,-0.9941558837890625,0.0650634765625,-0.0487823486328125
1772709166446835000,3.3578349609375,-0.9954681396484375,0.0644989013671875,-0.046356201171875
1772709166456860200,3.367860107421875,-0.9924163818359375,0.064239501953125,-0.0471649169921875
1772709166466885000,3.377885009765625,-0.9906158447265625,0.065826416015625,-0.0460662841796875
1772709166476910000,3.38791015625,-0.9945831298828125,0.0650634765625,-0.046844482421875
1772709166486935000,3.39793505859375,-0.996429443359375,0.0630950927734375,-0.0469207763671875
1772709166496960300,3.407960205078125,-0.9961090087890625,0.063507080078125,-0.0453643798828125
1772709166506985200,3.417985107421875,-0.9971466064453125,0.06268310546875,-0.0463409423828125
1772709166517010200,3.42801025390625,-0.9925384521484375,0.063201904296875,-0.048187255859375
1772709166527035000,3.438034912109375,-0.9927825927734375,0.0638427734375,-0.0452423095703125
1772709166537060000,3.44806005859375,-0.99267578125,0.0636444091796875,-0.046722412109375
1772709166547084000,3.458083984375,-0.995697021484375,0.064788818359375,-0.048431396484375
1772709166557109000,3.46810888671875,-0.994354248046875,0.0647125244140625,-0.0465545654296875
1772709166567134200,3.47813427734375,-0.9944610595703125,0.066864013671875,-0.046173095703125
1772709166577159200,3.4881591796875,-0.991546630859375,0.0648651123046875,-0.0464935302734375
1772709166587184000,3.49818408203125,-0.9933624267578125,0.064056396484375,-0.04937744140625
1772709166597209000,3.508208984375,-0.998779296875,0.0662384033203125,-0.0435638427734375
1772709166607234000,3.518234130859375,-0.994476318359375,0.0630950927734375,-0.048828125
1772709166617259000,3.528259033203125,-0.990386962890625,0.0673370361328125,-0.045745849609375
1772709166627284000,3.538283935546875,-0.995574951171875,0.061798095703125,-0.04833984375
1772709166637309200,3.54830908203125,-0.9909210205078125,0.064788818359375,-0.0483551025390625
1772709166647334100,3.558334228515625,-0.995269775390625,0.0641632080078125,-0.0451812744140625
1772709166657359000,3.568359130859375,-0.9967803955078125,0.063720703125,-0.04833984375
1772709166667384000,3.578384033203125,-0.9950714111328125,0.0659637451171875,-0.047882080078125
1772709166677409300,3.5884091796875,-0.9951171875,0.0643157958984375,-0.04718017578125
1772709166687434200,3.598434326171875,-0.9916229248046875,0.06427001953125,-0.0484619140625
1772709166697458000,3.6084580078125,-0.9953155517578125,0.063751220703125,-0.047210693359375
1772709166707483100,3.618483154296875,-0.9948883056640625,0.0628662109375,-0.0464935302734375
1772709166717508000,3.628508056640625,-0.9922943115234375,0.0638885498046875,-0.0471343994140625
1772709166727533000,3.638532958984375,-0.9959869384765625,0.061920166015625,-0.04620361328125
1772709166737558000,3.64855810546875,-0.992340087890625,0.0648956298828125,-0.046539306640625
1772709166747583200,3.658583251953125,-0.9945831298828125,0.0648956298828125,-0.0458984375
1772709166757608200,3.668608154296875,-0.9943695068359375,0.066314697265625,-0.0456085205078125
1772709166767633200,3.678633056640625,-0.9939422607421875,0.0652618408203125,-0.048065185546875
1772709166777658000,3.688658203125,-0.9940338134765625,0.0643310546875,-0.048431396484375
1772709166787683000,3.69868310546875,-0.992767333984375,0.065155029296875,-0.0487213134765625
1772709166797708000,3.7087080078125,-0.9945220947265625,0.065093994140625,-0.0484466552734375
1772709166807733000,3.71873291015625,-0.99554443359375,0.0641326904296875,-0.04754638671875
1772709166817758200,3.72875830078125,-0.9935760498046875,0.0646514892578125,-0.0479888916015625
1772709166827783200,3.738783203125,-0.9963531494140625,0.0804595947265625,-0.059326171875
1772709166837808000,3.74880810546875,-0.989227294921875,0.0472564697265625,-0.03582763671875
1772709166847833000,3.7588330078125,-0.99267578125,0.0643310546875,-0.0270843505859375
1772709166857857000,3.76885693359375,-0.99554443359375,0.0720367431640625,-0.0679931640625
1772709166867882000,3.778882080078125,-1.00701904296875,0.06329345703125,-0.0430145263671875
1772709166877907000,3.788906982421875,-0.991363525390625,0.0702667236328125,-0.044281005859375
1772709166887932200,3.79893212890625,-0.9904632568359375,0.06072998046875,-0.040557861328125
1772709166897957000,3.80895703125,-0.992919921875,0.0579071044921875,-0.049102783203125
1772709166907982000,3.818982177734375,-0.9905548095703125,0.068511962890625,-0.0493927001953125
1772709166918007000,3.829007080078125,-0.9912109375,0.067596435546875,-0.0490875244140625
1772709166928032300,3.8390322265625,-0.99542236328125,0.062255859375,-0.0484161376953125
1772709166938057200,3.84905712890625,-0.9918060302734375,0.066162109375,-0.0468902587890625
1772709166948082200,3.859082275390625,-0.9955291748046875,0.0659637451171875,-0.04876708984375
1772709166958107000,3.86910693359375,-0.99444580078125,0.0663299560546875,-0.0471038818359375
1772709166968132000,3.879132080078125,-0.9896392822265625,0.0667724609375,-0.045135498046875
1772709166978157000,3.889156982421875,-0.9918365478515625,0.0645904541015625,-0.04595947265625
1772709166988182000,3.89918212890625,-0.9972686767578125,0.0651397705078125,-0.04718017578125
1772709166998207000,3.90920703125,-0.998687744140625,0.0665283203125,-0.047271728515625
1772709167008232200,3.919232177734375,-0.9965057373046875,0.06390380859375,-0.0463409423828125
1772709167018256100,3.929256103515625,-0.9918365478515625,0.063323974609375,-0.0476226806640625
1772709167028281000,3.939281005859375,-0.9910430908203125,0.0631866455078125,-0.0493621826171875
1772709167038306000,3.94930615234375,-0.9952239990234375,0.066619873046875,-0.0473785400390625
1772709167048331000,3.9593310546875,-0.9964752197265625,0.0662689208984375,-0.046630859375
1772709167058356000,3.96935595703125,-0.995208740234375,0.064727783203125,-0.0472869873046875
1772709167068381000,3.979380859375,-0.993194580078125,0.0638427734375,-0.0481414794921875
1772709167078406000,3.989406005859375,-0.9936676025390625,0.0658721923828125,-0.0479583740234375
1772709167088430800,3.999430908203125,-0.994415283203125,0.0651397705078125,-0.048309326171875
1772709167098455800,4.009455810546875,-0.994842529296875,0.06402587890625,-0.04559326171875
1772709167108481000,4.01948095703125,-0.99359130859375,0.064361572265625,-0.04754638671875
1772709167118506000,4.029506103515625,-0.9940338134765625,0.066070556640625,-0.048583984375
1772709167128530700,4.03953076171875,-0.994293212890625,0.06585693359375,-0.0473785400390625
1772709167138555600,4.0495556640625,-0.9962921142578125,0.0662689208984375,-0.045074462890625
1772709167148580900,4.059580810546875,-0.9952545166015625,0.0672454833984375,-0.0478057861328125
1772709167158605800,4.069605712890625,-0.99395751953125,0.0675811767578125,-0.0484161376953125
1772709167168630800,4.079630859375,-0.992645263671875,0.063934326171875,-0.0476837158203125
1772709167178655000,4.089655029296875,-0.993988037109375,0.0637969970703125,-0.0473480224609375
1772709167188680000,4.099679931640625,-0.9949951171875,0.0657806396484375,-0.04669189453125
1772709167198705000,4.109704833984375,-0.9958648681640625,0.0668792724609375,-0.0478057861328125
1772709167208729900,4.119729736328125,-0.9948883056640625,0.06744384765625,-0.0485992431640625
1772709167218754800,4.1297548828125,-0.99139404296875,0.0655975341796875,-0.0469970703125
1772709167228779800,4.13977978515625,-0.9925384521484375,0.0638580322265625,-0.045623779296875
1772709167238804700,4.1498046875,-0.992828369140625,0.0663299560546875,-0.046478271484375
1772709167248830000,4.159829833984375,-0.9965057373046875,0.064666748046875,-0.048095703125
1772709167258855000,4.16985498046875,-0.9957275390625,0.0653533935546875,-0.0482635498046875
1772709167268880000,4.1798798828125,-0.99310302734375,0.06451416015625,-0.0475921630859375
1772709167278904800,4.18990478515625,-0.9947052001953125,0.06439208984375,-0.0482940673828125
1772709167288930000,4.199929931640625,-0.9953155517578125,0.0655670166015625,-0.046844482421875
1772709167298955000,4.209955078125,-0.9935760498046875,0.0666961669921875,-0.04730224609375
1772709167308979700,4.219979736328125,-0.9954071044921875,0.0667724609375,-0.048553466796875
1772709167319004700,4.230004638671875,-0.9934234619140625,0.066680908203125,-0.0487060546875
1772709167329028900,4.24002880859375,-0.9914703369140625,0.0646209716796875,-0.0471038818359375
1772709167339053800,4.2500537109375,-0.992645263671875,0.0636444091796875,-0.0468292236328125
1772709167349078800,4.260078857421875,-0.9935302734375,0.06561279296875,-0.047332763671875
1772709167359104000,4.27010400390625,-0.993011474609375,0.0670166015625,-0.046905517578125
1772709167369129000,4.28012890625,-0.9933929443359375,0.068603515625,-0.05010986328125
1772709167379154000,4.29015380859375,-0.99713134765625,0.067047119140625,-0.0472869873046875
1772709167389179000,4.300178955078125,-0.9962158203125,0.063812255859375,-0.0449066162109375
1772709167399203800,4.310203857421875,-0.993682861328125,0.062896728515625,-0.04620361328125
1772709167409228800,4.320228759765625,-0.9956207275390625,0.063995361328125,-0.048492431640625
1772709167419253800,4.330253662109375,-0.9942169189453125,0.06646728515625,-0.0507659912109375
1772709167429279000,4.340279052734375,-0.992889404296875,0.0669708251953125,-0.0516357421875
1772709167439304000,4.350303955078125,-0.99261474609375,0.0649871826171875,-0.047607421875
1772709167449329000,4.360328857421875,-0.994842529296875,0.0670318603515625,-0.0450897216796875
1772709167459353900,4.370353759765625,-0.9962005615234375,0.0671844482421875,-0.0467529296875
1772709167469379000,4.380379150390625,-0.9939727783203125,0.0675506591796875,-0.04791259765625
1772709167479403800,4.39040380859375,-0.99090576171875,0.0670318603515625,-0.0468902587890625
1772709167489427700,4.400427734375,-0.9904022216796875,0.067291259765625,-0.0451202392578125
1772709167499453000,4.410452880859375,-0.9952239990234375,0.0653076171875,-0.0462799072265625
1772709167509478000,4.420477783203125,-0.994476318359375,0.0659332275390625,-0.045654296875
1772709167519502800,4.4305029296875,-0.995330810546875,0.06585693359375,-0.0460357666015625
1772709167529527800,4.44052783203125,-0.9951934814453125,0.0661163330078125,-0.0480499267578125
1772709167539553000,4.450552978515625,-0.9927978515625,0.0654754638671875,-0.0485076904296875
1772709167549578000,4.460577880859375,-0.9937896728515625,0.065826416015625,-0.0482635498046875
1772709167559602700,4.470602783203125,-0.99298095703125,0.0665740966796875,-0.0465545654296875
1772709167569627600,4.480627685546875,-0.994537353515625,0.0669403076171875,-0.0481109619140625
1772709167579652900,4.49065283203125,-0.9947052001953125,0.0677642822265625,-0.048370361328125
1772709167589677800,4.500677734375,-0.99395751953125,0.064422607421875,-0.0462493896484375
1772709167599702800,4.510702880859375,-0.9921417236328125,0.0659332275390625,-0.0461273193359375
1772709167609727700,4.520727783203125,-0.9925994873046875,0.067535400390625,-0.0486907958984375
1772709167619753000,4.5307529296875,-0.9949798583984375,0.06732177734375,-0.0485992431640625
1772709167629778000,4.54077783203125,-0.994720458984375,0.0683135986328125,-0.04791259765625
1772709167639801900,4.5508017578125,-0.99456787109375,0.066741943359375,-0.0470123291015625
1772709167649826800,4.560826904296875,-0.9924468994140625,0.0653533935546875,-0.0482940673828125
1772709167659851800,4.570851806640625,-0.992767333984375,0.0683441162109375,-0.048919677734375
1772709167669876700,4.580876708984375,-0.9946136474609375,0.068023681640625,-0.0466156005859375
1772709167679902000,4.59090185546875,-0.9962921142578125,0.0652313232421875,-0.0471954345703125
1772709167689927000,4.600927001953125,-0.99407958984375,0.0654144287109375,-0.046844482421875
1772709167699951900,4.610951904296875,-0.993072509765625,0.067108154296875,-0.0472564697265625
1772709167709976800,4.620976806640625,-0.9939422607421875,0.0677032470703125,-0.0469970703125
1772709167720002000,4.631001953125,-0.994720458984375,0.0687408447265625,-0.048736572265625
1772709167730027000,4.641027099609375,-0.9961395263671875,0.0665435791015625,-0.046295166015625
1772709167740051700,4.6510517578125,-0.9949188232421875,0.0654144287109375,-0.045745849609375
1772709167750076700,4.66107666015625,-0.992919921875,0.0654449462890625,-0.045654296875
1772709167760102000,4.671101806640625,-0.99176025390625,0.064727783203125,-0.047515869140625
1772709167770126800,4.681126953125,-0.9936676025390625,0.0644378662109375,-0.0460968017578125
1772709167780151800,4.69115185546875,-0.9947662353515625,0.0661163330078125,-0.0462493896484375
1772709167790176800,4.7011767578125,-0.995361328125,0.0655517578125,-0.0472259521484375
1772709167800201000,4.711200927734375,-0.994140625,0.067596435546875,-0.0488739013671875
1772709167810226000,4.721225830078125,-0.9925079345703125,0.068817138671875,-0.0475616455078125
1772709167820250600,4.731250732421875,-0.993743896484375,0.06707763671875,-0.046417236328125
1772709167830275800,4.74127587890625,-0.9952392578125,0.064849853515625,-0.04754638671875
1772709167840300800,4.75130078125,-0.9956817626953125,0.064849853515625,-0.0477294921875
1772709167850325800,4.76132568359375,-0.993377685546875,0.0631256103515625,-0.04510498046875
1772709167860350700,4.771350830078125,-0.992218017578125,0.063751220703125,-0.0465087890625
1772709167870376000,4.7813759765625,-0.991973876953125,0.068328857421875,-0.04901123046875
1772709167880401000,4.79140087890625,-0.9959869384765625,0.0679473876953125,-0.0476226806640625
1772709167890425900,4.80142578125,-0.99578857421875,0.0650177001953125,-0.04376220703125
1772709167900451000,4.811451171875,-0.99359130859375,0.0637359619140625,-0.0434112548828125
1772709167910475800,4.821475830078125,-0.9944915771484375,0.0631866455078125,-0.0489501953125
1772709167920500700,4.831500732421875,-0.9941558837890625,0.0671234130859375,-0.0497283935546875
1772709167930525700,4.841525634765625,-0.9928741455078125,0.0656585693359375,-0.0500335693359375
1772709167940551000,4.851551025390625,-0.993804931640625,0.065216064453125,-0.0474700927734375
1772709167950574800,4.861574951171875,-0.994903564453125,0.0638885498046875,-0.0468292236328125
1772709167960599800,4.871599853515625,-0.996673583984375,0.0663909912109375,-0.047637939453125
1772709167970625000,4.881625,-0.9940338134765625,0.068634033203125,-0.048095703125
1772709167980650000,4.89164990234375,-0.99224853515625,0.0666961669921875,-0.0466766357421875
1772709167990674700,4.9016748046875,-0.9900970458984375,0.0653228759765625,-0.0453033447265625
1772709168000699600,4.91169970703125,-0.9920654296875,0.0645751953125,-0.045989990234375
1772709168010724900,4.921724853515625,-0.9945526123046875,0.0655975341796875,-0.045257568359375
1772709168020749800,4.931749755859375,-0.994873046875,0.065216064453125,-0.047515869140625
1772709168030774800,4.94177490234375,-0.995941162109375,0.0639190673828125,-0.047393798828125
1772709168040799700,4.9517998046875,-0.9945068359375,0.0643768310546875,-0.0489501953125
1772709168050825000,4.961824951171875,-0.9954833984375,0.0654144287109375,-0.046661376953125
1772709168060850000,4.971849853515625,-0.9957275390625,0.0649261474609375,-0.0474700927734375
1772709168070875600,4.981875732421875,-0.9962921142578125,0.0653228759765625,-0.046234130859375
1772709168080900600,4.991900634765625,-0.995330810546875,0.0652923583984375,-0.048095703125
1772709168090925600,5.001925537109375,-0.993377685546875,0.0644989013671875,-0.0474090576171875
1772709168100950800,5.01195068359375,-0.995208740234375,0.064788818359375,-0.0479583740234375
1772709168110974700,5.021974609375,-0.99505615234375,0.0645294189453125,-0.046142578125
1772709168120999700,5.031999755859375,-0.9935302734375,0.0644683837890625,-0.0467529296875
1772709168131024600,5.042024658203125,-0.9930267333984375,0.065582275390625,-0.0463714599609375
1772709168141049600,5.052049560546875,-0.9935302734375,0.0664520263671875,-0.046478271484375
1772709168151074600,5.062074462890625,-0.994537353515625,0.0654754638671875,-0.04681396484375
1772709168161099800,5.072099853515625,-0.9944915771484375,0.0671844482421875,-0.046661376953125
1772709168171124700,5.082124755859375,-0.9953460693359375,0.0669708251953125,-0.0474090576171875
1772709168181149700,5.092149658203125,-0.99371337890625,0.0653839111328125,-0.0466766357421875
1772709168191174700,5.102174560546875,-0.993316650390625,0.0641326904296875,-0.0485076904296875
1772709168201199900,5.112199951171875,-0.993408203125,0.0644683837890625,-0.0472869873046875
1772709168211224800,5.122224853515625,-0.994415283203125,0.0648193359375,-0.047515869140625
1772709168221249500,5.13224951171875,-0.9948883056640625,0.0645751953125,-0.0466461181640625
1772709168231274500,5.1422744140625,-0.9918975830078125,0.0639801025390625,-0.0491943359375
1772709168241299700,5.1522998046875,-0.9943389892578125,0.063690185546875,-0.0480499267578125
1772709168251324700,5.16232470703125,-0.9943084716796875,0.0646514892578125,-0.0467529296875
1772709168261349600,5.172349609375,-0.9955596923828125,0.0669403076171875,-0.0473785400390625
1772709168271373800,5.182373779296875,-0.9949951171875,0.06463623046875,-0.046295166015625
1772709168281398800,5.192398681640625,-0.9942474365234375,0.0637664794921875,-0.0467681884765625
1772709168291423700,5.202423828125,-0.993194580078125,0.064666748046875,-0.0473480224609375
1772709168301448700,5.21244873046875,-0.9939422607421875,0.0644073486328125,-0.0458831787109375
1772709168311473700,5.2224736328125,-0.9940948486328125,0.0651092529296875,-0.048431396484375
1772709168321498600,5.23249853515625,-0.995025634765625,0.0665130615234375,-0.0484466552734375
1772709168331523600,5.242523681640625,-0.9959869384765625,0.0654754638671875,-0.0462188720703125
1772709168341548800,5.252548828125,-0.9940338134765625,0.0651092529296875,-0.045989990234375
1772709168351573800,5.26257373046875,-0.9939422607421875,0.06298828125,-0.045928955078125
1772709168361598700,5.2725986328125,-0.994537353515625,0.06280517578125,-0.04833984375
1772709168371623700,5.282623779296875,-0.9940338134765625,0.0640869140625,-0.0476837158203125
1772709168381649000,5.29264892578125,-0.994049072265625,0.0673828125,-0.046661376953125
1772709168391673600,5.302673583984375,-0.994659423828125,0.0662689208984375,-0.044708251953125
1772709168401698600,5.312698486328125,-0.9947052001953125,0.0657196044921875,-0.046356201171875
1772709168412348700,5.3233486328125,-0.9955291748046875,0.0635833740234375,-0.045135498046875
1772709168422374000,5.333373779296875,-0.99432373046875,0.065032958984375,-0.047607421875
1772709168432398800,5.34339892578125,-0.992584228515625,0.06573486328125,-0.048065185546875
1772709168442423600,5.353423583984375,-0.99188232421875,0.064605712890625,-0.0465240478515625
1772709168452448500,5.363448486328125,-0.994842529296875,0.0651397705078125,-0.0477752685546875
1772709168462473700,5.3734736328125,-0.9967498779296875,0.0634613037109375,-0.04718017578125
1772709168472498700,5.383498779296875,-0.993927001953125,0.063385009765625,-0.0466461181640625
1772709168482523600,5.393523681640625,-0.9911651611328125,0.0635528564453125,-0.0454864501953125
1772709168492548600,5.403548583984375,-0.9904632568359375,0.0623016357421875,-0.0464630126953125
1772709168502573800,5.41357373046875,-0.9910736083984375,0.0631866455078125,-0.045135498046875
1772709168512598800,5.423598876953125,-0.995758056640625,0.063262939453125,-0.0461578369140625
1772709168522623700,5.433623779296875,-0.9966583251953125,0.064208984375,-0.04803466796875
1772709168532648700,5.443648681640625,-0.99652099609375,0.063232421875,-0.0477294921875
1772709168542672600,5.453672607421875,-0.9962158203125,0.06317138671875,-0.04620361328125
1772709168552697600,5.463697509765625,-0.9933929443359375,0.0645751953125,-0.045806884765625
1772709168562722600,5.47372265625,-0.9927520751953125,0.0657958984375,-0.0466766357421875
1772709168572747800,5.483747802734375,-0.9951324462890625,0.06610107421875,-0.0478515625
1772709168582772700,5.493772705078125,-0.995025634765625,0.06646728515625,-0.0480804443359375
1772709168592797700,5.503797607421875,-0.9949798583984375,0.0657806396484375,-0.0482330322265625
1772709168602822700,5.51382275390625,-0.99432373046875,0.066375732421875,-0.04705810546875
1772709168612847600,5.52384765625,-0.996124267578125,0.0655975341796875,-0.0467529296875
1772709168622872600,5.53387255859375,-0.9937744140625,0.0653228759765625,-0.04669189453125
1772709168632897500,5.5438974609375,-0.9932098388671875,0.0654754638671875,-0.045440673828125
1772709168642922800,5.5539228515625,-0.9932403564453125,0.06610107421875,-0.0472259521484375
1772709168652947700,5.56394775390625,-0.994293212890625,0.0654754638671875,-0.0447998046875
1772709168662972700,5.57397265625,-0.994476318359375,0.0652008056640625,-0.0454254150390625
1772709168672997600,5.58399755859375,-0.99444580078125,0.065185546875,-0.0465545654296875
1772709168683022800,5.59402294921875,-0.9954681396484375,0.0662689208984375,-0.04705810546875
1772709168693046500,5.604046630859375,-0.9935150146484375,0.0640716552734375,-0.044464111328125
1772709168703071500,5.614071533203125,-0.99322509765625,0.0636444091796875,-0.0450592041015625
1772709168713096700,5.6240966796875,-0.9937744140625,0.0613555908203125,-0.0456695556640625
1772709168723121700,5.63412158203125,-0.99456787109375,0.062896728515625,-0.0467681884765625
1772709168733146600,5.644146728515625,-0.9941558837890625,0.06378173828125,-0.0480499267578125
1772709168743171600,5.654171630859375,-0.996307373046875,0.064788818359375,-0.0474853515625
1772709168753196800,5.66419677734375,-0.995819091796875,0.0643157958984375,-0.047210693359375
1772709168763848700,5.6748486328125,-0.9925994873046875,0.0662994384765625,-0.0470123291015625
1772709168773873700,5.684873779296875,-0.9957733154296875,0.064788818359375,-0.0482025146484375
1772709168783898600,5.694898681640625,-0.993743896484375,0.0650634765625,-0.0477447509765625
1772709168793923600,5.704923583984375,-0.9929962158203125,0.0654754638671875,-0.0461273193359375
1772709168803948500,5.714948486328125,-0.993865966796875,0.06500244140625,-0.0465850830078125
1772709168813973800,5.724973876953125,-0.9945220947265625,0.066162109375,-0.04736328125
1772709168823998700,5.734998779296875,-0.9941864013671875,0.0659027099609375,-0.0479888916015625
1772709168834023700,5.745023681640625,-0.99560546875,0.067047119140625,-0.0485382080078125
1772709168844048600,5.755048583984375,-0.9949951171875,0.06549072265625,-0.048309326171875
1772709168854073900,5.765073974609375,-0.9947357177734375,0.06402587890625,-0.046234130859375
1772709168864098800,5.775098876953125,-0.995758056640625,0.0620574951171875,-0.045623779296875
1772709168874122500,5.78512255859375,-0.9923095703125,0.0628204345703125,-0.04559326171875
1772709168884147700,5.795147705078125,-0.991546630859375,0.065277099609375,-0.0472564697265625
1772709168894172700,5.805172607421875,-0.9941558837890625,0.0672149658203125,-0.04705810546875
1772709168904197600,5.81519775390625,-0.9963836669921875,0.0645599365234375,-0.047882080078125
1772709168914222600,5.82522265625,-0.99530029296875,0.0630950927734375,-0.0452117919921875
1772709168924247800,5.835247802734375,-0.994049072265625,0.0644683837890625,-0.0449676513671875
1772709168934272800,5.845272705078125,-0.9949493408203125,0.064605712890625,-0.049102783203125
1772709168944297700,5.855297607421875,-0.9937591552734375,0.0625,-0.047821044921875
1772709168954322700,5.86532275390625,-0.9934844970703125,0.0621795654296875,-0.04473876953125
1772709168964347600,5.87534765625,-0.9938812255859375,0.063751220703125,-0.04754638671875
1772709168974372600,5.88537255859375,-0.9947662353515625,0.0651397705078125,-0.0481109619140625
1772709168984397600,5.8953974609375,-0.99444580078125,0.0650482177734375,-0.047637939453125
1772709168994422800,5.9054228515625,-0.991973876953125,0.0644989013671875,-0.045928955078125
1772709169004447700,5.91544775390625,-0.99273681640625,0.064666748046875,-0.0460662841796875
1772709169014472700,5.92547265625,-0.99224853515625,0.06463623046875,-0.045654296875
1772709169024497700,5.93549755859375,-0.991607666015625,0.0653839111328125,-0.04595947265625
1772709169034523000,5.94552294921875,-0.99261474609375,0.064605712890625,-0.0460357666015625
1772709169044546600,5.955546630859375,-0.9966888427734375,0.0647735595703125,-0.0464324951171875
1772709169054571500,5.965571533203125,-0.99700927734375,0.065277099609375,-0.046875
1772709169064596700,5.9755966796875,-0.9953460693359375,0.0645294189453125,-0.045501708984375
1772709169074621000,5.985620849609375,-0.9943389892578125,0.0649566650390625,-0.0462799072265625
1772709169084646000,5.99564599609375,-0.9952545166015625,0.064910888671875,-0.045928955078125
1772709169094671000,6.005671142578125,-0.9961700439453125,0.0654296875,-0.0474853515625
1772709169104696000,6.015696044921875,-0.9953155517578125,0.06463623046875,-0.0472869873046875
1772709169114720800,6.025720703125,-0.99481201171875,0.064849853515625,-0.04693603515625
1772709169124745700,6.035745849609375,-0.9929046630859375,0.0650634765625,-0.047271728515625
1772709169134771000,6.04577099609375,-0.991973876953125,0.0638275146484375,-0.047332763671875
1772709169144796000,6.0557958984375,-0.992401123046875,0.06378173828125,-0.046630859375
1772709169154820900,6.06582080078125,-0.992828369140625,0.065521240234375,-0.04840087890625
1772709169164845800,6.075845703125,-0.9940643310546875,0.0653076171875,-0.0479736328125
1772709169174871000,6.08587109375,-0.99359130859375,0.064178466796875,-0.047576904296875
1772709169184896000,6.09589599609375,-0.9921722412109375,0.06591796875,-0.04547119140625
1772709169194921000,6.1059208984375,-0.99688720703125,0.065277099609375,-0.04937744140625
1772709169204946000,6.11594580078125,-0.9957427978515625,0.0648040771484375,-0.048004150390625
1772709169214969900,6.125969970703125,-0.9930419921875,0.0653228759765625,-0.046478271484375
1772709169224994800,6.135994873046875,-0.992462158203125,0.063446044921875,-0.047271728515625
1772709169235020000,6.14602001953125,-0.9936065673828125,0.064300537109375,-0.04827880859375
1772709169245045000,6.156044921875,-0.99444580078125,0.0654296875,-0.0479583740234375
1772709169255070000,6.166070068359375,-0.9976043701171875,0.0654754638671875,-0.0471649169921875
1772709169265095000,6.176094970703125,-0.9958343505859375,0.0666046142578125,-0.0470733642578125
1772709169275120000,6.1861201171875,-0.99420166015625,0.066009521484375,-0.047882080078125
1772709169285145000,6.19614501953125,-0.993133544921875,0.0649871826171875,-0.047149658203125
1772709169295169800,6.206169677734375,-0.99310302734375,0.0645751953125,-0.047149658203125
1772709169305194800,6.21619482421875,-0.9935150146484375,0.0637054443359375,-0.0478515625
1772709169315220000,6.226219970703125,-0.99407958984375,0.064666748046875,-0.0471954345703125
1772709169325245000,6.236244873046875,-0.9940185546875,0.0641021728515625,-0.047637939453125
1772709169335270000,6.246269775390625,-0.9935455322265625,0.06524658203125,-0.048553466796875
1772709169345294800,6.256294921875,-0.9928131103515625,0.066131591796875,-0.0494537353515625
1772709169355320000,6.266320068359375,-0.9933624267578125,0.0660552978515625,-0.047698974609375
1772709169365345000,6.276344970703125,-0.9950408935546875,0.065277099609375,-0.0476226806640625
1772709169375370000,6.286369873046875,-0.9948272705078125,0.0639190673828125,-0.0476531982421875
1772709169385395000,6.29639501953125,-0.992584228515625,0.0637664794921875,-0.047210693359375
1772709169395419000,6.3064189453125,-0.9935150146484375,0.0642242431640625,-0.04718017578125
1772709169405443800,6.31644384765625,-0.995147705078125,0.0675506591796875,-0.048583984375
1772709169415469000,6.326468994140625,-0.9952850341796875,0.0658721923828125,-0.0489501953125
1772709169425494000,6.336493896484375,-0.99676513671875,0.0655975341796875,-0.044189453125
1772709169435519000,6.34651904296875,-0.9931488037109375,0.062896728515625,-0.0442047119140625
1772709169445544000,6.3565439453125,-0.9930877685546875,0.0626220703125,-0.046722412109375
1772709169455569200,6.366569091796875,-0.995941162109375,0.0653533935546875,-0.0496978759765625
1772709169465593900,6.37659375,-0.9947509765625,0.066009521484375,-0.04937744140625
1772709169475618800,6.386618896484375,-0.994659423828125,0.06488037109375,-0.0489959716796875
1772709169485643800,6.396643798828125,-0.9938201904296875,0.0644989013671875,-0.048583984375
1772709169495669000,6.4066689453125,-0.99285888671875,0.065704345703125,-0.0484771728515625
1772709169505694000,6.41669384765625,-0.9925384521484375,0.066497802734375,-0.047210693359375
1772709169515719000,6.426718994140625,-0.9925689697265625,0.0666351318359375,-0.0463409423828125
1772709169525743900,6.436743896484375,-0.992919921875,0.0650177001953125,-0.0462188720703125
1772709169535769000,6.44676904296875,-0.9932708740234375,0.065338134765625,-0.0462188720703125
1772709169545794000,6.4567939453125,-0.994659423828125,0.0656585693359375,-0.0457916259765625
1772709169555819000,6.466819091796875,-0.9964752197265625,0.0655975341796875,-0.049072265625
1772709169565843700,6.47684375,-0.995330810546875,0.0648193359375,-0.047210693359375
1772709169575869000,6.486868896484375,-0.99554443359375,0.066009521484375,-0.0480499267578125
1772709169585892900,6.496892822265625,-0.9957122802734375,0.066009521484375,-0.04754638671875
1772709169595917800,6.506917724609375,-0.992950439453125,0.064300537109375,-0.0470733642578125
1772709169605943000,6.516943115234375,-0.9937286376953125,0.0655975341796875,-0.0476837158203125
1772709169615968000,6.526968017578125,-0.9942779541015625,0.0665130615234375,-0.0476837158203125
1772709169625993000,6.536992919921875,-0.994720458984375,0.0663299560546875,-0.047943115234375
1772709169636018000,6.547017822265625,-0.9938201904296875,0.0667266845703125,-0.04803466796875
1772709169646043000,6.55704296875,-0.99267578125,0.065399169921875,-0.0480194091796875
1772709169656067800,6.56706787109375,-0.99285888671875,0.0647430419921875,-0.0469818115234375
1772709169666092800,6.5770927734375,-0.99371337890625,0.0655364990234375,-0.0467071533203125
1772709169676118000,6.587117919921875,-0.9939422607421875,0.06585693359375,-0.046722412109375
1772709169686143000,6.59714306640625,-0.9955596923828125,0.0647430419921875,-0.0475616455078125
1772709169696168000,6.60716796875,-0.9945526123046875,0.0654449462890625,-0.04754638671875
1772709169706193000,6.61719287109375,-0.9923858642578125,0.0675506591796875,-0.0487518310546875
1772709169716218000,6.627218017578125,-0.9948577880859375,0.0655517578125,-0.0488128662109375
1772709169726243000,6.6372431640625,-0.99456787109375,0.0654296875,-0.0474853515625
1772709169736268000,6.64726806640625,-0.994171142578125,0.06524658203125,-0.0475616455078125
1772709169746292700,6.657292724609375,-0.9945526123046875,0.066619873046875,-0.04876708984375
1772709169756318000,6.66731787109375,-0.994659423828125,0.065032958984375,-0.0491943359375
1772709169766342000,6.677341796875,-0.99267578125,0.0666046142578125,-0.0477142333984375
1772709169776366800,6.687366943359375,-0.9931640625,0.06781005859375,-0.047271728515625
1772709169786392000,6.69739208984375,-0.994720458984375,0.0672760009765625,-0.0468292236328125
1772709169796417000,6.7074169921875,-0.9942779541015625,0.0653076171875,-0.0489654541015625
1772709169806442000,6.71744189453125,-0.994659423828125,0.0651092529296875,-0.049835205078125
1772709169816467000,6.727467041015625,-0.995086669921875,0.0648345947265625,-0.0472259521484375
1772709169826492000,6.737491943359375,-0.9948883056640625,0.0648956298828125,-0.04864501953125
1772709169836516900,6.747516845703125,-0.9965362548828125,0.062591552734375,-0.0481719970703125
1772709169846541800,6.757541748046875,-0.9880218505859375,0.069000244140625,-0.0457305908203125
1772709169856566800,6.76756689453125,-0.9908599853515625,0.067352294921875,-0.04827880859375
1772709169866592000,6.777592041015625,-0.9952545166015625,0.067413330078125,-0.0484466552734375
1772709169876617000,6.787616943359375,-0.995147705078125,0.0651702880859375,-0.0464019775390625
1772709169886642000,6.797641845703125,-0.9949188232421875,0.0626220703125,-0.04522705078125
1772709169896667000,6.8076669921875,-0.9910736083984375,0.065582275390625,-0.0453033447265625
1772709169906692000,6.817692138671875,-0.9911041259765625,0.069580078125,-0.049041748046875
1772709169916716800,6.827716796875,-0.994873046875,0.0684356689453125,-0.0482025146484375
1772709169926741800,6.83774169921875,-0.9984588623046875,0.0667572021484375,-0.0469818115234375
1772709169936767000,6.84776708984375,-0.9971160888671875,0.0696258544921875,-0.0442352294921875
1772709169946791000,6.857791015625,-0.9973297119140625,0.06573486328125,-0.0492401123046875
1772709169956816000,6.86781591796875,-0.9961090087890625,0.0656280517578125,-0.0525970458984375
1772709169966841000,6.877841064453125,-0.9930267333984375,0.06768798828125,-0.0487823486328125
1772709169976866000,6.887865966796875,-0.992279052734375,0.063446044921875,-0.047454833984375
1772709169986891000,6.89789111328125,-0.989501953125,0.064361572265625,-0.046844482421875
1772709169996915700,6.907915771484375,-0.9903564453125,0.065673828125,-0.04705810546875
1772709170006941000,6.91794091796875,-0.996063232421875,0.065399169921875,-0.0480194091796875
1772709170016966000,6.9279658203125,-0.9960174560546875,0.0662384033203125,-0.0467529296875
1772709170026990800,6.937990966796875,-0.9942169189453125,0.0684356689453125,-0.0475006103515625
1772709170037015800,6.948015869140625,-0.989837646484375,0.0672149658203125,-0.0480804443359375
1772709170047041000,6.958041015625,-0.9915771484375,0.066070556640625,-0.0465240478515625
1772709170057066000,6.96806591796875,-0.993804931640625,0.0679931640625,-0.0452880859375
1772709170067091000,6.978091064453125,-0.9984588623046875,0.06646728515625,-0.047454833984375
1772709170077117200,6.9881171875,-0.997283935546875,0.066864013671875,-0.0474395751953125
1772709170087142100,6.99814208984375,-0.992706298828125,0.06610107421875,-0.04766845703125
1772709170097167400,7.00816748046875,-0.992706298828125,0.066650390625,-0.0467071533203125
1772709170107192300,7.0181923828125,-0.9942169189453125,0.06695556640625,-0.0462799072265625
1772709170117216000,7.028216064453125,-0.9967193603515625,0.0682373046875,-0.04632568359375
1772709170127241200,7.0382412109375,-0.99609375,0.0677032470703125,-0.046417236328125
1772709170137266200,7.04826611328125,-0.993988037109375,0.0655364990234375,-0.04632568359375
1772709170147291100,7.058291015625,-0.9920196533203125,0.066070556640625,-0.0481414794921875
1772709170157316000,7.068316162109375,-0.99322509765625,0.0669708251953125,-0.04736328125
1772709170167341300,7.07834130859375,-0.996002197265625,0.066864013671875,-0.0477752685546875
1772709170177366300,7.0883662109375,-0.9970855712890625,0.0659942626953125,-0.0474700927734375
1772709170187391200,7.09839111328125,-0.9934234619140625,0.06500244140625,-0.0454254150390625
1772709170197416200,7.108416259765625,-0.989776611328125,0.0654144287109375,-0.0471038818359375
1772709170207441200,7.118441162109375,-0.992340087890625,0.0665130615234375,-0.0495147705078125
1772709170217466000,7.128466064453125,-0.9958038330078125,0.0676116943359375,-0.047882080078125
1772709170227491000,7.138490966796875,-0.9973297119140625,0.065338134765625,-0.0478973388671875
1772709170237516300,7.148516357421875,-0.9951171875,0.0630950927734375,-0.0463714599609375
1772709170247541200,7.158541259765625,-0.992279052734375,0.0650634765625,-0.0480194091796875
1772709170257566200,7.168566162109375,-0.9944610595703125,0.066070556640625,-0.0483551025390625
1772709170267591200,7.178591064453125,-0.9967041015625,0.0676116943359375,-0.04736328125
1772709170277615000,7.188614990234375,-0.994964599609375,0.06524658203125,-0.046234130859375
1772709170287640000,7.19864013671875,-0.9936981201171875,0.0662841796875,-0.0478973388671875
1772709170297665000,7.2086650390625,-0.99468994140625,0.0670318603515625,-0.048065185546875
1772709170307690200,7.218690185546875,-0.9927520751953125,0.06640625,-0.046661376953125
1772709170317715200,7.228715087890625,-0.9909210205078125,0.064605712890625,-0.0459442138671875
1772709170327740200,7.238740234375,-0.99383544921875,0.065948486328125,-0.048126220703125
1772709170337765000,7.24876513671875,-0.9958953857421875,0.06585693359375,-0.048065185546875
1772709170347790300,7.258790283203125,-0.9952239990234375,0.065826416015625,-0.047760009765625
1772709170357815300,7.268815185546875,-0.9952545166015625,0.0677642822265625,-0.0501556396484375
1772709170367840300,7.27884033203125,-0.990966796875,0.06756591796875,-0.0482025146484375
1772709170377865000,7.288864990234375,-0.992645263671875,0.0662384033203125,-0.0495452880859375
1772709170387890200,7.29889013671875,-0.994903564453125,0.0645599365234375,-0.0476226806640625
1772709170397915100,7.3089150390625,-0.996002197265625,0.0640869140625,-0.046234130859375
1772709170407940000,7.318940185546875,-0.994842529296875,0.0634002685546875,-0.045745849609375
1772709170417965000,7.328965087890625,-0.9913177490234375,0.06536865234375,-0.0478668212890625
1772709170427989200,7.3389892578125,-0.995147705078125,0.0675048828125,-0.050079345703125
1772709170438014200,7.34901416015625,-0.996063232421875,0.064788818359375,-0.047760009765625
1772709170448039200,7.3590390625,-0.9935455322265625,0.063568115234375,-0.0456390380859375
1772709170458064100,7.369064208984375,-0.9943695068359375,0.0639801025390625,-0.0457000732421875
1772709170468089000,7.379089111328125,-0.9942474365234375,0.0642242431640625,-0.0497283935546875
1772709170478114000,7.389114013671875,-0.9947357177734375,0.0663604736328125,-0.0489349365234375
1772709170488139300,7.39913916015625,-0.993377685546875,0.0648193359375,-0.04791259765625
1772709170498164200,7.409164306640625,-0.9941253662109375,0.063079833984375,-0.0480804443359375
1772709170508189200,7.419189208984375,-0.993682861328125,0.0641326904296875,-0.0475006103515625
1772709170518214100,7.429214111328125,-0.9938812255859375,0.067169189453125,-0.047027587890625
1772709170528239400,7.4392392578125,-0.9940338134765625,0.0661163330078125,-0.0466766357421875
1772709170538264300,7.449264404296875,-0.9937744140625,0.0671234130859375,-0.04547119140625
1772709170548289300,7.459289306640625,-0.99188232421875,0.0655670166015625,-0.044403076171875
1772709170558314000,7.46931396484375,-0.994964599609375,0.0650177001953125,-0.0459747314453125
1772709170568339200,7.479339111328125,-0.995513916015625,0.06573486328125,-0.0470428466796875
1772709170578364200,7.4893642578125,-0.9956512451171875,0.06378173828125,-0.0462493896484375
1772709170588388000,7.49938818359375,-0.9946746826171875,0.0641632080078125,-0.0487060546875
1772709170598413300,7.509413330078125,-0.9935150146484375,0.06475830078125,-0.047515869140625
1772709170608438300,7.519438232421875,-0.995361328125,0.0636138916015625,-0.0479736328125
1772709170618463200,7.529463134765625,-0.994537353515625,0.065887451171875,-0.0475311279296875
1772709170628488200,7.53948828125,-0.9972686767578125,0.0667724609375,-0.049102783203125
1772709170638513200,7.54951318359375,-0.9962310791015625,0.0649566650390625,-0.0485382080078125
1772709170648538000,7.5595380859375,-0.9958343505859375,0.065216064453125,-0.047393798828125
1772709170658563000,7.56956298828125,-0.9921417236328125,0.06536865234375,-0.0460968017578125
1772709170668588300,7.57958837890625,-0.9915008544921875,0.064605712890625,-0.0468902587890625
1772709170678613200,7.58961328125,-0.9937286376953125,0.0645599365234375,-0.0475921630859375
1772709170688638200,7.59963818359375,-0.9948272705078125,0.0637664794921875,-0.0470123291015625
1772709170698663200,7.6096630859375,-0.995849609375,0.0653533935546875,-0.04583740234375
1772709170708688400,7.6196884765625,-0.9945068359375,0.066375732421875,-0.0468597412109375
1772709170718713300,7.62971337890625,-0.9928741455078125,0.065338134765625,-0.0483245849609375
1772709170728738000,7.639738037109375,-0.993499755859375,0.066497802734375,-0.047271728515625
1772709170738762200,7.64976220703125,-0.994873046875,0.0639495849609375,-0.0464019775390625
1772709170748787200,7.659787109375,-0.9944610595703125,0.0637664794921875,-0.0472869873046875
1772709170758812200,7.669812255859375,-0.995269775390625,0.0633544921875,-0.049072265625
1772709170768837000,7.679837158203125,-0.9947662353515625,0.0645294189453125,-0.048583984375
1772709170778862300,7.6898623046875,-0.99395751953125,0.0652313232421875,-0.0476837158203125
1772709170788887300,7.69988720703125,-0.9947052001953125,0.064666748046875,-0.0474090576171875
1772709170798912300,7.709912353515625,-0.993133544921875,0.0637969970703125,-0.04681396484375
1772709170808937000,7.71993701171875,-0.99261474609375,0.0654754638671875,-0.0476226806640625
1772709170818962200,7.729962158203125,-0.995635986328125,0.0661773681640625,-0.049407958984375
1772709170828987100,7.739987060546875,-0.9973602294921875,0.0652313232421875,-0.04974365234375
1772709170839012000,7.75001220703125,-0.995269775390625,0.0637054443359375,-0.0460052490234375
1772709170849037000,7.760037109375,-0.9931640625,0.06402587890625,-0.0457763671875
1772709170859062300,7.770062255859375,-0.9935150146484375,0.0644683837890625,-0.048492431640625
1772709170869087200,7.780087158203125,-0.994415283203125,0.0663604736328125,-0.0478668212890625
1772709170879111200,7.790111083984375,-0.9944000244140625,0.0670013427734375,-0.0465240478515625
1772709170889136000,7.80013623046875,-0.996002197265625,0.0655975341796875,-0.046905517578125
1772709170899161000,7.8101611328125,-0.99322509765625,0.0650177001953125,-0.0484161376953125
1772709170909186000,7.82018603515625,-0.9946136474609375,0.063995361328125,-0.0472869873046875
1772709170919211300,7.830211181640625,-0.993377685546875,0.0641021728515625,-0.0474090576171875
1772709170929236200,7.840236328125,-0.995086669921875,0.06427001953125,-0.04791259765625
1772709170939261200,7.85026123046875,-0.993194580078125,0.065155029296875,-0.0476226806640625
1772709170949286100,7.8602861328125,-0.99322509765625,0.06732177734375,-0.0484466552734375
1772709170959311400,7.870311279296875,-0.9943389892578125,0.0663909912109375,-0.0482940673828125
1772709170969336300,7.88033642578125,-0.994537353515625,0.0629425048828125,-0.046295166015625
1772709170979361300,7.890361328125,-0.9955902099609375,0.0644989013671875,-0.0458984375
1772709170989386000,7.900385986328125,-0.9948272705078125,0.0647125244140625,-0.04766845703125
1772709170999411200,7.9104111328125,-0.994476318359375,0.0650177001953125,-0.04937744140625
1772709171009436200,7.920436279296875,-0.992584228515625,0.0631866455078125,-0.04705810546875
1772709171019460000,7.930460205078125,-0.9940032958984375,0.0641937255859375,-0.0482025146484375
1772709171029485300,7.9404853515625,-0.9968109130859375,0.0643463134765625,-0.049346923828125
1772709171039510300,7.95051025390625,-0.996795654296875,0.066131591796875,-0.0495758056640625
1772709171049535200,7.96053515625,-0.992828369140625,0.0657806396484375,-0.0474853515625
1772709171059560200,7.970560302734375,-0.9903106689453125,0.0639190673828125,-0.047027587890625
1772709171069585200,7.980585205078125,-0.989471435546875,0.0621795654296875,-0.0459136962890625
1772709171079609000,7.990609130859375,-0.99261474609375,0.06512451171875,-0.045989990234375
1772709171089634000,8.000634033203125,-0.995849609375,0.0655517578125,-0.0474395751953125
1772709171099659000,8.010658935546875,-0.9988555908203125,0.0659637451171875,-0.047454833984375
1772709171109684000,8.02068408203125,-0.99542236328125,0.06298828125,-0.046234130859375
1772709171119709000,8.030708984375,-0.99169921875,0.0620269775390625,-0.047515869140625
1772709171129734100,8.040734130859375,-0.99310302734375,0.0649261474609375,-0.04766845703125
1772709171139759000,8.050759033203125,-0.9975433349609375,0.0688323974609375,-0.0496826171875
1772709171149784000,8.0607841796875,-0.9752197265625,0.08624267578125,-0.0525054931640625
1772709171159808300,8.070808349609376,-0.973968505859375,0.0583648681640625,-0.0483856201171875
1772709171169833000,8.0808330078125,-1.028533935546875,0.0204010009765625,-0.04998779296875
1772709171179858000,8.09085791015625,-1.0261077880859375,0.072998046875,-0.0423736572265625
1772709171189883000,8.1008828125,-0.993896484375,0.088409423828125,-0.0522613525390625
1772709171199908000,8.110908203125,-0.9792327880859375,0.0500640869140625,-0.0469970703125
1772709171209933000,8.12093310546875,-0.9692230224609375,0.048828125,-0.0402679443359375
1772709171219958000,8.1309580078125,-0.9885101318359375,0.0636444091796875,-0.0446624755859375
1772709171229983000,8.14098291015625,-1.01055908203125,0.065948486328125,-0.0461273193359375
1772709171240008200,8.15100830078125,-0.9954681396484375,0.070037841796875,-0.04620361328125
1772709171250033200,8.161033203125,-0.989410400390625,0.064697265625,-0.0448150634765625
1772709171260058000,8.17105810546875,-0.9967803955078125,0.059051513671875,-0.052093505859375
