time,seconds_elapsed,z,y,x
1772728885587336400,0.09033642578125,0,0,0
1772728885606372600,0.10937255859375,-0.29619693756103516,-0.12320137023925781,0.06027626991271973
1772728885615890700,0.118890625,-0.5182876586914062,-0.17253756523132324,0.12374222278594971
1772728885625408800,0.12840869140625,-0.687535285949707,-0.1745002269744873,0.15771734714508057
1772728885634926800,0.1379267578125,-0.8700962066650391,-0.14645004272460938,0.15359818935394287
1772728885644445200,0.147445068359375,-1.0236778259277344,-0.13347077369689941,0.11431443691253662
1772728885653963000,0.156962890625,-1.2163190841674805,-0.11400771141052246,0.08445966243743896
1772728885663481300,0.1664814453125,-1.3895912170410156,-0.03729724884033203,0.019011497497558594
1772728885672999400,0.17599951171875,-1.4988670349121094,0.033228158950805664,-0.0756838321685791
1772728885682517500,0.185517578125,-1.6190195083618164,0.04367518424987793,-0.1139988899230957
1772728885692035600,0.19503564453125,-1.6789445877075195,0.09831452369689941,-0.2036454677581787
1772728885701553700,0.2045537109375,-1.638392448425293,0.1833350658416748,-0.23330402374267578
1772728885711071700,0.21407177734375,-1.4740734100341797,0.2721831798553467,-0.2837895154953003
1772728885720589800,0.22358984375,-1.2878413200378418,0.25688672065734863,-0.3460458517074585
1772728885730108000,0.23310791015625,-1.0160436630249023,0.2627713680267334,-0.3714662790298462
1772728885739626000,0.2426259765625,-0.6992082595825195,0.22293710708618164,-0.3780529499053955
1772728885749144000,0.25214404296875,-0.29366302490234375,0.17236542701721191,-0.3338587284088135
1772728885758662100,0.261662109375,0.2290506362915039,0.12038826942443848,-0.2907578945159912
1772728885768180200,0.27118017578125,0.7916698455810547,0.07750868797302246,-0.2302628755569458
1772728885777698300,0.2806982421875,1.2833900451660156,-0.011706113815307617,-0.15457284450531006
1772728885787216600,0.290216552734375,1.6223773956298828,-0.06717228889465332,-0.054087281227111816
1772728885796734500,0.299734375,1.7340402603149414,-0.08913016319274902,0.07407593727111816
1772728885806252800,0.309252685546875,1.6421175003051758,-0.12493610382080078,0.2264106273651123
1772728885815771000,0.31877099609375,1.368600845336914,-0.14157366752624512,0.39928650856018066
1772728885825289000,0.3282890625,0.9159040451049805,-0.08951449394226074,0.5626169443130493
1772728885834807000,0.33780712890625,0.4255800247192383,0.003421306610107422,0.6594239473342896
1772728885844325000,0.3473251953125,-0.10489559173583984,0.10182523727416992,0.747814416885376
1772728885853843200,0.35684326171875,-0.523808479309082,0.2068777084350586,0.828862726688385
1772728885863361300,0.366361328125,-0.9033641815185547,0.2783184051513672,0.8662787675857544
1772728885872879400,0.37587939453125,-1.0998296737670898,0.3294849395751953,0.84586101770401
1772728885882397400,0.3853974609375,-1.2471189498901367,0.3969297409057617,0.8646373748779297
1772728885891915500,0.39491552734375,-1.3754186630249023,0.3702201843261719,0.9301738142967224
1772728885901433600,0.40443359375,-1.4073781967163086,0.38794565200805664,0.9417133331298828
1772728885910951700,0.41395166015625,-1.4138984680175781,0.4104430675506592,0.9040673971176147
1772728885920469800,0.4234697265625,-1.2770500183105469,0.46042823791503906,0.870976448059082
1772728885929987800,0.43298779296875,-1.0399818420410156,0.5250649452209473,0.7785983085632324
1772728885939506000,0.442505859375,-0.8115072250366211,0.5428557395935059,0.7792479991912842
1772728885949024300,0.452024169921875,-0.6140031814575195,0.5849254131317139,0.7930668592453003
1772728885958542000,0.4615419921875,-0.4159870147705078,0.5871431827545166,0.7886491417884827
1772728885968060400,0.471060302734375,-0.2685127258300781,0.5801167488098145,0.7581238150596619
1772728885977578500,0.48057861328125,-0.10441780090332031,0.5862655639648438,0.6967790722846985
1772728885987096600,0.4900966796875,0.06075572967529297,0.5779645442962646,0.7004706859588623
1772728885996614700,0.49961474609375,0.17646026611328125,0.6149463653564453,0.7381919622421265
1772728886006132700,0.5091328125,0.2044076919555664,0.6001396179199219,0.7611747980117798
1772728886015650800,0.51865087890625,0.24050617218017578,0.6186635494232178,0.7429614663124084
1772728886025169000,0.5281689453125,0.32225513458251953,0.7070126533508301,0.7268414497375488
1772728886034687000,0.53768701171875,0.5123615264892578,0.7504441738128662,0.6351644992828369
1772728886044205000,0.547205078125,0.7202930450439453,0.7341210842132568,0.5810753107070923
1772728886053723100,0.55672314453125,0.9108676910400391,0.74440598487854,0.5447304248809814
1772728886063241200,0.5662412109375,1.0210542678833008,0.7354135513305664,0.5088547468185425
1772728886072759300,0.57575927734375,1.0262269973754883,0.750359296798706,0.45587432384490967
1772728886082277400,0.58527734375,0.892970085144043,0.8048334121704102,0.5300475358963013
1772728886091795700,0.594795654296875,0.6932868957519531,0.8422269821166992,0.7773199081420898
1772728886101313500,0.6043134765625,0.443450927734375,0.8681831359863281,0.9482945203781128
1772728886110831900,0.613831787109375,0.25307369232177734,0.9421160221099854,0.9676992297172546
1772728886120350000,0.623349853515625,0.1392507553100586,1.0432040691375732,0.8853166103363037
1772728886129867800,0.63286767578125,0.14766693115234375,1.0722391605377197,0.8302805423736572
1772728886139386000,0.64238623046875,0.27705860137939453,1.0717394351959229,0.7498404383659363
1772728886148904200,0.651904296875,0.5597953796386719,1.0163226127624512,0.5988569259643555
1772728886158422300,0.66142236328125,0.9315195083618164,0.9745702743530273,0.41934239864349365
1772728886167940400,0.6709404296875,1.1806669235229492,1.0166149139404297,0.20361030101776123
1772728886177458400,0.68045849609375,1.2350797653198242,1.1286497116088867,-0.09127771854400635
1772728886186976500,0.6899765625,1.2935571670532227,1.185821533203125,-0.43214523792266846
1772728886196494600,0.69949462890625,1.071080207824707,1.215688705444336,-0.635680079460144
1772728886206012700,0.7090126953125,0.8801498413085938,1.3146190643310547,-0.6106687784194946
1772728886215530800,0.71853076171875,0.6880960464477539,1.3231854438781738,-0.4305596351623535
1772728886225048800,0.728048828125,0.48754405975341797,1.2121496200561523,-0.1259291172027588
1772728886234567000,0.73756689453125,0.42818164825439453,1.0399842262268066,0.09252846240997314
1772728886244085000,0.7470849609375,0.5319356918334961,0.823206901550293,0.33088183403015137
1772728886253603300,0.756603271484375,0.733281135559082,0.5726809501647949,0.6076793670654297
1772728886263121200,0.76612109375,0.9782314300537109,0.3451113700866699,0.8368033170700073
1772728886272639200,0.77563916015625,1.3063993453979492,0.1580514907836914,0.8092082738876343
1772728886282157600,0.785157470703125,1.723494529724121,0.06234264373779297,0.5205789804458618
1772728886291675400,0.79467529296875,2.02260684967041,-0.021434783935546875,0.17409062385559082
1772728886301193700,0.80419384765625,2.257082939147949,-0.08224868774414062,-0.1476902961730957
1772728886310711800,0.8137119140625,2.4115867614746094,-0.19201374053955078,-0.3417665958404541
1772728886320230000,0.82322998046875,2.445387840270996,-0.40171194076538086,-0.3711237907409668
1772728886329748000,0.832748046875,2.4180097579956055,-0.5781199932098389,-0.37955665588378906
1772728886339266000,0.84226611328125,2.242445945739746,-0.7835507392883301,-0.34638333320617676
1772728886348784000,0.8517841796875,2.0278892517089844,-0.960012674331665,-0.20323967933654785
1772728886358302200,0.86130224609375,1.706303596496582,-1.1125595569610596,0.01861560344696045
1772728886367820300,0.8708203125,1.1905708312988281,-1.2345480918884277,0.27212345600128174
1772728886377338400,0.88033837890625,0.5521211624145508,-1.2753729820251465,0.43917250633239746
1772728886386856400,0.8898564453125,-0.07255268096923828,-1.237011194229126,0.5125601291656494
1772728886396374500,0.89937451171875,-0.6192474365234375,-1.2378764152526855,0.5489328503608704
1772728886405892600,0.908892578125,-1.1097240447998047,-1.271894931793213,0.5879311561584473
1772728886415410700,0.91841064453125,-1.4186420440673828,-1.276845932006836,0.6375526189804077
1772728886424928800,0.9279287109375,-1.544656753540039,-1.2367632389068604,0.6211382150650024
1772728886434446800,0.93744677734375,-1.4998245239257812,-1.17974853515625,0.6052924990653992
1772728886443965200,0.946965087890625,-1.4091534614562988,-1.1437678337097168,0.5970656871795654
1772728886453483000,0.95648291015625,-1.256516456604004,-1.1359448432922363,0.5528851747512817
1772728886463001300,0.96600146484375,-1.0584659576416016,-1.0926942825317383,0.5321925282478333
1772728886472519400,0.97551953125,-0.8141565322875977,-1.0753021240234375,0.5636788010597229
1772728886482037500,0.98503759765625,-0.5631036758422852,-1.0735769271850586,0.6030645966529846
1772728886491555600,0.9945556640625,-0.2685708999633789,-1.0823421478271484,0.5829526782035828
1772728886501073700,1.00407373046875,0.06081962585449219,-1.0586433410644531,0.4794538617134094
1772728886510591700,1.013591796875,0.36007118225097656,-1.0343689918518066,0.37480878829956055
1772728886520109800,1.02310986328125,0.6856861114501953,-0.8856933116912842,0.21675711870193481
1772728886529628000,1.0326279296875,0.8728618621826172,-0.7711925506591797,0.0026561617851257324
1772728886539146000,1.04214599609375,0.9309902191162109,-0.6742763519287109,-0.1565057635307312
1772728886548664000,1.0516640625,0.7927465438842773,-0.5931549072265625,-0.2467706799507141
1772728886558182100,1.06118212890625,0.44780445098876953,-0.5196795463562012,-0.32767969369888306
1772728886567700200,1.0707001953125,-0.05556011199951172,-0.5031991004943848,-0.37630540132522583
1772728886577218300,1.08021826171875,-0.5135173797607422,-0.4709458351135254,-0.4006931185722351
1772728886586736400,1.089736328125,-0.9330158233642578,-0.3837282657623291,-0.4146175980567932
1772728886596254500,1.09925439453125,-1.3159246444702148,-0.2744936943054199,-0.4223164916038513
1772728886605772800,1.108772705078125,-1.6354827880859375,-0.19301319122314453,-0.321843683719635
1772728886615290600,1.11829052734375,-1.886338233947754,-0.16967010498046875,-0.14776766300201416
1772728886624809000,1.12780908203125,-2.06119441986084,-0.14877986907958984,-0.04719799757003784
1772728886634327000,1.1373271484375,-2.0979061126708984,-0.1520242691040039,0.027107536792755127
1772728886643844900,1.146844970703125,-1.9485158920288086,-0.05056905746459961,0.05823659896850586
1772728886653363200,1.15636328125,-1.6549625396728516,0.05444908142089844,-0.025546789169311523
1772728886662881300,1.16588134765625,-1.3222417831420898,0.1142110824584961,-0.12313145399093628
1772728886672399400,1.1753994140625,-0.9828214645385742,0.16515064239501953,-0.21596533060073853
1772728886681917400,1.18491748046875,-0.6213302612304688,0.23620367050170898,-0.22325557470321655
1772728886691435500,1.194435546875,-0.25790882110595703,0.3297877311706543,-0.20109987258911133
1772728886700953600,1.20395361328125,0.06134319305419922,0.37475013732910156,-0.2071995735168457
1772728886710471700,1.2134716796875,0.4689159393310547,0.42319154739379883,-0.15175729990005493
1772728886719989800,1.22298974609375,0.8705902099609375,0.4579324722290039,-0.12255859375
1772728886729507800,1.2325078125,1.134927749633789,0.4262242317199707,-0.09509867429733276
1772728886739026000,1.24202587890625,1.328765869140625,0.5078685283660889,-0.11738073825836182
1772728886748544000,1.2515439453125,1.3395328521728516,0.5340876579284668,-0.10204875469207764
1772728886758062000,1.26106201171875,1.2731657028198242,0.6024324893951416,-0.0820721983909607
1772728886767580200,1.270580078125,1.0657978057861328,0.6851673126220703,-0.09133094549179077
1772728886777098200,1.28009814453125,0.7842159271240234,0.7509675025939941,-0.08801871538162231
1772728886786616300,1.2896162109375,0.49916648864746094,0.7928361892700195,-0.0227433443069458
1772728886796134400,1.299134521484375,0.20983314514160156,0.8412933349609375,-0.03932070732116699
1772728886805652500,1.308652587890625,-0.0990152359008789,0.9174079895019531,-0.06714868545532227
1772728886815170800,1.3181708984375,-0.3166923522949219,0.9802861213684082,-0.09840476512908936
1772728886824688600,1.327688720703125,-0.38542938232421875,1.0338988304138184,-0.1401371955871582
1772728886834207000,1.33720703125,-0.3572988510131836,1.0801939964294434,-0.18691569566726685
1772728886843725000,1.34672509765625,-0.3365058898925781,1.0458178520202637,-0.2133622169494629
1772728886853243100,1.3562431640625,-0.2884197235107422,1.0234498977661133,-0.20380020141601562
1772728886862761200,1.36576123046875,-0.17339706420898438,0.9494180679321289,-0.1459183692932129
1772728886872279300,1.375279296875,0.007908821105957031,0.8285355567932129,-0.054114460945129395
1772728886881797400,1.38479736328125,0.2647237777709961,0.7102475166320801,0.05835676193237305
1772728886891315500,1.3943154296875,0.5187826156616211,0.6524348258972168,0.17186033725738525
1772728886900833500,1.40383349609375,0.6736259460449219,0.6674542427062988,0.2593649625778198
1772728886910351600,1.4133515625,0.7548608779907227,0.6676445007324219,0.34518498182296753
1772728886919869700,1.42286962890625,0.8331813812255859,0.6676793098449707,0.4363284111022949
1772728886929387800,1.4323876953125,0.8788547515869141,0.6894497871398926,0.5562092065811157
1772728886938905900,1.44190576171875,0.8906717300415039,0.6982054710388184,0.629063069820404
1772728886948424000,1.451423828125,0.8048801422119141,0.7390527725219727,0.6492922306060791
1772728886957942000,1.46094189453125,0.7143888473510742,0.7294368743896484,0.5624346137046814
1772728886967460000,1.470460205078125,0.6969175338745117,0.7802443504333496,0.4035648703575134
1772728886976978400,1.479978515625,0.6966304779052734,0.830589771270752,0.15360766649246216
1772728886986496300,1.489496337890625,0.7816143035888672,0.707733154296875,-0.04523998498916626
1772728886996014300,1.499014404296875,0.9843034744262695,0.510505199432373,-0.12583696842193604
1772728887005532700,1.50853271484375,1.2087469100952148,0.23959112167358398,-0.17226922512054443
1772728887015050500,1.518050537109375,1.4214916229248047,-0.03795671463012695,-0.23257899284362793
1772728887024568800,1.52756884765625,1.5681133270263672,-0.24872708320617676,-0.2804563045501709
1772728887034087000,1.5370869140625,1.6852312088012695,-0.4939236640930176,-0.2985575199127197
1772728887043605000,1.54660498046875,1.7597017288208008,-0.6968927383422852,-0.24443471431732178
1772728887053123000,1.556123046875,1.9048852920532227,-0.8992562294006348,-0.17488110065460205
1772728887062641200,1.56564111328125,1.8384857177734375,-1.0965170860290527,-0.14117562770843506
1772728887072159200,1.5751591796875,1.498570442199707,-1.204911708831787,-0.0853574275970459
1772728887081677300,1.58467724609375,0.9251852035522461,-1.2416272163391113,-0.04570204019546509
1772728887091195400,1.5941953125,0.2501974105834961,-1.2702012062072754,0.00020712614059448242
1772728887100713500,1.60371337890625,-0.3388490676879883,-1.2647533416748047,0.03355848789215088
1772728887110231600,1.6132314453125,-0.9463729858398438,-1.221632480621338,-0.0010582208633422852
1772728887119749600,1.62274951171875,-1.5404434204101562,-1.1088695526123047,0.10181999206542969
1772728887129267700,1.632267822265625,-2.0038299560546875,-1.0374970436096191,0.23873835802078247
1772728887138785800,1.641785888671875,-2.2362260818481445,-1.0119104385375977,0.2946694493293762
1772728887148304000,1.651303955078125,-2.2446751594543457,-1.0346837043762207,0.3167846202850342
1772728887157822000,1.660822021484375,-2.0287303924560547,-1.0144119262695312,0.27766114473342896
1772728887167340000,1.670340087890625,-1.7090539932250977,-1.0011439323425293,0.21285474300384521
1772728887176858000,1.679858154296875,-1.3504319190979004,-0.9622948169708252,0.062228262424468994
1772728887186376400,1.68937646484375,-0.9359493255615234,-0.9613795280456543,-0.026624560356140137
1772728887195894300,1.698894287109375,-0.5272378921508789,-0.9543402194976807,-0.07946205139160156
1772728887205412400,1.708412353515625,-0.18566226959228516,-0.9352574348449707,-0.05759549140930176
1772728887214930700,1.7179306640625,0.12291717529296875,-0.9152431488037109,-0.037998318672180176
1772728887224448500,1.727448486328125,0.3537912368774414,-0.847714900970459,0.02760791778564453
1772728887233966800,1.736966796875,0.5361394882202148,-0.7977914810180664,0.11639785766601562
1772728887243485000,1.74648486328125,0.6229791641235352,-0.7279906272888184,0.23482775688171387
1772728887253003000,1.7560029296875,0.6839303970336914,-0.5982303619384766,0.4031381607055664
1772728887262521000,1.76552099609375,0.6790132522583008,-0.4709939956665039,0.5787295699119568
1772728887272039200,1.7750390625,0.49252986907958984,-0.34204769134521484,0.7958592772483826
1772728887281557200,1.78455712890625,0.21430492401123047,-0.2857398986816406,0.9743044376373291
1772728887291075300,1.794075439453125,-0.03305339813232422,-0.24990463256835938,1.1799969673156738
1772728887300593400,1.803593505859375,-0.23736858367919922,-0.1799449920654297,1.4543224573135376
1772728887310111500,1.813111572265625,-0.47012805938720703,-0.12360739707946777,1.5755202770233154
1772728887319629600,1.822629638671875,-0.6478986740112305,-0.1115410327911377,1.5918784141540527
1772728887329147600,1.832147705078125,-0.7353696823120117,-0.13136696815490723,1.5867817401885986
1772728887338665700,1.841665771484375,-0.8379993438720703,-0.10642051696777344,1.541572093963623
1772728887348183800,1.851183837890625,-0.8749771118164062,-0.06038498878479004,1.4218744039535522
1772728887357702000,1.860701904296875,-0.8706216812133789,-0.026529788970947266,1.296997308731079
1772728887367220000,1.870219970703125,-0.7872610092163086,-0.00005435943603515625,1.1098852157592773
1772728887376738000,1.879738037109375,-0.6300859451293945,0.04251599311828613,0.8560066819190979
1772728887386256100,1.889256103515625,-0.4641075134277344,0.13231730461120605,0.5673207640647888
1772728887395774200,1.898774169921875,-0.3395881652832031,0.28354549407958984,0.3219170868396759
1772728887405292300,1.908292236328125,-0.26369190216064453,0.4583399295806885,0.11168652772903442
1772728887414810600,1.917810546875,-0.30062389373779297,0.5549166202545166,-0.09557431936264038
1772728887424328400,1.927328369140625,-0.3309059143066406,0.7243471145629883,-0.29971206188201904
1772728887433846500,1.936846435546875,-0.3114814758300781,0.8801803588867188,-0.434990793466568
1772728887443364900,1.94636474609375,-0.18979358673095703,0.9569814205169678,-0.5649832487106323
1772728887452882700,1.955882568359375,0.003047943115234375,0.9398133754730225,-0.6697192788124084
1772728887462401000,1.965401123046875,0.15278339385986328,0.816199779510498,-0.6931801438331604
1772728887471919000,1.974919189453125,0.2719144821166992,0.7189812660217285,-0.605210542678833
1772728887481437200,1.984437255859375,0.3227720260620117,0.6521692276000977,-0.5293723344802856
1772728887490955300,1.993955322265625,0.3296775817871094,0.5961852073669434,-0.4931553900241852
1772728887500473300,2.003473388671875,0.26905059814453125,0.582014799118042,-0.48744770884513855
1772728887509991400,2.012991455078125,0.18401718139648438,0.6096858978271484,-0.4962422549724579
1772728887519509500,2.022509521484375,0.09120845794677734,0.7079660892486572,-0.5161756277084351
1772728887529027600,2.032027587890625,0.08829212188720703,0.7931060791015625,-0.5300882458686829
1772728887538545700,2.041545654296875,0.1820220947265625,0.8863136768341064,-0.6324809789657593
1772728887548063700,2.051063720703125,0.22440814971923828,0.9728784561157227,-0.7573347091674805
1772728887557581800,2.060581787109375,0.24169635772705078,1.1175591945648193,-0.8536137342453003
1772728887567100000,2.070099853515625,0.22153186798095703,1.283473014831543,-0.9195519089698792
1772728887576618000,2.079617919921875,0.1704692840576172,1.3916747570037842,-0.9348978996276855
1772728887586136000,2.089135986328125,0.1259307861328125,1.4494760036468506,-1.0165624618530273
1772728887595654100,2.098654052734375,0.1730518341064453,1.444364309310913,-1.1647802591323853
1772728887605172200,2.108172119140625,0.3208293914794922,1.3935275077819824,-1.2911961078643799
1772728887614690300,2.117690185546875,0.5715436935424805,1.239042043685913,-1.3393175601959229
1772728887624208400,2.12720849609375,0.9352302551269531,1.0836668014526367,-1.3429780006408691
1772728887633726500,2.1367265625,1.2625350952148438,0.9767048358917236,-1.314130425453186
1772728887643244500,2.14624462890625,1.4717378616333008,0.8975694179534912,-1.2471095323562622
1772728887652762600,2.1557626953125,1.6096887588500977,0.905332088470459,-1.1695464849472046
1772728887662280700,2.16528076171875,1.6365737915039062,0.843853235244751,-1.1003772020339966
1772728887671799000,2.174799072265625,1.5142383575439453,0.7220103740692139,-0.9582670331001282
1772728887681316900,2.18431689453125,1.3496580123901367,0.6806068420410156,-0.8871334791183472
1772728887690835200,2.193835205078125,1.2470426559448242,0.6999170780181885,-0.8751137256622314
1772728887700353300,2.203353271484375,1.1673078536987305,0.7146646976470947,-0.8777422904968262
1772728887709871000,2.21287109375,1.0617313385009766,0.6630442142486572,-0.9015072584152222
1772728887719389400,2.222389404296875,0.9343194961547852,0.588146448135376,-0.858074963092804
1772728887728907500,2.231907470703125,0.8231334686279297,0.38799476623535156,-0.6992141008377075
1772728887738425600,2.241425537109375,0.8949832916259766,0.15085411071777344,-0.4449000954627991
1772728887747943700,2.250943603515625,0.9723405838012695,-0.08179903030395508,-0.1441466510295868
1772728887757461800,2.260461669921875,1.0668420791625977,-0.3216562271118164,0.10303249955177307
1772728887766979800,2.269979736328125,1.09014892578125,-0.5520484447479248,0.32145264744758606
1772728887776498000,2.279497802734375,1.0977401733398438,-0.7788233757019043,0.5342910289764404
1772728887786016000,2.28901611328125,1.0994682312011719,-1.0239932537078857,0.7232097387313843
1772728887795534000,2.2985341796875,1.0191936492919922,-1.2254447937011719,0.9003282785415649
1772728887805052200,2.30805224609375,0.9484691619873047,-1.3751254081726074,1.0345686674118042
1772728887814570200,2.3175703125,0.9620218276977539,-1.4394876956939697,1.0675615072250366
1772728887824088300,2.32708837890625,0.8459568023681641,-1.5351283550262451,1.1014798879623413
1772728887833606400,2.3366064453125,0.710658073425293,-1.6097681522369385,1.1694083213806152
1772728887843124500,2.34612451171875,0.42513084411621094,-1.7061808109283447,1.2506103515625
1772728887852642600,2.355642578125,0.153778076171875,-1.734705924987793,1.3585069179534912
1772728887862160600,2.36516064453125,-0.1276407241821289,-1.7283592224121094,1.3313339948654175
1772728887871678700,2.3746787109375,-0.31474781036376953,-1.6317095756530762,1.2735600471496582
1772728887881196800,2.38419677734375,-0.3608121871948242,-1.515779972076416,1.1278040409088135
1772728887890715000,2.39371484375,-0.5295047760009766,-1.4096474647521973,0.9485213160514832
1772728887900233200,2.403233154296875,-0.7066583633422852,-1.2473430633544922,0.7842512130737305
1772728887909751000,2.4127509765625,-0.8595809936523438,-1.0610289573669434,0.5298581123352051
1772728887919269400,2.422269287109375,-0.9839420318603516,-0.9049463272094727,0.30496567487716675
1772728887928787500,2.431787353515625,-1.0773496627807617,-0.8195581436157227,0.13731825351715088
1772728887938305300,2.44130517578125,-1.0154695510864258,-0.7721366882324219,0.033169448375701904
1772728887947823600,2.45082373046875,-0.8122940063476562,-0.7357964515686035,0.00028258562088012695
1772728887957341700,2.460341796875,-0.5269031524658203,-0.7247576713562012,-0.024088740348815918
1772728887966859800,2.46985986328125,-0.2825927734375,-0.6769170761108398,-0.09656322002410889
1772728887976377900,2.4793779296875,-0.15203380584716797,-0.6521425247192383,-0.16104942560195923
1772728887985896000,2.48889599609375,-0.021912574768066406,-0.5927648544311523,-0.12297302484512329
1772728887995414000,2.4984140625,-0.0706319808959961,-0.5734207630157471,-0.029404401779174805
1772728888004932000,2.50793212890625,-0.21922874450683594,-0.5499162673950195,0.0829210877418518
1772728888014450200,2.5174501953125,-0.4182710647583008,-0.5366458892822266,0.20467457175254822
1772728888023968300,2.52696826171875,-0.6092510223388672,-0.4783897399902344,0.2568117380142212
1772728888033486300,2.536486328125,-0.7648715972900391,-0.3965001106262207,0.25092512369155884
1772728888043004400,2.54600439453125,-0.9507122039794922,-0.36043548583984375,0.2552981376647949
1772728888052522500,2.5555224609375,-1.0505218505859375,-0.27348899841308594,0.28067564964294434
1772728888062040600,2.56504052734375,-1.0672197341918945,-0.22843027114868164,0.33388689160346985
1772728888071558700,2.57455859375,-1.0270977020263672,-0.17314720153808594,0.39118319749832153
1772728888081076700,2.58407666015625,-0.9727134704589844,-0.1398472785949707,0.47394606471061707
1772728888090594800,2.5935947265625,-0.9346303939819336,-0.13165855407714844,0.511473536491394
1772728888100113000,2.60311279296875,-0.8621864318847656,-0.09450030326843262,0.581935465335846
1772728888109631000,2.612630859375,-0.7596168518066406,-0.06301689147949219,0.6294930577278137
1772728888119149000,2.622149169921875,-0.6359663009643555,0.026000499725341797,0.6622967720031738
1772728888128667100,2.631667236328125,-0.5097322463989258,0.1136326789855957,0.6658732891082764
1772728888138185200,2.641185302734375,-0.35666561126708984,0.17979812622070312,0.6519181728363037
1772728888147703300,2.650703369140625,-0.24095630645751953,0.21915721893310547,0.6324429512023926
1772728888157221400,2.660221435546875,-0.1123342514038086,0.24807286262512207,0.5797152519226074
1772728888166739500,2.669739501953125,-0.05212211608886719,0.2882983684539795,0.5044750571250916
1772728888176257800,2.6792578125,-0.06277656555175781,0.3524799346923828,0.44761377573013306
1772728888185775600,2.688775634765625,-0.11576271057128906,0.38901472091674805,0.48892295360565186
1772728888195294000,2.6982939453125,-0.1993093490600586,0.4179069995880127,0.5407583117485046
1772728888204812000,2.70781201171875,-0.2801551818847656,0.46597981452941895,0.581997275352478
1772728888214329900,2.717329833984375,-0.3203878402709961,0.5695161819458008,0.5821942687034607
1772728888223848200,2.72684814453125,-0.32970142364501953,0.6950364112854004,0.4894695281982422
1772728888233366000,2.736365966796875,-0.26259613037109375,0.7774384021759033,0.39270538091659546
1772728888242884400,2.74588427734375,-0.14053916931152344,0.8805468082427979,0.3507869243621826
1772728888252402400,2.75540234375,0.01025390625,0.9583718776702881,0.3220548629760742
1772728888261920500,2.76492041015625,0.13472461700439453,1.0278270244598389,0.28169703483581543
1772728888271438600,2.7744384765625,0.22097301483154297,1.1009624004364014,0.26510709524154663
1772728888280956700,2.783956787109375,0.30722808837890625,1.1682448387145996,0.24763119220733643
1772728888290474800,2.793474853515625,0.3887510299682617,1.1842026710510254,0.25010961294174194
1772728888299992800,2.802992919921875,0.5873785018920898,1.2127838134765625,0.25985264778137207
1772728888309511000,2.812510986328125,0.7502260208129883,1.248666524887085,0.22797223925590515
1772728888319029000,2.822029052734375,0.7656259536743164,1.3008975982666016,0.16033905744552612
1772728888328547000,2.831547119140625,0.7130165100097656,1.3096718788146973,0.18104737997055054
1772728888338065200,2.841065185546875,0.7264480590820312,1.2557446956634521,0.3225490152835846
1772728888347583200,2.850583251953125,0.7747650146484375,1.1796884536743164,0.3695513606071472
1772728888357101300,2.860101318359375,0.7743568420410156,1.1530461311340332,0.2926982641220093
1772728888366619400,2.869619384765625,0.6584548950195312,1.1116256713867188,0.2089424431324005
1772728888376137500,2.879137451171875,0.4988269805908203,1.1037020683288574,0.18094980716705322
1772728888385655600,2.888655517578125,0.3813362121582031,1.0795998573303223,0.15470099449157715
1772728888395173600,2.898173583984375,0.3153800964355469,1.0706191062927246,0.09320938587188721
1772728888404691700,2.907691650390625,0.22457313537597656,1.064753532409668,0.006938457489013672
1772728888414209800,2.917209716796875,0.14234066009521484,1.1241068840026855,-0.11396199464797974
1772728888423727900,2.926727783203125,0.0659799575805664,1.1585063934326172,-0.2910304665565491
1772728888433246000,2.936245849609375,0.09284019470214844,1.1831517219543457,-0.5152824521064758
1772728888442764000,2.945763916015625,0.10500621795654297,1.1517467498779297,-0.6921352744102478
1772728888452282000,2.9552822265625,0.1853322982788086,1.0990514755249023,-0.8395345211029053
1772728888461800200,2.96480029296875,0.33037471771240234,0.9957585334777832,-0.9483172297477722
1772728888471318500,2.974318603515625,0.5343570709228516,0.8437976837158203,-0.9889881014823914
1772728888480836400,2.98383642578125,0.8058223724365234,0.6330280303955078,-1.0164780616760254
1772728888490354700,2.993354736328125,1.1727313995361328,0.30225372314453125,-1.0510544776916504
1772728888499872800,3.002872802734375,1.661067008972168,-0.029334068298339844,-1.0536930561065674
1772728888509390600,3.012390625,2.249770164489746,-0.2712821960449219,-1.0859427452087402
1772728888518908700,3.02190869140625,2.7570581436157227,-0.5774321556091309,-1.1096882820129395
1772728888528426800,3.0314267578125,3.1216726303100586,-0.8730289936065674,-1.0817893743515015
1772728888537945000,3.040945068359375,2.9794235229492188,-1.1580491065979004,-0.9365596175193787
1772728888547463200,3.050463134765625,2.4526443481445312,-1.3894352912902832,-0.6688055992126465
1772728888556981200,3.059981201171875,1.566176414489746,-1.487215280532837,-0.41152268648147583
1772728888566499300,3.069499267578125,0.5564680099487305,-1.427116870880127,-0.2684832811355591
1772728888576017400,3.079017333984375,-0.4200124740600586,-1.3392064571380615,-0.13153010606765747
1772728888585535500,3.088535400390625,-1.1338672637939453,-1.3051118850708008,0.1018872857093811
1772728888595053600,3.098053466796875,-1.5616340637207031,-1.340092658996582,0.2729024291038513
1772728888604571600,3.107571533203125,-1.7754249572753906,-1.3664493560791016,0.2795378565788269
1772728888614089700,3.11708984375,-1.8278083801269531,-1.3384315967559814,0.19362491369247437
1772728888623607800,3.12660791015625,-1.7514324188232422,-1.2809295654296875,0.08456194400787354
1772728888633126000,3.1361259765625,-1.5138626098632812,-1.2508492469787598,0.043099045753479004
1772728888642644000,3.14564404296875,-1.1748676300048828,-1.2016239166259766,0.11708128452301025
1772728888652162000,3.155162109375,-0.8056836128234863,-1.1850414276123047,0.26147985458374023
1772728888661680000,3.16468017578125,-0.4199800491333008,-1.1839783191680908,0.3038303256034851
1772728888671198200,3.1741982421875,-0.13410282135009766,-1.1713943481445312,0.3829631805419922
1772728888680716300,3.18371630859375,0.12943172454833984,-1.070300817489624,0.4195427894592285
1772728888690234400,3.193234375,0.27840232849121094,-1.0396373271942139,0.5097424983978271
1772728888699752400,3.20275244140625,0.3400850296020508,-1.0203993320465088,0.6313264966011047
1772728888709270500,3.2122705078125,0.30110931396484375,-0.9679110050201416,0.8176858425140381
1772728888718788600,3.22178857421875,0.2102336883544922,-0.9093174934387207,0.9188125729560852
1772728888728306700,3.231306640625,0.0038995742797851562,-0.7738885879516602,0.966342568397522
1772728888737824800,3.24082470703125,-0.16928958892822266,-0.6792960166931152,1.0116524696350098
1772728888747342800,3.2503427734375,-0.3472919464111328,-0.5877361297607422,1.0439435243606567
1772728888756861000,3.25986083984375,-0.4580841064453125,-0.3807353973388672,1.0450465679168701
1772728888766379000,3.26937890625,-0.5948581695556641,-0.29970693588256836,1.0010770559310913
1772728888775897000,3.27889697265625,-0.6934747695922852,-0.25067901611328125,0.9569766521453857
1772728888785415200,3.288415283203125,-0.8071804046630859,-0.22037887573242188,0.9052703380584717
1772728888794933200,3.297933349609375,-0.9107637405395508,-0.19954824447631836,0.8117013573646545
1772728888804451300,3.307451416015625,-0.9168219566345215,-0.15327167510986328,0.670366644859314
1772728888813969700,3.3169697265625,-0.9024162292480469,-0.15009021759033203,0.5449042320251465
1772728888823487500,3.326487548828125,-0.8462381362915039,-0.12284994125366211,0.4065936207771301
1772728888833005800,3.336005859375,-0.7912311553955078,-0.08622503280639648,0.2933456301689148
1772728888842523600,3.345523681640625,-0.7083978652954102,-0.040982723236083984,0.20742923021316528
1772728888852041700,3.355041748046875,-0.6117429733276367,0.002483844757080078,0.13191372156143188
1772728888861560000,3.36456005859375,-0.522435188293457,0.10294628143310547,0.08987098932266235
1772728888871078000,3.374077880859375,-0.5046634674072266,0.15944862365722656,0.05910301208496094
1772728888880596200,3.38359619140625,-0.49121665954589844,0.21224308013916016,0.02527707815170288
1772728888890114300,3.3931142578125,-0.45107460021972656,0.27080345153808594,0.10018134117126465
1772728888899632400,3.40263232421875,-0.46375083923339844,0.3005790710449219,0.17759639024734497
1772728888909150500,3.412150390625,-0.5178136825561523,0.3124370574951172,0.18535065650939941
1772728888918668500,3.42166845703125,-0.5227336883544922,0.3356752395629883,0.14537203311920166
1772728888928186600,3.4311865234375,-0.4569692611694336,0.3364553451538086,0.15335595607757568
1772728888937704700,3.44070458984375,-0.3558616638183594,0.35179567337036133,0.1764446496963501
1772728888947222800,3.450222900390625,-0.2902660369873047,0.3560638427734375,0.21008068323135376
1772728888956740900,3.459740966796875,-0.27129459381103516,0.4242687225341797,0.25506508350372314
1772728888966259000,3.469259033203125,-0.31293678283691406,0.5080556869506836,0.2708648443222046
1772728888975777000,3.478777099609375,-0.34340476989746094,0.6667003631591797,0.2684881091117859
1772728888985295000,3.488295166015625,-0.27435302734375,0.7587184906005859,0.25634902715682983
1772728888994813200,3.497813232421875,-0.19466400146484375,0.8228297233581543,0.2281794548034668
1772728889004331300,3.507331298828125,-0.2056255340576172,0.8970766067504883,0.30510175228118896
1772728889013849300,3.516849365234375,-0.36542606353759766,0.9582056999206543,0.3573412299156189
1772728889023367400,3.526367431640625,-0.5170106887817383,1.0684771537780762,0.4166449308395386
1772728889032885500,3.535885498046875,-0.5128202438354492,1.1549992561340332,0.5303088426589966
1772728889042403600,3.545403564453125,-0.3747291564941406,1.2203130722045898,0.5151605606079102
1772728889051921700,3.554921630859375,-0.07132625579833984,1.265380859375,0.42480772733688354
1772728889061439700,3.564439697265625,0.3145160675048828,1.2807579040527344,0.26926273107528687
1772728889070957800,3.573957763671875,0.7383708953857422,1.2661633491516113,0.08341354131698608
1772728889080476000,3.583475830078125,1.0986328125,1.2525267601013184,-0.11635249853134155
1772728889089994000,3.592993896484375,1.418045997619629,1.2444939613342285,-0.3111271858215332
1772728889099512000,3.602511962890625,1.6329107284545898,1.190432071685791,-0.42987990379333496
1772728889109030100,3.612030029296875,1.7221450805664062,1.1714520454406738,-0.5321637392044067
1772728889118548200,3.62154833984375,1.6736335754394531,1.1838898658752441,-0.5895461440086365
1772728889128066300,3.63106640625,1.5534048080444336,1.1896543502807617,-0.5715733766555786
1772728889137584400,3.64058447265625,1.4368162155151367,1.1412487030029297,-0.5242310762405396
1772728889147102500,3.6501025390625,1.3633975982666016,1.0384693145751953,-0.5058612823486328
1772728889156620500,3.65962060546875,1.3274192810058594,0.8831515312194824,-0.4428514838218689
1772728889166138600,3.669138671875,1.3067684173583984,0.7123732566833496,-0.344643771648407
1772728889175656700,3.67865673828125,1.332463264465332,0.5119209289550781,-0.2295270562171936
1772728889185174800,3.6881748046875,1.3831872940063477,0.3433566093444824,-0.0947907567024231
1772728889194693000,3.697693115234375,1.3922233581542969,0.19411849975585938,-0.024715781211853027
1772728889204211000,3.7072109375,1.3881492614746094,-0.019410133361816406,0.003046095371246338
1772728889213729000,3.71672900390625,1.4639816284179688,-0.2374577522277832,0.006673574447631836
1772728889223247400,3.726247314453125,1.593186378479004,-0.49127817153930664,0.027489840984344482
1772728889232765200,3.73576513671875,1.7353734970092773,-0.6934165954589844,0.018890678882598877
1772728889242283500,3.745283447265625,1.8033924102783203,-0.875093936920166,-0.01413947343826294
1772728889251801300,3.75480126953125,1.744175910949707,-1.044194221496582,-0.051007211208343506
1772728889261319700,3.764319580078125,1.476022720336914,-1.2033557891845703,0.034676432609558105
1772728889270837800,3.773837646484375,1.0407133102416992,-1.3367505073547363,0.2757991552352905
1772728889280355600,3.78335546875,0.4981698989868164,-1.4505929946899414,0.4836159348487854
1772728889289874000,3.7928740234375,-0.04238700866699219,-1.4853191375732422,0.6559479832649231
1772728889299392000,3.80239208984375,-0.49418067932128906,-1.5572938919067383,0.7594034671783447
1772728889308910000,3.81191015625,-0.8282051086425781,-1.5725350379943848,0.8396506309509277
1772728889318428200,3.82142822265625,-1.1274986267089844,-1.5903749465942383,0.8597151041030884
1772728889327946200,3.8309462890625,-1.3360090255737305,-1.558523416519165,0.8389401435852051
1772728889337464300,3.84046435546875,-1.4021730422973633,-1.4974026679992676,0.8413922190666199
1772728889346982400,3.849982421875,-1.3002891540527344,-1.4309666156768799,0.7724123001098633
1772728889356500500,3.85950048828125,-1.1045799255371094,-1.3647575378417969,0.6352329254150391
1772728889366018600,3.8690185546875,-0.9030756950378418,-1.3309273719787598,0.5464662313461304
1772728889375536600,3.87853662109375,-0.6975488662719727,-1.3281848430633545,0.48228055238723755
1772728889385054700,3.8880546875,-0.5591087341308594,-1.2975854873657227,0.44577667117118835
1772728889394572800,3.89757275390625,-0.4560394287109375,-1.230311632156372,0.3883276581764221
1772728889404091000,3.9070908203125,-0.3156881332397461,-1.151881217956543,0.27810025215148926
1772728889413609000,3.91660888671875,-0.17308521270751953,-1.0473508834838867,0.18432563543319702
1772728889423127000,3.926126953125,-0.010548591613769531,-0.9619197845458984,0.16803693771362305
1772728889432645000,3.93564501953125,0.07253551483154297,-0.8571133613586426,0.10363739728927612
1772728889442163200,3.9451630859375,0.02436351776123047,-0.7771053314208984,0.026609957218170166
1772728889451681300,3.954681396484375,-0.19805049896240234,-0.6736376285552979,-0.028248965740203857
1772728889461199400,3.964199462890625,-0.5426149368286133,-0.5807619094848633,-0.03673148155212402
1772728889470717400,3.973717529296875,-0.9239711761474609,-0.47466039657592773,-0.04409456253051758
1772728889480235500,3.983235595703125,-1.2259135246276855,-0.3651866912841797,-0.02932584285736084
1772728889489753600,3.992753662109375,-1.451833724975586,-0.29362058639526367,-0.0280606746673584
1772728889499271700,4.002271728515625,-1.5286216735839844,-0.24895429611206055,-0.06922256946563721
1772728889508789800,4.011789794921875,-1.480712890625,-0.18802118301391602,-0.15168017148971558
1772728889518307800,4.021307861328125,-1.3468685150146484,-0.15132951736450195,-0.20590561628341675
1772728889527826000,4.030825927734375,-1.141615867614746,-0.11529874801635742,-0.2503446936607361
1772728889537344000,4.040343994140625,-0.8818960189819336,-0.04191446304321289,-0.23402273654937744
1772728889546862000,4.049862060546875,-0.6247196197509766,0.02236318588256836,-0.19387269020080566
1772728889556380200,4.059380126953125,-0.3885078430175781,0.07629776000976562,-0.13678860664367676
1772728889565898200,4.068898193359375,-0.2179880142211914,0.09499454498291016,-0.04088008403778076
1772728889575416300,4.078416259765625,-0.06958866119384766,0.15157318115234375,0.0553210973739624
1772728889584934400,4.087934326171875,0.009369850158691406,0.2095804214477539,0.11687725782394409
1772728889594452500,4.097452392578125,0.057707786560058594,0.29693603515625,0.18080610036849976
1772728889603970600,4.106970458984375,0.08539390563964844,0.3892197608947754,0.3032693862915039
1772728889613488600,4.116488525390625,0.07340526580810547,0.47228527069091797,0.4710286259651184
1772728889623007000,4.126007080078125,-0.03291511535644531,0.5817279815673828,0.5365456938743591
1772728889632524800,4.13552490234375,-0.0780172348022461,0.6932945251464844,0.5889180898666382
1772728889642043000,4.14504296875,-0.10000324249267578,0.7206354141235352,0.6576856970787048
1772728889651561000,4.15456103515625,-0.07486820220947266,0.7948613166809082,0.7242713570594788
1772728889661079000,4.1640791015625,-0.0909271240234375,0.8534636497497559,0.7599693536758423
1772728889670597400,4.173597412109375,-0.1696615219116211,0.9013776779174805,0.785987913608551
1772728889680115200,4.183115234375,-0.19881725311279297,0.9649953842163086,0.7686694860458374
1772728889689633500,4.192633544921875,-0.20259475708007812,1.0040292739868164,0.6644976735115051
1772728889699151400,4.2021513671875,-0.24596881866455078,1.0361289978027344,0.5945589542388916
1772728889708669400,4.21166943359375,-0.2601003646850586,1.0599727630615234,0.532355785369873
1772728889718187800,4.221187744140625,-0.27426815032958984,1.1079106330871582,0.45179957151412964
1772728889727705600,4.23070556640625,-0.2556266784667969,1.1476631164550781,0.3692552447319031
1772728889737224000,4.240223876953125,-0.19745826721191406,1.1751818656921387,0.2675899863243103
1772728889756260000,4.259260009765625,0.038817405700683594,1.1971592903137207,0.057299256324768066
1772728889765778200,4.268778076171875,0.2288808822631836,1.183588981628418,-0.06468647718429565
1772728889775296000,4.2782958984375,0.43470096588134766,1.1182975769042969,-0.14271670579910278
1772728889784814000,4.28781396484375,0.6426839828491211,1.0691628456115723,-0.16848206520080566
1772728889794332400,4.29733251953125,0.836970329284668,1.0082087516784668,-0.20773619413375854
1772728889803850500,4.3068505859375,1.0138320922851562,0.9190921783447266,-0.23775511980056763
1772728889813368600,4.31636865234375,1.114593505859375,0.8931145668029785,-0.27864712476730347
1772728889822886700,4.32588671875,1.1207771301269531,0.8147821426391602,-0.34150367975234985
1772728889832404700,4.33540478515625,0.9870643615722656,0.7994213104248047,-0.3758009672164917
1772728889841922800,4.3449228515625,0.7486581802368164,0.8419194221496582,-0.44379520416259766
1772728889851441000,4.35444091796875,0.47369861602783203,0.9187712669372559,-0.5820214748382568
1772728889860959000,4.363958984375,0.21816349029541016,0.9396858215332031,-0.7054517865180969
1772728889870477000,4.37347705078125,0.045154571533203125,0.998075008392334,-0.8342917561531067
1772728889879995100,4.3829951171875,0.005828857421875,1.0147318840026855,-0.929634690284729
1772728889889513200,4.39251318359375,0.13719558715820312,0.9386391639709473,-0.9835625886917114
1772728889899031300,4.40203125,0.3237419128417969,0.8089265823364258,-1.0429797172546387
1772728889908549400,4.41154931640625,0.5890645980834961,0.6353268623352051,-1.0061795711517334
1772728889918067500,4.4210673828125,0.8734340667724609,0.4150362014770508,-0.9604997038841248
1772728889927585500,4.43058544921875,1.1653642654418945,0.18282604217529297,-0.9497217535972595
1772728889937103600,4.440103515625,1.4370393753051758,-0.08696746826171875,-0.9863573312759399
1772728889946621700,4.44962158203125,1.6062517166137695,-0.36327195167541504,-0.9333066344261169
1772728889956139800,4.459139892578125,1.7466354370117188,-0.6396946907043457,-0.9263556003570557
1772728889965657900,4.468657958984375,1.860447883605957,-0.903508186340332,-0.9540680646896362
1772728889975176000,4.478176025390625,1.9090566635131836,-1.1678168773651123,-0.9265124797821045
1772728889984694000,4.487694091796875,1.8724384307861328,-1.3231654167175293,-0.8372308611869812
1772728889994212000,4.497212158203125,1.7496042251586914,-1.4105463027954102,-0.7830877304077148
1772728890003730200,4.506730224609375,1.5533199310302734,-1.4864375591278076,-0.8074870705604553
1772728890013248300,4.516248291015625,1.1924257278442383,-1.532808542251587,-0.8237941861152649
1772728890022766300,4.525766357421875,0.7784566879272461,-1.5450429916381836,-0.7364040613174438
1772728890032284400,4.535284423828125,0.36932373046875,-1.5309948921203613,-0.5833223462104797
1772728890041802500,4.544802490234375,-0.13516902923583984,-1.4687941074371338,-0.5130167603492737
1772728890051320600,4.554320556640625,-0.5960159301757812,-1.409050464630127,-0.47290629148483276
1772728890060838700,4.563838623046875,-0.9335646629333496,-1.3609566688537598,-0.3939858675003052
1772728890070356700,4.573356689453125,-1.1062602996826172,-1.3152265548706055,-0.28337204456329346
1772728890079874800,4.582874755859375,-1.1346216201782227,-1.2988495826721191,-0.1728649139404297
1772728890089393000,4.592392822265625,-1.0004549026489258,-1.2682514190673828,-0.17589378356933594
1772728890098911000,4.601910888671875,-0.7901773452758789,-1.1762564182281494,-0.1508805751800537
1772728890108429000,4.611428955078125,-0.48694610595703125,-1.1151535511016846,-0.10271251201629639
1772728890117947100,4.620947021484375,-0.15475845336914062,-1.1014304161071777,0.006154060363769531
1772728890127465200,4.63046533203125,0.11149120330810547,-1.1083157062530518,0.18271315097808838
1772728890136983300,4.6399833984375,0.20734786987304688,-1.1031417846679688,0.3956502079963684
1772728890146501400,4.64950146484375,0.12362957000732422,-1.0468969345092773,0.5852212309837341
1772728890156019500,4.65901953125,-0.09621524810791016,-0.9912476539611816,0.8027514219284058
1772728890165537500,4.66853759765625,-0.3370676040649414,-0.9186677932739258,0.973886251449585
1772728890175055600,4.6780556640625,-0.4857940673828125,-0.8446917533874512,1.0940370559692383
1772728890184573700,4.68757373046875,-0.5748300552368164,-0.745046854019165,1.1415107250213623
1772728890194091800,4.697091796875,-0.6079540252685547,-0.6696081161499023,1.1561659574508667
1772728890203609900,4.70660986328125,-0.6346597671508789,-0.6009097099304199,1.1834509372711182
1772728890213128000,4.7161279296875,-0.6498022079467773,-0.5588793754577637,1.1782183647155762
1772728890222646000,4.72564599609375,-0.7080831527709961,-0.5228667259216309,1.1748237609863281
1772728890232164000,4.7351640625,-0.7471485137939453,-0.3909177780151367,1.0791577100753784
1772728890241682200,4.74468212890625,-0.8076868057250977,-0.3398313522338867,0.9557710289955139
1772728890251200500,4.754200439453125,-0.8615198135375977,-0.30398082733154297,0.8663376569747925
1772728890260718300,4.76371826171875,-0.9023656845092773,-0.25527381896972656,0.7437626123428345
1772728890270236400,4.773236328125,-0.9547443389892578,-0.20194721221923828,0.5857563018798828
1772728890279754500,4.78275439453125,-1.0072884559631348,-0.1524066925048828,0.46821117401123047
1772728890289272600,4.7922724609375,-1.0079283714294434,-0.048511505126953125,0.4263315796852112
1772728890298791000,4.801791015625,-0.9807677268981934,0.023906707763671875,0.3285818099975586
1772728890308308700,4.811308837890625,-0.8876914978027344,0.062419891357421875,0.2365175485610962
1772728890317827000,4.8208271484375,-0.7694854736328125,0.0907740592956543,0.12501561641693115
1772728890327345000,4.830344970703125,-0.690582275390625,0.13489198684692383,-0.0019294023513793945
1772728890336863200,4.83986328125,-0.5935897827148438,0.22072887420654297,-0.08071386814117432
1772728890346381300,4.84938134765625,-0.5164775848388672,0.28067970275878906,-0.15234637260437012
1772728890355899100,4.858899169921875,-0.3968505859375,0.39522790908813477,-0.23150253295898438
1772728890365417500,4.86841748046875,-0.32253170013427734,0.4841480255126953,-0.3276693820953369
1772728890374935300,4.877935302734375,-0.2353534698486328,0.5695924758911133,-0.34316837787628174
1772728890384453600,4.88745361328125,-0.21869182586669922,0.5749006271362305,-0.3658832311630249
1772728890393971700,4.8969716796875,-0.26047801971435547,0.6965174674987793,-0.30109477043151855
1772728890403489800,4.90648974609375,-0.3633842468261719,0.77288818359375,-0.29187655448913574
1772728890413008000,4.9160078125,-0.475250244140625,0.8697376251220703,-0.3068418502807617
1772728890422525700,4.925525634765625,-0.5511054992675781,0.9592242240905762,-0.27207446098327637
1772728890432044000,4.9350439453125,-0.5243978500366211,1.0201749801635742,-0.17144393920898438
1772728890441562000,4.94456201171875,-0.4506254196166992,1.0723457336425781,-0.1083533763885498
1772728890451080200,4.954080078125,-0.3539571762084961,1.1041603088378906,-0.0710456371307373
1772728890460598300,4.963598388671875,-0.2586030960083008,1.1711211204528809,-0.047832608222961426
1772728890470116400,4.973116455078125,-0.13819408416748047,1.2063732147216797,-0.013730049133300781
1772728890479634400,4.982634521484375,0.014767646789550781,1.226130485534668,0.03948080539703369
1772728890489152500,4.992152587890625,0.2747802734375,1.246199607849121,0.07966184616088867
1772728890498670600,5.001670654296875,0.6349096298217773,1.1892452239990234,0.12172043323516846
1772728890508188700,5.011188720703125,1.0691375732421875,1.1615047454833984,0.07153129577636719
1772728890517706800,5.020706787109375,1.4845094680786133,1.0733966827392578,-0.005617737770080566
1772728890527224800,5.030224853515625,1.7881832122802734,1.0076799392700195,-0.14731991291046143
1772728890536743000,5.039742919921875,2.028635025024414,1.0130667686462402,-0.2569112777709961
1772728890546261000,5.049260986328125,2.1848831176757812,0.9737739562988281,-0.3549238443374634
1772728890555779000,5.058779052734375,2.2071046829223633,0.9517245292663574,-0.34427833557128906
1772728890565297200,5.068297119140625,1.9663610458374023,0.9578804969787598,-0.28080928325653076
1772728890574815200,5.077815185546875,1.5126113891601562,1.0115461349487305,-0.17838937044143677
1772728890584333300,5.087333251953125,1.016876220703125,1.0110421180725098,-0.006529629230499268
1772728890593851400,5.096851318359375,0.6640844345092773,0.9859533309936523,0.15262645483016968
1772728890603369500,5.106369384765625,0.4723243713378906,0.9188227653503418,0.21945524215698242
1772728890612887600,5.115887451171875,0.4602489471435547,0.821753978729248,0.26400262117385864
1772728890622405600,5.125405517578125,0.608851432800293,0.681483268737793,0.2521016001701355
1772728890631923700,5.134923828125,0.8518791198730469,0.479095458984375,0.1973423957824707
1772728890641441800,5.14444189453125,1.0587491989135742,0.29860448837280273,0.11609482765197754
1772728890650960000,5.1539599609375,1.2565526962280273,0.07132244110107422,0.014494061470031738
1772728890660478000,5.16347802734375,1.4219427108764648,-0.15607643127441406,-0.0938376784324646
1772728890669996000,5.17299609375,1.457489013671875,-0.3508422374725342,-0.16566908359527588
1772728890679514000,5.18251416015625,1.507023811340332,-0.5257635116577148,-0.14964306354522705
1772728890689032200,5.1920322265625,1.520918846130371,-0.7202215194702148,-0.1086421012878418
1772728890698550300,5.20155029296875,1.354313850402832,-0.937565803527832,0.008597970008850098
1772728890708068400,5.211068359375,1.0221490859985352,-1.1180753707885742,0.21725767850875854
1772728890717586400,5.22058642578125,0.566950798034668,-1.2719335556030273,0.4761812090873718
1772728890727104500,5.2301044921875,0.025663375854492188,-1.4126334190368652,0.6565479040145874
1772728890736622600,5.23962255859375,-0.5555763244628906,-1.4552912712097168,0.778536319732666
1772728890746140700,5.249140625,-1.0925474166870117,-1.4729409217834473,0.8933351635932922
1772728890755658800,5.25865869140625,-1.4771738052368164,-1.4864606857299805,1.011198878288269
1772728890765176800,5.2681767578125,-1.6869182586669922,-1.496556282043457,1.034562587738037
1772728890774695000,5.27769482421875,-1.672067642211914,-1.431898593902588,0.986993670463562
1772728890784213000,5.287212890625,-1.5018467903137207,-1.4134769439697266,0.8520104289054871
1772728890793731000,5.29673095703125,-1.206845760345459,-1.409654140472412,0.7423517107963562
1772728890803249200,5.306249267578125,-0.8939151763916016,-1.4103012084960938,0.7090966105461121
1772728890812767200,5.315767333984375,-0.6603202819824219,-1.3425276279449463,0.6140596866607666
1772728890822285300,5.325285400390625,-0.5195598602294922,-1.2480440139770508,0.5421528220176697
1772728890831803400,5.334803466796875,-0.41146183013916016,-1.1606881618499756,0.4344411790370941
1772728890841321500,5.344321533203125,-0.2710704803466797,-1.1025242805480957,0.30416738986968994
1772728890850839600,5.353839599609375,-0.06689262390136719,-1.0885210037231445,0.19171249866485596
1772728890860357600,5.363357666015625,0.16569042205810547,-1.043043613433838,0.07970690727233887
1772728890869875700,5.372875732421875,0.4491386413574219,-1.006577491760254,-0.07064199447631836
1772728890879393800,5.382393798828125,0.7105684280395508,-0.7957072257995605,-0.22952228784561157
1772728890888912000,5.391911865234375,0.7956104278564453,-0.7303628921508789,-0.316204309463501
1772728890898430000,5.401429931640625,0.7432012557983398,-0.6418647766113281,-0.39523059129714966
1772728890907948000,5.410947998046875,0.5271720886230469,-0.5158166885375977,-0.4183310270309448
1772728890917466000,5.420466064453125,0.17586421966552734,-0.3941190242767334,-0.4421114921569824
1772728890926984200,5.429984130859375,-0.232421875,-0.29177188873291016,-0.44495970010757446
1772728890936502300,5.439502197265625,-0.6602697372436523,-0.20160961151123047,-0.3673514723777771
1772728890946020600,5.4490205078125,-1.0942764282226562,-0.14505243301391602,-0.21444326639175415
1772728890955538700,5.45853857421875,-1.4042611122131348,-0.10993242263793945,-0.09714698791503906
1772728890965056800,5.468056884765625,-1.7037115097045898,-0.10107660293579102,-0.018642902374267578
1772728890974574800,5.477574951171875,-1.8882579803466797,-0.07892608642578125,0.06445145606994629
1772728890984093000,5.487093017578125,-1.9369831085205078,-0.057335853576660156,0.13745403289794922
1772728890993611000,5.496611083984375,-1.8120522499084473,-0.04838228225708008,0.21828895807266235
1772728891003129000,5.506129150390625,-1.57108736038208,-0.016551494598388672,0.2795919179916382
1772728891012647200,5.515647216796875,-1.2641277313232422,0.034911155700683594,0.30163323879241943
1772728891022165200,5.525165283203125,-0.9052562713623047,0.12424182891845703,0.3485286235809326
1772728891031683300,5.534683349609375,-0.584528923034668,0.1497206687927246,0.3541960120201111
1772728891041201400,5.544201416015625,-0.2556724548339844,0.19586992263793945,0.34317320585250854
1772728891050719500,5.553719482421875,0.10627555847167969,0.23154592514038086,0.303072988986969
1772728891060237600,5.563237548828125,0.45707035064697266,0.2469038963317871,0.2692568302154541
1772728891069755600,5.572755615234375,0.7311439514160156,0.28475093841552734,0.29533934593200684
1772728891079273700,5.582273681640625,0.8652238845825195,0.3429250717163086,0.3010281026363373
1772728891088791800,5.591791748046875,0.8744945526123047,0.3915376663208008,0.31294721364974976
1772728891098310000,5.601309814453125,0.7161588668823242,0.478729248046875,0.2672385573387146
1772728891107828000,5.610827880859375,0.4255228042602539,0.561119556427002,0.23579943180084229
1772728891117346000,5.620345947265625,0.09966278076171875,0.6627492904663086,0.21639299392700195
1772728891126864100,5.629864013671875,-0.11206245422363281,0.7549037933349609,0.17498505115509033
1772728891136382200,5.63938232421875,-0.24201488494873047,0.8277497291564941,0.17961931228637695
1772728891145900300,5.648900390625,-0.31975841522216797,0.8852410316467285,0.1607673168182373
1772728891155418400,5.65841845703125,-0.3365306854248047,0.9406228065490723,0.1584497094154358
1772728891164936400,5.6679365234375,-0.25977516174316406,1.0021638870239258,0.18024510145187378
1772728891174454500,5.67745458984375,-0.18568134307861328,1.0443873405456543,0.08907163143157959
1772728891183972600,5.68697265625,-0.04014110565185547,1.038374423980713,0.07824170589447021
1772728891193490700,5.69649072265625,0.16520977020263672,0.9950428009033203,0.18274390697479248
1772728891203008800,5.7060087890625,0.4644460678100586,0.9056911468505859,0.3000949025154114
1772728891212526800,5.71552685546875,0.7745685577392578,0.8309879302978516,0.4022982716560364
1772728891222045000,5.725044921875,0.9718122482299805,0.7796645164489746,0.496598482131958
1772728891231563000,5.73456298828125,1.0592050552368164,0.7940311431884766,0.533725380897522
1772728891241081000,5.7440810546875,1.0516910552978516,0.7973928451538086,0.5193766355514526
1772728891250599200,5.75359912109375,0.993133544921875,0.7483930587768555,0.5384410619735718
1772728891260117200,5.7631171875,0.9272565841674805,0.6748857498168945,0.5577117204666138
1772728891269635300,5.77263525390625,0.8785848617553711,0.6807193756103516,0.56600022315979
1772728891279153400,5.7821533203125,0.8712921142578125,0.7504134178161621,0.430501252412796
1772728891288671500,5.79167138671875,0.8645620346069336,0.8479318618774414,0.2635360360145569
1772728891298189600,5.801189453125,0.8293266296386719,0.9142637252807617,0.05156058073043823
1772728891307707600,5.810707763671875,0.7935037612915039,0.9438247680664062,-0.15197890996932983
1772728891317225700,5.820225830078125,0.7130508422851562,0.9148435592651367,-0.2890886664390564
1772728891326743800,5.829743896484375,0.6489534378051758,0.8485808372497559,-0.4266284704208374
1772728891336262000,5.839261962890625,0.6405248641967773,0.764066219329834,-0.5584825873374939
1772728891345780000,5.848780029296875,0.660405158996582,0.6631064414978027,-0.6183502078056335
1772728891355298000,5.858298095703125,0.7317380905151367,0.5206503868103027,-0.7307748794555664
1772728891364816100,5.867816162109375,0.9116086959838867,0.33000850677490234,-0.7724435925483704
1772728891374334200,5.877334228515625,1.1498470306396484,0.16252565383911133,-0.7405686378479004
1772728891383852300,5.886852294921875,1.4329261779785156,-0.126861572265625,-0.6753846406936646
1772728891393370400,5.896370361328125,1.7530021667480469,-0.38890933990478516,-0.6374657154083252
1772728891402888400,5.905888427734375,2.0266265869140625,-0.6146454811096191,-0.5888491272926331
1772728891412406500,5.915406494140625,2.088930130004883,-0.8439674377441406,-0.5522617101669312
1772728891421924600,5.924924560546875,1.7647638320922852,-1.032911777496338,-0.5108944177627563
1772728891431442700,5.934442626953125,1.1503324508666992,-1.1520721912384033,-0.508758544921875
1772728891440960800,5.943960693359375,0.43410301208496094,-1.183056116104126,-0.5217210650444031
1772728891450478800,5.953478759765625,-0.2295684814453125,-1.1665029525756836,-0.5481638312339783
1772728891459997000,5.962996826171875,-0.7870979309082031,-1.2021851539611816,-0.5016033053398132
1772728891469515000,5.972514892578125,-1.3045825958251953,-1.2107150554656982,-0.42685067653656006
1772728891479033000,5.982033203125,-1.7239904403686523,-1.1988558769226074,-0.4199985861778259
1772728891488551200,5.99155126953125,-2.0760536193847656,-1.1682190895080566,-0.4939976930618286
1772728891498069200,6.0010693359375,-2.2476744651794434,-1.0665113925933838,-0.6038979291915894
1772728891507587300,6.01058740234375,-2.0775108337402344,-0.9936840534210205,-0.694320559501648
1772728891517105400,6.02010546875,-1.7716445922851562,-0.9525895118713379,-0.7482268214225769
1772728891526623500,6.02962353515625,-1.4302434921264648,-0.9132723808288574,-0.7626280784606934
1772728891536141600,6.0391416015625,-1.0553274154663086,-0.8722221851348877,-0.7253161668777466
1772728891545659600,6.04865966796875,-0.651031494140625,-0.8478622436523438,-0.7336357831954956
1772728891555177700,6.058177734375,-0.28574371337890625,-0.8230290412902832,-0.7267430424690247
1772728891564695800,6.06769580078125,0.04382038116455078,-0.8161187171936035,-0.6744986772537231
1772728891574214000,6.0772138671875,0.2640800476074219,-0.8373186588287354,-0.5631193518638611
1772728891583732000,6.08673193359375,0.3708829879760742,-0.8367922306060791,-0.44879019260406494
1772728891593250000,6.09625,0.309967041015625,-0.7622990608215332,-0.27943962812423706
1772728891602768100,6.10576806640625,0.13915634155273438,-0.673487663269043,-0.07957684993743896
1772728891612286200,6.1152861328125,-0.11719989776611328,-0.5656194686889648,0.09526556730270386
1772728891621804300,6.12480419921875,-0.4032764434814453,-0.4466977119445801,0.22908776998519897
1772728891631322400,6.134322265625,-0.6037044525146484,-0.33232688903808594,0.325573205947876
1772728891640840400,6.14384033203125,-0.7469892501831055,-0.23765850067138672,0.3605789542198181
1772728891650358500,6.153358642578125,-0.9071903228759766,-0.18195009231567383,0.3629457354545593
1772728891659876600,6.162876708984375,-1.0439844131469727,-0.12656688690185547,0.3723008632659912
1772728891669394700,6.172394775390625,-1.1197528839111328,-0.10427618026733398,0.296101450920105
1772728891678912800,6.181912841796875,-1.1926665306091309,-0.08026552200317383,0.2411712408065796
1772728891688430800,6.191430908203125,-1.2729005813598633,-0.012561798095703125,0.2058921456336975
1772728891697949000,6.200948974609375,-1.3707351684570312,0.07888984680175781,0.20282065868377686
1772728891707467000,6.210467041015625,-1.4368400573730469,0.11696147918701172,0.23655235767364502
1772728891716985000,6.219985107421875,-1.3544788360595703,0.1713109016418457,0.23765265941619873
1772728891726503200,6.229503173828125,-1.1547813415527344,0.17932462692260742,0.17266029119491577
1772728891736021200,6.239021240234375,-0.9545354843139648,0.18082189559936523,0.153944194316864
1772728891745539300,6.248539306640625,-0.7342605590820312,0.18445396423339844,0.13752084970474243
1772728891755057400,6.258057373046875,-0.5175189971923828,0.21080875396728516,0.08893460035324097
1772728891764575500,6.267575439453125,-0.3420572280883789,0.28036928176879883,0.005576372146606445
1772728891774093600,6.277093505859375,-0.24300861358642578,0.3370189666748047,-0.007003188133239746
1772728891783611600,6.286611572265625,-0.1886453628540039,0.3726692199707031,0.027927160263061523
1772728891793129700,6.296129638671875,-0.18566036224365234,0.4415879249572754,0.0393558144569397
1772728891802647800,6.305647705078125,-0.18840408325195312,0.4764842987060547,0.07057803869247437
1772728891812166000,6.315165771484375,-0.18944072723388672,0.5199108123779297,0.038734257221221924
1772728891821684000,6.32468408203125,-0.12383365631103516,0.5659394264221191,0.0037155747413635254
1772728891831202000,6.3342021484375,-0.08935546875,0.6233081817626953,-0.035478949546813965
1772728891840720100,6.34372021484375,-0.13585948944091797,0.7056975364685059,-0.12497764825820923
1772728891850238200,6.35323828125,-0.2662191390991211,0.8169140815734863,-0.15261119604110718
1772728891859756300,6.36275634765625,-0.46443653106689453,0.9208865165710449,-0.14395153522491455
1772728891869274400,6.3722744140625,-0.6312341690063477,1.020078182220459,-0.1089709997177124
1772728891878792400,6.38179248046875,-0.7246303558349609,1.123502254486084,-0.06756860017776489
1772728891888310500,6.391310546875,-0.6976919174194336,1.1774110794067383,-0.044680893421173096
1772728891897828600,6.40082861328125,-0.5820016860961914,1.2421202659606934,-0.02612990140914917
1772728891907346700,6.4103466796875,-0.40384483337402344,1.2863526344299316,-0.041970789432525635
1772728891916864800,6.41986474609375,-0.17486953735351562,1.2736215591430664,-0.00022298097610473633
1772728891926383000,6.429383056640625,0.12218570709228516,1.2146716117858887,-0.03867173194885254
1772728891935901000,6.43890087890625,0.46631717681884766,1.12733793258667,-0.09476083517074585
1772728891945419000,6.4484189453125,0.8558578491210938,1.0647454261779785,-0.1564185619354248
1772728891954937000,6.45793701171875,1.2508983612060547,1.0417065620422363,-0.25268495082855225
1772728891964455200,6.467455078125,1.5804204940795898,1.003983497619629,-0.3133474588394165
1772728891973973200,6.47697314453125,1.8043699264526367,0.9650106430053711,-0.36299949884414673
1772728891983491300,6.4864912109375,1.8681268692016602,0.9796881675720215,-0.38492798805236816
1772728891993009400,6.496009521484375,1.7524700164794922,0.9679775238037109,-0.30260640382766724
1772728892002527500,6.505527587890625,1.5280065536499023,0.9449682235717773,-0.23418289422988892
1772728892012045600,6.515045654296875,1.3203544616699219,0.8630871772766113,-0.14883506298065186
1772728892021563600,6.524563720703125,1.132955551147461,0.8327670097351074,-0.008106887340545654
1772728892031081700,6.534081787109375,0.9384746551513672,0.7368249893188477,0.1119491457939148
1772728892040599800,6.543599853515625,0.817530632019043,0.6865725517272949,0.1980927586555481
1772728892050118000,6.553117919921875,0.7795467376708984,0.5793242454528809,0.3136112093925476
1772728892059636200,6.56263623046875,0.856114387512207,0.4472808837890625,0.4052899479866028
1772728892069154000,6.572154052734375,1.076827049255371,0.2712111473083496,0.4642431139945984
1772728892078672100,6.581672119140625,1.3685522079467773,0.06280231475830078,0.4685024619102478
1772728892088190200,6.591190185546875,1.7109184265136719,-0.1331496238708496,0.4315777122974396
1772728892097708300,6.600708251953125,2.014118194580078,-0.26184964179992676,0.3837693929672241
1772728892107226400,6.610226318359375,2.1311330795288086,-0.4566993713378906,0.3062834143638611
1772728892116744400,6.619744384765625,2.0703773498535156,-0.6024527549743652,0.3037891983985901
1772728892126262500,6.629262451171875,1.8898181915283203,-0.6976442337036133,0.3194737136363983
1772728892135780600,6.638780517578125,1.5345172882080078,-0.8060564994812012,0.33858826756477356
1772728892145298700,6.648298583984375,1.0518732070922852,-0.9136126041412354,0.42237764596939087
1772728892154816800,6.657816650390625,0.5488195419311523,-1.0564155578613281,0.5647643804550171
1772728892164334800,6.6673349609375,0.12921142578125,-1.1766595840454102,0.7683357000350952
1772728892173853000,6.67685302734375,-0.2914600372314453,-1.2869277000427246,0.885622501373291
1772728892183371000,6.68637109375,-0.7234334945678711,-1.3165416717529297,0.952569305896759
1772728892192889000,6.69588916015625,-1.0598297119140625,-1.3437256813049316,1.0120912790298462
1772728892202407200,6.7054072265625,-1.2872495651245117,-1.3673186302185059,1.0652340650558472
1772728892211925200,6.71492529296875,-1.5022177696228027,-1.3354465961456299,1.0728418827056885
1772728892221443300,6.724443359375,-1.7224063873291016,-1.3201744556427002,1.1151530742645264
1772728892230961400,6.73396142578125,-1.8795781135559082,-1.2621161937713623,1.0804048776626587
1772728892240479500,6.7434794921875,-1.8791284561157227,-1.1767773628234863,1.0705416202545166
1772728892249997600,6.75299755859375,-1.7193007469177246,-1.1091868877410889,0.972293496131897
1772728892259515600,6.762515625,-1.4287638664245605,-1.0574917793273926,0.8720965385437012
1772728892269033700,6.77203369140625,-1.0162463188171387,-1.004645824432373,0.7824004888534546
1772728892278551800,6.7815517578125,-0.5499124526977539,-0.9794611930847168,0.6703184247016907
1772728892288070000,6.79106982421875,-0.04747295379638672,-0.927710771560669,0.5213701725006104
1772728892297588000,6.800587890625,0.4398670196533203,-0.9004659652709961,0.3579087257385254
1772728892307106000,6.81010595703125,0.9401254653930664,-0.7989771366119385,0.12480956315994263
1772728892316624100,6.8196240234375,1.3547744750976562,-0.7182986736297607,-0.0013188719749450684
1772728892326142200,6.82914208984375,1.537156105041504,-0.6755719184875488,-0.06405586004257202
1772728892335660300,6.838660400390625,1.4309978485107422,-0.6265976428985596,-0.037472426891326904
1772728892345178400,6.848178466796875,1.0364198684692383,-0.553579568862915,-0.018038392066955566
1772728892354696400,6.857696533203125,0.3836984634399414,-0.44129252433776855,0.020374536514282227
1772728892364214500,6.867214599609375,-0.34237003326416016,-0.3638131618499756,0.0712054967880249
1772728892373732600,6.876732666015625,-1.0050506591796875,-0.3260612487792969,0.13079696893692017
1772728892383250700,6.886250732421875,-1.5198860168457031,-0.3031187057495117,0.20111334323883057
1772728892392768800,6.895768798828125,-1.7543768882751465,-0.2835423946380615,0.287436306476593
1772728892402286800,6.905286865234375,-1.8623905181884766,-0.2594170570373535,0.32461392879486084
1772728892411805000,6.914804931640625,-1.8633575439453125,-0.21187496185302734,0.27807164192199707
1772728892421323000,6.924322998046875,-1.7070374488830566,-0.19702863693237305,0.2324066162109375
1772728892430841000,6.933841064453125,-1.452925682067871,-0.15173006057739258,0.179742693901062
1772728892440359200,6.943359130859375,-1.2033495903015137,-0.08923029899597168,0.11989349126815796
1772728892449877200,6.952877197265625,-1.0128097534179688,-0.036579132080078125,0.12717747688293457
1772728892459395300,6.962395263671875,-0.8236017227172852,0.046376943588256836,0.128076434135437
1772728892468913400,6.971913330078125,-0.6592254638671875,0.12802934646606445,0.109646737575531
1772728892478431500,6.981431396484375,-0.5262832641601562,0.24572396278381348,0.06845295429229736
1772728892487949600,6.990949462890625,-0.3238086700439453,0.3262512683868408,0.059474050998687744
1772728892497467600,7.000467529296875,-0.10387516021728516,0.37296295166015625,0.0275762677192688
1772728892506985700,7.00998583984375,0.08862972259521484,0.4109005928039551,-0.010561227798461914
1772728892516503800,7.01950390625,0.23012161254882812,0.42273783683776855,-0.007426857948303223
1772728892526022000,7.02902197265625,0.34227943420410156,0.4369328022003174,0.02247166633605957
1772728892535540000,7.0385400390625,0.38910484313964844,0.47303032875061035,0.042605698108673096
1772728892545058000,7.04805810546875,0.3203163146972656,0.5435492992401123,0.06440228223800659
1772728892554576100,7.057576171875,0.20259380340576172,0.6017329692840576,0.07835662364959717
1772728892564094200,7.06709423828125,0.042832374572753906,0.6605758666992188,0.08247601985931396
1772728892573612300,7.0766123046875,-0.04226875305175781,0.6996450424194336,0.1539420485496521
1772728892583130400,7.08613037109375,-0.06970500946044922,0.7575747966766357,0.157173752784729
1772728892592648400,7.0956484375,-0.06120014190673828,0.7940785884857178,0.18827205896377563
1772728892602166500,7.10516650390625,-0.024237632751464844,0.8480384349822998,0.2093159556388855
1772728892611684600,7.1146845703125,0.040782928466796875,0.8938624858856201,0.15072357654571533
1772728892621202700,7.12420263671875,0.17416954040527344,0.931887149810791,0.08355921506881714
1772728892630720800,7.133720703125,0.3733711242675781,0.9189090728759766,0.06165426969528198
1772728892640238800,7.14323876953125,0.6145572662353516,0.8519949913024902,0.09605836868286133
1772728892649757000,7.1527568359375,0.8525476455688477,0.7782077789306641,0.1764429211616516
1772728892659275000,7.16227490234375,1.0683603286743164,0.7184076309204102,0.23902356624603271
1772728892668793000,7.17179296875,1.2383966445922852,0.6887538433074951,0.24332374334335327
1772728892678311200,7.181311279296875,1.33197021484375,0.7056443691253662,0.2814828157424927
1772728892687829200,7.190829345703125,1.349660873413086,0.7520139217376709,0.32779794931411743
1772728892697347300,7.200347412109375,1.3089447021484375,0.8556547164916992,0.3157639503479004
1772728892706865400,7.209865478515625,1.1889257431030273,0.9439408779144287,0.28204941749572754
1772728892716383500,7.219383544921875,1.097538948059082,1.01375150680542,0.1980329155921936
1772728892725901600,7.228901611328125,1.0394554138183594,1.0223362445831299,0.028120815753936768
1772728892735419600,7.238419677734375,1.054762840270996,1.0089855194091797,-0.10387939214706421
1772728892744937700,7.247937744140625,1.1143064498901367,0.9169516563415527,-0.25697338581085205
1772728892754455800,7.257455810546875,1.198251724243164,0.7950959205627441,-0.35491806268692017
1772728892763974000,7.266973876953125,1.198211669921875,0.6235620975494385,-0.42416030168533325
1772728892773492000,7.276491943359375,1.1683893203735352,0.4685945510864258,-0.4949296712875366
1772728892783010000,7.286010009765625,1.196298599243164,0.27681565284729004,-0.5376909971237183
1772728892792528100,7.295528076171875,1.2713241577148438,0.1095428466796875,-0.5902220010757446
1772728892802046200,7.305046142578125,1.3308935165405273,-0.10892653465270996,-0.6267523765563965
1772728892811564300,7.314564208984375,1.3657865524291992,-0.35973691940307617,-0.6796365976333618
1772728892821082400,7.324082275390625,1.4945449829101562,-0.6123802661895752,-0.6013898253440857
1772728892830600400,7.333600341796875,1.592757225036621,-0.8546698093414307,-0.5513990521430969
1772728892840118500,7.343118408203125,1.493391990661621,-1.0749645233154297,-0.5159373879432678
1772728892849636600,7.35263671875,1.169419288635254,-1.1899316310882568,-0.48289424180984497
1772728892859154700,7.36215478515625,0.6479454040527344,-1.2886829376220703,-0.45931369066238403
1772728892868672800,7.3716728515625,0.06269550323486328,-1.3078582286834717,-0.44682347774505615
1772728892878190800,7.38119091796875,-0.5057535171508789,-1.3191728591918945,-0.44510388374328613
1772728892887709000,7.390708984375,-1.1085257530212402,-1.3481919765472412,-0.3883991241455078
1772728892897227000,7.40022705078125,-1.618138313293457,-1.379270076751709,-0.36137837171554565
1772728892906745000,7.4097451171875,-2.0508642196655273,-1.3370332717895508,-0.32809388637542725
1772728892916263200,7.41926318359375,-2.2530832290649414,-1.2620251178741455,-0.35634511709213257
1772728892925781200,7.42878125,-2.202320098876953,-1.1984496116638184,-0.4432196617126465
1772728892935299300,7.43829931640625,-1.9303808212280273,-1.1370205879211426,-0.53602534532547
1772728892944817400,7.4478173828125,-1.451730728149414,-1.0960452556610107,-0.6067371964454651
1772728892954335500,7.45733544921875,-0.9695940017700195,-1.069610595703125,-0.6543881297111511
1772728892963853600,7.466853515625,-0.5698356628417969,-1.0465760231018066,-0.6791591644287109
1772728892973371600,7.47637158203125,-0.2214488983154297,-1.0316433906555176,-0.6395145654678345
1772728892982889700,7.4858896484375,0.09914684295654297,-1.0501551628112793,-0.5854777097702026
1772728892992407800,7.49540771484375,0.39882373809814453,-1.0248026847839355,-0.45710742473602295
1772728893001926000,7.50492578125,0.6348409652709961,-0.9795076847076416,-0.37967920303344727
1772728893011444000,7.51444384765625,0.7389469146728516,-0.9203295707702637,-0.24172985553741455
1772728893020962000,7.523962158203125,0.7702064514160156,-0.8331623077392578,-0.13939446210861206
1772728893030480100,7.533480224609375,0.7640237808227539,-0.7168238162994385,-0.006605863571166992
1772728893039998200,7.542998291015625,0.631464958190918,-0.6295592784881592,0.18465912342071533
1772728893049516300,7.552516357421875,0.3570718765258789,-0.5086770057678223,0.31873130798339844
1772728893059034400,7.562034423828125,-0.006333351135253906,-0.4255638122558594,0.43287110328674316
1772728893068552400,7.571552490234375,-0.3876075744628906,-0.32842445373535156,0.5228830575942993
1772728893078070500,7.581070556640625,-0.7543849945068359,-0.2960186004638672,0.5554993748664856
1772728893087588600,7.590588623046875,-1.1031770706176758,-0.25623321533203125,0.5522284507751465
1772728893097106700,7.600106689453125,-1.375441551208496,-0.19725608825683594,0.5078418254852295
1772728893106624800,7.609624755859375,-1.543652057647705,-0.14132285118103027,0.4327736496925354
1772728893116142800,7.619142822265625,-1.5727910995483398,-0.12596845626831055,0.34629470109939575
1772728893125660700,7.62866064453125,-1.5232067108154297,-0.09346365928649902,0.3207138180732727
1772728893135179000,7.638178955078125,-1.3688621520996094,-0.02018117904663086,0.3021925687789917
1772728893144697000,7.647697021484375,-1.2123517990112305,0.016735076904296875,0.23801475763320923
1772728893154215200,7.657215087890625,-1.0269527435302734,0.05224895477294922,0.18583393096923828
1772728893163733200,7.666733154296875,-0.8694534301757812,0.05893874168395996,0.14342278242111206
1772728893173251300,7.676251220703125,-0.7415733337402344,0.12165474891662598,0.13526993989944458
1772728893182769400,7.685769287109375,-0.6354084014892578,0.18901896476745605,0.16521716117858887
1772728893192287200,7.695287353515625,-0.4931173324584961,0.2529139518737793,0.17199373245239258
1772728893201805600,7.7048056640625,-0.36476802825927734,0.30554962158203125,0.21906685829162598
1772728893211323400,7.714323486328125,-0.25516319274902344,0.3633761405944824,0.22844994068145752
1772728893220841700,7.723841796875,-0.1904315948486328,0.4617941379547119,0.2259078025817871
1772728893230359600,7.733359619140625,-0.1702442169189453,0.5810024738311768,0.24233877658843994
1772728893239878000,7.7428779296875,-0.2731504440307617,0.6444821357727051,0.2688977122306824
1772728893249395700,7.752395751953125,-0.3603677749633789,0.6859681606292725,0.2542487382888794
1772728893258913800,7.761913818359375,-0.3697977066040039,0.7173848152160645,0.21100550889968872
1772728893268432100,7.77143212890625,-0.3828296661376953,0.7723219394683838,0.16342490911483765
1772728893277950000,7.780949951171875,-0.3781137466430664,0.8341765403747559,0.07031476497650146
1772728893287468300,7.79046826171875,-0.4228057861328125,0.9129924774169922,0.007597148418426514
1772728893296986000,7.799986083984375,-0.47641849517822266,0.9901423454284668,-0.015315830707550049
1772728893306504400,7.80950439453125,-0.5153617858886719,1.0709083080291748,0.038773298263549805
1772728893316022300,7.819022216796875,-0.5066442489624023,1.1012287139892578,0.10475844144821167
1772728893325540400,7.828540283203125,-0.4102783203125,1.1802783012390137,0.13020563125610352
1772728893335058400,7.838058349609375,-0.3247251510620117,1.2493937015533447,0.15884846448898315
1772728893344576500,7.847576416015625,-0.1448659896850586,1.2444429397583008,0.16626960039138794
1772728893354094600,7.857094482421875,0.1174306869506836,1.1797101497650146,0.11648368835449219
1772728893363612700,7.86661279296875,0.43852901458740234,1.106945514678955,-0.058807373046875
1772728893373130800,7.876130859375,0.8550081253051758,1.0147135257720947,-0.22635889053344727
1772728893382648800,7.88564892578125,1.2628107070922852,1.0053598880767822,-0.34923338890075684
1772728893392167000,7.8951669921875,1.5604047775268555,1.013852596282959,-0.5114463567733765
1772728893401685000,7.90468505859375,1.7175626754760742,1.0096628665924072,-0.634179413318634
1772728893411203000,7.914203125,1.6915168762207031,1.0524473190307617,-0.7435582876205444
1772728893420721200,7.92372119140625,1.5632619857788086,1.1431570053100586,-0.7702999114990234
1772728893430239200,7.9332392578125,1.3700923919677734,1.1622958183288574,-0.7646756768226624
1772728893439757300,7.94275732421875,1.1224956512451172,1.1136534214019775,-0.6827505826950073
1772728893449275400,7.952275390625,0.8833408355712891,1.0707333087921143,-0.5532110333442688
1772728893458793500,7.96179345703125,0.6678762435913086,1.0560014247894287,-0.454656720161438
1772728893468311600,7.9713115234375,0.5706539154052734,1.0378530025482178,-0.36105161905288696
1772728893477829600,7.98082958984375,0.6270227432250977,0.98101806640625,-0.28590983152389526
1772728893487347700,7.99034765625,0.7823162078857422,0.893993616104126,-0.2328275442123413
1772728893496865800,7.99986572265625,1.0707359313964844,0.7913050651550293,-0.20373088121414185
1772728893506384000,8.0093837890625,1.4287662506103516,0.6559839248657227,-0.204784095287323
1772728893515902000,8.01890185546875,1.8386707305908203,0.441821813583374,-0.19881606101989746
1772728893525420000,8.028419921875,2.220778465270996,0.21244478225708008,-0.23841428756713867
1772728893534938000,8.037938232421874,2.5357351303100586,-0.10625338554382324,-0.2191738486289978
1772728893544456200,8.047456298828125,2.770297050476074,-0.4091060161590576,-0.10156917572021484
1772728893553974300,8.056974365234375,2.851618766784668,-0.7465088367462158,0.038523852825164795
1772728893563492400,8.066492431640626,2.668452262878418,-1.0076487064361572,0.21169233322143555
1772728893573010400,8.076010498046875,2.1827688217163086,-1.277230978012085,0.4032776951789856
1772728893582528500,8.085528564453124,1.5229320526123047,-1.425354242324829,0.5751982927322388
1772728893592046600,8.095046630859375,0.8096551895141602,-1.4890508651733398,0.6570330858230591
1772728893601564700,8.104564697265625,0.14398956298828125,-1.5072071552276611,0.6574869155883789
1772728893611082800,8.114082763671876,-0.4469785690307617,-1.50294828414917,0.710605263710022
1772728893620600800,8.123600830078125,-0.9575700759887695,-1.5023040771484375,0.7561591863632202
1772728893630119000,8.133118896484374,-1.3531923294067383,-1.5081028938293457,0.8032572269439697
1772728893639637000,8.142636962890625,-1.6036872863769531,-1.495373249053955,0.8019659519195557
1772728893649155000,8.152155029296875,-1.6931648254394531,-1.44197416305542,0.7995006442070007
1772728893658673200,8.161673095703126,-1.6576614379882812,-1.4319863319396973,0.7054365873336792
1772728893668191200,8.171191162109375,-1.5232486724853516,-1.394714117050171,0.6113252639770508
1772728893677709300,8.180709228515624,-1.3300552368164062,-1.3674392700195312,0.4985603094100952
1772728893687227400,8.190227294921876,-1.118250846862793,-1.3417582511901855,0.38611268997192383
1772728893696745500,8.199745361328125,-0.8346118927001953,-1.2621150016784668,0.18710613250732422
1772728893706263600,8.209263671875,-0.5042600631713867,-1.1578292846679688,-0.005776047706604004
1772728893715781600,8.21878173828125,-0.164093017578125,-1.086909532546997,-0.16351264715194702
1772728893725299700,8.2282998046875,0.08676910400390625,-1.0565052032470703,-0.16360515356063843
1772728893734817800,8.23781787109375,0.20653533935546875,-1.023160457611084,-0.15346097946166992
1772728893744336000,8.2473359375,0.2917804718017578,-0.9315102100372314,-0.14836442470550537
1772728893753854000,8.25685400390625,0.24496173858642578,-0.8088943958282471,-0.22238171100616455
1772728893763372000,8.2663720703125,-0.06045246124267578,-0.666717529296875,-0.3170865774154663
1772728893772890000,8.27589013671875,-0.49364662170410156,-0.5263829231262207,-0.346834659576416
1772728893782408200,8.285408203125,-0.962895393371582,-0.4437742233276367,-0.32144713401794434
1772728893791926300,8.29492626953125,-1.3932957649230957,-0.381622314453125,-0.2612139582633972
1772728893801444400,8.3044443359375,-1.81768798828125,-0.3717026710510254,-0.15507787466049194
1772728893810962400,8.31396240234375,-2.0966787338256836,-0.31296682357788086,-0.016917049884796143
1772728893820480300,8.323480224609375,-2.241199493408203,-0.2919180393218994,0.1284940242767334
1772728893829998600,8.33299853515625,-2.2022156715393066,-0.24764728546142578,0.15015262365341187
1772728893839516400,8.342516357421875,-1.977933406829834,-0.21374988555908203,0.13210564851760864
1772728893849034800,8.35203466796875,-1.6924142837524414,-0.1603531837463379,0.14266860485076904
1772728893858552600,8.361552490234375,-1.3208961486816406,-0.08251094818115234,0.12879645824432373
1772728893868071000,8.37107080078125,-1.015101432800293,0.002944469451904297,0.16245555877685547
1772728893877588700,8.380588623046876,-0.6827993392944336,0.04804825782775879,0.1635865569114685
1772728893887106800,8.39010693359375,-0.3345146179199219,0.14078879356384277,0.1723969578742981
1772728893896625200,8.399625244140625,-0.0024194717407226562,0.23055124282836914,0.21609777212142944
1772728893906143000,8.40914306640625,0.19282817840576172,0.2983987331390381,0.20283597707748413
1772728893915661300,8.418661376953125,0.32384777069091797,0.383547306060791,0.24186885356903076
1772728893925179100,8.42817919921875,0.35752010345458984,0.45673346519470215,0.2612540125846863
1772728893934697500,8.437697509765625,0.3322772979736328,0.5843446254730225,0.26193976402282715
1772728893944215300,8.44721533203125,0.22909259796142578,0.6829631328582764,0.21623551845550537
1772728893953733400,8.4567333984375,0.08130645751953125,0.7175054550170898,0.2869216799736023
1772728893963251500,8.46625146484375,-0.025350570678710938,0.770214319229126,0.31717509031295776
1772728893972769500,8.47576953125,-0.225067138671875,0.8255820274353027,0.3345058560371399
1772728893982287600,8.48528759765625,-0.37019920349121094,0.8612799644470215,0.3778073787689209
1772728893991805700,8.4948056640625,-0.47100257873535156,0.9456350803375244,0.3397938013076782
1772728894001323800,8.50432373046875,-0.5590610504150391,1.0007855892181396,0.26564717292785645
1772728894010841900,8.513841796875,-0.5656309127807617,1.0062849521636963,0.185788094997406
1772728894020360000,8.52335986328125,-0.5248775482177734,1.0231068134307861,0.1449301838874817
1772728894029878000,8.5328779296875,-0.44707393646240234,1.040625810623169,0.0946996808052063
1772728894039396000,8.54239599609375,-0.2850818634033203,1.045210838317871,0.03527045249938965
1772728894048914200,8.5519140625,-0.05859184265136719,1.0538954734802246,-0.035912394523620605
1772728894058432300,8.561432373046875,0.22990131378173828,1.0280005931854248,-0.04374164342880249
1772728894067950300,8.570950439453124,0.5592098236083984,0.985590934753418,-0.06009715795516968
1772728894077468400,8.580468505859375,0.913182258605957,0.9323081970214844,-0.04910314083099365
1772728894086986500,8.589986572265625,1.1584358215332031,0.8912327289581299,0.029791176319122314
1772728894096504600,8.599504638671876,1.386275291442871,0.8737094402313232,0.07713711261749268
1772728894106022700,8.609022705078125,1.4921140670776367,0.8576693534851074,0.10897660255432129
1772728894115540700,8.618540771484374,1.5507545471191406,0.8946657180786133,0.12395191192626953
1772728894125058800,8.628058837890626,1.4983949661254883,0.9502553939819336,0.10441786050796509
1772728894134577000,8.637576904296875,1.3860282897949219,1.0759320259094238,0.0473751425743103
1772728894144095000,8.647094970703124,1.3479881286621094,1.1394801139831543,-0.011940181255340576
1772728894153613000,8.656613037109375,1.3555717468261719,1.121506690979004,-0.07202959060668945
1772728894163131100,8.666131103515625,1.405801773071289,1.072932243347168,-0.15436720848083496
1772728894172649200,8.675649169921876,1.4163951873779297,0.9812877178192139,-0.21612262725830078
1772728894182167300,8.685167236328125,1.3838491439819336,0.8802001476287842,-0.27295351028442383
1772728894191685400,8.694685302734374,1.312112808227539,0.7145400047302246,-0.28903329372406006
1772728894201203500,8.704203369140625,1.2911930084228516,0.5314822196960449,-0.27914559841156006
1772728894210721500,8.713721435546875,1.3181228637695312,0.37247657775878906,-0.2390686273574829
1772728894220239600,8.723239501953126,1.4167242050170898,0.13208508491516113,-0.30308496952056885
1772728894229757700,8.7327578125,1.5134468078613281,-0.1097261905670166,-0.37289440631866455
1772728894239275800,8.74227587890625,1.6595649719238281,-0.4151279926300049,-0.39797019958496094
1772728894248793900,8.7517939453125,1.8064546585083008,-0.7396242618560791,-0.34625184535980225
1772728894258312000,8.76131201171875,1.895991325378418,-1.0293493270874023,-0.27502334117889404
1772728894267830000,8.770830078125,1.8342580795288086,-1.333085536956787,-0.16833972930908203
1772728894277348000,8.78034814453125,1.428603172302246,-1.5390841960906982,-0.0642704963684082
1772728894286866200,8.7898662109375,0.8066139221191406,-1.5924270153045654,-0.03958094120025635
1772728894296384000,8.799384033203125,0.15929603576660156,-1.5393283367156982,-0.05389392375946045
1772728894305902300,8.80890234375,-0.5002021789550781,-1.5631163120269775,-0.07563984394073486
1772728894315420200,8.818420166015626,-1.0733098983764648,-1.5405521392822266,-0.08404541015625
1772728894324938500,8.8279384765625,-1.638472557067871,-1.5680456161499023,-0.06727391481399536
1772728894334456300,8.837456298828124,-2.0521130561828613,-1.5600664615631104,-0.04124593734741211
1772728894343974700,8.846974609375,-2.3212108612060547,-1.5250914096832275,-0.055941104888916016
1772728894353492500,8.856492431640625,-2.3759279251098633,-1.4966158866882324,-0.11930036544799805
1772728894363010600,8.866010498046874,-2.2127490043640137,-1.4019923210144043,-0.11992824077606201
1772728894372528600,8.875528564453125,-1.8414950370788574,-1.3305566310882568,-0.07557624578475952
1772728894382046700,8.885046630859375,-1.3547992706298828,-1.2795891761779785,-0.03717207908630371
1772728894391564800,8.894564697265626,-0.8207826614379883,-1.2209267616271973,-0.02706068754196167
1772728894401083000,8.904082763671875,-0.3289833068847656,-1.212096929550171,-0.007458090782165527
1772728894410601200,8.913601318359374,0.1724090576171875,-1.2462663650512695,0.020711243152618408
1772728894420119000,8.923119140625,0.6778631210327148,-1.1999964714050293,0.04426056146621704
1772728894429637000,8.93263720703125,1.1364412307739258,-1.1485638618469238,0.09635621309280396
1772728894439155200,8.9421552734375,1.3942222595214844,-1.0733733177185059,0.09639954566955566
1772728894448673300,8.95167333984375,1.2997360229492188,-0.9310727119445801,0.12035238742828369
1772728894458191400,8.96119140625,0.9066019058227539,-0.7650699615478516,0.17183983325958252
1772728894467709400,8.97070947265625,0.3559751510620117,-0.6289911270141602,0.2718636393547058
1772728894477227500,8.9802275390625,-0.20256710052490234,-0.5103998184204102,0.4356740713119507
1772728894486745600,8.98974560546875,-0.6506967544555664,-0.3589510917663574,0.42823684215545654
1772728894496263700,8.999263671875,-1.0352897644042969,-0.24125194549560547,0.4982275664806366
1772728894505781800,9.00878173828125,-1.4054012298583984,-0.14068317413330078,0.42951294779777527
1772728894515299800,9.0182998046875,-1.6643342971801758,-0.07644081115722656,0.3722448945045471
1772728894524818000,9.02781787109375,-1.7750263214111328,-0.03005838394165039,0.34988224506378174
1772728894534336000,9.0373359375,-1.7287979125976562,-0.019391536712646484,0.3130286931991577
1772728894543854000,9.04685400390625,-1.511591911315918,-0.04220914840698242,0.21877509355545044
1772728894553372200,9.0563720703125,-1.1946535110473633,-0.04060935974121094,0.08042311668395996
1772728894562890200,9.06589013671875,-0.8967189788818359,-0.06684494018554688,-0.03890836238861084
1772728894572408300,9.075408203125,-0.6215114593505859,-0.08722543716430664,-0.11577165126800537
1772728894581926400,9.084926513671874,-0.38498783111572266,-0.09850311279296875,-0.15993279218673706
1772728894591444500,9.094444580078125,-0.22229766845703125,-0.1281909942626953,-0.24076610803604126
1772728894600962600,9.103962646484375,-0.12319374084472656,-0.08657169342041016,-0.3433023691177368
1772728894610480600,9.113480712890626,-0.10388755798339844,-0.024794578552246094,-0.39383864402770996
1772728894619998700,9.122998779296875,-0.12124919891357422,0.049942970275878906,-0.4164049029350281
1772728894629516800,9.132516845703124,-0.21123123168945312,0.11677694320678711,-0.3961595892906189
1772728894639035000,9.142034912109375,-0.38127803802490234,0.21018457412719727,-0.38555794954299927
1772728894648553000,9.151552978515625,-0.5863933563232422,0.30736827850341797,-0.37061625719070435
1772728894658071000,9.161071044921876,-0.8007488250732422,0.43325376510620117,-0.45420509576797485
1772728894667589000,9.170589111328125,-0.890650749206543,0.5282950401306152,-0.4466271996498108
1772728894677107200,9.180107177734374,-0.8779067993164062,0.6187138557434082,-0.4608883857727051
1772728894686625300,9.189625244140625,-0.8581867218017578,0.6348485946655273,-0.4601316452026367
1772728894696143400,9.199143310546875,-0.8363780975341797,0.7272357940673828,-0.4955217242240906
1772728894705661200,9.2086611328125,-0.8434219360351562,0.7783060073852539,-0.47481393814086914
1772728894715179500,9.218179443359375,-0.8700084686279297,0.8460006713867188,-0.4441377520561218
1772728894724697300,9.227697265625,-0.9020013809204102,0.9357061386108398,-0.3553279638290405
1772728894734215700,9.237215576171875,-0.9038372039794922,1.041102409362793,-0.2764011025428772
1772728894743733500,9.2467333984375,-0.8568277359008789,1.1823129653930664,-0.17493921518325806
1772728894753251800,9.256251953125,-0.6942625045776367,1.247469425201416,-0.08269184827804565
1772728894762769700,9.265769775390625,-0.42352867126464844,1.2465176582336426,-0.03862482309341431
1772728894772288000,9.2752880859375,-0.08998394012451172,1.2437691688537598,-0.055640339851379395
1772728894781805800,9.284805908203126,0.3304786682128906,1.216874599456787,-0.14071714878082275
1772728894791324000,9.294323974609375,0.7356367111206055,1.1740102767944336,-0.27705782651901245
1772728894800842000,9.303842041015624,1.1718292236328125,1.0582196712493896,-0.3998621702194214
1772728894810360000,9.313360107421875,1.6184015274047852,0.9437835216522217,-0.46471041440963745
1772728894819878100,9.322878173828125,1.975834846496582,0.8812670707702637,-0.5274807214736938
1772728894829396200,9.332396240234376,2.1734466552734375,0.8688433170318604,-0.6361932158470154
1772728894838914300,9.341914306640625,2.212003707885742,0.9437549114227295,-0.6140167117118835
1772728894848432400,9.351432373046874,2.0392332077026367,0.9652466773986816,-0.5525969862937927
1772728894857950500,9.360950439453125,1.814723014831543,0.949498176574707,-0.43923014402389526
1772728894867468500,9.370468505859375,1.4848155975341797,0.9375910758972168,-0.3225206732749939
1772728894876986600,9.379986572265626,1.1246118545532227,0.8758482933044434,-0.23537814617156982
1772728894886504700,9.389504638671875,0.859623908996582,0.7766628265380859,-0.14732319116592407
1772728894896022800,9.399022705078124,0.6745109558105469,0.7420735359191895,-0.017638683319091797
1772728894905540900,9.408540771484375,0.6306724548339844,0.691403865814209,0.09963464736938477
1772728894915059000,9.418058837890625,0.6656951904296875,0.6410150527954102,0.14097636938095093
1772728894924577000,9.427576904296876,0.722315788269043,0.554476261138916,0.1824004054069519
1772728894934095000,9.43709521484375,0.8677310943603516,0.4069666862487793,0.30692142248153687
1772728894943613200,9.44661328125,1.0878973007202148,0.23779010772705078,0.46033287048339844
1772728894953131300,9.45613134765625,1.2876577377319336,0.03617238998413086,0.6081831455230713
1772728894962649300,9.4656494140625,1.4893808364868164,-0.15903854370117188,0.6740843057632446
1772728894972167400,9.47516748046875,1.5360326766967773,-0.3748295307159424,0.776749312877655
1772728894981685500,9.484685546875,1.4357824325561523,-0.6381611824035645,0.8830454349517822
1772728894991203600,9.49420361328125,1.3258628845214844,-0.8787779808044434,1.0732799768447876
1772728895000721700,9.5037216796875,1.1805877685546875,-1.078566074371338,1.2698414325714111
1772728895010239700,9.51323974609375,0.9621028900146484,-1.2425479888916016,1.326718807220459
1772728895019757800,9.5227578125,0.6588573455810547,-1.3040246963500977,1.339346170425415
1772728895029276000,9.53227587890625,0.30645751953125,-1.3339574337005615,1.3768014907836914
1772728895038794000,9.5417939453125,-0.06720161437988281,-1.3952383995056152,1.3967504501342773
1772728895048311800,9.551311767578126,-0.41315364837646484,-1.444915771484375,1.4187836647033691
1772728895057830100,9.560830078125,-0.7087850570678711,-1.454500436782837,1.3985795974731445
1772728895067348000,9.570347900390624,-0.9769487380981445,-1.4240469932556152,1.352148413658142
1772728895076866300,9.5798662109375,-1.1638498306274414,-1.3515915870666504,1.2627445459365845
1772728895086384400,9.58938427734375,-1.299159049987793,-1.2522697448730469,1.1068799495697021
1772728895095902500,9.59890234375,-1.2495951652526855,-1.2453060150146484,0.981009840965271
1772728895105420500,9.608420654296875,-1.058389663696289,-1.2093133926391602,0.8507787585258484
1772728895114938600,9.617938720703124,-0.8350200653076172,-1.1241133213043213,0.7168907523155212
1772728895124456700,9.627456787109375,-0.6003732681274414,-1.0268778800964355,0.5369447469711304
1772728895133974500,9.636974609375,-0.4106607437133789,-0.9626069068908691,0.4268900156021118
1772728895143492900,9.646492919921876,-0.20252609252929688,-0.9525315761566162,0.36166274547576904
1772728895153010700,9.6560107421875,-0.005743980407714844,-0.8963351249694824,0.29746294021606445
1772728895162529000,9.665529052734374,0.2213602066040039,-0.8894290924072266,0.2205880880355835
1772728895172046800,9.675046875,0.37006187438964844,-0.7625641822814941,0.227897047996521
1772728895181565200,9.684565185546875,0.3070402145385742,-0.6360688209533691,0.21252238750457764
1772728895191083000,9.6940830078125,0.08726024627685547,-0.5716519355773926,0.21194839477539062
1772728895200601000,9.70360107421875,-0.2227191925048828,-0.5130109786987305,0.1178392767906189
1772728895210119200,9.713119140625,-0.5066585540771484,-0.42928409576416016,0.055256545543670654
1772728895219637200,9.72263720703125,-0.8161592483520508,-0.3697664737701416,0.10389137268066406
1772728895229155300,9.7321552734375,-1.1070985794067383,-0.30041050910949707,0.1499091386795044
1772728895238673400,9.74167333984375,-1.3302621841430664,-0.2312326431274414,0.10077136754989624
1772728895248191500,9.75119140625,-1.4624357223510742,-0.17323875427246094,0.0637441873550415
1772728895257709600,9.76070947265625,-1.5803442001342773,-0.13574457168579102,0.09109407663345337
1772728895267227600,9.7702275390625,-1.552431583404541,-0.08594369888305664,0.1324772834777832
1772728895276745700,9.779745849609375,-1.4814701080322266,-0.07924127578735352,0.19727754592895508
1772728895286263800,9.789263916015624,-1.3436698913574219,-0.027297496795654297,0.24922645092010498
1772728895295782000,9.798781982421875,-1.1365289688110352,0.021442413330078125,0.2547110915184021
1772728895305300000,9.808300048828125,-0.8668785095214844,0.051656246185302734,0.27116096019744873
1772728895314818000,9.817818115234376,-0.6082859039306641,0.06947040557861328,0.2967446446418762
1772728895324336000,9.827336181640625,-0.34578895568847656,0.09987878799438477,0.34829092025756836
1772728895333854200,9.836854248046874,-0.10958003997802734,0.17197060585021973,0.3564256429672241
1772728895343372300,9.846372314453125,0.03898811340332031,0.21724414825439453,0.36388641595840454
1772728895352890400,9.855890380859375,0.17457962036132812,0.2370443344116211,0.38975298404693604
1772728895362408400,9.865408447265626,0.2831745147705078,0.254650354385376,0.40551549196243286
1772728895371926500,9.874926513671875,0.2764930725097656,0.28940343856811523,0.448020875453949
1772728895381444600,9.884444580078124,0.1904306411743164,0.33721041679382324,0.49707841873168945
1772728895390962700,9.893962646484376,0.07017135620117188,0.41797757148742676,0.5050743818283081
1772728895400480800,9.903480712890625,-0.019651412963867188,0.48362278938293457,0.48400169610977173
1772728895409998600,9.91299853515625,-0.049968719482421875,0.5543758869171143,0.4358457624912262
1772728895419517000,9.922516845703125,-0.05434894561767578,0.6133818626403809,0.4411870241165161
1772728895429034800,9.93203466796875,-0.0929861068725586,0.7261607646942139,0.3946765065193176
1772728895438553000,9.941552978515626,-0.18078327178955078,0.8655421733856201,0.2560204267501831
1772728895448071000,9.95107080078125,-0.17291545867919922,0.9449558258056641,0.17231899499893188
1772728895457589200,9.96058935546875,-0.12514019012451172,1.0421903133392334,0.08310002088546753
1772728895467107000,9.970107177734375,0.141571044921875,1.0444724559783936,0.05176436901092529
1772728895476625200,9.979625244140625,0.5150947570800781,0.9742109775543213,0.0220605731010437
1772728895486143200,9.989143310546876,0.8186178207397461,0.9316179752349854,0.055907368659973145
1772728895495661300,9.998661376953125,0.9829626083374023,0.9195752143859863,0.06588441133499146
1772728895505179400,10.008179443359374,1.0678024291992188,0.8578848838806152,0.11508595943450928
1772728895514697500,10.017697509765625,1.1424064636230469,0.8045310974121094,0.23782497644424438
1772728895524215600,10.027215576171875,1.1617059707641602,0.7544522285461426,0.2943804860115051
1772728895533733600,10.036733642578126,1.2103090286254883,0.7750468254089355,0.30759143829345703
1772728895543251700,10.046251708984375,1.217411994934082,0.7977256774902344,0.298129677772522
1772728895552769800,10.055769775390624,1.1499853134155273,0.869755744934082,0.24033159017562866
1772728895562287900,10.065287841796875,1.1280488967895508,0.9137015342712402,0.10365229845046997
1772728895571806000,10.074805908203125,1.127903938293457,0.878819465637207,0.00689542293548584
1772728895581324000,10.084323974609376,1.1542558670043945,0.7892537117004395,-0.03135347366333008
1772728895590842000,10.093842041015625,1.1012992858886719,0.7302455902099609,-0.16456007957458496
1772728895600360200,10.103360107421874,1.0349321365356445,0.6294384002685547,-0.3337221145629883
1772728895609878300,10.112878173828125,1.1055116653442383,0.44095373153686523,-0.4592020511627197
1772728895619396400,10.122396240234375,1.076695442199707,0.2649879455566406,-0.6523309946060181
1772728895628914400,10.13191455078125,1.2026042938232422,0.06325435638427734,-0.8320099115371704
1772728895638432500,10.1414326171875,1.496607780456543,-0.1898818016052246,-0.9881407022476196
1772728895647950600,10.15095068359375,1.7032051086425781,-0.49737095832824707,-0.9013279676437378
1772728895657468700,10.16046875,1.9053478240966797,-0.7356367111206055,-0.8054683208465576
