time,seconds_elapsed,z,y,x
1772728885587336400,0.09033642578125,0.4465421438217163,-0.10567960888147354,-0.17592905461788177
1772728885606372600,0.10937255859375,0.4831940531730652,-0.2162461280822754,-0.07574722915887833
1772728885615890700,0.118890625,0.49418962001800537,-0.1802051067352295,0.001221729558892548
1772728885625408800,0.12840869140625,0.5064069032669067,-0.11178825795650482,0.08429934084415436
1772728885634926800,0.1379267578125,0.5180133581161499,-0.027488915249705315,0.17165300250053406
1772728885644445200,0.147445068359375,0.5271763205528259,0.059864748269319534,0.25900667905807495
1772728885653963000,0.156962890625,0.5351175665855408,0.14049890637397766,0.3347539007663727
1772728885663481300,0.1664814453125,0.5442805290222168,0.2009745091199875,0.39767298102378845
1772728885672999400,0.17599951171875,0.5479456782341003,0.2419024556875229,0.43371400237083435
1772728885682517500,0.185517578125,0.5436696410179138,0.2834412455558777,0.4373791813850403
1772728885692035600,0.19503564453125,0.5375609993934631,0.3329212963581085,0.40805765986442566
1772728885701553700,0.2045537109375,0.5326740741729736,0.38728827238082886,0.3494146466255188
1772728885711071700,0.21407177734375,0.5326740741729736,0.43371400237083435,0.26939135789871216
1772728885720589800,0.22358984375,0.5387827157974243,0.47036588191986084,0.17226386070251465
1772728885730108000,0.23310791015625,0.5485565662384033,0.4929678738117218,0.06780599057674408
1772728885739626000,0.2426259765625,0.5583304166793823,0.5131264328956604,-0.0360410213470459
1772728885749144000,0.25214404296875,0.5681042671203613,0.5473348498344421,-0.12767073512077332
1772728885758662100,0.261662109375,0.5797106623649597,0.583375871181488,-0.19181154668331146
1772728885768180200,0.27118017578125,0.5907062292098999,0.5858193039894104,-0.21807873249053955
1772728885777698300,0.2806982421875,0.5968148708343506,0.5320632457733154,-0.21197007596492767
1772728885787216600,0.290216552734375,0.5894845128059387,0.42332929372787476,-0.18203771114349365
1772728885796734500,0.299734375,0.5699368119239807,0.2974911332130432,-0.1380554437637329
1772728885806252800,0.309252685546875,0.5418370366096497,0.19242240488529205,-0.09162971377372742
1772728885815771000,0.31877099609375,0.5064069032669067,0.13255766034126282,-0.04886918142437935
1772728885825289000,0.3282890625,0.47036588191986084,0.13133592903614044,-0.002443459117785096
1772728885834807000,0.33780712890625,0.4410443603992462,0.1594357043504715,0.043371398001909256
1772728885844325000,0.3473251953125,0.41355544328689575,0.1905898153781891,0.08368847519159317
1772728885853843200,0.35684326171875,0.3854556679725647,0.20158538222312927,0.11056652665138245
1772728885863361300,0.366361328125,0.3610210716724396,0.21868959069252014,0.12034036219120026
1772728885872879400,0.37587939453125,0.3439168632030487,0.2461785078048706,0.12217295914888382
1772728885882397400,0.3853974609375,0.33719736337661743,0.2816086709499359,0.10873392969369888
1772728885891915500,0.39491552734375,0.33597561717033386,0.3133736252784729,0.07757982611656189
1772728885901433600,0.40443359375,0.33536475896835327,0.32192572951316833,0.031154103577136993
1772728885910951700,0.41395166015625,0.33597561717033386,0.3139844834804535,-0.029932374134659767
1772728885920469800,0.4234697265625,0.3390299379825592,0.2938259541988373,-0.08674279600381851
1772728885929987800,0.43298779296875,0.347582072019577,0.2657261788845062,-0.1386663019657135
1772728885939506000,0.442505859375,0.3597993552684784,0.2614501118659973,-0.18387030065059662
1772728885949024300,0.452024169921875,0.37629270553588867,0.2816086709499359,-0.22968515753746033
1772728885958542000,0.4615419921875,0.3952295184135437,0.2932150959968567,-0.26878049969673157
1772728885968060400,0.471060302734375,0.4098902642726898,0.2864955961704254,-0.2981020212173462
1772728885977578500,0.48057861328125,0.41416633129119873,0.2675587832927704,-0.31093016266822815
1772728885987096600,0.4900966796875,0.41294458508491516,0.268169641494751,-0.3023780584335327
1772728885996614700,0.49961474609375,0.41294458508491516,0.28038692474365234,-0.2767217457294464
1772728886006132700,0.5091328125,0.40744680166244507,0.3042106628417969,-0.24801109731197357
1772728886015650800,0.51865087890625,0.3946186602115631,0.34147340059280396,-0.21502439677715302
1772728886025169000,0.5281689453125,0.3756818473339081,0.3799578845500946,-0.17776164412498474
1772728886034687000,0.53768701171875,0.3597993552684784,0.4166097939014435,-0.13011419773101807
1772728886044205000,0.547205078125,0.34636032581329346,0.44409868121147156,-0.0616973415017128
1772728886053723100,0.55672314453125,0.33231043815612793,0.43860089778900146,0.02626718580722809
1772728886063241200,0.5662412109375,0.3084867000579834,0.39400777220726013,0.12583814561367035
1772728886072759300,0.57575927734375,0.27916520833969116,0.3335321843624115,0.21868959069252014
1772728886082277400,0.58527734375,0.2315177470445633,0.3042106628417969,0.29077163338661194
1772728886091795700,0.594795654296875,0.16859868168830872,0.28405213356018066,0.33108872175216675
1772728886101313500,0.6043134765625,0.09651663154363632,0.2626718580722809,0.33658650517463684
1772728886110831900,0.613831787109375,0.025045456364750862,0.22174391150474548,0.3072649836540222
1772728886120350000,0.623349853515625,-0.0409279391169548,0.18387030065059662,0.2626718580722809
1772728886129867800,0.63286767578125,-0.09651663154363632,0.15577052533626556,0.2162461280822754
1772728886139386000,0.64238623046875,-0.14172062277793884,0.15515965223312378,0.18081597983837128
1772728886148904200,0.651904296875,-0.16615521907806396,0.18325942754745483,0.17043127119541168
1772728886158422300,0.66142236328125,-0.1747073233127594,0.23029601573944092,0.19303326308727264
1772728886167940400,0.6709404296875,-0.16737695038318634,0.3017672002315521,0.24495677649974823
1772728886177458400,0.68045849609375,-0.15210533142089844,0.2761108875274658,0.3042106628417969
1772728886186976500,0.6899765625,-0.1288924664258957,0.15515965223312378,0.3488037884235382
1772728886196494600,0.69949462890625,-0.10445787757635117,-0.006719512399286032,0.3536907136440277
1772728886206012700,0.7090126953125,-0.09101885557174683,-0.21380266547203064,0.31031930446624756
1772728886215530800,0.71853076171875,-0.10384701192378998,-0.3958403766155243,0.21991132199764252
1772728886225048800,0.728048828125,-0.13133592903614044,-0.5271763205528259,0.10201441496610641
1772728886234567000,0.73756689453125,-0.16249002516269684,-0.5907062292098999,-0.017715077847242355
1772728886244085000,0.7470849609375,-0.19730933010578156,-0.5852084755897522,-0.0977383628487587
1772728886253603300,0.756603271484375,-0.2406807243824005,-0.5271763205528259,-0.1288924664258957
1772728886263121200,0.76612109375,-0.2834412455558777,-0.44898560643196106,-0.12767073512077332
1772728886272639200,0.77563916015625,-0.3121519088745117,-0.3897317349910736,-0.1178968995809555
1772728886282157600,0.785157470703125,-0.3121519088745117,-0.3536907136440277,-0.10751219838857651
1772728886291675400,0.79467529296875,-0.2864955961704254,-0.3445277214050293,-0.09834922850131989
1772728886301193700,0.80419384765625,-0.24312418699264526,-0.3640754222869873,-0.08491020649671555
1772728886310711800,0.8137119140625,-0.19669845700263977,-0.38789913058280945,-0.06291907280683517
1772728886320230000,0.82322998046875,-0.15515965223312378,-0.4312705397605896,-0.01649334840476513
1772728886329748000,0.832748046875,-0.12034036219120026,-0.4770853817462921,0.06230820715427399
1772728886339266000,0.84226611328125,-0.09957095980644226,-0.4770853817462921,0.17592905461788177
1772728886348784000,0.8517841796875,-0.10140355676412582,-0.4563159942626953,0.3090975880622864
1772728886358302200,0.86130224609375,-0.1233946830034256,-0.4367683231830597,0.44409868121147156
1772728886367820300,0.8708203125,-0.15577052533626556,-0.4098902642726898,0.5540543794631958
1772728886377338400,0.88033837890625,-0.185092031955719,-0.37751442193984985,0.6200277805328369
1772728886386856400,0.8898564453125,-0.205861434340477,-0.3555232882499695,0.6414080262184143
1772728886396374500,0.89937451171875,-0.22479823231697083,-0.347582072019577,0.6261364221572876
1772728886405892600,0.908892578125,-0.24495677649974823,-0.35246896743774414,0.5723803043365479
1772728886415410700,0.91841064453125,-0.268169641494751,-0.37629270553588867,0.4862483739852905
1772728886424928800,0.9279287109375,-0.28954991698265076,-0.40927940607070923,0.3738492429256439
1772728886434446800,0.93744677734375,-0.3072649836540222,-0.44470956921577454,0.25045454502105713
1772728886443965200,0.946965087890625,-0.3249800503253937,-0.48013970255851746,0.12522727251052856
1772728886453483000,0.95648291015625,-0.3433060050010681,-0.5259546041488647,0.002443459117785096
1772728886463001300,0.96600146484375,-0.36285367608070374,-0.5442805290222168,-0.1130099818110466
1772728886472519400,0.97551953125,-0.3811796307563782,-0.5259546041488647,-0.20769402384757996
1772728886482037500,0.98503759765625,-0.3970620930194855,-0.49052441120147705,-0.27916520833969116
1772728886491555600,0.9945556640625,-0.40744680166244507,-0.4355465769767761,-0.32559093832969666
1772728886501073700,1.00407373046875,-0.4105011224746704,-0.35796675086021423,-0.34636032581329346
1772728886510591700,1.013591796875,-0.40255987644195557,-0.26450446248054504,-0.3298669755458832
1772728886520109800,1.02310986328125,-0.37140578031539917,-0.1905898153781891,-0.2663370370864868
1772728886529628000,1.0326279296875,-0.3194822669029236,-0.14538581669330597,-0.164322629570961
1772728886539146000,1.04214599609375,-0.2559523284435272,-0.13439024984836578,-0.031154103577136993
1772728886548664000,1.0516640625,-0.1893680840730667,-0.14721840620040894,0.11056652665138245
1772728886558182100,1.06118212890625,-0.12400554865598679,-0.15638138353824615,0.2419024556875229
1772728886567700200,1.0707001953125,-0.0665842592716217,-0.1490510106086731,0.34208428859710693
1772728886577218300,1.08021826171875,-0.023823726922273636,-0.12767073512077332,0.40255987644195557
1772728886586736400,1.089736328125,0.010384701192378998,-0.10201441496610641,0.41905322670936584
1772728886596254500,1.09925439453125,0.040317077189683914,-0.07086031138896942,0.39889469742774963
1772728886605772800,1.108772705078125,0.05925388261675835,-0.043982263654470444,0.3488037884235382
1772728886615290600,1.11829052734375,0.06047561392188072,-0.001832594396546483,0.26939135789871216
1772728886624809000,1.12780908203125,0.053145237267017365,0.04276053607463837,0.1539379209280014
1772728886634327000,1.1373271484375,0.03848448023200035,0.07330377399921417,0.014049889519810677
1772728886643844900,1.146844970703125,0.021991131827235222,0.06719512492418289,-0.1331685185432434
1772728886653363200,1.15636328125,0.010384701192378998,0.02260199747979641,-0.27366742491722107
1772728886662881300,1.16588134765625,0.007941242307424545,-0.040317077189683914,-0.39828383922576904
1772728886672399400,1.1753994140625,0.018325943499803543,-0.10323614627122879,-0.500298261642456
1772728886681917400,1.18491748046875,0.033597562462091446,-0.16126830875873566,-0.5778780579566956
1772728886691435500,1.194435546875,0.05070177838206291,-0.19914191961288452,-0.62857985496521
1772728886700953600,1.20395361328125,0.06902772188186646,-0.21380266547203064,-0.6524035930633545
1772728886710471700,1.2134716796875,0.08613193035125732,-0.20769402384757996,-0.6407971382141113
1772728886719989800,1.22298974609375,0.10201441496610641,-0.19608759880065918,-0.5937605500221252
1772728886729507800,1.2325078125,0.12644900381565094,-0.1740964651107788,-0.5112938284873962
1772728886739026000,1.24202587890625,0.1588248461484909,-0.12705987691879272,-0.38850998878479004
1772728886748544000,1.2515439453125,0.1802051067352295,-0.06719512492418289,-0.24495677649974823
1772728886758062000,1.26106201171875,0.19242240488529205,-0.004886918235570192,-0.09896009415388107
1772728886767580200,1.270580078125,0.19730933010578156,0.07513637095689774,0.034208428114652634
1772728886777098200,1.28009814453125,0.19669845700263977,0.16737695038318634,0.143553227186203
1772728886786616300,1.2896162109375,0.18875721096992493,0.2522871494293213,0.2254091054201126
1772728886796134400,1.299134521484375,0.17653992772102356,0.3249800503253937,0.28588470816612244
1772728886805652500,1.308652587890625,0.164322629570961,0.38301220536231995,0.32131487131118774
1772728886815170800,1.3181708984375,0.1545487940311432,0.4214966893196106,0.33231043815612793
1772728886824688600,1.327688720703125,0.15149445831775665,0.4355465769767761,0.3249800503253937
1772728886834207000,1.33720703125,0.15577052533626556,0.4318813979625702,0.29443681240081787
1772728886843725000,1.34672509765625,0.1594357043504715,0.41844236850738525,0.23273947834968567
1772728886853243100,1.3562431640625,0.1594357043504715,0.39339691400527954,0.1490510106086731
1772728886862761200,1.36576123046875,0.15271618962287903,0.3445277214050293,0.05925388261675835
1772728886872279300,1.375279296875,0.14049890637397766,0.2663370370864868,-0.02626718580722809
1772728886881797400,1.38479736328125,0.12461641430854797,0.17226386070251465,-0.10201441496610641
1772728886891315500,1.3943154296875,0.11117739230394363,0.07330377399921417,-0.16004657745361328
1772728886900833500,1.40383349609375,0.10384701192378998,-0.004886918235570192,-0.2009745091199875
1772728886910351600,1.4133515625,0.1026252806186676,-0.047036588191986084,-0.22296564280986786
1772728886919869700,1.42286962890625,0.10506874322891235,-0.06047561392188072,-0.2205221801996231
1772728886929387800,1.4323876953125,0.10567960888147354,-0.050090912729501724,-0.1954767256975174
1772728886938905900,1.44190576171875,0.10567960888147354,-0.006108647678047419,-0.1545487940311432
1772728886948424000,1.451423828125,0.1130099818110466,0.05558869615197182,-0.1130099818110466
1772728886957942000,1.46094189453125,0.1337793916463852,0.12156209349632263,-0.08307760953903198
1772728886967460000,1.470460205078125,0.17043127119541168,0.1795942485332489,-0.06963858753442764
1772728886976978400,1.479978515625,0.21930044889450073,0.2370155304670334,-0.07330377399921417
1772728886986496300,1.489496337890625,0.27427828311920166,0.2571740746498108,-0.08674279600381851
1772728886996014300,1.499014404296875,0.32009315490722656,0.2559523284435272,-0.10201441496610641
1772728887005532700,1.50853271484375,0.3494146466255188,0.24556763470172882,-0.1178968995809555
1772728887015050500,1.518050537109375,0.3652971386909485,0.2254091054201126,-0.13255766034126282
1772728887024568800,1.52756884765625,0.3756818473339081,0.20341797173023224,-0.14294235408306122
1772728887034087000,1.5370869140625,0.379347026348114,0.18753549456596375,-0.14172062277793884
1772728887043605000,1.54660498046875,0.37629270553588867,0.16676609218120575,-0.11606431007385254
1772728887053123000,1.556123046875,0.37140578031539917,0.12583814561367035,-0.0513126403093338
1772728887062641200,1.56564111328125,0.3634645342826843,0.06902772188186646,0.04459312930703163
1772728887072159200,1.5751591796875,0.35735589265823364,0.021380268037319183,0.16126830875873566
1772728887081677300,1.58467724609375,0.3439168632030487,-0.002443459117785096,0.27855435013771057
1772728887091195400,1.5941953125,0.32009315490722656,-0.020158538594841957,0.3842339515686035
1772728887100713500,1.60371337890625,0.2926042377948761,-0.036651886999607086,0.46547895669937134
1772728887110231600,1.6132314453125,0.277332603931427,-0.02871064469218254,0.500298261642456
1772728887119749600,1.62274951171875,0.25900667905807495,0.012217295356094837,0.4923570156097412
1772728887129267700,1.632267822265625,0.23518294095993042,0.07452550530433655,0.4428769648075104
1772728887138785800,1.641785888671875,0.20952661335468292,0.15638138353824615,0.3634645342826843
1772728887148304000,1.651303955078125,0.18081597983837128,0.25473061203956604,0.2608392536640167
1772728887157822000,1.660822021484375,0.15271618962287903,0.33597561717033386,0.1484401375055313
1772728887167340000,1.670340087890625,0.12400554865598679,0.38240134716033936,0.033597562462091446
1772728887176858000,1.679858154296875,0.09712749719619751,0.3909534513950348,-0.07269290834665298
1772728887186376400,1.68937646484375,0.07024945318698883,0.3659079968929291,-0.16065743565559387
1772728887195894300,1.698894287109375,0.04459312930703163,0.32192572951316833,-0.23212862014770508
1772728887205412400,1.708412353515625,0.018325943499803543,0.25900667905807495,-0.2889390289783478
1772728887214930700,1.7179306640625,0.000610864779446274,0.16676609218120575,-0.3280344009399414
1772728887224448500,1.727448486328125,-0.012217295356094837,0.056810423731803894,-0.3555232882499695
1772728887233966800,1.736966796875,-0.02260199747979641,-0.06536252796649933,-0.3756818473339081
1772728887243485000,1.74648486328125,-0.02932151034474373,-0.19181154668331146,-0.38789913058280945
1772728887253003000,1.7560029296875,-0.040317077189683914,-0.33169957995414734,-0.3964512348175049
1772728887262521000,1.76552099609375,-0.05803215503692627,-0.4679224193096161,-0.4007273018360138
1772728887272039200,1.7750390625,-0.08429934084415436,-0.5955931544303894,-0.39767298102378845
1772728887281557200,1.78455712890625,-0.1185077652335167,-0.6872228980064392,-0.38728827238082886
1772728887291075300,1.794075439453125,-0.16249002516269684,-0.7373138070106506,-0.3695732057094574
1772728887300593400,1.803593505859375,-0.2162461280822754,-0.7507528066635132,-0.3488037884235382
1772728887310111500,1.813111572265625,-0.2706131041049957,-0.7373138070106506,-0.3292561173439026
1772728887319629600,1.822629638671875,-0.3194822669029236,-0.695164144039154,-0.3133736252784729
1772728887329147600,1.832147705078125,-0.3634645342826843,-0.62857985496521,-0.30115634202957153
1772728887338665700,1.841665771484375,-0.39767298102378845,-0.554665207862854,-0.2938259541988373
1772728887348183800,1.851183837890625,-0.42088583111763,-0.4630354940891266,-0.29138249158859253
1772728887357702000,1.860701904296875,-0.4410443603992462,-0.37140578031539917,-0.29077163338661194
1772728887367220000,1.870219970703125,-0.4514290690422058,-0.3029889166355133,-0.29016077518463135
1772728887376738000,1.879738037109375,-0.4569268524646759,-0.2614501118659973,-0.28527384996414185
1772728887386256100,1.889256103515625,-0.4520399272441864,-0.2632827162742615,-0.28405213356018066
1772728887395774200,1.898774169921875,-0.4361574649810791,-0.29565855860710144,-0.28527384996414185
1772728887405292300,1.908292236328125,-0.41294458508491516,-0.3335321843624115,-0.2932150959968567
1772728887414810600,1.917810546875,-0.379347026348114,-0.35185810923576355,-0.30970844626426697
1772728887424328400,1.927328369140625,-0.3451386094093323,-0.3402516841888428,-0.3341430425643921
1772728887433846500,1.936846435546875,-0.3139844834804535,-0.3127627670764923,-0.3536907136440277
1772728887443364900,1.94636474609375,-0.28527384996414185,-0.3017672002315521,-0.3585776388645172
1772728887452882700,1.955882568359375,-0.2669478952884674,-0.31154105067253113,-0.35063639283180237
1772728887462401000,1.965401123046875,-0.26450446248054504,-0.3390299379825592,-0.3298669755458832
1772728887471919000,1.974919189453125,-0.277332603931427,-0.37690356373786926,-0.2968802750110626
1772728887481437200,1.984437255859375,-0.3029889166355133,-0.4105011224746704,-0.2565632164478302
1772728887490955300,1.993955322265625,-0.33536475896835327,-0.43493571877479553,-0.21197007596492767
1772728887500473300,2.003473388671875,-0.37140578031539917,-0.4404335021972656,-0.16859868168830872
1772728887509991400,2.012991455078125,-0.40317076444625854,-0.4263836145401001,-0.1282816082239151
1772728887519509500,2.022509521484375,-0.42821621894836426,-0.3995055556297302,-0.09285144507884979
1772728887529027600,2.032027587890625,-0.4465421438217163,-0.3652971386909485,-0.056810423731803894
1772728887538545700,2.041545654296875,-0.4526508152484894,-0.3451386094093323,-0.017715077847242355
1772728887548063700,2.051063720703125,-0.44959646463394165,-0.3341430425643921,0.0256563201546669
1772728887557581800,2.060581787109375,-0.4453204274177551,-0.3396408259868622,0.06414080411195755
1772728887567100000,2.070099853515625,-0.4422661066055298,-0.35124725103378296,0.08552107214927673
1772728887576618000,2.079617919921875,-0.43310311436653137,-0.3451386094093323,0.0824667438864708
1772728887586136000,2.089135986328125,-0.411722868680954,-0.3066541254520416,0.053145237267017365
1772728887595654100,2.098654052734375,-0.37751442193984985,-0.2419024556875229,0.006108647678047419
1772728887605172200,2.108172119140625,-0.33719736337661743,-0.17531819641590118,-0.043371398001909256
1772728887614690300,2.117690185546875,-0.30604326725006104,-0.1185077652335167,-0.08124501258134842
1772728887624208400,2.12720849609375,-0.2919933497905731,-0.06963858753442764,-0.08979712426662445
1772728887633726500,2.1367265625,-0.2968802750110626,-0.02626718580722809,-0.06230820715427399
1772728887643244500,2.14624462890625,-0.3182605504989624,0.02260199747979641,0.007941242307424545
1772728887652762600,2.1557626953125,-0.3536907136440277,0.0513126403093338,0.10995566099882126
1772728887662280700,2.16528076171875,-0.3964512348175049,0.0513126403093338,0.22296564280986786
1772728887671799000,2.174799072265625,-0.4410443603992462,0.02626718580722809,0.32009315490722656
1772728887681316900,2.18431689453125,-0.46914416551589966,-0.000610864779446274,0.3897317349910736
1772728887690835200,2.193835205078125,-0.47464191913604736,-0.023212861269712448,0.43493571877479553
1772728887700353300,2.203353271484375,-0.45998117327690125,-0.050090912729501724,0.45998117327690125
1772728887709871000,2.21287109375,-0.430659681558609,-0.06414080411195755,0.4557051360607147
1772728887719389400,2.222389404296875,-0.3958403766155243,-0.047036588191986084,0.42455101013183594
1772728887728907500,2.231907470703125,-0.36163195967674255,-0.01954767294228077,0.389120876789093
1772728887738425600,2.241425537109375,-0.33169957995414734,0.001832594396546483,0.3585776388645172
1772728887747943700,2.250943603515625,-0.3139844834804535,0.007330377586185932,0.318871408700943
1772728887757461800,2.260461669921875,-0.31031930446624756,-0.017715077847242355,0.2767217457294464
1772728887766979800,2.269979736328125,-0.3170388340950012,-0.06597339361906052,0.23518294095993042
1772728887776498000,2.279497802734375,-0.3341430425643921,-0.12767073512077332,0.205861434340477
1772728887786016000,2.28901611328125,-0.3640754222869873,-0.18692462146282196,0.18325942754745483
1772728887795534000,2.2985341796875,-0.40805765986442566,-0.22357651591300964,0.16004657745361328
1772728887805052200,2.30805224609375,-0.4508182108402252,-0.23396120965480804,0.15149445831775665
1772728887814570200,2.3175703125,-0.4783071279525757,-0.2260199636220932,0.1649334877729416
1772728887824088300,2.32708837890625,-0.4868592321872711,-0.1905898153781891,0.19914191961288452
1772728887833606400,2.3366064453125,-0.4880809485912323,-0.12767073512077332,0.2364046722650528
1772728887843124500,2.34612451171875,-0.47952884435653687,-0.05070177838206291,0.2712239623069763
1772728887852642600,2.355642578125,-0.471587598323822,0.01649334840476513,0.29016077518463135
1772728887862160600,2.36516064453125,-0.4569268524646759,0.06352993845939636,0.3017672002315521
1772728887871678700,2.3746787109375,-0.4355465769767761,0.07513637095689774,0.3042106628417969
1772728887881196800,2.38419677734375,-0.4043924808502197,0.059864748269319534,0.29626941680908203
1772728887890715000,2.39371484375,-0.3646862804889679,0.040317077189683914,0.26450446248054504
1772728887900233200,2.403233154296875,-0.3231474757194519,0.030543239787220955,0.21380266547203064
1772728887909751000,2.4127509765625,-0.27000224590301514,0.023823726922273636,0.14538581669330597
1772728887919269400,2.422269287109375,-0.20952661335468292,0.021991131827235222,0.06841685622930527
1772728887928787500,2.431787353515625,-0.1490510106086731,0.039706211537122726,-0.007941242307424545
1772728887938305300,2.44130517578125,-0.09407317638397217,0.07513637095689774,-0.07330377399921417
1772728887947823600,2.45082373046875,-0.05192350596189499,0.11484257876873016,-0.11606431007385254
1772728887957341700,2.460341796875,-0.01954767294228077,0.1441640853881836,-0.13072505593299866
1772728887966859800,2.46985986328125,0.011606430634856224,0.15210533142089844,-0.1178968995809555
1772728887976377900,2.4793779296875,0.0360410213470459,0.14172062277793884,-0.07513637095689774
1772728887985896000,2.48889599609375,0.05497783049941063,0.12034036219120026,-0.008552107028663158
1772728887995414000,2.4984140625,0.06414080411195755,0.10629047453403473,0.06597339361906052
1772728888004932000,2.50793212890625,0.06780599057674408,0.10873392969369888,0.12767073512077332
1772728888014450200,2.5174501953125,0.06291907280683517,0.11056652665138245,0.16310089826583862
1772728888023968300,2.52696826171875,0.053756099194288254,0.10629047453403473,0.16676609218120575
1772728888033486300,2.536486328125,0.043982263654470444,0.09468404203653336,0.13927717506885529
1772728888043004400,2.54600439453125,0.03237583488225937,0.06963858753442764,0.08674279600381851
1772728888052522500,2.5555224609375,0.020769402384757996,0.031154103577136993,0.020158538594841957
1772728888062040600,2.56504052734375,0.01282816007733345,-0.008552107028663158,-0.0513126403093338
1772728888071558700,2.57455859375,0.007941242307424545,-0.04459312930703163,-0.11728604137897491
1772728888081076700,2.58407666015625,0.001832594396546483,-0.0818558782339096,-0.1692095398902893
1772728888090594800,2.5935947265625,-0.003665188793092966,-0.1081230640411377,-0.21135921776294708
1772728888100113000,2.60311279296875,-0.006719512399286032,-0.1130099818110466,-0.24373504519462585
1772728888109631000,2.612630859375,-0.0054977829568088055,-0.09834922850131989,-0.2626718580722809
1772728888119149000,2.622149169921875,0.001832594396546483,-0.07024945318698883,-0.268169641494751
1772728888128667100,2.631667236328125,0.015271619893610477,-0.04214967042207718,-0.2565632164478302
1772728888138185200,2.641185302734375,0.033597562462091446,-0.01588248461484909,-0.23335035145282745
1772728888147703300,2.650703369140625,0.05558869615197182,0.012217295356094837,-0.20280711352825165
1772728888157221400,2.660221435546875,0.07819069176912308,0.02260199747979641,-0.16737695038318634
1772728888166739500,2.669739501953125,0.10079269111156464,0.017715077847242355,-0.13500112295150757
1772728888176257800,2.6792578125,0.11728604137897491,0.013439024798572063,-0.11117739230394363
1772728888185775600,2.688775634765625,0.12583814561367035,0.01954767294228077,-0.0977383628487587
1772728888195294000,2.6982939453125,0.12644900381565094,0.03298669680953026,-0.09346231073141098
1772728888204812000,2.70781201171875,0.1185077652335167,0.047036588191986084,-0.09529490768909454
1772728888214329900,2.717329833984375,0.1081230640411377,0.06597339361906052,-0.10384701192378998
1772728888223848200,2.72684814453125,0.09896009415388107,0.09040798991918564,-0.11362084746360779
1772728888233366000,2.736365966796875,0.09346231073141098,0.12034036219120026,-0.11606431007385254
1772728888242884400,2.74588427734375,0.0922405794262886,0.143553227186203,-0.11056652665138245
1772728888252402400,2.75540234375,0.0977383628487587,0.1588248461484909,-0.09834922850131989
1772728888261920500,2.76492041015625,0.10690133273601532,0.1649334877729416,-0.08796452730894089
1772728888271438600,2.7744384765625,0.11728604137897491,0.16676609218120575,-0.07880155742168427
1772728888280956700,2.783956787109375,0.12461641430854797,0.1588248461484909,-0.06963858753442764
1772728888290474800,2.793474853515625,0.1288924664258957,0.14233149588108063,-0.05803215503692627
1772728888299992800,2.802992919921875,0.13072505593299866,0.11667517572641373,-0.03909534588456154
1772728888309511000,2.812510986328125,0.1386663019657135,0.08002328872680664,-0.014660755172371864
1772728888319029000,2.822029052734375,0.1545487940311432,0.05803215503692627,0.014660755172371864
1772728888328547000,2.831547119140625,0.16737695038318634,0.06230820715427399,0.04581485688686371
1772728888338065200,2.841065185546875,0.17226386070251465,0.08368847519159317,0.08124501258134842
1772728888347583200,2.850583251953125,0.17287473380565643,0.10018182545900345,0.11911863088607788
1772728888357101300,2.860101318359375,0.17653992772102356,0.10567960888147354,0.15760311484336853
1772728888366619400,2.869619384765625,0.18142683804035187,0.1081230640411377,0.19181154668331146
1772728888376137500,2.879137451171875,0.18570289015769958,0.1178968995809555,0.21991132199764252
1772728888385655600,2.888655517578125,0.19181154668331146,0.14049890637397766,0.2419024556875229
1772728888395173600,2.898173583984375,0.2009745091199875,0.17837251722812653,0.2608392536640167
1772728888404691700,2.907691650390625,0.21441353857517242,0.22785256803035736,0.27977606654167175
1772728888414209800,2.917209716796875,0.23457208275794983,0.2761108875274658,0.2968802750110626
1772728888423727900,2.926727783203125,0.2626718580722809,0.32620179653167725,0.30543237924575806
1772728888433246000,2.936245849609375,0.2993237376213074,0.37201663851737976,0.3035998046398163
1772728888442764000,2.945763916015625,0.33719736337661743,0.40744680166244507,0.28527384996414185
1772728888452282000,2.9552822265625,0.37201663851737976,0.42882707715034485,0.2528980076313019
1772728888461800200,2.96480029296875,0.3995055556297302,0.44348782300949097,0.20158538222312927
1772728888471318500,2.974318603515625,0.4153880476951599,0.46425724029541016,0.13011419773101807
1772728888480836400,2.98383642578125,0.41844236850738525,0.48013970255851746,0.040317077189683914
1772728888490354700,2.993354736328125,0.41294458508491516,0.4776962697505951,-0.056199558079242706
1772728888499872800,3.002872802734375,0.4062250852584839,0.4557051360607147,-0.14721840620040894
1772728888509390600,3.012390625,0.4062250852584839,0.38667741417884827,-0.20830489695072174
1772728888518908700,3.02190869140625,0.4153880476951599,0.26389357447624207,-0.20280711352825165
1772728888528426800,3.0314267578125,0.430659681558609,0.11911863088607788,-0.12034036219120026
1772728888537945000,3.040945068359375,0.4416552484035492,0.018325943499803543,0.018325943499803543
1772728888547463200,3.050463134765625,0.4416552484035492,-0.049480047076940536,0.1844811588525772
1772728888556981200,3.059981201171875,0.4410443603992462,-0.07757982611656189,0.3341430425643921
1772728888566499300,3.069499267578125,0.44959646463394165,-0.031154103577136993,0.4453204274177551
1772728888576017400,3.079017333984375,0.46059203147888184,0.07880155742168427,0.5094612240791321
1772728888585535500,3.088535400390625,0.4557051360607147,0.20952661335468292,0.5241219997406006
1772728888595053600,3.098053466796875,0.4361574649810791,0.32009315490722656,0.49663305282592773
1772728888604571600,3.107571533203125,0.4111120104789734,0.4043924808502197,0.4269944727420807
1772728888614089700,3.11708984375,0.39278605580329895,0.46059203147888184,0.32192572951316833
1772728888623607800,3.12660791015625,0.3848448097705841,0.4923570156097412,0.19669845700263977
1772728888633126000,3.1361259765625,0.3842339515686035,0.4990765154361725,0.06475166976451874
1772728888642644000,3.14564404296875,0.3805687427520752,0.4789179861545563,-0.05253437161445618
1772728888652162000,3.155162109375,0.37262752652168274,0.43493571877479553,-0.1496618688106537
1772728888661680000,3.16468017578125,0.370184063911438,0.3585776388645172,-0.22235478460788727
1772728888671198200,3.1741982421875,0.36224281787872314,0.2522871494293213,-0.27427828311920166
1772728888680716300,3.18371630859375,0.35063639283180237,0.1380554437637329,-0.30482152104377747
1772728888690234400,3.193234375,0.3335321843624115,0.02871064469218254,-0.3194822669029236
1772728888699752400,3.20275244140625,0.3121519088745117,-0.06108647957444191,-0.3231474757194519
1772728888709270500,3.2122705078125,0.2834412455558777,-0.12461641430854797,-0.3176496922969818
1772728888718788600,3.22178857421875,0.2577849328517914,-0.15210533142089844,-0.3029889166355133
1772728888728306700,3.231306640625,0.235793799161911,-0.14477495849132538,-0.27916520833969116
1772728888737824800,3.24082470703125,0.20891575515270233,-0.12644900381565094,-0.24862197041511536
1772728888747342800,3.2503427734375,0.18203771114349365,-0.09468404203653336,-0.21258094906806946
1772728888756861000,3.25986083984375,0.1637117564678192,-0.04825831577181816,-0.16798780858516693
1772728888766379000,3.26937890625,0.15088360011577606,0.004886918235570192,-0.12278381735086441
1772728888775897000,3.27889697265625,0.1380554437637329,0.05192350596189499,-0.08429934084415436
1772728888785415200,3.288415283203125,0.12278381735086441,0.09407317638397217,-0.06047561392188072
1772728888794933200,3.297933349609375,0.10873392969369888,0.12644900381565094,-0.06108647957444191
1772728888804451300,3.307451416015625,0.10140355676412582,0.14721840620040894,-0.08002328872680664
1772728888813969700,3.3169697265625,0.10018182545900345,0.16004657745361328,-0.1081230640411377
1772728888823487500,3.326487548828125,0.1026252806186676,0.1740964651107788,-0.13927717506885529
1772728888833005800,3.336005859375,0.10873392969369888,0.18631376326084137,-0.16737695038318634
1772728888842523600,3.345523681640625,0.11728604137897491,0.19914191961288452,-0.18692462146282196
1772728888852041700,3.355041748046875,0.12583814561367035,0.2101374864578247,-0.19669845700263977
1772728888861560000,3.36456005859375,0.1288924664258957,0.20952661335468292,-0.1954767256975174
1772728888871078000,3.374077880859375,0.1282816082239151,0.1997527778148651,-0.18692462146282196
1772728888880596200,3.38359619140625,0.12461641430854797,0.18875721096992493,-0.17287473380565643
1772728888890114300,3.3931142578125,0.1130099818110466,0.1698204129934311,-0.15699224174022675
1772728888899632400,3.40263232421875,0.09468404203653336,0.13683371245861053,-0.15515965223312378
1772728888909150500,3.412150390625,0.07147117704153061,0.09468404203653336,-0.16737695038318634
1772728888918668500,3.42166845703125,0.049480047076940536,0.056199558079242706,-0.18692462146282196
1772728888928186600,3.4311865234375,0.026878049597144127,0.01893680728971958,-0.20158538222312927
1772728888937704700,3.44070458984375,0.002443459117785096,-0.010995565913617611,-0.20158538222312927
1772728888947222800,3.450222900390625,-0.01954767294228077,-0.036651886999607086,-0.18142683804035187
1772728888956740900,3.459740966796875,-0.03909534588456154,-0.0513126403093338,-0.14538581669330597
1772728888966259000,3.469259033203125,-0.05497783049941063,-0.06352993845939636,-0.10445787757635117
1772728888975777000,3.478777099609375,-0.06902772188186646,-0.08674279600381851,-0.059864748269319534
1772728888985295000,3.488295166015625,-0.08063415437936783,-0.12278381735086441,-0.009773836471140385
1772728888994813200,3.497813232421875,-0.09162971377372742,-0.17653992772102356,0.0360410213470459
1772728889004331300,3.507331298828125,-0.1026252806186676,-0.23762640357017517,0.056199558079242706
1772728889013849300,3.516849365234375,-0.11606431007385254,-0.27916520833969116,0.0409279391169548
1772728889023367400,3.526367431640625,-0.1331685185432434,-0.2864955961704254,-0.004276053514331579
1772728889032885500,3.535885498046875,-0.1533270627260208,-0.2718348205089569,-0.06352993845939636
1772728889042403600,3.545403564453125,-0.16554436087608337,-0.24495677649974823,-0.12461641430854797
1772728889051921700,3.554921630859375,-0.16676609218120575,-0.20402882993221283,-0.1692095398902893
1772728889061439700,3.564439697265625,-0.1533270627260208,-0.1533270627260208,-0.18753549456596375
1772728889070957800,3.573957763671875,-0.1331685185432434,-0.11239911615848541,-0.1740964651107788
1772728889080476000,3.583475830078125,-0.11178825795650482,-0.07574722915887833,-0.13072505593299866
1772728889089994000,3.592993896484375,-0.08979712426662445,-0.04153880476951599,-0.05803215503692627
1772728889099512000,3.602511962890625,-0.06963858753442764,-0.014660755172371864,0.03237583488225937
1772728889109030100,3.612030029296875,-0.05070177838206291,0.015271619893610477,0.12461641430854797
1772728889118548200,3.62154833984375,-0.03176496922969818,0.043371398001909256,0.20280711352825165
1772728889128066300,3.63106640625,-0.01893680728971958,0.06352993845939636,0.2516762912273407
1772728889137584400,3.64058447265625,-0.010995565913617611,0.07635809481143951,0.2706131041049957
1772728889147102500,3.6501025390625,-0.009773836471140385,0.07452550530433655,0.2663370370864868
1772728889156620500,3.65962060546875,-0.018325943499803543,0.06291907280683517,0.24312418699264526
1772728889166138600,3.669138671875,-0.033597562462091446,0.05070177838206291,0.20708316564559937
1772728889175656700,3.67865673828125,-0.056810423731803894,0.04520399495959282,0.17104214429855347
1772728889185174800,3.6881748046875,-0.08124501258134842,0.043371398001909256,0.14172062277793884
1772728889194693000,3.697693115234375,-0.10873392969369888,0.03176496922969818,0.11911863088607788
1772728889204211000,3.7072109375,-0.12644900381565094,0.004886918235570192,0.09590577334165573
1772728889213729000,3.71672900390625,-0.1380554437637329,-0.031154103577136993,0.07269290834665298
1772728889223247400,3.726247314453125,-0.14110976457595825,-0.08307760953903198,0.0513126403093338
1772728889232765200,3.73576513671875,-0.1386663019657135,-0.14660754799842834,0.040317077189683914
1772728889242283500,3.745283447265625,-0.13072505593299866,-0.205861434340477,0.05742128938436508
1772728889251801300,3.75480126953125,-0.1185077652335167,-0.2461785078048706,0.10995566099882126
1772728889261319700,3.764319580078125,-0.11728604137897491,-0.26511532068252563,0.19425499439239502
1772728889270837800,3.773837646484375,-0.13072505593299866,-0.2657261788845062,0.29016077518463135
1772728889280355600,3.78335546875,-0.15088360011577606,-0.23945899307727814,0.3750709891319275
1772728889289874000,3.7928740234375,-0.17348559200763702,-0.185092031955719,0.43310311436653137
1772728889299392000,3.80239208984375,-0.2003636509180069,-0.1337793916463852,0.45448338985443115
1772728889308910000,3.81191015625,-0.23029601573944092,-0.11056652665138245,0.43860089778900146
1772728889318428200,3.82142822265625,-0.25900667905807495,-0.10140355676412582,0.38850998878479004
1772728889327946200,3.8309462890625,-0.28405213356018066,-0.08918625861406326,0.3121519088745117
1772728889337464300,3.84046435546875,-0.3066541254520416,-0.08124501258134842,0.2211330533027649
1772728889346982400,3.849982421875,-0.3182605504989624,-0.08552107214927673,0.1288924664258957
1772728889356500500,3.85950048828125,-0.32131487131118774,-0.10567960888147354,0.04459312930703163
1772728889366018600,3.8690185546875,-0.32009315490722656,-0.12950333952903748,-0.026878049597144127
1772728889375536600,3.87853662109375,-0.3194822669029236,-0.15149445831775665,-0.08429934084415436
1772728889385054700,3.8880546875,-0.32070401310920715,-0.1649334877729416,-0.13194678723812103
1772728889394572800,3.89757275390625,-0.31459537148475647,-0.15577052533626556,-0.17226386070251465
1772728889404091000,3.9070908203125,-0.2987128794193268,-0.1233946830034256,-0.1948658674955368
1772728889413609000,3.91660888671875,-0.2761108875274658,-0.08918625861406326,-0.19730933010578156
1772728889423127000,3.926126953125,-0.2516762912273407,-0.06597339361906052,-0.1740964651107788
1772728889432645000,3.93564501953125,-0.22296564280986786,-0.056199558079242706,-0.12583814561367035
1772728889442163200,3.9451630859375,-0.19181154668331146,-0.05070177838206291,-0.06414080411195755
1772728889451681300,3.954681396484375,-0.16126830875873566,-0.05803215503692627,-0.007941242307424545
1772728889461199400,3.964199462890625,-0.13255766034126282,-0.0616973415017128,0.026878049597144127
1772728889470717400,3.973717529296875,-0.10934479534626007,-0.037262752652168274,0.03481929376721382
1772728889480235500,3.983235595703125,-0.09285144507884979,0.006719512399286032,0.018325943499803543
1772728889489753600,3.992753662109375,-0.0818558782339096,0.05070177838206291,-0.017715077847242355
1772728889499271700,4.002271728515625,-0.07452550530433655,0.08918625861406326,-0.06963858753442764
1772728889508789800,4.011789794921875,-0.06536252796649933,0.11239911615848541,-0.1233946830034256
1772728889518307800,4.021307861328125,-0.056810423731803894,0.10934479534626007,-0.17837251722812653
1772728889527826000,4.030825927734375,-0.04886918142437935,0.08613193035125732,-0.22907429933547974
1772728889537344000,4.040343994140625,-0.03787361457943916,0.046425722539424896,-0.2779434621334076
1772728889546862000,4.049862060546875,-0.026878049597144127,-0.004886918235570192,-0.31459537148475647
1772728889556380200,4.059380126953125,-0.017715077847242355,-0.053145237267017365,-0.33597561717033386
1772728889565898200,4.068898193359375,-0.010995565913617611,-0.09712749719619751,-0.3445277214050293
1772728889575416300,4.078416259765625,-0.006108647678047419,-0.14477495849132538,-0.34147340059280396
1772728889584934400,4.087934326171875,-0.002443459117785096,-0.18264856934547424,-0.33169957995414734
1772728889594452500,4.097452392578125,0,-0.20769402384757996,-0.3133736252784729
1772728889603970600,4.106970458984375,0.0030543238390237093,-0.21746785938739777,-0.28954991698265076
1772728889613488600,4.116488525390625,0.007941242307424545,-0.21197007596492767,-0.268169641494751
1772728889623007000,4.126007080078125,0.014660755172371864,-0.19914191961288452,-0.24434591829776764
1772728889632524800,4.13552490234375,0.021380268037319183,-0.1802051067352295,-0.21685700118541718
1772728889642043000,4.14504296875,0.027488915249705315,-0.15149445831775665,-0.1844811588525772
1772728889651561000,4.15456103515625,0.034208428114652634,-0.11606431007385254,-0.14782927930355072
1772728889661079000,4.1640791015625,0.0360410213470459,-0.08368847519159317,-0.10690133273601532
1772728889670597400,4.173597412109375,0.03481929376721382,-0.056810423731803894,-0.06719512492418289
1772728889680115200,4.183115234375,0.03237583488225937,-0.033597562462091446,-0.02871064469218254
1772728889689633500,4.192633544921875,0.028099779039621353,-0.01893680728971958,0.006108647678047419
1772728889699151400,4.2021513671875,0.024434590712189674,-0.014049889519810677,0.030543239787220955
1772728889708669400,4.21166943359375,0.020769402384757996,-0.010995565913617611,0.04276053607463837
1772728889718187800,4.221187744140625,0.017715077847242355,-0.0054977829568088055,0.039706211537122726
1772728889727705600,4.23070556640625,0.015271619893610477,-0.004276053514331579,0.02260199747979641
1772728889737224000,4.240223876953125,0.01588248461484909,-0.006719512399286032,-0.0030543238390237093
1772728889756260000,4.259260009765625,0.023212861269712448,-0.029932374134659767,-0.06230820715427399
1772728889765778200,4.268778076171875,0.03237583488225937,-0.05070177838206291,-0.08368847519159317
1772728889775296000,4.2782958984375,0.043982263654470444,-0.06536252796649933,-0.09346231073141098
1772728889784814000,4.28781396484375,0.056810423731803894,-0.06475166976451874,-0.08613193035125732
1772728889794332400,4.29733251953125,0.07086031138896942,-0.049480047076940536,-0.05925388261675835
1772728889803850500,4.3068505859375,0.08613193035125732,-0.01954767294228077,-0.008552107028663158
1772728889813368600,4.31636865234375,0.10445787757635117,0.028099779039621353,0.06352993845939636
1772728889822886700,4.32588671875,0.12034036219120026,0.08429934084415436,0.14477495849132538
1772728889832404700,4.33540478515625,0.12950333952903748,0.14172062277793884,0.21930044889450073
1772728889841922800,4.3449228515625,0.1386663019657135,0.19792018830776215,0.268169641494751
1772728889851441000,4.35444091796875,0.15210533142089844,0.2467893660068512,0.2828303873538971
1772728889860959000,4.363958984375,0.1698204129934311,0.28527384996414185,0.2632827162742615
1772728889870477000,4.37347705078125,0.1893680840730667,0.3121519088745117,0.21319180727005005
1772728889879995100,4.3829951171875,0.2107483446598053,0.32009315490722656,0.1386663019657135
1772728889889513200,4.39251318359375,0.2309068888425827,0.3090975880622864,0.04764745384454727
1772728889899031300,4.40203125,0.2516762912273407,0.2809978127479553,-0.05192350596189499
1772728889908549400,4.41154931640625,0.2669478952884674,0.23884813487529755,-0.15149445831775665
1772728889918067500,4.4210673828125,0.27977606654167175,0.18142683804035187,-0.24434591829776764
1772728889927585500,4.43058544921875,0.2974911332130432,0.11667517572641373,-0.3237583339214325
1772728889937103600,4.440103515625,0.31520622968673706,0.043982263654470444,-0.3811796307563782
1772728889946621700,4.44962158203125,0.33047783374786377,-0.01893680728971958,-0.40927940607070923
1772728889956139800,4.459139892578125,0.34697118401527405,-0.04764745384454727,-0.4001164436340332
1772728889965657900,4.468657958984375,0.36285367608070374,-0.028099779039621353,-0.3445277214050293
1772728889975176000,4.478176025390625,0.3750709891319275,0.03543015569448471,-0.24801109731197357
1772728889984694000,4.487694091796875,0.3860665261745453,0.11972949653863907,-0.12034036219120026
1772728889994212000,4.497212158203125,0.39767298102378845,0.21807873249053955,0.0360410213470459
1772728890003730200,4.506730224609375,0.4172206521034241,0.31459537148475647,0.20769402384757996
1772728890013248300,4.516248291015625,0.43921178579330444,0.3915643095970154,0.3634645342826843
1772728890022766300,4.525766357421875,0.44837474822998047,0.4379900395870209,0.49418962001800537
1772728890032284400,4.535284423828125,0.44348782300949097,0.4563159942626953,0.5784889459609985
1772728890041802500,4.544802490234375,0.4324922561645508,0.4685332775115967,0.6029235124588013
1772728890051320600,4.554320556640625,0.4196641147136688,0.4783071279525757,0.5760455131530762
1772728890060838700,4.563838623046875,0.4068359434604645,0.48441576957702637,0.516791582107544
1772728890070356700,4.573356689453125,0.39278605580329895,0.49113526940345764,0.4324922561645508
1772728890079874800,4.582874755859375,0.3842339515686035,0.4917461574077606,0.3274235129356384
1772728890089393000,4.592392822265625,0.38850998878479004,0.4831940531730652,0.21380266547203064
1772728890098911000,4.601910888671875,0.3995055556297302,0.45448338985443115,0.10506874322891235
1772728890108429000,4.611428955078125,0.41355544328689575,0.39767298102378845,0.01282816007733345
1772728890117947100,4.620947021484375,0.42271843552589417,0.3023780584335327,-0.05192350596189499
1772728890127465200,4.63046533203125,0.4202749729156494,0.17226386070251465,-0.09101885557174683
1772728890136983300,4.6399833984375,0.4062250852584839,0.03481929376721382,-0.1185077652335167
1772728890146501400,4.64950146484375,0.3787361681461334,-0.08063415437936783,-0.1539379209280014
1772728890156019500,4.65901953125,0.3439168632030487,-0.15760311484336853,-0.1997527778148651
1772728890165537500,4.66853759765625,0.29993459582328796,-0.18570289015769958,-0.25411975383758545
1772728890175055600,4.6780556640625,0.25350889563560486,-0.18570289015769958,-0.29443681240081787
1772728890184573700,4.68757373046875,0.20708316564559937,-0.16126830875873566,-0.31154105067253113
1772728890194091800,4.697091796875,0.164322629570961,-0.11728604137897491,-0.30482152104377747
1772728890203609900,4.70660986328125,0.12217295914888382,-0.07269290834665298,-0.27855435013771057
1772728890213128000,4.7161279296875,0.07391463965177536,-0.028099779039621353,-0.2419024556875229
1772728890222646000,4.72564599609375,0.031154103577136993,0.001221729558892548,-0.1954767256975174
1772728890232164000,4.7351640625,0.000610864779446274,0.024434590712189674,-0.14233149588108063
1772728890241682200,4.74468212890625,-0.015271619893610477,0.053145237267017365,-0.09162971377372742
1772728890251200500,4.754200439453125,-0.025045456364750862,0.07941242307424545,-0.053145237267017365
1772728890260718300,4.76371826171875,-0.03298669680953026,0.10445787757635117,-0.0360410213470459
1772728890270236400,4.773236328125,-0.03481929376721382,0.13255766034126282,-0.03543015569448471
1772728890279754500,4.78275439453125,-0.03787361457943916,0.1533270627260208,-0.04825831577181816
1772728890289272600,4.7922724609375,-0.04276053607463837,0.16737695038318634,-0.07086031138896942
1772728890298791000,4.801791015625,-0.04459312930703163,0.18203771114349365,-0.09651663154363632
1772728890308308700,4.811308837890625,-0.04459312930703163,0.1899789422750473,-0.12095122784376144
1772728890317827000,4.8208271484375,-0.04459312930703163,0.18325942754745483,-0.14294235408306122
1772728890327345000,4.830344970703125,-0.04459312930703163,0.16676609218120575,-0.16065743565559387
1772728890336863200,4.83986328125,-0.04459312930703163,0.13988803327083588,-0.17531819641590118
1772728890346381300,4.84938134765625,-0.04459312930703163,0.10934479534626007,-0.18203771114349365
1772728890355899100,4.858899169921875,-0.043982263654470444,0.07513637095689774,-0.1802051067352295
1772728890365417500,4.86841748046875,-0.04581485688686371,0.040317077189683914,-0.16249002516269684
1772728890374935300,4.877935302734375,-0.0513126403093338,0.001221729558892548,-0.1233946830034256
1772728890384453600,4.88745361328125,-0.05436696484684944,-0.02932151034474373,-0.08124501258134842
1772728890393971700,4.8969716796875,-0.06291907280683517,-0.043371398001909256,-0.04459312930703163
1772728890403489800,4.90648974609375,-0.06719512492418289,-0.0513126403093338,-0.020769402384757996
1772728890413008000,4.9160078125,-0.06902772188186646,-0.05558869615197182,-0.010995565913617611
1772728890422525700,4.925525634765625,-0.07269290834665298,-0.06230820715427399,-0.010995565913617611
1772728890432044000,4.9350439453125,-0.07941242307424545,-0.07574722915887833,-0.014049889519810677
1772728890441562000,4.94456201171875,-0.08796452730894089,-0.09712749719619751,-0.023823726922273636
1772728890451080200,4.954080078125,-0.09896009415388107,-0.12278381735086441,-0.037262752652168274
1772728890460598300,4.963598388671875,-0.10873392969369888,-0.15149445831775665,-0.05742128938436508
1772728890470116400,4.973116455078125,-0.11972949653863907,-0.16798780858516693,-0.07819069176912308
1772728890479634400,4.982634521484375,-0.13072505593299866,-0.17165300250053406,-0.0922405794262886
1772728890489152500,4.992152587890625,-0.14110976457595825,-0.1594357043504715,-0.09529490768909454
1772728890498670600,5.001670654296875,-0.1496618688106537,-0.13988803327083588,-0.0873536616563797
1772728890508188700,5.011188720703125,-0.15699224174022675,-0.13194678723812103,-0.06352993845939636
1772728890517706800,5.020706787109375,-0.16004657745361328,-0.14294235408306122,-0.02626718580722809
1772728890527224800,5.030224853515625,-0.1539379209280014,-0.17165300250053406,0.020769402384757996
1772728890536743000,5.039742919921875,-0.143553227186203,-0.21441353857517242,0.08307760953903198
1772728890546261000,5.049260986328125,-0.1288924664258957,-0.2712239623069763,0.15699224174022675
1772728890555779000,5.058779052734375,-0.12156209349632263,-0.3402516841888428,0.23457208275794983
1772728890565297200,5.068297119140625,-0.12461641430854797,-0.39400777220726013,0.29626941680908203
1772728890574815200,5.077815185546875,-0.1337793916463852,-0.4159989058971405,0.3274235129356384
1772728890584333300,5.087333251953125,-0.15088360011577606,-0.41905322670936584,0.318871408700943
1772728890593851400,5.096851318359375,-0.17715078592300415,-0.40805765986442566,0.27366742491722107
1772728890603369500,5.106369384765625,-0.20708316564559937,-0.3811796307563782,0.2101374864578247
1772728890612887600,5.115887451171875,-0.23396120965480804,-0.34574946761131287,0.14538581669330597
1772728890622405600,5.125405517578125,-0.25534147024154663,-0.3170388340950012,0.09651663154363632
1772728890631923700,5.134923828125,-0.2669478952884674,-0.2938259541988373,0.07391463965177536
1772728890641441800,5.14444189453125,-0.2663370370864868,-0.27000224590301514,0.07452550530433655
1772728890650960000,5.1539599609375,-0.25411975383758545,-0.25350889563560486,0.09529490768909454
1772728890660478000,5.16347802734375,-0.22968515753746033,-0.24006985127925873,0.1288924664258957
1772728890669996000,5.17299609375,-0.19853104650974274,-0.2205221801996231,0.1698204129934311
1772728890679514000,5.18251416015625,-0.16676609218120575,-0.21319180727005005,0.21991132199764252
1772728890689032200,5.1920322265625,-0.14049890637397766,-0.2156352698802948,0.28405213356018066
1772728890698550300,5.20155029296875,-0.12950333952903748,-0.21135921776294708,0.36163195967674255
1772728890708068400,5.211068359375,-0.14233149588108063,-0.20647229254245758,0.4416552484035492
1772728890717586400,5.22058642578125,-0.17715078592300415,-0.21685700118541718,0.5021308660507202
1772728890727104500,5.2301044921875,-0.21930044889450073,-0.22907429933547974,0.5247328281402588
1772728890736622600,5.23962255859375,-0.2608392536640167,-0.2309068888425827,0.5027416944503784
1772728890746140700,5.249140625,-0.3029889166355133,-0.22235478460788727,0.4379900395870209
1772728890755658800,5.25865869140625,-0.34574946761131287,-0.205861434340477,0.33658650517463684
1772728890765176800,5.2681767578125,-0.38667741417884827,-0.1844811588525772,0.21441353857517242
1772728890774695000,5.27769482421875,-0.4221075773239136,-0.16615521907806396,0.09468404203653336
1772728890784213000,5.287212890625,-0.4471530318260193,-0.1698204129934311,-0.008552107028663158
1772728890793731000,5.29673095703125,-0.46486809849739075,-0.19364413619041443,-0.08979712426662445
1772728890803249200,5.306249267578125,-0.4825831651687622,-0.23335035145282745,-0.1490510106086731
1772728890812767200,5.315767333984375,-0.49480047821998596,-0.26450446248054504,-0.1954767256975174
1772728890822285300,5.325285400390625,-0.500298261642456,-0.277332603931427,-0.2309068888425827
1772728890831803400,5.334803466796875,-0.4972439408302307,-0.2761108875274658,-0.2626718580722809
1772728890841321500,5.344321533203125,-0.4868592321872711,-0.2565632164478302,-0.2877173125743866
1772728890850839600,5.353839599609375,-0.4734202027320862,-0.2101374864578247,-0.3042106628417969
1772728890860357600,5.363357666015625,-0.4514290690422058,-0.1386663019657135,-0.31093016266822815
1772728890869875700,5.372875732421875,-0.41905322670936584,-0.06963858753442764,-0.2919933497905731
1772728890879393800,5.382393798828125,-0.3799578845500946,-0.013439024798572063,-0.2406807243824005
1772728890888912000,5.391911865234375,-0.33231043815612793,0.01282816007733345,-0.16615521907806396
1772728890898430000,5.401429931640625,-0.28038692474365234,0.013439024798572063,-0.07880155742168427
1772728890907948000,5.410947998046875,-0.22968515753746033,-0.008552107028663158,0.006719512399286032
1772728890917466000,5.420466064453125,-0.1844811588525772,-0.05192350596189499,0.07880155742168427
1772728890926984200,5.429984130859375,-0.14599667489528656,-0.09712749719619751,0.13133592903614044
1772728890936502300,5.439502197265625,-0.11667517572641373,-0.11972949653863907,0.15699224174022675
1772728890946020600,5.4490205078125,-0.09957095980644226,-0.12217295914888382,0.15515965223312378
1772728890955538700,5.45853857421875,-0.09040798991918564,-0.11117739230394363,0.12400554865598679
1772728890965056800,5.468056884765625,-0.09040798991918564,-0.08674279600381851,0.0665842592716217
1772728890974574800,5.477574951171875,-0.09346231073141098,-0.059864748269319534,-0.006108647678047419
1772728890984093000,5.487093017578125,-0.10201441496610641,-0.039706211537122726,-0.08429934084415436
1772728890993611000,5.496611083984375,-0.11178825795650482,-0.034208428114652634,-0.16065743565559387
1772728891003129000,5.506129150390625,-0.11911863088607788,-0.040317077189683914,-0.23335035145282745
1772728891012647200,5.515647216796875,-0.12767073512077332,-0.05497783049941063,-0.29626941680908203
1772728891022165200,5.525165283203125,-0.13622283935546875,-0.07452550530433655,-0.3494146466255188
1772728891031683300,5.534683349609375,-0.14477495849132538,-0.08429934084415436,-0.3860665261745453
1772728891041201400,5.544201416015625,-0.1496618688106537,-0.08552107214927673,-0.4043924808502197
1772728891050719500,5.553719482421875,-0.14477495849132538,-0.08796452730894089,-0.3946186602115631
1772728891060237600,5.563237548828125,-0.13194678723812103,-0.09285144507884979,-0.3536907136440277
1772728891069755600,5.572755615234375,-0.11545344442129135,-0.08307760953903198,-0.2828303873538971
1772728891079273700,5.582273681640625,-0.09896009415388107,-0.0616973415017128,-0.18753549456596375
1772728891088791800,5.591791748046875,-0.08613193035125732,-0.03848448023200035,-0.07819069176912308
1772728891098310000,5.601309814453125,-0.06963858753442764,-0.006719512399286032,0.02626718580722809
1772728891107828000,5.610827880859375,-0.050090912729501724,0.028099779039621353,0.10629047453403473
1772728891117346000,5.620345947265625,-0.02871064469218254,0.06597339361906052,0.15638138353824615
1772728891126864100,5.629864013671875,-0.008552107028663158,0.09651663154363632,0.17898337543010712
1772728891136382200,5.63938232421875,0.0054977829568088055,0.10995566099882126,0.17776164412498474
1772728891145900300,5.648900390625,0.017715077847242355,0.12034036219120026,0.1588248461484909
1772728891155418400,5.65841845703125,0.0256563201546669,0.12156209349632263,0.12522727251052856
1772728891164936400,5.6679365234375,0.031154103577136993,0.09896009415388107,0.07880155742168427
1772728891174454500,5.67745458984375,0.040317077189683914,0.0665842592716217,0.02260199747979641
1772728891183972600,5.68697265625,0.05070177838206291,0.031154103577136993,-0.029932374134659767
1772728891193490700,5.69649072265625,0.05436696484684944,-0.014660755172371864,-0.06841685622930527
1772728891203008800,5.7060087890625,0.04825831577181816,-0.059864748269319534,-0.08674279600381851
1772728891212526800,5.71552685546875,0.03543015569448471,-0.10018182545900345,-0.08674279600381851
1772728891222045000,5.725044921875,0.02260199747979641,-0.13988803327083588,-0.07757982611656189
1772728891231563000,5.73456298828125,0.012217295356094837,-0.16859868168830872,-0.0616973415017128
1772728891241081000,5.7440810546875,0.000610864779446274,-0.16065743565559387,-0.043982263654470444
1772728891250599200,5.75359912109375,-0.015271619893610477,-0.11239911615848541,-0.01649334840476513
1772728891260117200,5.7631171875,-0.034208428114652634,-0.034208428114652634,0.021991131827235222
1772728891269635300,5.77263525390625,-0.040317077189683914,0.05864302068948746,0.07391463965177536
1772728891279153400,5.7821533203125,-0.03481929376721382,0.1386663019657135,0.13622283935546875
1772728891288671500,5.79167138671875,-0.017715077847242355,0.19364413619041443,0.19853104650974274
1772728891298189600,5.801189453125,0.007330377586185932,0.23273947834968567,0.2516762912273407
1772728891307707600,5.810707763671875,0.0409279391169548,0.2577849328517914,0.2864955961704254
1772728891317225700,5.820225830078125,0.07635809481143951,0.26450446248054504,0.2974911332130432
1772728891326743800,5.829743896484375,0.11056652665138245,0.24434591829776764,0.28466299176216125
1772728891336262000,5.839261962890625,0.14233149588108063,0.2107483446598053,0.24556763470172882
1772728891345780000,5.848780029296875,0.17165300250053406,0.1698204129934311,0.18570289015769958
1772728891355298000,5.858298095703125,0.20219624042510986,0.12644900381565094,0.11178825795650482
1772728891364816100,5.867816162109375,0.2254091054201126,0.09651663154363632,0.034208428114652634
1772728891374334200,5.877334228515625,0.23884813487529755,0.06841685622930527,-0.03787361457943916
1772728891383852300,5.886852294921875,0.2461785078048706,0.043371398001909256,-0.08796452730894089
1772728891393370400,5.896370361328125,0.25473061203956604,0.009162971749901772,-0.09285144507884979
1772728891402888400,5.905888427734375,0.25900667905807495,-0.030543239787220955,-0.03481929376721382
1772728891412406500,5.915406494140625,0.25961753726005554,-0.05803215503692627,0.07086031138896942
1772728891421924600,5.924924560546875,0.25411975383758545,-0.05925388261675835,0.19364413619041443
1772728891431442700,5.934442626953125,0.24556763470172882,-0.04581485688686371,0.3066541254520416
1772728891440960800,5.943960693359375,0.2412915825843811,-0.028099779039621353,0.39767298102378845
1772728891450478800,5.953478759765625,0.23945899307727814,0.009773836471140385,0.45875945687294006
1772728891459997000,5.962996826171875,0.23518294095993042,0.08124501258134842,0.48502662777900696
1772728891469515000,5.972514892578125,0.22418737411499023,0.15821397304534912,0.4776962697505951
1772728891479033000,5.982033203125,0.20647229254245758,0.2254091054201126,0.4367683231830597
1772728891488551200,5.99155126953125,0.19120067358016968,0.27977606654167175,0.35674503445625305
1772728891498069200,6.0010693359375,0.185092031955719,0.33169957995414734,0.24862197041511536
1772728891507587300,6.01058740234375,0.18875721096992493,0.3646862804889679,0.1331685185432434
1772728891517105400,6.02010546875,0.20280711352825165,0.3787361681461334,0.02260199747979641
1772728891526623500,6.02962353515625,0.21807873249053955,0.37262752652168274,-0.07452550530433655
1772728891536141600,6.0391416015625,0.23273947834968567,0.34147340059280396,-0.15638138353824615
1772728891545659600,6.04865966796875,0.24740023910999298,0.2889390289783478,-0.21746785938739777
1772728891555177700,6.058177734375,0.26389357447624207,0.2211330533027649,-0.25473061203956604
1772728891564695800,6.06769580078125,0.27916520833969116,0.14233149588108063,-0.2712239623069763
1772728891574214000,6.0772138671875,0.2889390289783478,0.05558869615197182,-0.27855435013771057
1772728891583732000,6.08673193359375,0.29077163338661194,-0.020158538594841957,-0.28038692474365234
1772728891593250000,6.09625,0.28466299176216125,-0.07635809481143951,-0.27855435013771057
1772728891602768100,6.10576806640625,0.2675587832927704,-0.11545344442129135,-0.2779434621334076
1772728891612286200,6.1152861328125,0.24434591829776764,-0.13561198115348816,-0.2767217457294464
1772728891621804300,6.12480419921875,0.21685700118541718,-0.12156209349632263,-0.2657261788845062
1772728891631322400,6.134322265625,0.1899789422750473,-0.09285144507884979,-0.24006985127925873
1772728891640840400,6.14384033203125,0.1692095398902893,-0.06536252796649933,-0.2052505612373352
1772728891650358500,6.153358642578125,0.1533270627260208,-0.03481929376721382,-0.16859868168830872
1772728891659876600,6.162876708984375,0.143553227186203,-0.013439024798572063,-0.13683371245861053
1772728891669394700,6.172394775390625,0.13561198115348816,-0.01282816007733345,-0.1130099818110466
1772728891678912800,6.181912841796875,0.12950333952903748,-0.020769402384757996,-0.10506874322891235
1772728891688430800,6.191430908203125,0.1282816082239151,-0.01649334840476513,-0.11423171311616898
1772728891697949000,6.200948974609375,0.1331685185432434,-0.001221729558892548,-0.143553227186203
1772728891707467000,6.210467041015625,0.1380554437637329,0.01282816007733345,-0.19303326308727264
1772728891716985000,6.219985107421875,0.13744457066059113,0.02260199747979641,-0.24556763470172882
1772728891726503200,6.229503173828125,0.13133592903614044,0.028099779039621353,-0.29138249158859253
1772728891736021200,6.239021240234375,0.11972949653863907,0.031154103577136993,-0.32620179653167725
1772728891745539300,6.248539306640625,0.10751219838857651,0.023212861269712448,-0.3500255048274994
1772728891755057400,6.258057373046875,0.0977383628487587,0.004276053514331579,-0.3634645342826843
1772728891764575500,6.267575439453125,0.08368847519159317,-0.020158538594841957,-0.3652971386909485
1772728891774093600,6.277093505859375,0.06597339361906052,-0.0409279391169548,-0.3536907136440277
1772728891783611600,6.286611572265625,0.043982263654470444,-0.05436696484684944,-0.33047783374786377
1772728891793129700,6.296129638671875,0.021991131827235222,-0.05925388261675835,-0.2993237376213074
1772728891802647800,6.305647705078125,-0.000610864779446274,-0.06108647957444191,-0.26389357447624207
1772728891812166000,6.315165771484375,-0.020769402384757996,-0.053145237267017365,-0.22296564280986786
1772728891821684000,6.32468408203125,-0.037262752652168274,-0.04276053607463837,-0.1692095398902893
1772728891831202000,6.3342021484375,-0.05192350596189499,-0.043371398001909256,-0.10629047453403473
1772728891840720100,6.34372021484375,-0.06230820715427399,-0.0513126403093338,-0.036651886999607086
1772728891850238200,6.35323828125,-0.06902772188186646,-0.05925388261675835,0.015271619893610477
1772728891859756300,6.36275634765625,-0.07574722915887833,-0.05742128938436508,0.04153880476951599
1772728891869274400,6.3722744140625,-0.0818558782339096,-0.05925388261675835,0.03909534588456154
1772728891878792400,6.38179248046875,-0.09040798991918564,-0.07086031138896942,0.015271619893610477
1772728891888310500,6.391310546875,-0.10140355676412582,-0.09590577334165573,-0.021991131827235222
1772728891897828600,6.40082861328125,-0.1130099818110466,-0.1233946830034256,-0.06536252796649933
1772728891907346700,6.4103466796875,-0.12278381735086441,-0.1386663019657135,-0.10629047453403473
1772728891916864800,6.41986474609375,-0.13133592903614044,-0.13927717506885529,-0.1386663019657135
1772728891926383000,6.429383056640625,-0.13500112295150757,-0.1282816082239151,-0.15577052533626556
1772728891935901000,6.43890087890625,-0.13561198115348816,-0.11239911615848541,-0.15699224174022675
1772728891945419000,6.4484189453125,-0.1331685185432434,-0.09407317638397217,-0.13683371245861053
1772728891954937000,6.45793701171875,-0.13072505593299866,-0.08063415437936783,-0.09529490768909454
1772728891964455200,6.467455078125,-0.12767073512077332,-0.08429934084415436,-0.03481929376721382
1772728891973973200,6.47697314453125,-0.1282816082239151,-0.09712749719619751,0.036651886999607086
1772728891983491300,6.4864912109375,-0.12950333952903748,-0.10995566099882126,0.1081230640411377
1772728891993009400,6.496009521484375,-0.13744457066059113,-0.1233946830034256,0.16554436087608337
1772728892002527500,6.505527587890625,-0.14538581669330597,-0.14782927930355072,0.18692462146282196
1772728892012045600,6.515045654296875,-0.16310089826583862,-0.1795942485332489,0.1795942485332489
1772728892021563600,6.524563720703125,-0.1899789422750473,-0.21197007596492767,0.13927717506885529
1772728892031081700,6.534081787109375,-0.21685700118541718,-0.23884813487529755,0.0720820426940918
1772728892040599800,6.543599853515625,-0.24373504519462585,-0.25350889563560486,-0.010995565913617611
1772728892050118000,6.553117919921875,-0.2724456787109375,-0.25534147024154663,-0.09468404203653336
1772728892059636200,6.56263623046875,-0.29993459582328796,-0.235793799161911,-0.16249002516269684
1772728892069154000,6.572154052734375,-0.32192572951316833,-0.20647229254245758,-0.2003636509180069
1772728892078672100,6.581672119140625,-0.3390299379825592,-0.18142683804035187,-0.20647229254245758
1772728892088190200,6.591190185546875,-0.35063639283180237,-0.1649334877729416,-0.17776164412498474
1772728892097708300,6.600708251953125,-0.35674503445625305,-0.15577052533626556,-0.12095122784376144
1772728892107226400,6.610226318359375,-0.3543015718460083,-0.13988803327083588,-0.04214967042207718
1772728892116744400,6.619744384765625,-0.3481929302215576,-0.12767073512077332,0.05803215503692627
1772728892126262500,6.629262451171875,-0.34147340059280396,-0.13561198115348816,0.16737695038318634
1772728892135780600,6.638780517578125,-0.3335321843624115,-0.14782927930355072,0.2675587832927704
1772728892145298700,6.648298583984375,-0.33169957995414734,-0.14477495849132538,0.3439168632030487
1772728892154816800,6.657816650390625,-0.3396408259868622,-0.13194678723812103,0.3970620930194855
1772728892164334800,6.6673349609375,-0.35735589265823364,-0.11972949653863907,0.41844236850738525
1772728892173853000,6.67685302734375,-0.38240134716033936,-0.10323614627122879,0.4196641147136688
1772728892183371000,6.68637109375,-0.40805765986442566,-0.08796452730894089,0.40378162264823914
1772728892192889000,6.69588916015625,-0.43493571877479553,-0.10323614627122879,0.379347026348114
1772728892202407200,6.7054072265625,-0.4667007029056549,-0.13683371245861053,0.34147340059280396
1772728892211925200,6.71492529296875,-0.49968740344047546,-0.1545487940311432,0.2828303873538971
1772728892221443300,6.724443359375,-0.5332849621772766,-0.15638138353824615,0.1997527778148651
1772728892230961400,6.73396142578125,-0.5662716627120972,-0.15149445831775665,0.0922405794262886
1772728892240479500,6.7434794921875,-0.5943714380264282,-0.1539379209280014,-0.031154103577136993
1772728892249997600,6.75299755859375,-0.6181951761245728,-0.16554436087608337,-0.1594357043504715
1772728892259515600,6.762515625,-0.638353705406189,-0.17104214429855347,-0.2809978127479553
1772728892269033700,6.77203369140625,-0.6511818766593933,-0.16615521907806396,-0.37812530994415283
1772728892278551800,6.7815517578125,-0.6493492722511292,-0.14721840620040894,-0.4459312856197357
1772728892288070000,6.79106982421875,-0.6346884965896606,-0.12461641430854797,-0.4776962697505951
1772728892297588000,6.800587890625,-0.6065887212753296,-0.11484257876873016,-0.472198486328125
1772728892307106000,6.81010595703125,-0.5705476999282837,-0.10506874322891235,-0.4214966893196106
1772728892316624100,6.8196240234375,-0.5290089249610901,-0.09590577334165573,-0.3231474757194519
1772728892326142200,6.82914208984375,-0.48991355299949646,-0.09285144507884979,-0.19181154668331146
1772728892335660300,6.838660400390625,-0.4526508152484894,-0.09346231073141098,-0.046425722539424896
1772728892345178400,6.848178466796875,-0.4196641147136688,-0.10567960888147354,0.08613193035125732
1772728892354696400,6.857696533203125,-0.39278605580329895,-0.12278381735086441,0.1802051067352295
1772728892364214500,6.867214599609375,-0.37262752652168274,-0.13561198115348816,0.21930044889450073
1772728892373732600,6.876732666015625,-0.3549124300479889,-0.13622283935546875,0.205861434340477
1772728892383250700,6.886250732421875,-0.34147340059280396,-0.11545344442129135,0.1539379209280014
1772728892392768800,6.895768798828125,-0.33169957995414734,-0.08979712426662445,0.08063415437936783
1772728892402286800,6.905286865234375,-0.3243691921234131,-0.07269290834665298,-0.001221729558892548
1772728892411805000,6.914804931640625,-0.3170388340950012,-0.07024945318698883,-0.08063415437936783
1772728892421323000,6.924322998046875,-0.30970844626426697,-0.08552107214927673,-0.14660754799842834
1772728892430841000,6.933841064453125,-0.30054548382759094,-0.1081230640411377,-0.19669845700263977
1772728892440359200,6.943359130859375,-0.2932150959968567,-0.1337793916463852,-0.23212862014770508
1772728892449877200,6.952877197265625,-0.29016077518463135,-0.15760311484336853,-0.258395791053772
1772728892459395300,6.962395263671875,-0.2834412455558777,-0.17226386070251465,-0.27977606654167175
1772728892468913400,6.971913330078125,-0.2724456787109375,-0.1692095398902893,-0.29565855860710144
1772728892478431500,6.981431396484375,-0.25350889563560486,-0.14782927930355072,-0.3023780584335327
1772728892487949600,6.990949462890625,-0.22907429933547974,-0.12400554865598679,-0.2919933497905731
1772728892497467600,7.000467529296875,-0.1997527778148651,-0.10018182545900345,-0.26450446248054504
1772728892506985700,7.00998583984375,-0.16737695038318634,-0.07635809481143951,-0.22235478460788727
1772728892516503800,7.01950390625,-0.13500112295150757,-0.05558869615197182,-0.17287473380565643
1772728892526022000,7.02902197265625,-0.10567960888147354,-0.037262752652168274,-0.12034036219120026
1772728892535540000,7.0385400390625,-0.08124501258134842,-0.02871064469218254,-0.07269290834665298
1772728892545058000,7.04805810546875,-0.05803215503692627,-0.026878049597144127,-0.03237583488225937
1772728892554576100,7.057576171875,-0.0360410213470459,-0.025045456364750862,-0.004276053514331579
1772728892564094200,7.06709423828125,-0.017104214057326317,-0.020158538594841957,0.012217295356094837
1772728892573612300,7.0766123046875,-0.003665188793092966,-0.008552107028663158,0.017104214057326317
1772728892583130400,7.08613037109375,0.006719512399286032,0.009162971749901772,0.017715077847242355
1772728892592648400,7.0956484375,0.014660755172371864,0.031154103577136993,0.014660755172371864
1772728892602166500,7.10516650390625,0.021991131827235222,0.056810423731803894,0.004276053514331579
1772728892611684600,7.1146845703125,0.026878049597144127,0.0769689604640007,-0.014049889519810677
1772728892621202700,7.12420263671875,0.03176496922969818,0.08857539296150208,-0.0360410213470459
1772728892630720800,7.133720703125,0.0360410213470459,0.0873536616563797,-0.05497783049941063
1772728892640238800,7.14323876953125,0.03237583488225937,0.07391463965177536,-0.06536252796649933
1772728892649757000,7.1527568359375,0.024434590712189674,0.0513126403093338,-0.06597339361906052
1772728892659275000,7.16227490234375,0.017104214057326317,0.010384701192378998,-0.05925388261675835
1772728892668793000,7.17179296875,0.014049889519810677,-0.028099779039621353,-0.047036588191986084
1772728892678311200,7.181311279296875,0.007330377586185932,-0.053145237267017365,-0.03176496922969818
1772728892687829200,7.190829345703125,-0.002443459117785096,-0.04459312930703163,-0.013439024798572063
1772728892697347300,7.200347412109375,-0.008552107028663158,-0.0030543238390237093,0.013439024798572063
1772728892706865400,7.209865478515625,-0.010995565913617611,0.04825831577181816,0.050090912729501724
1772728892716383500,7.219383544921875,-0.003665188793092966,0.10323614627122879,0.09468404203653336
1772728892725901600,7.228901611328125,0.01588248461484909,0.164322629570961,0.13622283935546875
1772728892735419600,7.238419677734375,0.04214967042207718,0.22235478460788727,0.16615521907806396
1772728892744937700,7.247937744140625,0.07330377399921417,0.26389357447624207,0.1899789422750473
1772728892754455800,7.257455810546875,0.10629047453403473,0.2767217457294464,0.20280711352825165
1772728892763974000,7.266973876953125,0.13622283935546875,0.26022839546203613,0.19792018830776215
1772728892773492000,7.276491943359375,0.16126830875873566,0.22418737411499023,0.1740964651107788
1772728892783010000,7.286010009765625,0.18264856934547424,0.1692095398902893,0.13255766034126282
1772728892792528100,7.295528076171875,0.20158538222312927,0.09101885557174683,0.07330377399921417
1772728892802046200,7.305046142578125,0.22174391150474548,0.007330377586185932,0.0054977829568088055
1772728892811564300,7.314564208984375,0.24373504519462585,-0.06291907280683517,-0.05803215503692627
1772728892821082400,7.324082275390625,0.26022839546203613,-0.11423171311616898,-0.08613193035125732
1772728892830600400,7.333600341796875,0.2761108875274658,-0.1282816082239151,-0.0616973415017128
1772728892840118500,7.343118408203125,0.2938259541988373,-0.12156209349632263,0.020769402384757996
1772728892849636600,7.35263671875,0.31154105067253113,-0.1130099818110466,0.13255766034126282
1772728892859154700,7.36215478515625,0.32559093832969666,-0.10445787757635117,0.2510654330253601
1772728892868672800,7.3716728515625,0.3347539007663727,-0.08918625861406326,0.3549124300479889
1772728892878190800,7.38119091796875,0.33658650517463684,-0.04581485688686371,0.4312705397605896
1772728892887709000,7.390708984375,0.3298669755458832,0.036651886999607086,0.4728093445301056
1772728892897227000,7.40022705078125,0.318871408700943,0.1337793916463852,0.472198486328125
1772728892906745000,7.4097451171875,0.3066541254520416,0.2315177470445633,0.4276053309440613
1772728892916263200,7.41926318359375,0.2968802750110626,0.3194822669029236,0.35185810923576355
1772728892925781200,7.42878125,0.29565855860710144,0.38789913058280945,0.26022839546203613
1772728892935299300,7.43829931640625,0.2974911332130432,0.43004879355430603,0.17104214429855347
1772728892944817400,7.4478173828125,0.29993459582328796,0.4367683231830597,0.10018182545900345
1772728892954335500,7.45733544921875,0.30604326725006104,0.4007273018360138,0.043982263654470444
1772728892963853600,7.466853515625,0.3121519088745117,0.3347539007663727,-0.002443459117785096
1772728892973371600,7.47637158203125,0.3182605504989624,0.2522871494293213,-0.049480047076940536
1772728892982889700,7.4858896484375,0.31459537148475647,0.16798780858516693,-0.10567960888147354
1772728892992407800,7.49540771484375,0.30115634202957153,0.0824667438864708,-0.17043127119541168
1772728893001926000,7.50492578125,0.27977606654167175,0.009773836471140385,-0.23457208275794983
1772728893011444000,7.51444384765625,0.25473061203956604,-0.046425722539424896,-0.2834412455558777
1772728893020962000,7.523962158203125,0.22785256803035736,-0.08124501258134842,-0.3017672002315521
1772728893030480100,7.533480224609375,0.19853104650974274,-0.09896009415388107,-0.27855435013771057
1772728893039998200,7.542998291015625,0.16554436087608337,-0.09651663154363632,-0.21685700118541718
1772728893049516300,7.552516357421875,0.1288924664258957,-0.07880155742168427,-0.1337793916463852
1772728893059034400,7.562034423828125,0.09040798991918564,-0.046425722539424896,-0.05436696484684944
1772728893068552400,7.571552490234375,0.06108647957444191,-0.003665188793092966,0.0054977829568088055
1772728893078070500,7.581070556640625,0.03481929376721382,0.04153880476951599,0.036651886999607086
1772728893087588600,7.590588623046875,0.01282816007733345,0.0873536616563797,0.03543015569448471
1772728893097106700,7.600106689453125,-0.007330377586185932,0.12767073512077332,0.007330377586185932
1772728893106624800,7.609624755859375,-0.02260199747979641,0.15149445831775665,-0.0409279391169548
1772728893116142800,7.619142822265625,-0.02871064469218254,0.15271618962287903,-0.0977383628487587
1772728893125660700,7.62866064453125,-0.03237583488225937,0.13500112295150757,-0.1588248461484909
1772728893135179000,7.638178955078125,-0.036651886999607086,0.10323614627122879,-0.21746785938739777
1772728893144697000,7.647697021484375,-0.04153880476951599,0.06902772188186646,-0.268169641494751
1772728893154215200,7.657215087890625,-0.046425722539424896,0.03787361457943916,-0.3078758418560028
1772728893163733200,7.666733154296875,-0.053756099194288254,0.007941242307424545,-0.3335321843624115
1772728893173251300,7.676251220703125,-0.06597339361906052,-0.01649334840476513,-0.3451386094093323
1772728893182769400,7.685769287109375,-0.0818558782339096,-0.024434590712189674,-0.3433060050010681
1772728893192287200,7.695287353515625,-0.0977383628487587,-0.021991131827235222,-0.33047783374786377
1772728893201805600,7.7048056640625,-0.1185077652335167,-0.033597562462091446,-0.30970844626426697
1772728893211323400,7.714323486328125,-0.14294235408306122,-0.06414080411195755,-0.28527384996414185
1772728893220841700,7.723841796875,-0.16615521907806396,-0.10079269111156464,-0.2565632164478302
1772728893230359600,7.733359619140625,-0.18814635276794434,-0.1386663019657135,-0.2211330533027649
1772728893239878000,7.7428779296875,-0.20769402384757996,-0.16676609218120575,-0.185092031955719
1772728893249395700,7.752395751953125,-0.2254091054201126,-0.1802051067352295,-0.15149445831775665
1772728893258913800,7.761913818359375,-0.2370155304670334,-0.1844811588525772,-0.1178968995809555
1772728893268432100,7.77143212890625,-0.24251331388950348,-0.18264856934547424,-0.08674279600381851
1772728893277950000,7.780949951171875,-0.23762640357017517,-0.18387030065059662,-0.05864302068948746
1772728893287468300,7.79046826171875,-0.2254091054201126,-0.18875721096992493,-0.037262752652168274
1772728893296986000,7.799986083984375,-0.21135921776294708,-0.19364413619041443,-0.021991131827235222
1772728893306504400,7.80950439453125,-0.2003636509180069,-0.2101374864578247,-0.012217295356094837
1772728893316022300,7.819022216796875,-0.1954767256975174,-0.23457208275794983,-0.011606430634856224
1772728893325540400,7.828540283203125,-0.19364413619041443,-0.25900667905807495,-0.024434590712189674
1772728893335058400,7.838058349609375,-0.2003636509180069,-0.27916520833969116,-0.049480047076940536
1772728893344576500,7.847576416015625,-0.2101374864578247,-0.27916520833969116,-0.07757982611656189
1772728893354094600,7.857094482421875,-0.21807873249053955,-0.25350889563560486,-0.10323614627122879
1772728893363612700,7.86661279296875,-0.22418737411499023,-0.21807873249053955,-0.1185077652335167
1772728893373130800,7.876130859375,-0.22907429933547974,-0.16310089826583862,-0.11178825795650482
1772728893382648800,7.88564892578125,-0.23029601573944092,-0.09346231073141098,-0.07391463965177536
1772728893392167000,7.8951669921875,-0.22968515753746033,-0.027488915249705315,-0.004276053514331579
1772728893401685000,7.90468505859375,-0.23029601573944092,0.009773836471140385,0.08674279600381851
1772728893411203000,7.914203125,-0.2309068888425827,0.021991131827235222,0.17837251722812653
1772728893420721200,7.92372119140625,-0.2309068888425827,0.007941242307424545,0.2577849328517914
1772728893430239200,7.9332392578125,-0.23212862014770508,-0.033597562462091446,0.31031930446624756
1772728893439757300,7.94275732421875,-0.24006985127925873,-0.09346231073141098,0.32192572951316833
1772728893449275400,7.952275390625,-0.24740023910999298,-0.15149445831775665,0.28588470816612244
1772728893458793500,7.96179345703125,-0.2510654330253601,-0.20463970303535461,0.2101374864578247
1772728893468311600,7.9713115234375,-0.24862197041511536,-0.258395791053772,0.11178825795650482
1772728893477829600,7.98082958984375,-0.2412915825843811,-0.30054548382759094,0.006719512399286032
1772728893487347700,7.99034765625,-0.22968515753746033,-0.3274235129356384,-0.08552107214927673
1772728893496865800,7.99986572265625,-0.21258094906806946,-0.34697118401527405,-0.15210533142089844
1772728893506384000,8.0093837890625,-0.1954767256975174,-0.3555232882499695,-0.18753549456596375
1772728893515902000,8.01890185546875,-0.17898337543010712,-0.3494146466255188,-0.1844811588525772
1772728893525420000,8.028419921875,-0.16187916696071625,-0.31642794609069824,-0.14233149588108063
1772728893534938000,8.037938232421874,-0.14721840620040894,-0.2657261788845062,-0.07086031138896942
1772728893544456200,8.047456298828125,-0.14660754799842834,-0.2315177470445633,0.029932374134659767
1772728893553974300,8.056974365234375,-0.16187916696071625,-0.22296564280986786,0.16187916696071625
1772728893563492400,8.066492431640626,-0.1905898153781891,-0.23518294095993042,0.31154105067253113
1772728893573010400,8.076010498046875,-0.22846342623233795,-0.25473061203956604,0.4459312856197357
1772728893582528500,8.085528564453124,-0.26450446248054504,-0.2724456787109375,0.5418370366096497
1772728893592046600,8.095046630859375,-0.28954991698265076,-0.2730565667152405,0.593149721622467
1772728893601564700,8.104564697265625,-0.3078758418560028,-0.2559523284435272,0.5949822664260864
1772728893611082800,8.114082763671876,-0.3182605504989624,-0.23335035145282745,0.5589412450790405
1772728893620600800,8.123600830078125,-0.32620179653167725,-0.21441353857517242,0.4917461574077606
1772728893630119000,8.133118896484374,-0.33658650517463684,-0.20158538222312927,0.401949018239975
1772728893639637000,8.142636962890625,-0.3500255048274994,-0.18753549456596375,0.2993237376213074
1772728893649155000,8.152155029296875,-0.3640754222869873,-0.18081597983837128,0.18814635276794434
1772728893658673200,8.161673095703126,-0.379347026348114,-0.17104214429855347,0.0818558782339096
1772728893668191200,8.171191162109375,-0.39278605580329895,-0.15271618962287903,-0.01282816007733345
1772728893677709300,8.180709228515624,-0.4062250852584839,-0.1282816082239151,-0.09101885557174683
1772728893687227400,8.190227294921876,-0.4147771894931793,-0.10323614627122879,-0.15577052533626556
1772728893696745500,8.199745361328125,-0.411722868680954,-0.08368847519159317,-0.2009745091199875
1772728893706263600,8.209263671875,-0.3915643095970154,-0.06352993845939636,-0.21319180727005005
1772728893715781600,8.21878173828125,-0.36224281787872314,-0.03481929376721382,-0.1905898153781891
1772728893725299700,8.2282998046875,-0.33536475896835327,0.002443459117785096,-0.13927717506885529
1772728893734817800,8.23781787109375,-0.30970844626426697,0.050090912729501724,-0.06475166976451874
1772728893744336000,8.2473359375,-0.2822195291519165,0.0873536616563797,0.03176496922969818
1772728893753854000,8.25685400390625,-0.24862197041511536,0.09834922850131989,0.1386663019657135
1772728893763372000,8.2663720703125,-0.21135921776294708,0.09407317638397217,0.23823726177215576
1772728893772890000,8.27589013671875,-0.17898337543010712,0.08368847519159317,0.3090975880622864
1772728893782408200,8.285408203125,-0.1533270627260208,0.06902772188186646,0.33658650517463684
1772728893791926300,8.29492626953125,-0.1337793916463852,0.06719512492418289,0.32131487131118774
1772728893801444400,8.3044443359375,-0.11667517572641373,0.08307760953903198,0.25961753726005554
1772728893810962400,8.31396240234375,-0.10751219838857651,0.10201441496610641,0.16249002516269684
1772728893820480300,8.323480224609375,-0.10934479534626007,0.10629047453403473,0.043371398001909256
1772728893829998600,8.33299853515625,-0.11362084746360779,0.08491020649671555,-0.08918625861406326
1772728893839516400,8.342516357421875,-0.11667517572641373,0.03848448023200035,-0.2205221801996231
1772728893849034800,8.35203466796875,-0.11972949653863907,-0.01954767294228077,-0.337808221578598
1772728893858552600,8.361552490234375,-0.12217295914888382,-0.0824667438864708,-0.42943793535232544
1772728893868071000,8.37107080078125,-0.12095122784376144,-0.13988803327083588,-0.4923570156097412
1772728893877588700,8.380588623046876,-0.11239911615848541,-0.1795942485332489,-0.5253437161445618
1772728893887106800,8.39010693359375,-0.09712749719619751,-0.19364413619041443,-0.5259546041488647
1772728893896625200,8.399625244140625,-0.07819069176912308,-0.1948658674955368,-0.49480047821998596
1772728893906143000,8.40914306640625,-0.05742128938436508,-0.1802051067352295,-0.4379900395870209
1772728893915661300,8.418661376953125,-0.033597562462091446,-0.14477495849132538,-0.3652971386909485
1772728893925179100,8.42817919921875,-0.013439024798572063,-0.11362084746360779,-0.28588470816612244
1772728893934697500,8.437697509765625,0.017715077847242355,-0.09529490768909454,-0.20219624042510986
1772728893944215300,8.44721533203125,0.05497783049941063,-0.06414080411195755,-0.12217295914888382
1772728893953733400,8.4567333984375,0.0824667438864708,-0.03298669680953026,-0.04886918142437935
1772728893963251500,8.46625146484375,0.09834922850131989,0.004886918235570192,0.014660755172371864
1772728893972769500,8.47576953125,0.1026252806186676,0.0513126403093338,0.06475166976451874
1772728893982287600,8.48528759765625,0.09834922850131989,0.10201441496610641,0.0977383628487587
1772728893991805700,8.4948056640625,0.09162971377372742,0.1539379209280014,0.11423171311616898
1772728894001323800,8.50432373046875,0.0818558782339096,0.2003636509180069,0.11911863088607788
1772728894010841900,8.513841796875,0.07086031138896942,0.23823726177215576,0.1130099818110466
1772728894020360000,8.52335986328125,0.05742128938436508,0.2675587832927704,0.09346231073141098
1772728894029878000,8.5328779296875,0.04153880476951599,0.28954991698265076,0.05864302068948746
1772728894039396000,8.54239599609375,0.025045456364750862,0.28527384996414185,0.01588248461484909
1772728894048914200,8.5519140625,0.011606430634856224,0.2522871494293213,-0.030543239787220955
1772728894058432300,8.561432373046875,-0.000610864779446274,0.20463970303535461,-0.07147117704153061
1772728894067950300,8.570950439453124,-0.010995565913617611,0.15638138353824615,-0.09957095980644226
1772728894077468400,8.580468505859375,-0.017104214057326317,0.11056652665138245,-0.10995566099882126
1772728894086986500,8.589986572265625,-0.020158538594841957,0.0665842592716217,-0.11117739230394363
1772728894096504600,8.599504638671876,-0.01954767294228077,0.03543015569448471,-0.10629047453403473
1772728894106022700,8.609022705078125,-0.013439024798572063,0.0256563201546669,-0.09590577334165573
1772728894115540700,8.618540771484374,-0.001221729558892548,0.029932374134659767,-0.07513637095689774
1772728894125058800,8.628058837890626,0.01588248461484909,0.05253437161445618,-0.04459312930703163
1772728894134577000,8.637576904296875,0.040317077189683914,0.0977383628487587,-0.003665188793092966
1772728894144095000,8.647094970703124,0.0665842592716217,0.1637117564678192,0.04581485688686371
1772728894153613000,8.656613037109375,0.09529490768909454,0.2205221801996231,0.10018182545900345
1772728894163131100,8.666131103515625,0.12217295914888382,0.24923282861709595,0.14782927930355072
1772728894172649200,8.675649169921876,0.14538581669330597,0.2467893660068512,0.17531819641590118
1772728894182167300,8.685167236328125,0.16737695038318634,0.22907429933547974,0.1740964651107788
1772728894191685400,8.694685302734374,0.18692462146282196,0.2107483446598053,0.1484401375055313
1772728894201203500,8.704203369140625,0.19792018830776215,0.1844811588525772,0.10445787757635117
1772728894210721500,8.713721435546875,0.1997527778148651,0.1484401375055313,0.05192350596189499
1772728894220239600,8.723239501953126,0.2009745091199875,0.10567960888147354,0.003665188793092966
1772728894229757700,8.7327578125,0.20463970303535461,0.06597339361906052,-0.02871064469218254
1772728894239275800,8.74227587890625,0.20647229254245758,0.029932374134659767,-0.03176496922969818
1772728894248793900,8.7517939453125,0.205861434340477,0.006108647678047419,0.004886918235570192
1772728894258312000,8.76131201171875,0.19853104650974274,-0.018325943499803543,0.0824667438864708
1772728894267830000,8.770830078125,0.18325942754745483,-0.05436696484684944,0.1997527778148651
1772728894277348000,8.78034814453125,0.1637117564678192,-0.08979712426662445,0.3231474757194519
1772728894286866200,8.7898662109375,0.15271618962287903,-0.09834922850131989,0.4428769648075104
1772728894296384000,8.799384033203125,0.15149445831775665,-0.07941242307424545,0.5400044918060303
1772728894305902300,8.80890234375,0.16004657745361328,-0.05070177838206291,0.6004800796508789
1772728894315420200,8.818420166015626,0.1692095398902893,-0.029932374134659767,0.6181951761245728
1772728894324938500,8.8279384765625,0.17043127119541168,-0.013439024798572063,0.5907062292098999
1772728894334456300,8.837456298828124,0.1545487940311432,0.004886918235570192,0.5149590373039246
1772728894343974700,8.846974609375,0.13622283935546875,0.023823726922273636,0.3970620930194855
1772728894353492500,8.856492431640625,0.12217295914888382,0.034208428114652634,0.24984370172023773
1772728894363010600,8.866010498046874,0.1130099818110466,0.0360410213470459,0.08918625861406326
1772728894372528600,8.875528564453125,0.10323614627122879,0.026878049597144127,-0.0616973415017128
1772728894382046700,8.885046630859375,0.08674279600381851,0.006108647678047419,-0.18692462146282196
1772728894391564800,8.894564697265626,0.06902772188186646,-0.0256563201546669,-0.277332603931427
1772728894401083000,8.904082763671875,0.0513126403093338,-0.06291907280683517,-0.33658650517463684
1772728894410601200,8.913601318359374,0.03481929376721382,-0.0818558782339096,-0.36224281787872314
1772728894420119000,8.923119140625,0.020158538594841957,-0.08613193035125732,-0.35063639283180237
1772728894429637000,8.93263720703125,0.009162971749901772,-0.09162971377372742,-0.2987128794193268
1772728894439155200,8.9421552734375,0.0030543238390237093,-0.11545344442129135,-0.21380266547203064
1772728894448673300,8.95167333984375,0.006719512399286032,-0.14110976457595825,-0.10751219838857651
1772728894458191400,8.96119140625,0.01588248461484909,-0.1490510106086731,0.001221729558892548
1772728894467709400,8.97070947265625,0.021380268037319183,-0.13561198115348816,0.09468404203653336
1772728894477227500,8.9802275390625,0.028099779039621353,-0.10934479534626007,0.15515965223312378
1772728894486745600,8.98974560546875,0.0409279391169548,-0.06352993845939636,0.185092031955719
1772728894496263700,8.999263671875,0.043982263654470444,-0.021991131827235222,0.1844811588525772
1772728894505781800,9.00878173828125,0.037262752652168274,0.001832594396546483,0.1588248461484909
1772728894515299800,9.0182998046875,0.02260199747979641,0.015271619893610477,0.10751219838857651
1772728894524818000,9.02781787109375,-0.000610864779446274,0.020158538594841957,0.037262752652168274
1772728894534336000,9.0373359375,-0.031154103577136993,0.031154103577136993,-0.046425722539424896
1772728894543854000,9.04685400390625,-0.06352993845939636,0.04153880476951599,-0.12705987691879272
1772728894553372200,9.0563720703125,-0.09040798991918564,0.0409279391169548,-0.18631376326084137
1772728894562890200,9.06589013671875,-0.11667517572641373,0.023823726922273636,-0.2211330533027649
1772728894572408300,9.075408203125,-0.14172062277793884,0.0030543238390237093,-0.23029601573944092
1772728894581926400,9.084926513671874,-0.16554436087608337,-0.018325943499803543,-0.22174391150474548
1772728894591444500,9.094444580078125,-0.185092031955719,-0.03848448023200035,-0.19914191961288452
1772728894600962600,9.103962646484375,-0.2003636509180069,-0.050090912729501724,-0.1649334877729416
1772728894610480600,9.113480712890626,-0.20280711352825165,-0.059864748269319534,-0.12217295914888382
1772728894619998700,9.122998779296875,-0.20158538222312927,-0.06841685622930527,-0.08002328872680664
1772728894629516800,9.132516845703124,-0.19792018830776215,-0.06902772188186646,-0.04581485688686371
1772728894639035000,9.142034912109375,-0.19425499439239502,-0.06780599057674408,-0.023823726922273636
1772728894648553000,9.151552978515625,-0.18387030065059662,-0.06780599057674408,-0.01588248461484909
1772728894658071000,9.161071044921876,-0.1649334877729416,-0.0665842592716217,-0.021380268037319183
1772728894667589000,9.170589111328125,-0.14477495849132538,-0.05436696484684944,-0.02932151034474373
1772728894677107200,9.180107177734374,-0.12400554865598679,-0.04886918142437935,-0.0360410213470459
1772728894686625300,9.189625244140625,-0.10506874322891235,-0.06047561392188072,-0.037262752652168274
1772728894696143400,9.199143310546875,-0.08979712426662445,-0.08552107214927673,-0.03787361457943916
1772728894705661200,9.2086611328125,-0.08002328872680664,-0.12400554865598679,-0.03298669680953026
1772728894715179500,9.218179443359375,-0.07391463965177536,-0.17165300250053406,-0.034208428114652634
1772728894724697300,9.227697265625,-0.07147117704153061,-0.2156352698802948,-0.04276053607463837
1772728894734215700,9.237215576171875,-0.07024945318698883,-0.24434591829776764,-0.0616973415017128
1772728894743733500,9.2467333984375,-0.0720820426940918,-0.258395791053772,-0.09285144507884979
1772728894753251800,9.256251953125,-0.07819069176912308,-0.25411975383758545,-0.1282816082239151
1772728894762769700,9.265769775390625,-0.08368847519159317,-0.2309068888425827,-0.16615521907806396
1772728894772288000,9.2752880859375,-0.08368847519159317,-0.1899789422750473,-0.2009745091199875
1772728894781805800,9.284805908203126,-0.07757982611656189,-0.14599667489528656,-0.2260199636220932
1772728894791324000,9.294323974609375,-0.06780599057674408,-0.10140355676412582,-0.23457208275794983
1772728894800842000,9.303842041015624,-0.056810423731803894,-0.053756099194288254,-0.21868959069252014
1772728894810360000,9.313360107421875,-0.049480047076940536,-0.018325943499803543,-0.17592905461788177
1772728894819878100,9.322878173828125,-0.043371398001909256,0.006719512399286032,-0.11056652665138245
1772728894829396200,9.332396240234376,-0.036651886999607086,0.02871064469218254,-0.0256563201546669
1772728894838914300,9.341914306640625,-0.033597562462091446,0.050090912729501724,0.06902772188186646
1772728894848432400,9.351432373046874,-0.033597562462091446,0.06291907280683517,0.16065743565559387
1772728894857950500,9.360950439453125,-0.03787361457943916,0.056199558079242706,0.23273947834968567
1772728894867468500,9.370468505859375,-0.04886918142437935,0.03787361457943916,0.2730565667152405
1772728894876986600,9.379986572265626,-0.05803215503692627,0.02626718580722809,0.2712239623069763
1772728894886504700,9.389504638671875,-0.0665842592716217,0.03543015569448471,0.23762640357017517
1772728894896022800,9.399022705078124,-0.0720820426940918,0.04764745384454727,0.18387030065059662
1772728894905540900,9.408540771484375,-0.07330377399921417,0.04520399495959282,0.12217295914888382
1772728894915059000,9.418058837890625,-0.06719512492418289,0.02871064469218254,0.06414080411195755
1772728894924577000,9.427576904296876,-0.0616973415017128,0.0054977829568088055,0.013439024798572063
1772728894934095000,9.43709521484375,-0.06291907280683517,-0.026878049597144127,-0.024434590712189674
1772728894943613200,9.44661328125,-0.06902772188186646,-0.07880155742168427,-0.04520399495959282
1772728894953131300,9.45613134765625,-0.07880155742168427,-0.143553227186203,-0.05070177838206291
1772728894962649300,9.4656494140625,-0.0922405794262886,-0.2101374864578247,-0.03481929376721382
1772728894972167400,9.47516748046875,-0.10934479534626007,-0.26022839546203613,-0.010384701192378998
1772728894981685500,9.484685546875,-0.1380554437637329,-0.2834412455558777,0.023823726922273636
1772728894991203600,9.49420361328125,-0.18203771114349365,-0.29565855860710144,0.07635809481143951
1772728895000721700,9.5037216796875,-0.2309068888425827,-0.29443681240081787,0.13988803327083588
1772728895010239700,9.51323974609375,-0.27488914132118225,-0.268169641494751,0.20463970303535461
1772728895019757800,9.5227578125,-0.31154105067253113,-0.2156352698802948,0.26939135789871216
1772728895029276000,9.53227587890625,-0.3451386094093323,-0.1649334877729416,0.3237583339214325
1772728895038794000,9.5417939453125,-0.3750709891319275,-0.13255766034126282,0.3591884970664978
1772728895048311800,9.551311767578126,-0.4007273018360138,-0.12095122784376144,0.36774060130119324
1772728895057830100,9.560830078125,-0.4276053309440613,-0.12583814561367035,0.3500255048274994
1772728895067348000,9.570347900390624,-0.4526508152484894,-0.13927717506885529,0.3035998046398163
1772728895076866300,9.5798662109375,-0.47036588191986084,-0.15027274191379547,0.23212862014770508
1772728895086384400,9.58938427734375,-0.4789179861545563,-0.1533270627260208,0.13988803327083588
1772728895095902500,9.59890234375,-0.4868592321872711,-0.1740964651107788,0.04520399495959282
1772728895105420500,9.608420654296875,-0.48991355299949646,-0.20219624042510986,-0.043371398001909256
1772728895114938600,9.617938720703124,-0.48930269479751587,-0.21991132199764252,-0.1178968995809555
1772728895124456700,9.627456787109375,-0.481361448764801,-0.22724169492721558,-0.17837251722812653
1772728895133974500,9.636974609375,-0.4679224193096161,-0.21685700118541718,-0.2156352698802948
1772728895143492900,9.646492919921876,-0.44837474822998047,-0.18753549456596375,-0.22724169492721558
1772728895153010700,9.6560107421875,-0.4269944727420807,-0.1380554437637329,-0.2101374864578247
1772728895162529000,9.665529052734374,-0.40866854786872864,-0.08307760953903198,-0.16676609218120575
1772728895172046800,9.675046875,-0.38179048895835876,-0.036651886999607086,-0.0922405794262886
1772728895181565200,9.684565185546875,-0.3481929302215576,-0.006719512399286032,-0.010384701192378998
1772728895191083000,9.6940830078125,-0.32009315490722656,-0.01649334840476513,0.06780599057674408
1772728895200601000,9.70360107421875,-0.2993237376213074,-0.040317077189683914,0.13194678723812103
1772728895210119200,9.713119140625,-0.28038692474365234,-0.056810423731803894,0.17043127119541168
1772728895219637200,9.72263720703125,-0.2669478952884674,-0.06414080411195755,0.17104214429855347
1772728895229155300,9.7321552734375,-0.2528980076313019,-0.05925388261675835,0.13683371245861053
1772728895238673400,9.74167333984375,-0.235793799161911,-0.046425722539424896,0.07941242307424545
1772728895248191500,9.75119140625,-0.21868959069252014,-0.03787361457943916,0.010995565913617611
1772728895257709600,9.76070947265625,-0.20830489695072174,-0.03481929376721382,-0.05925388261675835
1772728895267227600,9.7702275390625,-0.205861434340477,-0.0360410213470459,-0.12095122784376144
1772728895276745700,9.779745849609375,-0.20830489695072174,-0.0409279391169548,-0.17653992772102356
1772728895286263800,9.789263916015624,-0.21258094906806946,-0.0513126403093338,-0.2309068888425827
1772728895295782000,9.798781982421875,-0.21930044889450073,-0.06536252796649933,-0.2779434621334076
1772728895305300000,9.808300048828125,-0.22846342623233795,-0.08002328872680664,-0.3127627670764923
1772728895314818000,9.817818115234376,-0.23823726177215576,-0.08796452730894089,-0.3347539007663727
1772728895324336000,9.827336181640625,-0.24251331388950348,-0.09162971377372742,-0.34208428859710693
1772728895333854200,9.836854248046874,-0.23762640357017517,-0.0922405794262886,-0.3280344009399414
1772728895343372300,9.846372314453125,-0.22785256803035736,-0.09468404203653336,-0.29626941680908203
1772728895352890400,9.855890380859375,-0.21868959069252014,-0.0977383628487587,-0.2516762912273407
1772728895362408400,9.865408447265626,-0.20830489695072174,-0.09834922850131989,-0.1997527778148651
1772728895371926500,9.874926513671875,-0.19669845700263977,-0.08674279600381851,-0.15088360011577606
1772728895381444600,9.884444580078124,-0.1844811588525772,-0.05925388261675835,-0.11056652665138245
1772728895390962700,9.893962646484376,-0.17287473380565643,-0.030543239787220955,-0.08002328872680664
1772728895400480800,9.903480712890625,-0.16126830875873566,-0.002443459117785096,-0.046425722539424896
1772728895409998600,9.91299853515625,-0.14660754799842834,0.021380268037319183,0.001832594396546483
1772728895419517000,9.922516845703125,-0.13439024984836578,0.036651886999607086,0.05192350596189499
1772728895429034800,9.93203466796875,-0.11545344442129135,0.05253437161445618,0.08918625861406326
1772728895438553000,9.941552978515626,-0.08796452730894089,0.07391463965177536,0.10690133273601532
1772728895448071000,9.95107080078125,-0.05192350596189499,0.08613193035125732,0.1026252806186676
1772728895457589200,9.96058935546875,-0.010995565913617611,0.09285144507884979,0.08307760953903198
1772728895467107000,9.970107177734375,0.020158538594841957,0.08307760953903198,0.07086031138896942
1772728895476625200,9.979625244140625,0.04153880476951599,0.05497783049941063,0.07941242307424545
1772728895486143200,9.989143310546876,0.05253437161445618,0.020769402384757996,0.09162971377372742
1772728895495661300,9.998661376953125,0.05925388261675835,-0.0030543238390237093,0.0977383628487587
1772728895505179400,10.008179443359374,0.06230820715427399,-0.017104214057326317,0.0922405794262886
1772728895514697500,10.017697509765625,0.06536252796649933,-0.01954767294228077,0.08002328872680664
1772728895524215600,10.027215576171875,0.06902772188186646,-0.006719512399286032,0.07086031138896942
1772728895533733600,10.036733642578126,0.07574722915887833,0.021380268037319183,0.0824667438864708
1772728895543251700,10.046251708984375,0.08368847519159317,0.06719512492418289,0.11239911615848541
1772728895552769800,10.055769775390624,0.10201441496610641,0.12400554865598679,0.14660754799842834
1772728895562287900,10.065287841796875,0.13622283935546875,0.19242240488529205,0.1899789422750473
1772728895571806000,10.074805908203125,0.17104214429855347,0.2528980076313019,0.2412915825843811
1772728895581324000,10.084323974609376,0.19792018830776215,0.30543237924575806,0.2926042377948761
1772728895590842000,10.093842041015625,0.22479823231697083,0.35185810923576355,0.32559093832969666
1772728895600360200,10.103360107421874,0.2419024556875229,0.3555232882499695,0.3396408259868622
1772728895609878300,10.112878173828125,0.24556763470172882,0.30604326725006104,0.3066541254520416
1772728895619396400,10.122396240234375,0.25961753726005554,0.2724456787109375,0.21930044889450073
1772728895628914400,10.13191455078125,0.2877173125743866,0.21441353857517242,0.1026252806186676
1772728895638432500,10.1414326171875,0.3023780584335327,0.1282816082239151,-0.01893680728971958
1772728895647950600,10.15095068359375,0.2968802750110626,0.030543239787220955,-0.12950333952903748
1772728895657468700,10.16046875,0.28527384996414185,-0.06291907280683517,-0.20280711352825165
