time,seconds_elapsed,z,y,x
1772725536836797000,0.096796875,0,0,0
1772725536846313700,0.106313720703125,-0.053162574768066406,0.0026036500930786133,-0.000028148293495178223
1772725536855830500,0.11583056640625,-0.07947444915771484,-0.0157545804977417,0.028167136013507843
1772725536865347300,0.125347412109375,0.0036878585815429688,0.005590915679931641,0.0009968206286430359
1772725536874864000,0.134864013671875,0.06840038299560547,-0.029753565788269043,-0.026297222822904587
1772725536884381000,0.144380859375,0.0473480224609375,-0.01825094223022461,0.022940970957279205
1772725536893897700,0.153897705078125,0.020346641540527344,-0.010724902153015137,0.06874170154333115
1772725536903414500,0.16341455078125,0.03273963928222656,0.014432311058044434,0.10280490666627884
1772725536912931300,0.172931396484375,0.02294921875,0.018126487731933594,0.09514950215816498
1772725536922448100,0.1824482421875,-0.03749561309814453,0.022736430168151855,0.07580462098121643
1772725536931965000,0.19196484375,-0.04309368133544922,0.04810988903045654,0.07992357015609741
1772725536941481700,0.201481689453125,0.030228614807128906,0.07029497623443604,0.08445563912391663
1772725536950998500,0.21099853515625,0.10031890869140625,0.047141075134277344,0.05597540736198425
1772725536960515300,0.220515380859375,0.13052654266357422,0.029947400093078613,0.03050088882446289
1772725536970032000,0.2300322265625,0.17968273162841797,0.02417588233947754,0.03726685047149658
1772725536979549000,0.239548828125,0.24031639099121094,0.008477210998535156,0.04199247062206268
1772725536989065700,0.249065673828125,0.2850484848022461,0.013000965118408203,-0.014005966484546661
1772725536998582500,0.25858251953125,0.2672691345214844,0.0017163753509521484,-0.08121780306100845
1772725537008099300,0.268099365234375,0.1150503158569336,0.007972002029418945,-0.05903567373752594
1772725537017616100,0.2776162109375,0.0046138763427734375,0.028807759284973145,0.034153133630752563
1772725537027133000,0.2871328125,0.02469348907470703,0.017190098762512207,0.11966019868850708
1772725537036649700,0.296649658203125,0.09429168701171875,-0.0083237886428833,0.1144915372133255
1772725537046166500,0.30616650390625,0.1315317153930664,-0.04085862636566162,0.09572088718414307
1772725537055683300,0.315683349609375,0.12183952331542969,-0.07341873645782471,0.061672747135162354
1772725537065200000,0.3252001953125,0.09214210510253906,-0.07543587684631348,0.08404798805713654
1772725537074717000,0.334717041015625,0.0775442123413086,-0.07750558853149414,0.11720602214336395
1772725537084233700,0.344233642578125,0.12813854217529297,-0.09564602375030518,0.05677023530006409
1772725537093750500,0.35375048828125,0.08005619049072266,-0.11702215671539307,0.035147517919540405
1772725537103267300,0.363267333984375,0.06134510040283203,-0.090950608253479,0.02204802632331848
1772725537112784100,0.3727841796875,0.10585689544677734,-0.049934983253479004,-0.02191881835460663
1772725537122301000,0.382301025390625,0.11673259735107422,-0.043151021003723145,-0.0350591316819191
1772725537131817700,0.391817626953125,0.09044742584228516,-0.05129826068878174,-0.031040504574775696
1772725537141334500,0.40133447265625,0.08615398406982422,-0.03725707530975342,0.023058727383613586
1772725537150851300,0.410851318359375,0.0636892318725586,-0.015480637550354004,0.07239741086959839
1772725537160368000,0.4203681640625,-0.0068073272705078125,0.0028352737426757812,0.059007495641708374
1772725537169885000,0.429885009765625,-0.1336650848388672,0.0004202127456665039,0.06321698427200317
1772725537179401700,0.439401611328125,-0.22966480255126953,0.06990265846252441,0.06503236293792725
1772725537188918500,0.44891845703125,-0.2375774383544922,0.05843710899353027,0.038037776947021484
1772725537198435300,0.458435302734375,-0.12450790405273438,0.051239728927612305,-0.02095399796962738
1772725537207952100,0.4679521484375,0.01360321044921875,0.03297567367553711,-0.04823850840330124
1772725537217469000,0.477468994140625,0.052634239196777344,0.024625062942504883,-0.047746285796165466
1772725537226985700,0.48698583984375,0.07919788360595703,0.03923940658569336,-0.034577377140522
1772725537236502500,0.49650244140625,0.051586151123046875,0.04096698760986328,-0.0525316521525383
1772725537246019300,0.506019287109375,-0.012678146362304688,0.020916223526000977,-0.037041306495666504
1772725537255536000,0.5155361328125,-0.02164173126220703,0.04528212547302246,-0.014591410756111145
1772725537265053000,0.525052978515625,0.004750251770019531,0.045348405838012695,-0.024014189839363098
1772725537274569700,0.53456982421875,0.0095062255859375,0.03144383430480957,-0.03605768084526062
1772725537284086500,0.54408642578125,-0.018733978271484375,0.016056537628173828,-0.0345635861158371
1772725537293603300,0.553603271484375,-0.05829620361328125,0.013594627380371094,0.012867853045463562
1772725537303120100,0.5631201171875,-0.040981292724609375,-0.023105144500732422,0.037355758249759674
1772725537312637000,0.572636962890625,0.032283782958984375,-0.0261993408203125,0.010728947818279266
1772725537322153700,0.58215380859375,0.0948324203491211,-0.017785191535949707,-0.04453274980187416
1772725537331670500,0.59167041015625,0.06467342376708984,-0.028256535530090332,-0.05487626791000366
1772725537341187300,0.601187255859375,0.03741931915283203,-0.03373265266418457,-0.029710575938224792
1772725537350704000,0.6107041015625,0.03414630889892578,-0.0037689208984375,-0.00039236992597579956
1772725537360221000,0.620220947265625,-0.020890235900878906,0.028624773025512695,-0.01840156316757202
1772725537369737700,0.62973779296875,0.011912345886230469,0.020998239517211914,-0.01723969727754593
1772725537379254500,0.639254638671875,0.0794210433959961,0.006513714790344238,-0.02147536724805832
1772725537388771300,0.648771240234375,0.14594745635986328,-0.017744779586791992,-0.017405547201633453
1772725537398288100,0.6582880859375,0.14560985565185547,-0.018465757369995117,-0.02586328238248825
1772725537407805000,0.667804931640625,0.10538005828857422,-0.019675612449645996,-0.022192679345607758
1772725537417321700,0.67732177734375,0.09421920776367188,-0.01934945583343506,-0.013074330985546112
1772725537426838500,0.686838623046875,0.03627300262451172,-0.010119795799255371,-0.00028280913829803467
1772725537436355300,0.696355224609375,-0.01131439208984375,0.027195453643798828,-0.004779383540153503
1772725537445872000,0.7058720703125,0.024275779724121094,0.06608140468597412,-0.05360935628414154
1772725537455389000,0.715388916015625,0.07336711883544922,0.01977837085723877,-0.025059513747692108
1772725537464905700,0.72490576171875,0.0321502685546875,-0.004133462905883789,-0.005213797092437744
1772725537474422500,0.734422607421875,0.017438888549804688,0.005628466606140137,0.006584689021110535
1772725537483939300,0.743939208984375,0.031160354614257812,0.010799050331115723,-0.00379209965467453
1772725537493456100,0.7534560546875,0.04468536376953125,-0.003054499626159668,0.003836490213871002
1772725537502973000,0.762972900390625,0.04160881042480469,-0.0077103376388549805,-0.028963863849639893
1772725537512489700,0.77248974609375,0.03167724609375,0.04105401039123535,-0.020550958812236786
1772725537522006500,0.782006591796875,-0.008530616760253906,0.024696707725524902,0.02674005925655365
1772725537531523300,0.7915234375,-0.07400703430175781,0.03706789016723633,0.06252748519182205
1772725537541040000,0.8010400390625,-0.1551036834716797,0.010349035263061523,0.052041903138160706
1772725537550557000,0.810556884765625,-0.12684249877929688,0.051074981689453125,0.060396693646907806
1772725537560073700,0.82007373046875,-0.0403594970703125,0.044783830642700195,0.052790507674217224
1772725537569590500,0.829590576171875,0.014068603515625,0.012932181358337402,0.06942417472600937
1772725537579107300,0.839107421875,0.020502090454101562,0.02177608013153076,0.05458065867424011
1772725537588624100,0.8486240234375,-0.001369476318359375,0.018485546112060547,0.038412079215049744
1772725537598141000,0.858140869140625,0.0077838897705078125,0.024271249771118164,0.028166621923446655
1772725537607657700,0.86765771484375,-0.0019807815551757812,-0.0009613037109375,0.00950508564710617
1772725537617174500,0.877174560546875,-0.023369789123535156,0.02604973316192627,0.022801019251346588
1772725537626691300,0.88669140625,0.000354766845703125,0.033509016036987305,0.008353441953659058
1772725537636208000,0.8962080078125,0.05678844451904297,0.011828184127807617,-0.003902032971382141
1772725537645725000,0.905724853515625,0.09360599517822266,0.01572263240814209,-0.005482226610183716
1772725537655241700,0.91524169921875,0.07805156707763672,0.019611001014709473,-0.03930994123220444
1772725537664758500,0.924758544921875,0.03204917907714844,0.02875959873199463,-0.0334131121635437
1772725537674275300,0.934275390625,0.021932601928710938,0.015123248100280762,-0.002425678074359894
1772725537683792100,0.943792236328125,0.021231651306152344,0.026081323623657227,0.008708454668521881
1772725537693309000,0.953308837890625,0.013396263122558594,0.016123533248901367,0.07822584360837936
1772725537702825700,0.96282568359375,0.07868671417236328,0.015515923500061035,0.09682916849851608
1772725537712342500,0.972342529296875,0.12183666229248047,0.030774235725402832,0.08002947270870209
1772725537721859300,0.981859375,0.12677764892578125,-0.002062082290649414,0.06616386026144028
1772725537731376000,0.991376220703125,0.17657852172851562,0.025649309158325195,0.09287606179714203
1772725537740893000,1.000892822265625,0.17405414581298828,0.0044890642166137695,0.12911547720432281
1772725537750409700,1.01040966796875,0.1153116226196289,-0.03386485576629639,0.14205171167850494
1772725537759926500,1.019926513671875,0.02939319610595703,-0.015567779541015625,0.14165231585502625
1772725537769443300,1.029443359375,-0.04329109191894531,-0.02374434471130371,0.147465318441391
1772725537778960100,1.038960205078125,-0.07707881927490234,-0.006130695343017578,0.14452067017555237
1772725537788477000,1.048476806640625,-0.02792835235595703,-0.01004648208618164,0.10577495396137238
1772725537797993700,1.05799365234375,-0.06439781188964844,-0.013336658477783203,0.07101890444755554
1772725537807510500,1.067510498046875,-0.09569931030273438,0.005393028259277344,0.01226113736629486
1772725537817027300,1.07702734375,-0.13376331329345703,-0.00801229476928711,0.045946210622787476
1772725537826544000,1.086544189453125,-0.18798065185546875,-0.0055751800537109375,0.0936477929353714
1772725537836061000,1.09606103515625,-0.1733551025390625,-0.011201858520507812,0.0659431666135788
1772725537845577700,1.10557763671875,-0.07908344268798828,-0.044472336769104004,0.05566266179084778
1772725537855094500,1.115094482421875,0.03017902374267578,-0.035286664962768555,0.0032687783241271973
1772725537864611300,1.124611328125,0.09315013885498047,-0.02272164821624756,-0.04076879471540451
1772725537874128100,1.134128173828125,0.09877395629882812,-0.030081868171691895,-0.05028325319290161
1772725537883645000,1.14364501953125,0.06442451477050781,-0.005045175552368164,-0.06806956231594086
1772725537893161700,1.15316162109375,0.03776741027832031,0.016948461532592773,-0.0738072320818901
1772725537902678500,1.162678466796875,0.016213417053222656,0.04356646537780762,-0.10618102550506592
1772725537912195300,1.1721953125,-0.007431983947753906,0.08913135528564453,-0.14653904736042023
1772725537921712000,1.181712158203125,-0.05437278747558594,0.07600831985473633,-0.09375858306884766
1772725537931229000,1.19122900390625,-0.11011219024658203,0.07570385932922363,-0.08452211320400238
1772725537940745700,1.200745849609375,-0.14622879028320312,0.07125616073608398,-0.031970828771591187
1772725537950262500,1.210262451171875,-0.14184284210205078,0.07898473739624023,-0.025281503796577454
1772725537959779300,1.219779296875,-0.10927295684814453,0.09107565879821777,-0.040464773774147034
1772725537969296100,1.229296142578125,-0.023062705993652344,0.11440730094909668,-0.069251649081707
1772725537978813000,1.23881298828125,0.019399642944335938,0.07371711730957031,-0.08738157153129578
1772725537988329700,1.248329833984375,0.032876014709472656,0.05521845817565918,-0.06265601515769958
1772725537997846500,1.257846435546875,0.003688812255859375,0.0515902042388916,-0.020109154284000397
1772725538007363300,1.26736328125,0.017334938049316406,0.024544954299926758,0.023871906101703644
1772725538016880000,1.276880126953125,0.08261680603027344,-0.0025529861450195312,-0.007805243134498596
1772725538026397000,1.28639697265625,0.10463237762451172,-0.039501190185546875,-0.019273363053798676
1772725538035913700,1.295913818359375,0.15006065368652344,-0.03940844535827637,-0.0493428111076355
1772725538045430500,1.305430419921875,0.12191104888916016,-0.03987002372741699,-0.03227889537811279
1772725538054947300,1.314947265625,0.04476642608642578,-0.03533661365509033,-0.03251819312572479
1772725538064464100,1.324464111328125,0.00652313232421875,-0.035367727279663086,0.04617821425199509
1772725538073981000,1.33398095703125,-0.042893409729003906,-0.053949952125549316,0.0734407901763916
1772725538083497700,1.343497802734375,-0.09397220611572266,-0.04573464393615723,0.08916887640953064
1772725538093014500,1.3530146484375,-0.1207876205444336,-0.04427194595336914,0.05963048338890076
1772725538102531300,1.36253125,-0.1236104965209961,-0.01246786117553711,0.05644477903842926
1772725538112048000,1.372048095703125,-0.055690765380859375,0.013492107391357422,-0.008848316967487335
1772725538121565000,1.38156494140625,0.0041332244873046875,0.0432894229888916,-0.05220511555671692
1772725538131081700,1.391081787109375,-0.0029392242431640625,0.030407428741455078,-0.07029682397842407
1772725538140598500,1.4005986328125,-0.08071613311767578,0.004851102828979492,-0.07556509971618652
1772725538150115300,1.410115234375,-0.12694549560546875,0.026101112365722656,-0.020161010324954987
1772725538159632100,1.419632080078125,-0.10440349578857422,0.01993107795715332,-0.02034374326467514
1772725538169149000,1.42914892578125,-0.01872539520263672,0.028093814849853516,-0.030236445367336273
1772725538178665700,1.438665771484375,0.03975486755371094,0.014389872550964355,-0.05149568244814873
1772725538188182500,1.4481826171875,0.03384971618652344,0.033246755599975586,-0.053043439984321594
1772725538197699300,1.45769921875,0.0022058486938476562,0.02328205108642578,-0.03944632411003113
1772725538207216000,1.467216064453125,0.011147499084472656,0.024916768074035645,-0.027548789978027344
1772725538216733000,1.47673291015625,0.062378883361816406,0.028431415557861328,-0.001296713948249817
1772725538226249700,1.486249755859375,0.09875106811523438,0.005502223968505859,-0.011433526873588562
1772725538235766500,1.4957666015625,0.14873504638671875,-0.0033721923828125,-0.024836279451847076
1772725538245283300,1.505283447265625,0.13676834106445312,-0.03585219383239746,-0.05559031665325165
1772725538254800100,1.514800048828125,0.13915061950683594,-0.004373311996459961,-0.03965425491333008
1772725538264317000,1.52431689453125,0.11093616485595703,-0.030000925064086914,-0.029415525496006012
1772725538273833700,1.533833740234375,0.06201648712158203,-0.012845516204833984,-0.024210572242736816
1772725538283350500,1.5433505859375,0.028076171875,0.036688923835754395,-0.001718074083328247
1772725538292867300,1.552867431640625,0.03475475311279297,0.028594136238098145,0.033414192497730255
1772725538302384000,1.562384033203125,0.029648780822753906,-0.015166163444519043,0.07138691842556
1772725538311901000,1.57190087890625,0.03413677215576172,-0.01635420322418213,0.11412736028432846
1772725538321417700,1.581417724609375,0.012699127197265625,0.008187294006347656,0.0999990850687027
1772725538330934500,1.5909345703125,-0.05558490753173828,0.009514331817626953,0.1000344455242157
1772725538340451300,1.600451416015625,-0.10409355163574219,0.014120221138000488,0.05465991050004959
1772725538349968100,1.609968017578125,-0.09786796569824219,0.03842484951019287,0.028596073389053345
1772725538359485000,1.61948486328125,-0.04006195068359375,0.053307294845581055,0.0007013678550720215
1772725538369001700,1.629001708984375,0.03806877136230469,0.036795854568481445,0.013371884822845459
1772725538378518500,1.6385185546875,0.08209705352783203,0.005768895149230957,0.02090322971343994
1772725538388035300,1.648035400390625,0.059622764587402344,-0.011182188987731934,0.0235588476061821
1772725538397552000,1.65755224609375,0.0658102035522461,-0.011604547500610352,0.030440792441368103
1772725538407069000,1.66706884765625,0.07197093963623047,-0.03353595733642578,0.0718114972114563
1772725538416585700,1.676585693359375,0.023932456970214844,-0.06222224235534668,0.052989766001701355
1772725538426102500,1.6861025390625,-0.03987598419189453,-0.05933737754821777,0.013103500008583069
1772725538435619300,1.695619384765625,-0.04150867462158203,-0.02562582492828369,-0.004564099013805389
1772725538445136100,1.70513623046875,-0.06201171875,-0.048610806465148926,0.04684522747993469
1772725538454653000,1.71465283203125,-0.0775604248046875,-0.04489290714263916,0.1117866262793541
1772725538464169700,1.724169677734375,-0.10002708435058594,-0.059516191482543945,0.14563137292861938
1772725538473686500,1.7336865234375,-0.13166046142578125,-0.06388163566589355,0.15843097865581512
1772725538483203300,1.743203369140625,-0.1110544204711914,-0.02796018123626709,0.11764899641275406
1772725538492720000,1.75272021484375,-0.05552101135253906,-0.004293322563171387,0.061399735510349274
1772725538502237000,1.76223681640625,-0.017317771911621094,0.030413269996643066,0.0013136565685272217
1772725538511753700,1.771753662109375,0.03911781311035156,0.052561163902282715,-0.03907211124897003
1772725538521270500,1.7812705078125,0.08297920227050781,0.0713815689086914,-0.06995505839586258
1772725538530787300,1.790787353515625,0.0862283706665039,0.07757449150085449,-0.08697773516178131
1772725538540304100,1.80030419921875,0.04942512512207031,0.041369080543518066,-0.06240241602063179
1772725538549821000,1.809821044921875,0.0037221908569335938,0.04631996154785156,-0.0016043558716773987
1772725538559337700,1.819337646484375,-0.020170211791992188,0.05891251564025879,0.038654424250125885
1772725538568854500,1.8288544921875,-0.008463859558105469,0.04355943202972412,0.02372308075428009
1772725538578371300,1.838371337890625,0.033634185791015625,0.011989712715148926,0.028065375983715057
1772725538587888000,1.84788818359375,0.058696746826171875,0.013160943984985352,0.014293074607849121
1772725538597405000,1.857405029296875,0.05999279022216797,0.034488558769226074,-0.013889633119106293
1772725538606921700,1.866921630859375,0.06847858428955078,0.04992246627807617,-0.014358453452587128
1772725538616438500,1.8764384765625,0.06512260437011719,0.022414803504943848,-0.026472948491573334
1772725538625955300,1.885955322265625,0.05477714538574219,0.009483098983764648,-0.02292025089263916
1772725538635472100,1.89547216796875,0.10577011108398438,0.001635909080505371,-0.01890530437231064
1772725538644989000,1.904989013671875,0.1183013916015625,-0.006141543388366699,-0.014525413513183594
1772725538654505700,1.914505615234375,0.06238842010498047,-0.006678462028503418,-0.020356610417366028
1772725538664022500,1.9240224609375,0.035674095153808594,-0.0026636123657226562,-0.04942017048597336
1772725538673539300,1.933539306640625,-0.03531169891357422,0.0224684476852417,-0.07711802423000336
1772725538683056000,1.94305615234375,-0.10279369354248047,0.014301061630249023,-0.06296896189451218
1772725538692573000,1.952572998046875,-0.12446308135986328,0.02744615077972412,-0.01701447367668152
1772725538702089700,1.96208984375,-0.1175832748413086,0.01701045036315918,0.0009442567825317383
1772725538711606500,1.9716064453125,-0.08026313781738281,0.01161658763885498,0.02793841063976288
1772725538721123300,1.981123291015625,-0.07657623291015625,-0.023833274841308594,0.013042822480201721
1772725538730640100,1.99064013671875,-0.12731552124023438,-0.024471163749694824,-0.012009084224700928
1772725538740157000,2.000156982421875,-0.12331008911132812,0.008960604667663574,0.007537409663200378
1772725538749673700,2.009673828125,-0.1454296112060547,0.02620410919189453,-0.019787684082984924
1772725538759190500,2.0191904296875,-0.10142040252685547,0.02484297752380371,-0.01939164102077484
1772725538768707300,2.028707275390625,-0.0039730072021484375,0.034937500953674316,-0.0036575347185134888
1772725538778224000,2.03822412109375,0.07790470123291016,0.0016154050827026367,0.02659103274345398
1772725538787741000,2.047740966796875,0.14212894439697266,-0.04146015644073486,0.01640333980321884
1772725538797257700,2.0572578125,0.1701946258544922,-0.033055901527404785,-0.010386340320110321
1772725538806774500,2.0667744140625,0.15314197540283203,-0.039134860038757324,-0.03983015567064285
1772725538816291300,2.076291259765625,0.13167953491210938,-0.012113690376281738,-0.03535490483045578
1772725538825808100,2.08580810546875,0.12470340728759766,0.026285529136657715,-0.11040141433477402
1772725538835325000,2.095324951171875,0.0801553726196289,0.01015782356262207,-0.09299242496490479
1772725538844841700,2.104841796875,0.036438941955566406,0.0385584831237793,-0.056838057935237885
1772725538854358500,2.114358642578125,-0.004109382629394531,0.016569852828979492,-0.024907797574996948
1772725538863875300,2.123875244140625,-0.08168411254882812,0.05394113063812256,-0.02480757236480713
1772725538873392000,2.13339208984375,-0.14399242401123047,0.07018744945526123,-0.016979798674583435
1772725538882909000,2.142908935546875,-0.15600967407226562,0.0845954418182373,-0.06088002771139145
1772725538892425700,2.15242578125,-0.13035297393798828,0.0666663646697998,-0.05440276861190796
1772725538901942500,2.161942626953125,-0.08403396606445312,0.04478311538696289,-0.06478378921747208
1772725538911459300,2.171459228515625,-0.029087066650390625,0.025730371475219727,-0.03820447623729706
1772725538920976100,2.18097607421875,-0.012742042541503906,-0.03272724151611328,-0.036859095096588135
1772725538930493000,2.190492919921875,0.015032768249511719,-0.028643369674682617,-0.015397623181343079
1772725538940009700,2.200009765625,0.06589031219482422,-0.0010936260223388672,-0.026110082864761353
1772725538949526500,2.209526611328125,0.12308692932128906,0.04191863536834717,-0.06370999664068222
1772725538959043300,2.219043212890625,0.1041097640991211,0.027474522590637207,-0.0923890545964241
1772725538968560000,2.22856005859375,0.02423381805419922,0.00644075870513916,-0.03378854691982269
1772725538978077000,2.238076904296875,-0.04496574401855469,0.01892232894897461,0.04677888751029968
1772725538987593700,2.24759375,-0.054149627685546875,-0.01624917984008789,0.05816736817359924
1772725538997110500,2.257110595703125,-0.015989303588867188,-0.02819812297821045,0.05568064749240875
1772725539006627300,2.26662744140625,0.026422500610351562,-0.06213784217834473,0.0874955803155899
1772725539016144100,2.27614404296875,0.06592750549316406,-0.0891944169998169,0.11123895645141602
1772725539025661000,2.285660888671875,0.07418251037597656,-0.12505269050598145,0.07402902841567993
1772725539035177700,2.295177734375,0.046858787536621094,-0.11706972122192383,0.026126086711883545
1772725539044694500,2.304694580078125,0.029237747192382812,-0.11056923866271973,0.0194166898727417
1772725539054211300,2.31421142578125,0.0118255615234375,-0.09421181678771973,0.04460704326629639
1772725539063728000,2.32372802734375,-0.017090797424316406,-0.08267080783843994,0.06951025128364563
1772725539073245000,2.333244873046875,-0.047852516174316406,-0.05037486553192139,0.07406248152256012
1772725539082761700,2.34276171875,-0.06392288208007812,-0.049716830253601074,0.09498132765293121
1772725539092278500,2.352278564453125,-0.00652313232421875,-0.012995004653930664,0.10149537026882172
1772725539101795300,2.36179541015625,0.024278640747070312,-0.046524763107299805,0.06975585222244263
1772725539111312100,2.37131201171875,0.01699352264404297,-0.02818131446838379,0.053422778844833374
1772725539120829000,2.380828857421875,0.04037666320800781,0.004312634468078613,-0.0110158771276474
1772725539130345700,2.390345703125,0.04205799102783203,-0.012190818786621094,-0.058408014476299286
1772725539139862500,2.399862548828125,0.005878448486328125,-0.0013042688369750977,-0.06323502212762833
1772725539149379300,2.40937939453125,-0.02756977081298828,0.005978584289550781,-0.05523000657558441
1772725539158896000,2.418896240234375,-0.0794668197631836,0.01873767375946045,-0.025478169322013855
1772725539168413000,2.428412841796875,-0.0646219253540039,0.026408910751342773,0.0010966509580612183
1772725539177929700,2.4379296875,0.03723907470703125,0.035022854804992676,-0.05982139706611633
1772725539187446500,2.447446533203125,0.12363338470458984,0.029785513877868652,-0.06167096644639969
1772725539196963300,2.45696337890625,0.16186904907226562,0.025152206420898438,-0.09323479235172272
1772725539206480100,2.466480224609375,0.1219339370727539,-0.0176084041595459,-0.05164328217506409
1772725539215997000,2.475996826171875,0.021394729614257812,-0.04728269577026367,0.0020947009325027466
1772725539225513700,2.485513671875,-0.08949470520019531,-0.016193270683288574,0.05387015640735626
1772725539235030500,2.495030517578125,-0.18473529815673828,-0.033310890197753906,0.07785533368587494
1772725539244547300,2.50454736328125,-0.15158939361572266,-0.0039920806884765625,0.07924298942089081
1772725539254064000,2.514064208984375,-0.11916923522949219,0.028087377548217773,0.010109618306159973
1772725539263581000,2.523580810546875,-0.021353721618652344,0.016902446746826172,-0.04268530011177063
1772725539273097700,2.53309765625,0.12693405151367188,-0.0053441524505615234,-0.05128173530101776
1772725539282614500,2.542614501953125,0.2096405029296875,-0.02239680290222168,-0.014435097575187683
1772725539292131300,2.55213134765625,0.2301502227783203,-0.031603455543518066,-0.018169984221458435
1772725539301648100,2.561648193359375,0.1422252655029297,-0.041394591331481934,0.020383775234222412
1772725539311165000,2.5711650390625,0.02039623260498047,-0.052991271018981934,0.04206819832324982
1772725539320681700,2.580681640625,-0.05489349365234375,-0.011627197265625,0.05408962070941925
1772725539330198500,2.590198486328125,-0.0961904525756836,0.013634800910949707,0.103510782122612
1772725539339715300,2.59971533203125,-0.11114883422851562,0.01377105712890625,0.05107787251472473
1772725539349232000,2.609232177734375,-0.06952667236328125,-0.004187941551208496,-0.009925603866577148
1772725539358749000,2.6187490234375,-0.007403373718261719,-0.01490175724029541,-0.008557304739952087
1772725539368265700,2.628265625,0.030202865600585938,-0.016310811042785645,0.016830161213874817
1772725539377782500,2.637782470703125,0.03427410125732422,-0.024924039840698242,-0.021780118346214294
1772725539387299300,2.64729931640625,0.08776378631591797,0.001572728157043457,-0.10509894043207169
1772725539396816100,2.656816162109375,0.13342857360839844,0.0035479068756103516,-0.1127837598323822
1772725539406333000,2.6663330078125,0.06303596496582031,0.005543947219848633,-0.050234511494636536
1772725539415850000,2.67585009765625,-0.02982330322265625,0.03159213066101074,-0.04033730924129486
1772725539425366500,2.685366455078125,-0.03647327423095703,0.01978623867034912,-0.047052063047885895
1772725539434883300,2.69488330078125,0.02066326141357422,0.019164443016052246,-0.08868878334760666
1772725539444400000,2.704400146484375,0.044058799743652344,-0.008217811584472656,-0.06971878558397293
1772725539453917000,2.7139169921875,0.029511451721191406,-0.01923227310180664,-0.02429749071598053
1772725539463433700,2.723433837890625,0.008192062377929688,-0.03965306282043457,0.010458230972290039
1772725539472950500,2.732950439453125,-0.05285072326660156,-0.059296369552612305,0.02067546546459198
1772725539482467600,2.742467529296875,-0.13426876068115234,-0.05397021770477295,0.059044405817985535
1772725539491984100,2.751984130859375,-0.1675395965576172,-0.03321731090545654,0.030800849199295044
1772725539501501000,2.7615009765625,-0.1675577163696289,-0.035105228424072266,-0.001441851258277893
1772725539511017700,2.771017822265625,-0.11587238311767578,-0.02726161479949951,-0.006813988089561462
1772725539520534500,2.780534423828125,-0.06979751586914062,-0.017026424407958984,0.021605804562568665
1772725539530051300,2.79005126953125,-0.0645437240600586,-0.004391193389892578,0.04553647339344025
1772725539539568000,2.799568115234375,-0.0099334716796875,-0.025079727172851562,0.024639487266540527
1772725539549085200,2.809085205078125,0.0626821517944336,-0.03410995006561279,0.029691025614738464
1772725539558601700,2.818601806640625,0.1436443328857422,-0.02713322639465332,-0.014257311820983887
1772725539568118500,2.828118408203125,0.17633342742919922,-0.01847231388092041,-0.08993781358003616
1772725539577635600,2.837635498046875,0.12848377227783203,-0.009943842887878418,-0.09190186858177185
1772725539587152400,2.84715234375,0.09561920166015625,0.00511479377746582,-0.06067650765180588
1772725539596669000,2.8566689453125,0.1034078598022461,-0.0018734931945800781,0.01332007348537445
1772725539606185700,2.866185791015625,0.1512765884399414,-0.021689295768737793,0.035201579332351685
1772725539615702800,2.875702880859375,0.139801025390625,-0.01910543441772461,0.05003878474235535
1772725539625219300,2.88521923828125,0.07208633422851562,-0.028560519218444824,0.0648268461227417
1772725539634736000,2.894736083984375,-0.051123619079589844,0.0006229877471923828,0.05777372419834137
1772725539644253200,2.904253173828125,-0.1090097427368164,0.009547114372253418,0.02195434272289276
1772725539653770000,2.91377001953125,-0.17331790924072266,0.03182804584503174,-0.004302188754081726
1772725539663286500,2.92328662109375,-0.15439510345458984,0.028867125511169434,-0.016001157462596893
1772725539672803600,2.932803466796875,-0.08162879943847656,0.04455459117889404,-0.02963416278362274
1772725539682320400,2.9423203125,-0.01934051513671875,0.016789913177490234,-0.037358470261096954
1772725539691837000,2.9518369140625,0.032713890075683594,0.004784584045410156,-0.016180306673049927
1772725539701353700,2.961353759765625,0.036930084228515625,0.0184706449508667,-0.05267620086669922
1772725539710870800,2.970870849609375,0.02926158905029297,0.03232431411743164,-0.059820935130119324
1772725539720387600,2.9803876953125,0.012165069580078125,0.013904213905334473,-0.057185977697372437
1772725539729904000,2.989904052734375,-0.03070831298828125,0.015624284744262695,-0.07663297653198242
1772725539739421200,2.999421142578125,-0.011754035949707031,0.03171670436859131,-0.04084087163209915
1772725539748938000,3.00893798828125,0.03526782989501953,0.03247368335723877,-0.03172861039638519
1772725539758454800,3.018454833984375,0.09590339660644531,0.019829988479614258,-0.004012197256088257
1772725539767971600,3.0279716796875,0.11110401153564453,-0.00364077091217041,0.03698895871639252
1772725539777488400,3.03748828125,0.1003255844116211,-0.0016810894012451172,0.02591058611869812
1772725539787005200,3.047005126953125,0.04027080535888672,-0.022950053215026855,0.020875602960586548
1772725539796521700,3.056521728515625,-0.004868507385253906,-0.03087031841278076,0.025266900658607483
1772725539806038800,3.066038818359375,-0.014177322387695312,-0.03266716003417969,0.020327970385551453
1772725539815555600,3.0755556640625,0.0000591278076171875,-0.031293630599975586,0.010050281882286072
1772725539825072400,3.085072265625,0.08006000518798828,-0.02114582061767578,-0.004839479923248291
1772725539834589200,3.094589111328125,0.11664772033691406,-0.012624859809875488,0.016271665692329407
1772725539844106000,3.10410595703125,0.0869588851928711,0.0015746355056762695,0.047963857650756836
1772725539853622800,3.113622802734375,0.050866127014160156,-0.011304497718811035,0.0783742219209671
1772725539863139600,3.1231396484375,0.0036716461181640625,0.006222844123840332,0.057632073760032654
1772725539872656400,3.132656494140625,-0.030997276306152344,0.000042557716369628906,0.018727049231529236
1772725539882173200,3.142173095703125,-0.0887899398803711,0.0348658561706543,-0.014754816889762878
1772725539891690000,3.15168994140625,-0.12463760375976562,0.011354446411132812,-0.043755486607551575
1772725539901206500,3.16120654296875,-0.10355567932128906,-0.013336658477783203,-0.028420060873031616
1772725539910723600,3.1707236328125,-0.07585716247558594,-0.01829230785369873,-0.01143716275691986
1772725539920240400,3.180240478515625,-0.06277656555175781,-0.0017663240432739258,0.005004420876502991
1772725539929757200,3.189757080078125,-0.012232780456542969,-0.009212493896484375,-0.028362557291984558
1772725539939274000,3.19927392578125,-0.03782367706298828,-0.04246973991394043,-0.05124512314796448
1772725539948790800,3.208790771484375,-0.04653167724609375,-0.006928563117980957,-0.04226966202259064
1772725539958307600,3.2183076171875,-0.008016586303710938,0.009092569351196289,-0.04262824356555939
1772725539967824400,3.227824462890625,0.013397216796875,-0.022268295288085938,-0.005445808172225952
1772725539977341200,3.237341064453125,0.029822349548339844,-0.022858619689941406,0.05880157649517059
1772725539986858000,3.24685791015625,0.062530517578125,-0.012075424194335938,0.05561035871505737
1772725539996374800,3.256374755859375,0.05711078643798828,-0.013579607009887695,0.07839654386043549
1772725540005891600,3.2658916015625,0.0659494400024414,0.0011332035064697266,0.023414194583892822
1772725540015408400,3.275408447265625,0.037018775939941406,-0.005739927291870117,-0.011378541588783264
1772725540024925200,3.28492529296875,0.09575843811035156,0.015124201774597168,-0.0013768672943115234
1772725540034442000,3.29444189453125,0.09478282928466797,0.03289365768432617,-0.02283613383769989
1772725540043958800,3.303958740234375,0.03499794006347656,-0.006051778793334961,-0.025787390768527985
1772725540053475600,3.3134755859375,-0.07097721099853516,-0.0013214349746704102,-0.02871119976043701
1772725540062992400,3.322992431640625,-0.12358283996582031,0.039356112480163574,-0.0281679704785347
1772725540072509200,3.33250927734375,-0.09061813354492188,0.029945850372314453,-0.014771312475204468
1772725540082026000,3.34202587890625,-0.008669853210449219,0.013020038604736328,-0.0368022620677948
1772725540091542800,3.351542724609375,0.020223617553710938,-0.025133132934570312,-0.03794929385185242
1772725540101059600,3.3610595703125,0.0038518905639648438,0.010689377784729004,-0.06741176545619965
1772725540110576400,3.370576416015625,-0.03590202331542969,-0.005173087120056152,-0.04755249619483948
1772725540120093200,3.38009326171875,0.02850818634033203,-0.018196702003479004,-0.03874600678682327
1772725540129610000,3.38960986328125,0.04477882385253906,-0.03324854373931885,-0.026265516877174377
1772725540139126800,3.399126708984375,0.0066699981689453125,-0.017524361610412598,0.021523430943489075
1772725540148643600,3.4086435546875,-0.033158302307128906,0.011995315551757812,0.03893435001373291
1772725540158160400,3.418160400390625,-0.0181121826171875,0.04281818866729736,0.012726113200187683
1772725540167677200,3.42767724609375,0.010950088500976562,0.039353132247924805,-0.028373628854751587
1772725540177194000,3.437194091796875,0.01137542724609375,0.03079533576965332,-0.03292333334684372
1772725540186710800,3.446710693359375,-0.007038116455078125,0.03184950351715088,-0.01865214854478836
1772725540196227600,3.4562275390625,0.0053462982177734375,0.040503501892089844,0.020267382264137268
1772725540205744400,3.465744384765625,-0.02724933624267578,0.01651465892791748,0.03335264325141907
1772725540215261200,3.47526123046875,-0.07359695434570312,0.024457812309265137,0.07137498259544373
1772725540224778000,3.484778076171875,-0.14760112762451172,0.05204010009765625,0.11614708602428436
1772725540234294800,3.494294677734375,-0.08394813537597656,0.058156490325927734,0.05530858039855957
1772725540243811600,3.5038115234375,-0.009481430053710938,0.058854103088378906,0.0411403626203537
1772725540253328400,3.513328369140625,0.04038715362548828,0.03741192817687988,0.03792823851108551
1772725540262845200,3.52284521484375,0.058983802795410156,0.020247220993041992,0.05206800997257233
1772725540272362000,3.532362060546875,0.06799793243408203,-0.00672149658203125,0.05650545656681061
1772725540281878800,3.541878662109375,0.06753921508789062,-0.005402565002441406,0.03911212086677551
1772725540291395600,3.5513955078125,0.015306472778320312,0.003068208694458008,-0.009015507996082306
1772725540300912400,3.560912353515625,-0.062073707580566406,0.016838550567626953,-0.050021156668663025
1772725540310429200,3.57042919921875,-0.055995941162109375,0.03368782997131348,-0.06056107580661774
1772725540319946000,3.579946044921875,-0.04310417175292969,0.013392210006713867,-0.029690265655517578
1772725540329462800,3.589462890625,-0.018680572509765625,-0.02757585048675537,-0.010053038597106934
1772725540338979600,3.5989794921875,0.007708549499511719,-0.01145017147064209,0.006457805633544922
1772725540348496400,3.608496337890625,-0.013364791870117188,-0.031060338020324707,0.03672288358211517
1772725540358013200,3.61801318359375,-0.029348373413085938,-0.017574787139892578,0.02671945095062256
1772725540367530000,3.627530029296875,-0.0851144790649414,0.0005630254745483398,0.018111586570739746
1772725540377046800,3.637046875,-0.12592124938964844,0.006919980049133301,-0.002449214458465576
1772725540386563600,3.6465634765625,-0.062442779541015625,0.0033135414123535156,0.0350765585899353
1772725540396080400,3.656080322265625,0.01659393310546875,-0.012727856636047363,0.04627431929111481
1772725540405597200,3.66559716796875,0.0331268310546875,-0.007218003273010254,0.04940137267112732
1772725540415114000,3.675114013671875,-0.04726600646972656,0.013262033462524414,0.023259714245796204
1772725540424630800,3.684630859375,-0.09832191467285156,0.029920458793640137,0.008302971720695496
1772725540434147600,3.694147705078125,-0.10404777526855469,0.045119643211364746,0.004601269960403442
1772725540443664400,3.703664306640625,-0.08631038665771484,0.05143308639526367,-0.020024999976158142
1772725540453181400,3.713181396484375,-0.031118392944335938,0.0664970874786377,-0.019908294081687927
1772725540462698000,3.722697998046875,0.11052894592285156,0.03733789920806885,-0.03290634602308273
1772725540472214800,3.73221484375,0.15361976623535156,0.016684770584106445,-0.0356067419052124
1772725540481731800,3.74173193359375,0.13496875762939453,0.03330338001251221,-0.09281673282384872
1772725540491248400,3.751248291015625,0.10724353790283203,0.02841973304748535,-0.11276856064796448
1772725540500765200,3.76076513671875,0.06109333038330078,0.024010896682739258,-0.08425068855285645
1772725540510282000,3.770281982421875,0.041538238525390625,0.01765584945678711,-0.028832480311393738
1772725540519799000,3.779799072265625,0.017625808715820312,0.008940458297729492,-0.0070886388421058655
1772725540529315600,3.789315673828125,0.03187847137451172,0.01616978645324707,-0.010360226035118103
1772725540538832400,3.798832275390625,-0.015180587768554688,0.03913593292236328,0.0001875162124633789
1772725540548349400,3.808349365234375,-0.033168792724609375,0.03785228729248047,0.009705200791358948
1772725540557866200,3.8178662109375,-0.0485076904296875,0.013057470321655273,0.0312216654419899
1772725540567382800,3.8273828125,-0.06598186492919922,0.01007699966430664,0.014341466128826141
1772725540576899800,3.83689990234375,-0.024387359619140625,0.012135028839111328,-0.04096735268831253
1772725540586416600,3.846416748046875,-0.05658245086669922,0.005533695220947266,-0.05817890912294388
1772725540595933200,3.85593310546875,-0.12380218505859375,0.0003292560577392578,-0.039799898862838745
1772725540605450200,3.8654501953125,-0.1289815902709961,0.0011467933654785156,-0.014468386769294739
1772725540614967000,3.874967041015625,-0.11067771911621094,-0.0280228853225708,-0.012598007917404175
1772725540624483800,3.88448388671875,-0.026740074157714844,-0.035810232162475586,-0.003453977406024933
1772725540634000600,3.894000732421875,0.03244590759277344,-0.037251830101013184,-0.004216812551021576
1772725540643517400,3.903517333984375,0.07906627655029297,-0.04420948028564453,-0.05307627469301224
1772725540653034200,3.9130341796875,0.059144020080566406,-0.0186617374420166,-0.08029491454362869
1772725540662550800,3.92255078125,0.0018711090087890625,-0.014539718627929688,-0.06224791705608368
1772725540672067800,3.93206787109375,-0.05460071563720703,-0.030935168266296387,-0.02790983021259308
1772725540681584600,3.941584716796875,-0.10094642639160156,-0.0059430599212646484,0.01732046902179718
1772725540691101400,3.951101318359375,-0.07613277435302734,-0.013309478759765625,0.04491640627384186
1772725540700618200,3.9606181640625,-0.05425739288330078,-0.0009002685546875,0.08627547323703766
1772725540710135000,3.970135009765625,0.014346122741699219,-0.0006334781646728516,0.06380798667669296
1772725540719651800,3.97965185546875,0.12671852111816406,0.007982969284057617,0.0166793093085289
1772725540729168600,3.989168701171875,0.20934391021728516,0.03114461898803711,-0.01735386997461319
1772725540738685400,3.998685546875,0.22742462158203125,0.0003695487976074219,0.0063097476959228516
1772725540748202200,4.0082021484375,0.2031393051147461,-0.01717209815979004,-0.017535001039505005
1772725540757719000,4.017718994140625,0.1511707305908203,-0.03273963928222656,-0.018178582191467285
1772725540767235800,4.02723583984375,0.1000509262084961,-0.024350881576538086,0.0008451342582702637
1772725540776752600,4.036752685546875,0.03557395935058594,-0.029716968536376953,-0.01450704038143158
1772725540786269400,4.04626953125,-0.046802520751953125,-0.031913042068481445,0.008076399564743042
1772725540795786200,4.0557861328125,-0.10207462310791016,-0.03340029716491699,0.012654408812522888
1772725540805303000,4.065302978515625,-0.08355522155761719,-0.029874086380004883,0.025385774672031403
1772725540814819800,4.07481982421875,0.014748573303222656,-0.015086650848388672,0.019269689917564392
1772725540824336600,4.084336669921875,0.036147117614746094,-0.04536628723144531,0.041157737374305725
1772725540833853400,4.093853515625,-0.02997589111328125,-0.05340838432312012,0.031022168695926666
1772725540843370200,4.103370361328125,-0.06457042694091797,-0.04636061191558838,0.022335804998874664
1772725540852887000,4.112886962890625,-0.09644317626953125,-0.05724978446960449,0.004070788621902466
1772725540862403800,4.12240380859375,-0.11377906799316406,-0.06039726734161377,0.008147582411766052
1772725540871920600,4.131920654296875,-0.09082889556884766,-0.002373933792114258,0.011301286518573761
1772725540881437400,4.1414375,-0.05160808563232422,-0.026266098022460938,0.008727073669433594
1772725540890954200,4.150954345703125,0.04605865478515625,-0.03468143939971924,-0.034708812832832336
1772725540900471000,4.160470947265625,0.10710430145263672,-0.023227691650390625,-0.04405862092971802
1772725540909987800,4.16998779296875,0.120269775390625,-0.04579663276672363,-0.05662387236952782
1772725540919504600,4.179504638671875,0.06728553771972656,-0.03942131996154785,-0.03124484419822693
1772725540929021400,4.189021484375,-0.020420074462890625,-0.005654811859130859,0.007416464388370514
1772725540938538200,4.198538330078125,-0.15892696380615234,0.004118204116821289,0.02722594141960144
1772725540948055000,4.208054931640625,-0.2250356674194336,0.04436326026916504,0.060723915696144104
1772725540957571800,4.21757177734375,-0.22443866729736328,0.07816147804260254,0.06193920224905014
1772725540967088600,4.227088623046875,-0.101470947265625,0.0641164779663086,0.043952129781246185
1772725540976605400,4.23660546875,0.015016555786132812,0.07238626480102539,-0.008684635162353516
1772725540986122200,4.246122314453125,0.11347484588623047,0.019742250442504883,0.02925906330347061
1772725540995639000,4.25563916015625,0.18247699737548828,-0.0058536529541015625,0.02785412222146988
1772725541005155800,4.26515576171875,0.22941970825195312,-0.02048349380493164,-0.021312430500984192
1772725541014672600,4.274672607421875,0.2026958465576172,-0.03268170356750488,-0.041562702506780624
1772725541024189400,4.284189453125,0.1762828826904297,-0.03448295593261719,-0.05545925348997116
1772725541033706200,4.293706298828125,0.10780525207519531,-0.04482865333557129,-0.008387036621570587
1772725541043223000,4.30322314453125,0.07101058959960938,-0.05237174034118652,0.043621160089969635
1772725541052739800,4.31273974609375,0.027828216552734375,-0.04595303535461426,0.08333507925271988
1772725541062256600,4.322256591796875,-0.04749774932861328,-0.04008841514587402,0.11030341684818268
1772725541071773400,4.3317734375,-0.07679367065429688,-0.05829668045043945,0.1017884835600853
1772725541081290200,4.341290283203125,-0.041900634765625,-0.0370943546295166,0.0834372490644455
1772725541090807000,4.35080712890625,-0.012182235717773438,-0.0568079948425293,0.10117005556821823
1772725541100323800,4.36032373046875,-0.04887962341308594,-0.0736241340637207,0.12982209026813507
1772725541109840600,4.369840576171875,-0.08983039855957031,-0.07521438598632812,0.11658937484025955
1772725541119357700,4.379357666015625,-0.12564849853515625,-0.033145904541015625,0.07622654736042023
1772725541128874200,4.388874267578125,-0.1894369125366211,-0.008986711502075195,0.01692339777946472
1772725541138391000,4.39839111328125,-0.20298480987548828,0.030005931854248047,0.017362117767333984
1772725541147908000,4.407908203125,-0.20469188690185547,0.05490565299987793,-0.03096655011177063
1772725541157424600,4.417424560546875,-0.16879749298095703,0.06555771827697754,-0.060766421258449554
1772725541166941400,4.42694140625,-0.13349151611328125,0.0782780647277832,-0.05566222220659256
1772725541176458500,4.43645849609375,-0.06108570098876953,0.05762457847595215,-0.033551204949617386
1772725541185975300,4.445975341796875,0.019600868225097656,0.04874396324157715,-0.024218641221523285
1772725541195491800,4.455491943359375,0.0730886459350586,0.014070987701416016,-0.026065990328788757
1772725541205009000,4.4650087890625,0.07629585266113281,-0.005963325500488281,-0.019550062716007233
1772725541214525700,4.474525634765625,0.09126663208007812,0.030584335327148438,-0.018350400030612946
1772725541224042200,4.484042236328125,0.08961868286132812,0.021315336227416992,0.013807401061058044
1772725541233559300,4.493559326171875,0.08106803894042969,0.046881675720214844,0.017305225133895874
1772725541243076000,4.503076171875,0.09397506713867188,0.017237424850463867,0.004338711500167847
1772725541252593000,4.512593017578125,0.06910228729248047,0.04652118682861328,-0.013029597699642181
1772725541262109400,4.522109375,0.03756999969482422,0.0447843074798584,0.017173416912555695
1772725541271626500,4.53162646484375,0.013609886169433594,0.047838687896728516,-0.011794961988925934
1772725541281143300,4.541143310546875,0.020659446716308594,0.001317739486694336,0.0068018436431884766
1772725541290660000,4.55066015625,0.006434440612792969,-0.016251325607299805,0.03635449707508087
1772725541300177000,4.560177001953125,-0.0500030517578125,-0.03773617744445801,0.04590436816215515
1772725541309693700,4.569693603515625,-0.08683300018310547,-0.04396939277648926,0.04278808832168579
1772725541319210500,4.57921044921875,-0.11848068237304688,-0.04943490028381348,0.002047613263130188
1772725541328727300,4.588727294921875,-0.12852954864501953,-0.021421194076538086,0.012266606092453003
1772725541338244000,4.598244140625,-0.06536006927490234,0.0032160282135009766,-0.028636731207370758
1772725541347761000,4.607760986328125,0.0134429931640625,-0.013611793518066406,-0.05437689274549484
1772725541357277700,4.617277587890625,0.013464927673339844,-0.0028128623962402344,-0.06242835521697998
1772725541366794500,4.62679443359375,-0.050057411193847656,0.0007512569427490234,-0.054960764944553375
1772725541376311300,4.636311279296875,-0.09850406646728516,0.02117323875427246,-0.03984622657299042
1772725541385828000,4.645828125,-0.08284473419189453,0.032955169677734375,-0.0277913436293602
1772725541395345000,4.655344970703125,-0.07239437103271484,0.05047154426574707,-0.036197878420352936
1772725541404861700,4.66486181640625,-0.024652481079101562,0.0733497142791748,-0.05090891197323799
1772725541414378500,4.67437841796875,0.033921241760253906,0.0848090648651123,-0.09029994904994965
1772725541423895300,4.683895263671875,0.10106182098388672,0.11429119110107422,-0.07755157351493835
1772725541433412000,4.693412109375,0.18864822387695312,0.1037440299987793,-0.082951121032238
1772725541442929000,4.702928955078125,0.17636680603027344,0.11954927444458008,-0.05826868116855621
1772725541452445700,4.71244580078125,0.1434488296508789,0.07930397987365723,-0.06291645765304565
1772725541461962500,4.72196240234375,0.08771038055419922,0.10248064994812012,-0.06464698910713196
1772725541471479300,4.731479248046875,0.023485183715820312,0.06415486335754395,-0.06449296325445175
1772725541480996000,4.74099609375,-0.035155296325683594,0.04624223709106445,-0.044129204005002975
1772725541490513000,4.750512939453125,-0.08837413787841797,0.04873538017272949,-0.018185682594776154
1772725541500029700,4.76002978515625,-0.09863948822021484,0.04081559181213379,0.01581282913684845
1772725541509546500,4.76954638671875,-0.07831764221191406,0.01268768310546875,0.043981537222862244
1772725541519063300,4.779063232421875,-0.05367088317871094,0.02525162696838379,-0.0016384050250053406
1772725541528580000,4.788580078125,-0.04823017120361328,-0.009621620178222656,0.036392420530319214
1772725541538097000,4.798096923828125,-0.040465354919433594,-0.04425239562988281,0.060837604105472565
1772725541547613700,4.80761376953125,-0.039818763732910156,-0.055171966552734375,0.05319943279027939
1772725541557130500,4.817130615234375,-0.010885238647460938,-0.04036378860473633,0.05111052840948105
1772725541566647300,4.826647216796875,0.027042388916015625,-0.004904747009277344,0.011130742728710175
1772725541576164000,4.8361640625,-0.011000633239746094,-0.03334236145019531,0.011471129953861237
1772725541585681000,4.845680908203125,-0.06738567352294922,-0.022935867309570312,0.02342710644006729
1772725541595197700,4.85519775390625,-0.06885051727294922,-0.012037038803100586,0.030147120356559753
1772725541604714500,4.864714599609375,-0.07750988006591797,-0.031131505966186523,0.048133306205272675
1772725541614231300,4.874231201171875,-0.06731510162353516,0.01182413101196289,0.05134761333465576
1772725541623748000,4.883748046875,-0.005497932434082031,-0.00016379356384277344,0.01654732972383499
1772725541633265000,4.893264892578125,0.027098655700683594,0.03723740577697754,0.013082385063171387
1772725541642781700,4.90278173828125,0.0098114013671875,0.0313267707824707,0.02628069370985031
1772725541652298500,4.912298583984375,-0.007190704345703125,0.03021836280822754,0.03721989691257477
1772725541661815300,4.921815185546875,0.0067081451416015625,0.028961658477783203,0.0201871320605278
1772725541671332000,4.93133203125,0.05104255676269531,0.020276308059692383,-0.0033302530646324158
1772725541680849200,4.94084912109375,0.06417655944824219,0.004065275192260742,-0.02160613238811493
1772725541690365700,4.95036572265625,0.10309791564941406,0.034630775451660156,-0.02828504890203476
1772725541699882500,4.959882568359375,0.12026119232177734,0.059708595275878906,-0.06163293495774269
1772725541709399600,4.969399658203125,0.08536911010742188,0.030308246612548828,-0.06678277999162674
1772725541718916000,4.978916015625,0.07464599609375,0.017590045928955078,-0.008429102599620819
1772725541728433000,4.988432861328125,0.0712747573852539,0.011582612991333008,0.05174215883016586
1772725541737950000,4.997949951171875,0.01628589630126953,0.009930849075317383,0.05725381523370743
1772725541747466800,5.007466796875,-0.023641586303710938,-0.015392541885375977,0.037440016865730286
1772725541756983300,5.0169833984375,-0.06532573699951172,-0.004717826843261719,0.028269022703170776
1772725541766500400,5.026500244140625,-0.059299468994140625,0.013063669204711914,0.01657174527645111
1772725541776017200,5.03601708984375,-0.07466316223144531,0.0052242279052734375,0.006864719092845917
1772725541785533700,5.04553369140625,-0.09459877014160156,-0.011283636093139648,0.010779969394207
1772725541795050800,5.05505078125,-0.10729217529296875,0.008504867553710938,-0.006872318685054779
1772725541804567600,5.064567626953125,-0.09403514862060547,0.005102634429931641,-0.0005893036723136902
1772725541814084400,5.07408447265625,-0.062232017517089844,-0.009730100631713867,0.012560173869132996
1772725541823601200,5.08360107421875,-0.014449119567871094,-0.00801229476928711,0.01580032706260681
1772725541833118000,5.093117919921875,0.01374053955078125,-0.011139869689941406,-0.00948333740234375
1772725541842634800,5.102634765625,-0.02208232879638672,0.0187835693359375,-0.006078086793422699
1772725541852151600,5.112151611328125,-0.03853130340576172,0.015486001968383789,0.035087838768959045
1772725541861668400,5.12166845703125,-0.021772384643554688,0.031122207641601562,0.03294801712036133
1772725541871185200,5.13118505859375,-0.0006103515625,-0.002802133560180664,0.04019996523857117
1772725541880702000,5.140701904296875,-0.0056896209716796875,-0.0008685588836669922,0.03849996626377106
1772725541890218800,5.15021875,0.012877464294433594,0.007923126220703125,0.06065981090068817
1772725541899735600,5.159735595703125,0.06886768341064453,0.0020601749420166016,0.03277161717414856
1772725541909252400,5.16925244140625,0.10283470153808594,-0.015859365463256836,0.012116581201553345
1772725541918769200,5.17876904296875,0.09157562255859375,-0.017235279083251953,0.034261107444763184
1772725541928286000,5.188285888671875,0.06877899169921875,-0.014056205749511719,0.07232174277305603
1772725541937802800,5.197802734375,0.039330482482910156,-0.018108367919921875,0.06974150240421295
1772725541947319600,5.207319580078125,-0.003826141357421875,0.013582706451416016,0.05551217496395111
1772725541956836400,5.21683642578125,-0.03692340850830078,-0.004385948181152344,0.039980024099349976
1772725541966353200,5.226353271484375,0.01999664306640625,0.003554105758666992,-0.012576103210449219
1772725541975870000,5.235869873046875,0.045456886291503906,-0.021966934204101562,-0.03588881343603134
1772725541985386800,5.24538671875,0.03283500671386719,-0.04941272735595703,-0.03459364175796509
1772725541994903600,5.254903564453125,0.03223228454589844,-0.046036720275878906,-0.023673593997955322
1772725542004420400,5.26442041015625,0.038779258728027344,-0.061881303787231445,-0.004223048686981201
1772725542013937200,5.273937255859375,0.02176380157470703,-0.042508840560913086,0.00530579686164856
1772725542023454000,5.283453857421875,-0.0208587646484375,-0.0422821044921875,-0.013124898076057434
1772725542032970800,5.292970703125,-0.0628204345703125,-0.011241674423217773,-0.035812824964523315
1772725542042487600,5.302487548828125,-0.05938148498535156,-0.03482365608215332,-0.09095975756645203
1772725542052004400,5.31200439453125,-0.04423046112060547,-0.01565098762512207,-0.07741504907608032
1772725542061521200,5.321521240234375,-0.034091949462890625,-0.05293607711791992,-0.046297088265419006
1772725542071038000,5.331037841796875,-0.11846065521240234,-0.05790364742279053,0.014103129506111145
1772725542080554800,5.3405546875,-0.1711568832397461,-0.04006075859069824,0.04758669435977936
1772725542090071600,5.350071533203125,-0.16910839080810547,-0.01194143295288086,0.048344194889068604
1772725542099588400,5.35958837890625,-0.09193229675292969,0.020968914031982422,0.024411216378211975
1772725542109105400,5.36910546875,-0.011289596557617188,0.053058624267578125,-0.014739304780960083
1772725542118622000,5.3786220703125,0.08463478088378906,0.053251028060913086,-0.036290526390075684
1772725542128138800,5.388138671875,0.1674785614013672,0.037989139556884766,-0.06973912566900253
1772725542137655800,5.39765576171875,0.2233104705810547,0.019464969635009766,-0.08221463859081268
1772725542147172400,5.40717236328125,0.1983652114868164,0.049997806549072266,-0.10492265224456787
1772725542156689200,5.416689208984375,0.12204647064208984,0.04019355773925781,-0.07873515039682388
1772725542166206200,5.426206298828125,0.09634780883789062,0.03565549850463867,-0.06119578331708908
1772725542175723000,5.435722900390625,0.10169410705566406,0.049963951110839844,-0.0522262379527092
1772725542185239600,5.445239501953125,0.11174297332763672,0.009527444839477539,-0.0484592467546463
1772725542194756400,5.45475634765625,0.11705207824707031,0.0020384788513183594,-0.03257890045642853
1772725542204273400,5.4642734375,0.05646324157714844,-0.010480642318725586,0.012590453028678894
1772725542213790000,5.4737900390625,-0.021918296813964844,-0.027719736099243164,0.025797083973884583
1772725542223307000,5.48330712890625,-0.018985748291015625,-0.023662090301513672,-0.004370003938674927
1772725542232823800,5.49282373046875,0.0027618408203125,-0.03636884689331055,0.0017968863248825073
1772725542242340600,5.502340576171875,-0.013520240783691406,-0.0793452262878418,0.007762536406517029
1772725542251857400,5.511857421875,-0.0649271011352539,-0.05993306636810303,0.02066817879676819
1772725542261374200,5.521374267578125,-0.10152053833007812,-0.06359386444091797,0.016799375414848328
1772725542270891000,5.53089111328125,-0.0882406234741211,-0.024115562438964844,0.01535932719707489
1772725542280407800,5.54040771484375,-0.06346321105957031,-0.053254127502441406,-0.01744788885116577
1772725542289924600,5.549924560546875,-0.017908096313476562,-0.056023240089416504,-0.0318567231297493
1772725542299441400,5.55944140625,-0.031943321228027344,-0.030449271202087402,-0.04156738519668579
1772725542308958200,5.568958251953125,-0.06226634979248047,-0.02154529094696045,-0.0225360244512558
1772725542318475000,5.57847509765625,-0.12052536010742188,-0.03302264213562012,0.025152191519737244
1772725542327991800,5.58799169921875,-0.14507579803466797,-0.02689218521118164,0.03515838086605072
1772725542337508600,5.597508544921875,-0.030435562133789062,-0.001818537712097168,0.026018217206001282
1772725542347025400,5.607025390625,0.0659017562866211,0.008436441421508789,0.04157499969005585
1772725542356542200,5.616542236328125,0.08068656921386719,0.008937358856201172,0.025224998593330383
1772725542366059000,5.62605908203125,0.03874969482421875,0.025899052619934082,0.014221936464309692
1772725542375575800,5.635575927734375,0.04465675354003906,0.013845443725585938,0.006859034299850464
1772725542385092600,5.645092529296875,0.08359050750732422,0.038646697998046875,-0.04396197199821472
1772725542394609400,5.654609375,0.1197519302368164,0.03599107265472412,-0.06758671253919601
1772725542404126200,5.664126220703125,0.1672658920288086,0.027785658836364746,-0.06322014331817627
1772725542413643000,5.67364306640625,0.10579204559326172,-0.003925442695617676,-0.038799792528152466
1772725542423159800,5.683159912109375,0.042858123779296875,-0.020267248153686523,-0.0018526166677474976
1772725542432676600,5.692676513671875,0.004380226135253906,0.0043299198150634766,0.0007562041282653809
1772725542442193400,5.702193359375,0.008864402770996094,-0.006612420082092285,0.019669964909553528
1772725542451710200,5.711710205078125,-0.0008058547973632812,-0.02465689182281494,0.04121433198451996
1772725542461227000,5.72122705078125,-0.0078582763671875,-0.019484400749206543,0.030776962637901306
1772725542470743800,5.730743896484375,-0.05237293243408203,-0.010137438774108887,0.026817336678504944
1772725542480260600,5.740260498046875,-0.13617897033691406,-0.0008903741836547852,0.04555283486843109
1772725542489777400,5.74977734375,-0.18113422393798828,-0.002670884132385254,0.029497385025024414
1772725542499294200,5.759294189453125,-0.197418212890625,-0.01226949691772461,0.01582677662372589
1772725542508811000,5.76881103515625,-0.1242523193359375,-0.013420343399047852,-0.026823751628398895
1772725542518327800,5.778327880859375,-0.04767131805419922,0.004721641540527344,-0.04410987347364426
1772725542527844600,5.7878447265625,0.05357551574707031,-0.03413426876068115,-0.02668394148349762
1772725542537361400,5.797361328125,0.08026599884033203,-0.009147047996520996,-0.04283534735441208
1772725542546878200,5.806878173828125,0.08544063568115234,-0.018020272254943848,-0.03523234277963638
1772725542556395000,5.81639501953125,0.140106201171875,0.017185330390930176,-0.030924543738365173
1772725542565912000,5.825912109375,0.1516246795654297,0.030130863189697266,-0.06088147312402725
1772725542575428600,5.8354287109375,0.1418600082397461,0.03547358512878418,-0.03978212922811508
1772725542584945400,5.8449453125,0.09702014923095703,0.007512569427490234,-0.04498469829559326
1772725542594462500,5.85446240234375,0.05534076690673828,0.04080510139465332,0.014747962355613708
1772725542603979300,5.863979248046875,0.05683708190917969,0.0022238492965698242,0.06289441883563995
1772725542613495800,5.873495849609375,0.05845069885253906,-0.005918145179748535,0.09725044667720795
1772725542623012900,5.883012939453125,0.008281707763671875,-0.011692285537719727,0.10611353814601898
1772725542632529700,5.89252978515625,-0.052895545959472656,-0.007575511932373047,0.12928234040737152
1772725542642046200,5.902046142578125,-0.06849479675292969,0.016075849533081055,0.07132673263549805
1772725542651563300,5.911563232421875,-0.058136940002441406,0.0191648006439209,0.029722779989242554
1772725542661080000,5.921080078125,-0.0740213394165039,0.01850259304046631,0.006741330027580261
1772725542670596900,5.930596923828125,-0.05207061767578125,0.013531804084777832,0.03362211585044861
1772725542680113700,5.94011376953125,-0.009227752685546875,-0.008336305618286133,0.0637161135673523
1772725542689630500,5.94963037109375,0.054299354553222656,-0.040486931800842285,0.05953498184680939
1772725542699147300,5.959147216796875,0.07697105407714844,-0.07316803932189941,0.03721506893634796
1772725542708664000,5.9686640625,0.11589813232421875,-0.07785487174987793,0.03614191710948944
1772725542718180900,5.978180908203125,0.11428546905517578,-0.07585310935974121,0.0009265542030334473
1772725542727697700,5.98769775390625,0.051499366760253906,-0.08778667449951172,0.026232868432998657
1772725542737214500,5.99721435546875,-0.05506706237792969,-0.06121206283569336,0.038625285029411316
1772725542746731300,6.006731201171875,-0.13413429260253906,-0.04841732978820801,0.03458666801452637
1772725542756248000,6.016248046875,-0.19085693359375,-0.025803685188293457,0.006231844425201416
1772725542765764900,6.025764892578125,-0.18787479400634766,0.0013104677200317383,0.03219380974769592
1772725542775281700,6.03528173828125,-0.14493942260742188,0.0066852569580078125,0.021237581968307495
1772725542784798500,6.044798583984375,-0.0956573486328125,0.014322161674499512,0.02454720437526703
1772725542794315300,6.054315185546875,-0.09907913208007812,0.0013228654861450195,0.04566358029842377
1772725542803832000,6.06383203125,-0.13091182708740234,0.025057435035705566,0.02802036702632904
1772725542813348900,6.073348876953125,-0.13661479949951172,0.056907057762145996,-0.006135344505310059
1772725542822865700,6.08286572265625,-0.06707191467285156,0.06778347492218018,-0.04924552142620087
1772725542832382500,6.092382568359375,0.09313392639160156,0.08768069744110107,-0.1278461515903473
1772725542841899300,6.101899169921875,0.22503948211669922,0.07550013065338135,-0.1477859616279602
1772725542851416000,6.111416015625,0.3033018112182617,0.062018752098083496,-0.15007838606834412
1772725542860932900,6.120932861328125,0.23458480834960938,0.03834056854248047,-0.10817661881446838
1772725542870449700,6.13044970703125,0.1601123809814453,0.023626089096069336,-0.03818046301603317
1772725542879966500,6.139966552734375,0.14819812774658203,0.034255266189575195,-0.04133060574531555
1772725542889483300,6.149483154296875,0.12015724182128906,0.013339400291442871,-0.04599744826555252
1772725542899000000,6.159,0.1280374526977539,0.02958822250366211,-0.08796380460262299
1772725542908516900,6.168516845703125,0.08174800872802734,-0.00428617000579834,-0.053264111280441284
1772725542918033700,6.17803369140625,0.05275154113769531,-0.009640216827392578,-0.023524180054664612
1772725542927550700,6.18755078125,0.01244354248046875,-0.03356754779815674,0.05511970818042755
1772725542937067300,6.1970673828125,-0.04613304138183594,-0.04237353801727295,0.09232871234416962
1772725542946584000,6.206583984375,-0.09683036804199219,-0.05260729789733887,0.07235698401927948
1772725542956101000,6.21610107421875,-0.11624526977539062,-0.0384141206741333,0.03900331258773804
1772725542965617700,6.22561767578125,-0.06950092315673828,-0.01482093334197998,0.02047973871231079
1772725542975134500,6.235134521484375,-0.011666297912597656,0.005523681640625,-0.012143738567829132
1772725542984651500,6.244651611328125,0.012345314025878906,-0.003095388412475586,0.0025221705436706543
1772725542994168300,6.254168212890625,-0.006359100341796875,-0.004680633544921875,-0.0067424476146698
1772725543003684900,6.263684814453125,-0.036591529846191406,-0.04349780082702637,0.0003270357847213745
1772725543013202000,6.273201904296875,-0.1135549545288086,-0.036071062088012695,0.04240497946739197
1772725543022718700,6.28271875,-0.13294315338134766,-0.023172974586486816,0.053439438343048096
1772725543032235300,6.2922353515625,-0.10974788665771484,-0.021813035011291504,0.043303415179252625
1772725543041752300,6.30175244140625,-0.06818103790283203,-0.017792344093322754,0.056876614689826965
1772725543051269000,6.31126904296875,-0.07441043853759766,-0.02073538303375244,0.03338095545768738
1772725543060786000,6.320785888671875,-0.05932426452636719,-0.012148022651672363,0.028255999088287354
1772725543070302700,6.330302734375,-0.00908660888671875,-0.00902557373046875,0.0032355040311813354
1772725543079819500,6.339819580078125,0.021561622619628906,-0.02752530574798584,0.014540508389472961
1772725543089336300,6.34933642578125,0.08708381652832031,-0.010812997817993164,-0.036413632333278656
1772725543098853000,6.35885302734375,0.10210800170898438,0.0033305883407592773,-0.08806050568819046
1772725543108370000,6.368369873046875,0.07207298278808594,0.015509963035583496,-0.13327404856681824
1772725543117886700,6.37788671875,0.0754232406616211,0.03253579139709473,-0.13158047199249268
1772725543127403500,6.387403564453125,0.104705810546875,0.029952526092529297,-0.09525853395462036
1772725543136920300,6.39692041015625,0.09131908416748047,0.017107725143432617,-0.04960440844297409
1772725543146437000,6.40643701171875,0.06652641296386719,0.04610800743103027,-0.06995540857315063
1772725543155954000,6.415953857421875,0.023387908935546875,0.07193875312805176,-0.05443788319826126
1772725543165470700,6.425470703125,-0.0214691162109375,0.043668389320373535,-0.02762686461210251
1772725543174987500,6.434987548828125,-0.06333446502685547,-0.0024007558822631836,0.007858045399188995
1772725543184504300,6.44450439453125,-0.08108139038085938,0.006972551345825195,0.019099071621894836
1772725543194021000,6.454021240234375,-0.07742977142333984,0.02829110622406006,-0.014183901250362396
1772725543203538000,6.463537841796875,-0.019733428955078125,0.04931950569152832,-0.07031841576099396
1772725543213054700,6.4730546875,0.03946495056152344,0.0435633659362793,-0.1068280041217804
1772725543222571500,6.482571533203125,0.0247802734375,0.0541534423828125,-0.08155268430709839
1772725543232088300,6.49208837890625,-0.05325603485107422,0.00607609748840332,-0.014245070517063141
1772725543241605000,6.501605224609375,-0.10895156860351562,0.018290281295776367,0.030842632055282593
1772725543251122000,6.511121826171875,-0.14507770538330078,0.04295849800109863,0.023839063942432404
1772725543260638700,6.520638671875,-0.10541439056396484,0.02536451816558838,0.015001699328422546
1772725543270155500,6.530155517578125,-0.045235633850097656,0.024536490440368652,-0.04068027436733246
1772725543279672300,6.53967236328125,0.01871776580810547,0.02339184284210205,-0.05115298181772232
1772725543289189000,6.549189208984375,0.011060714721679688,0.019692182540893555,-0.03555738180875778
1772725543298706000,6.558705810546875,-0.0035390853881835938,0.013759374618530273,-0.001330837607383728
1772725543308222700,6.56822265625,-0.008521080017089844,0.0010313987731933594,0.03041953593492508
1772725543317739800,6.57773974609375,0.01715564727783203,-0.027902841567993164,0.061819568276405334
1772725543327256300,6.58725634765625,0.04949188232421875,-0.02588057518005371,0.047476060688495636
1772725543336773400,6.5967734375,0.0977630615234375,-0.019130706787109375,0.04627052694559097
1772725543346290200,6.606290283203125,0.08642196655273438,-0.0007250308990478516,0.04127860069274902
1772725543355806700,6.615806640625,0.039977073669433594,-0.05086863040924072,0.1070910319685936
1772725543365323800,6.62532373046875,0.03901481628417969,-0.03200244903564453,0.12557446956634521
1772725543374840600,6.634840576171875,0.031149864196777344,-0.04717981815338135,0.12388140708208084
1772725543384357400,6.644357421875,0.05419445037841797,0.009824752807617188,0.13496482372283936
1772725543393874200,6.653874267578125,0.08168220520019531,-0.007682204246520996,0.12711763381958008
1772725543403391000,6.663390869140625,0.09704399108886719,-0.001817464828491211,0.07623136788606644
1772725543412907800,6.67290771484375,0.0768728256225586,-0.010168075561523438,-0.003273025155067444
1772725543422424600,6.682424560546875,0.026433944702148438,0.01702594757080078,-0.020891420543193817
1772725543431941400,6.69194140625,-0.025564193725585938,-0.003068208694458008,0.00436091423034668
1772725543441458200,6.701458251953125,-0.0767507553100586,-0.01083838939666748,0.013662390410900116
1772725543450975000,6.71097509765625,-0.06824684143066406,-0.0021195411682128906,-0.02123645693063736
1772725543460491800,6.72049169921875,-0.07163333892822266,0.013402462005615234,-0.026836879551410675
1772725543470008600,6.730008544921875,-0.09620857238769531,-0.008643627166748047,-0.025083504617214203
1772725543479525400,6.739525390625,-0.13929176330566406,-0.006343841552734375,-0.04411069303750992
1772725543489042200,6.749042236328125,-0.1629199981689453,-0.01545250415802002,-0.0338473841547966
1772725543498559000,6.75855908203125,-0.1533193588256836,-0.014492154121398926,-0.03958883881568909
1772725543508075800,6.76807568359375,-0.16754531860351562,-0.041111111640930176,-0.028339937329292297
1772725543517592600,6.777592529296875,-0.16055870056152344,-0.02151799201965332,-0.020258307456970215
1772725543527109400,6.787109375,-0.13985443115234375,-0.012506604194641113,-0.04449799656867981
1772725543536626200,6.796626220703125,-0.0868072509765625,0.009517312049865723,-0.06320775300264359
1772725543546143000,6.80614306640625,-0.0018301010131835938,0.029549837112426758,-0.10658685117959976
1772725543555659800,6.81565966796875,0.0747213363647461,0.05138218402862549,-0.08146494626998901
1772725543565176600,6.825176513671875,0.17619705200195312,0.0571211576461792,-0.05640172213315964
1772725543574693400,6.834693359375,0.26233577728271484,0.07442820072174072,-0.0286419615149498
1772725543584210200,6.844210205078125,0.2509946823120117,0.05862545967102051,-0.0048198401927948
1772725543593727000,6.85372705078125,0.1388387680053711,0.03272354602813721,0.05495113879442215
1772725543603243800,6.863243896484375,0.03794288635253906,0.026184916496276855,0.11395955830812454
1772725543612760600,6.872760498046875,-0.028505325317382812,0.008936285972595215,0.15456025302410126
1772725543622277400,6.88227734375,-0.016448974609375,-0.016095399856567383,0.11782406270503998
1772725543631794200,6.891794189453125,0.009383201599121094,-0.0234525203704834,0.05004989355802536
1772725543641311000,6.90131103515625,0.0842580795288086,-0.03802621364593506,0.07950617372989655
1772725543650827800,6.910827880859375,0.1416187286376953,-0.0793079137802124,0.1181943267583847
1772725543660344600,6.920344482421875,0.1936054229736328,-0.08847379684448242,0.05811823159456253
1772725543669861600,6.929861572265625,0.1933135986328125,-0.07345414161682129,0.032789990305900574
1772725543679378200,6.939378173828125,0.16269207000732422,-0.06939196586608887,0.007982268929481506
1772725543688895200,6.948895263671875,0.033761024475097656,-0.05599391460418701,0.011652909219264984
1772725543698412000,6.958412109375,-0.09791183471679688,-0.05599009990692139,0.008179739117622375
1772725543707928800,6.9679287109375,-0.1711292266845703,-0.026684045791625977,-0.03269098699092865
1772725543717445600,6.977445556640625,-0.16326618194580078,0.007517695426940918,-0.07235211879014969
1772725543726962400,6.98696240234375,-0.084930419921875,-0.008370637893676758,-0.05918344110250473
1772725543736479200,6.996479248046875,-0.06431007385253906,-0.0313878059387207,-0.0526883527636528
1772725543745996000,7.00599609375,-0.11232185363769531,-0.011443495750427246,-0.02692941576242447
1772725543755512800,7.015512939453125,-0.14326858520507812,0.02570664882659912,-0.051357753574848175
1772725543765029600,7.025029541015625,-0.1740407943725586,0.04520893096923828,-0.0668836385011673
1772725543774546400,7.03454638671875,-0.18819332122802734,0.06158256530761719,-0.029005765914916992
1772725543784063200,7.044063232421875,-0.13172245025634766,0.0740354061126709,0.005216479301452637
1772725543793580000,7.053580078125,-0.040917396545410156,0.055803537368774414,-0.0012432485818862915
1772725543803096800,7.063096923828125,0.05326652526855469,0.04393184185028076,-0.013647079467773438
1772725543812613600,7.072613525390625,0.13911724090576172,0.023636937141418457,-0.02241712063550949
1772725543822130400,7.08213037109375,0.1814727783203125,0.011582732200622559,-0.014067009091377258
1772725543831647200,7.091647216796875,0.15036773681640625,0.005838632583618164,-0.04111592471599579
1772725543841164000,7.1011640625,0.07036781311035156,0.00019240379333496094,-0.02074388414621353
1772725543850680800,7.110680908203125,0.033967018127441406,-0.0001468658447265625,-0.015734173357486725
1772725543860197600,7.12019775390625,0.01923084259033203,0.004901766777038574,-0.05435694381594658
1772725543869714400,7.12971435546875,0.04469490051269531,-0.025146126747131348,-0.024861067533493042
1772725543879231200,7.139231201171875,0.10753631591796875,-0.013124585151672363,0.015817910432815552
1772725543888748000,7.148748046875,0.15311908721923828,-0.04970824718475342,0.05160434544086456
1772725543898264800,7.158264892578125,0.1228170394897461,-0.06069827079772949,0.05440053343772888
1772725543907781600,7.16778173828125,0.0695953369140625,-0.027307868003845215,0.03570334613323212
1772725543917298400,7.17729833984375,-0.018128395080566406,-0.026913881301879883,0.042907968163490295
1772725543926815200,7.186815185546875,-0.08337020874023438,-0.05633437633514404,0.0409158319234848
1772725543936332000,7.19633203125,-0.07703590393066406,-0.035349249839782715,0.03207723796367645
1772725543945848800,7.205848876953125,-0.061435699462890625,-0.02395761013031006,0.009604334831237793
1772725543955365600,7.21536572265625,-0.04369926452636719,0.0011380910873413086,-0.005267202854156494
1772725543964882700,7.224882568359375,-0.04270172119140625,-0.0002307891845703125,-0.026557177305221558
1772725543974399200,7.234399169921875,-0.10297203063964844,-0.005948185920715332,0.0025570690631866455
1772725543983916300,7.243916259765625,-0.10822105407714844,-0.02048468589782715,0.050209760665893555
1772725543993433000,7.25343310546875,-0.1017293930053711,-0.015401959419250488,0.05956535041332245
1772725544002950000,7.262949951171875,-0.09072208404541016,-0.000545501708984375,0.021213725209236145
1772725544012466700,7.272466796875,-0.03287506103515625,0.014291524887084961,-0.021774128079414368
1772725544021983500,7.2819833984375,0.007519721984863281,0.0007637739181518555,-0.0527605339884758
1772725544031500300,7.291500244140625,0.01900482177734375,0.010993361473083496,-0.04320766031742096
1772725544041017000,7.30101708984375,0.023278236389160156,0.002005934715270996,-0.03343360126018524
1772725544050534000,7.310533935546875,0.003970146179199219,0.016583681106567383,0.0023726075887680054
1772725544060050700,7.32005078125,-0.01973438262939453,-0.011380910873413086,0.023609325289726257
1772725544069567500,7.3295673828125,0.01816844940185547,-0.0037517547607421875,-0.007518351078033447
1772725544079084300,7.339084228515625,0.07904911041259766,0.008069038391113281,-0.045520804822444916
1772725544088601000,7.34860107421875,0.0966949462890625,0.0026096105575561523,-0.04360519349575043
1772725544098118000,7.358117919921875,0.08118057250976562,0.003906965255737305,-0.013464376330375671
1772725544107634700,7.367634765625,-0.004742622375488281,0.012629270553588867,0.02121470868587494
1772725544117151500,7.3771513671875,-0.06820297241210938,0.00545811653137207,0.0413203090429306
1772725544126668300,7.386668212890625,-0.07188987731933594,0.04366958141326904,0.018659129738807678
1772725544136185000,7.39618505859375,-0.08025169372558594,0.05783045291900635,-0.010178893804550171
1772725544145702000,7.405701904296875,-0.09554100036621094,0.05053138732910156,-0.05378599464893341
1772725544155218700,7.41521875,-0.06582832336425781,0.0665593147277832,-0.0690484419465065
1772725544164735500,7.424735595703125,-0.062439918518066406,0.03251922130584717,-0.02113545686006546
1772725544174252300,7.434252197265625,-0.04726123809814453,-0.00846552848815918,0.04560604691505432
1772725544183769000,7.44376904296875,-0.01351165771484375,-0.04166269302368164,0.05424785614013672
1772725544193286000,7.453285888671875,-0.022832870483398438,-0.04518246650695801,0.0069274455308914185
1772725544202802700,7.462802734375,0.019585609436035156,-0.0004634857177734375,-0.04514282941818237
1772725544212319500,7.472319580078125,0.01636505126953125,-0.04455769062042236,-0.059564754366874695
1772725544221836300,7.481836181640625,-0.0010690689086914062,-0.04943382740020752,0.009941250085830688
1772725544231353000,7.49135302734375,0.02188587188720703,-0.04302477836608887,0.05114859342575073
1772725544240870000,7.500869873046875,0.0918283462524414,-0.04551887512207031,0.09413909912109375
1772725544250387000,7.510386962890625,0.1185922622680664,-0.04282057285308838,0.11533094942569733
1772725544259903500,7.519903564453125,0.12871837615966797,-0.04638874530792236,0.12347139418125153
1772725544269420300,7.529420166015625,0.0752115249633789,-0.005530238151550293,0.0844617486000061
1772725544278937300,7.538937255859375,-0.019939422607421875,0.012122035026550293,0.06631603837013245
1772725544288454100,7.5484541015625,-0.038458824157714844,0.052054762840270996,0.0348166823387146
1772725544297970700,7.557970703125,-0.005034446716308594,0.049750447273254395,0.011261999607086182
1772725544307487700,7.56748779296875,0.06316852569580078,0.04736971855163574,-0.03903642296791077
1772725544317004500,7.577004638671875,0.07155704498291016,0.08430027961730957,-0.041538938879966736
1772725544326521300,7.586521240234375,0.07059001922607422,0.074851393699646,-0.06900769472122192
1772725544336038100,7.5960380859375,0.03922462463378906,0.055150628089904785,-0.08507069945335388
1772725544345555000,7.605554931640625,0.024979591369628906,0.03976285457611084,-0.07849016785621643
1772725544355071700,7.61507177734375,-0.02904987335205078,0.027043700218200684,-0.04293256253004074
1772725544364588500,7.624588623046875,-0.07764148712158203,0.017734766006469727,-0.03836454451084137
1772725544374105300,7.634105224609375,-0.05263996124267578,-0.0023403167724609375,-0.025131985545158386
1772725544383622100,7.6436220703125,-0.01877307891845703,-0.030765295028686523,-0.03435954451560974
1772725544393139000,7.653138916015625,0.012055397033691406,-0.0580441951751709,-0.03251878172159195
1772725544402655700,7.66265576171875,0.04944801330566406,-0.05198633670806885,-0.01962698996067047
1772725544412172500,7.672172607421875,0.05804157257080078,-0.06748902797698975,-0.042412884533405304
1772725544421689300,7.681689453125,0.017185211181640625,-0.04564976692199707,-0.005492717027664185
1772725544431206100,7.6912060546875,-0.015863418579101562,-0.005745053291320801,-0.015542179346084595
1772725544440723000,7.700722900390625,-0.07425594329833984,0.0005574226379394531,-0.024528101086616516
1772725544450239700,7.71023974609375,-0.11291027069091797,0.006980776786804199,-0.04180216044187546
1772725544459756500,7.719756591796875,-0.061492919921875,-0.007986664772033691,-0.018351450562477112
1772725544469273300,7.7292734375,-0.04149055480957031,0.0006624460220336914,-0.049263231456279755
1772725544478790100,7.7387900390625,-0.06899642944335938,0.016845107078552246,-0.04947368800640106
1772725544488307000,7.748306884765625,-0.07498645782470703,-0.01833629608154297,0.017447225749492645
1772725544497823700,7.75782373046875,-0.109283447265625,0.006832599639892578,0.05394229292869568
1772725544507340500,7.767340576171875,-0.15973949432373047,-0.011789441108703613,0.08489848673343658
1772725544516857300,7.776857421875,-0.1366252899169922,0.01801455020904541,0.09439629316329956
1772725544526374100,7.7863740234375,-0.09281349182128906,0.03835797309875488,0.04085490107536316
1772725544535891000,7.795890869140625,-0.0167694091796875,0.053495168685913086,-0.006237342953681946
1772725544545408000,7.805407958984375,0.07933998107910156,0.02284073829650879,-0.011884033679962158
1772725544554924500,7.814924560546875,0.19768047332763672,-0.006518840789794922,0.013441279530525208
1772725544564441600,7.824441650390625,0.27202606201171875,-0.030008912086486816,0.0030279308557510376
1772725544573958400,7.83395849609375,0.2488994598388672,-0.00957643985748291,-0.024241119623184204
1772725544583475200,7.84347509765625,0.21455097198486328,0.009787321090698242,-0.035759806632995605
1772725544592992000,7.852991943359375,0.1785449981689453,-0.004615426063537598,-0.0464908629655838
1772725544602508800,7.8625087890625,0.08661174774169922,0.0027390718460083008,-0.06026826798915863
1772725544612025600,7.872025634765625,0.007935523986816406,0.021964311599731445,-0.019932761788368225
1772725544621542400,7.88154248046875,-0.024751663208007812,-0.013135790824890137,-0.007899999618530273
1772725544631059200,7.89105908203125,-0.09459877014160156,-0.02395462989807129,0.022160619497299194
1772725544640576000,7.900575927734375,-0.09741687774658203,-0.034650206565856934,0.03039608895778656
1772725544650092800,7.9100927734375,-0.050678253173828125,-0.05044054985046387,0.05843524634838104
1772725544659609600,7.919609619140625,-0.02579975128173828,-0.04759800434112549,0.04795537889003754
1772725544669126400,7.92912646484375,-0.09798622131347656,-0.053266167640686035,0.01125238835811615
1772725544678643200,7.938643310546875,-0.16930007934570312,0.0017213821411132812,-0.023593470454216003
1772725544688160000,7.948159912109375,-0.17853546142578125,0.012658238410949707,-0.038448579609394073
1772725544697676800,7.9576767578125,-0.1501941680908203,0.015233159065246582,-0.05678381025791168
1772725544707193600,7.967193603515625,-0.10122203826904297,0.015805959701538086,-0.046901240944862366
1772725544716710400,7.97671044921875,-0.05306243896484375,0.025726318359375,-0.0271223783493042
1772725544726227200,7.986227294921875,-0.050421714782714844,0.021309971809387207,-0.017793789505958557
1772725544735744000,7.995743896484375,0.008767127990722656,0.03977382183074951,-0.03528975695371628
1772725544745260800,8.0052607421875,0.14256000518798828,0.006952166557312012,-0.011700436472892761
1772725544754777600,8.014777587890626,0.1873760223388672,-0.01512765884399414,0.025456085801124573
1772725544764294400,8.02429443359375,0.15629005432128906,-0.04457294940948486,0.042543038725852966
1772725544773811200,8.033811279296875,0.07861900329589844,-0.019129514694213867,0.025721997022628784
1772725544783328000,8.043327880859374,0.03269767761230469,0.008972764015197754,-0.01287832111120224
1772725544792844800,8.0528447265625,0.018001556396484375,0.013806343078613281,-0.00015562772750854492
1772725544802361900,8.06236181640625,0.034071922302246094,-0.013988614082336426,-0.014332711696624756
1772725544811878400,8.07187841796875,0.08054828643798828,-0.0017125606536865234,-0.016945526003837585
1772725544821395200,8.081395263671874,0.08641719818115234,-0.028186440467834473,-0.0024969875812530518
1772725544830912300,8.090912353515625,0.08061981201171875,-0.027050137519836426,0.02211765944957733
1772725544840429000,8.100428955078126,-0.0026483535766601562,-0.01231849193572998,0.003004416823387146
1772725544849945900,8.10994580078125,-0.0633859634399414,-0.021247386932373047,0.022775232791900635
1772725544859462700,8.119462646484376,-0.06435108184814453,-0.003809690475463867,0.013768136501312256
1772725544868979500,8.1289794921875,-0.04890918731689453,-0.012097716331481934,0.023129954934120178
1772725544878496300,8.138496337890626,-0.0644378662109375,0.006360530853271484,0.033479735255241394
1772725544888013000,8.148012939453125,-0.1364431381225586,0.018851041793823242,0.0004649907350540161
1772725544897529900,8.15752978515625,-0.17693710327148438,0.020761966705322266,0.045993804931640625
1772725544907046700,8.167046630859375,-0.1321573257446289,0.016081929206848145,0.025540947914123535
1772725544916563500,8.1765634765625,-0.04096412658691406,0.0061615705490112305,-0.03803485631942749
1772725544926080300,8.186080322265624,0.05129718780517578,-0.0048705339431762695,-0.06420373171567917
1772725544935597000,8.19559716796875,0.11163616180419922,-0.009714961051940918,-0.07311727851629257
1772725544945113900,8.20511376953125,0.09810256958007812,-0.03128516674041748,-0.030676409602165222
1772725544954630700,8.214630615234375,0.051802635192871094,-0.002752542495727539,0.019461318850517273
1772725544964147500,8.2241474609375,0.015585899353027344,-0.0282057523727417,0.027363017201423645
1772725544973664300,8.233664306640625,0.008131980895996094,-0.012790203094482422,0.031984880566596985
1772725544983181000,8.24318115234375,0.038552284240722656,-0.009895801544189453,0.0010128021240234375
1772725544992697900,8.25269775390625,0.0591888427734375,-0.021886110305786133,-0.029049381613731384
1772725545002214700,8.262214599609376,0.006630897521972656,-0.04829609394073486,0.019629880785942078
1772725545011731500,8.2717314453125,-0.03089427947998047,-0.0416111946105957,0.06383086740970612
1772725545021248300,8.281248291015626,-0.09850597381591797,-0.022719860076904297,0.11550472676753998
1772725545030765000,8.29076513671875,-0.1039266586303711,-0.013001561164855957,0.10768237709999084
1772725545040281900,8.30028173828125,-0.06702232360839844,0.0019266605377197266,0.05927304923534393
1772725545049798700,8.309798583984374,-0.06854915618896484,0.005788207054138184,0.04096050560474396
1772725545059315700,8.319315673828125,-0.06075000762939453,0.007899999618530273,0.028937429189682007
1772725545068832300,8.328832275390624,-0.0059967041015625,0.007508635520935059,0.021741598844528198
1772725545078349000,8.33834912109375,0.012694358825683594,0.04393017292022705,0.015805557370185852
1772725545087866000,8.3478662109375,0.026546478271484375,0.038739919662475586,0.027591347694396973
1772725545097382700,8.357382568359375,0.04736328125,0.03992116451263428,-0.04922206699848175
1772725545106899500,8.3668994140625,0.02313232421875,0.01745319366455078,-0.06742025911808014
1772725545116416500,8.37641650390625,0.0062847137451171875,0.0405195951461792,-0.04349708557128906
1772725545125933300,8.385933349609376,-0.017496109008789062,0.005270957946777344,-0.018828123807907104
1772725545135450000,8.3954501953125,0.013055801391601562,0.0021997690200805664,-0.0026818960905075073
1772725545144967000,8.404966796875,0.059546470642089844,-0.024184465408325195,0.019671663641929626
1772725545154483700,8.414483642578125,0.12429141998291016,-0.02060842514038086,0.03012116253376007
1772725545164000500,8.42400048828125,0.20476055145263672,-0.028239727020263672,-0.0086020827293396
1772725545173517300,8.433517333984375,0.18301105499267578,-0.025541067123413086,-0.020415589213371277
1772725545183034000,8.4430341796875,0.0746927261352539,-0.01885044574737549,-0.022328361868858337
1772725545192551000,8.452551025390624,-0.041329383850097656,0.018822312355041504,-0.010001569986343384
1772725545202067700,8.462067626953125,-0.11329269409179688,0.026451945304870605,0.01823142170906067
1772725545211584500,8.47158447265625,-0.12778377532958984,0.05148959159851074,0.03124965727329254
1772725545221101300,8.481101318359375,-0.11861515045166016,0.027315616607666016,-0.017706885933876038
1772725545230618000,8.4906181640625,-0.08609390258789062,0.027189254760742188,-0.01636752486228943
1772725545240135000,8.500135009765625,-0.0705404281616211,0.0338972806930542,0.0013973116874694824
1772725545249651700,8.509651611328126,-0.09290027618408203,-0.0065659284591674805,0.026439398527145386
1772725545259168500,8.51916845703125,-0.15030288696289062,-0.0011495351791381836,0.05950900912284851
1772725545268685300,8.528685302734376,-0.13628005981445312,0.018794775009155273,0.08617545664310455
1772725545278202000,8.5382021484375,-0.05661487579345703,0.0031113624572753906,0.07296693325042725
1772725545287719000,8.547718994140626,-0.008906364440917969,-0.009735941886901855,0.057423874735832214
1772725545297235700,8.557235595703125,-0.023271560668945312,-0.014755845069885254,0.048918113112449646
1772725545306752500,8.56675244140625,0.011919021606445312,-0.02154707908630371,0.059219613671302795
1772725545316269600,8.57626953125,0.07718276977539062,-0.01680171489715576,0.052508071064949036
1772725545325786000,8.5857861328125,0.14389801025390625,-0.020091891288757324,0.012395888566970825
1772725545335303000,8.595302978515624,0.1932058334350586,-0.02416384220123291,-0.018440723419189453
1772725545344820000,8.604820068359375,0.19244766235351562,0.0016449689865112305,-0.05446268618106842
1772725545354336500,8.61433642578125,0.15655040740966797,0.014597892761230469,-0.08368421345949173
1772725545363853600,8.623853515625,0.1354827880859375,0.01501476764678955,-0.05617108941078186
1772725545373370400,8.633370361328126,0.0819387435913086,0.003042936325073242,-0.014540448784828186
1772725545382887200,8.64288720703125,0.015199661254882812,0.019278287887573242,-0.003252476453781128
1772725545392404000,8.652404052734376,-0.0881204605102539,0.016585826873779297,0.018176928162574768
1772725545401920800,8.661920654296875,-0.09101581573486328,0.04043471813201904,0.03221237659454346
1772725545411437600,8.6714375,-0.0986795425415039,0.02685415744781494,-0.008764117956161499
1772725545420954400,8.680954345703125,-0.09457874298095703,0.02123582363128662,-0.05170030891895294
1772725545430471200,8.69047119140625,-0.10709762573242188,0.049049973487854004,-0.05142112076282501
1772725545439988000,8.699988037109375,-0.0747079849243164,0.05287575721740723,-0.04845712333917618
1772725545449504800,8.7095048828125,-0.045166969299316406,0.023474574089050293,-0.029149934649467468
1772725545459021600,8.719021484375,-0.046736717224121094,0.02767336368560791,-0.022052094340324402
1772725545468538400,8.728538330078125,-0.06484127044677734,0.04407012462615967,-0.015631675720214844
1772725545478055200,8.73805517578125,-0.108673095703125,0.05156540870666504,-0.021708905696868896
1772725545487572000,8.747572021484375,-0.10958385467529297,0.04801321029663086,-0.0018463134765625
1772725545497088800,8.7570888671875,-0.0705881118774414,0.075675368309021,-0.038828253746032715
1772725545506605600,8.76660546875,-0.006392478942871094,0.037163615226745605,-0.030621439218521118
1772725545516122400,8.776122314453126,0.009697914123535156,0.008587479591369629,0.015116974711418152
1772725545525639200,8.78563916015625,0.025519371032714844,-0.019573569297790527,0.02794457972049713
1772725545535156000,8.795156005859376,0.05291461944580078,-0.012417197227478027,0.03908896446228027
1772725545544672800,8.8046728515625,0.094146728515625,-0.025101542472839355,0.04549744725227356
1772725545554189600,8.814189453125,0.14191532135009766,-0.057236313819885254,0.011687412858009338
1772725545563706600,8.82370654296875,0.15845775604248047,-0.03314208984375,-0.01249261200428009
1772725545573223400,8.833223388671875,0.13484764099121094,-0.01000678539276123,-0.025310084223747253
1772725545582740000,8.842739990234374,0.09755897521972656,-0.04625570774078369,0.008437886834144592
1772725545592257000,8.852257080078125,0.027942657470703125,-0.03008735179901123,0.029778078198432922
1772725545601773800,8.86177392578125,-0.0617828369140625,-0.030222535133361816,0.03951007127761841
1772725545611290400,8.871290283203125,-0.1125020980834961,-0.010925531387329102,0.06413562595844269
1772725545620807400,8.880807373046874,-0.15077877044677734,0.011189937591552734,0.021022841334342957
1772725545630324200,8.89032421875,-0.11557483673095703,0.042800307273864746,0.009620428085327148
1772725545639841000,8.899841064453126,-0.05274677276611328,0.019884586334228516,-0.02032443881034851
1772725545649357800,8.90935791015625,-0.016823768615722656,0.018421530723571777,-0.06877127289772034
1772725545658874600,8.91887451171875,0.023233413696289062,0.021579742431640625,-0.036723002791404724
1772725545668391400,8.928391357421875,0.022612571716308594,0.027150392532348633,-0.031706348061561584
1772725545677908200,8.937908203125,0.038514137268066406,0.03246021270751953,-0.03433546423912048
1772725545687425000,8.947425048828125,0.066009521484375,0.05135691165924072,-0.03960797190666199
1772725545696941800,8.95694189453125,0.10261249542236328,0.045629143714904785,-0.06857873499393463
1772725545706458600,8.966458740234375,0.053955078125,-0.005043745040893555,-0.07293302565813065
1772725545715975400,8.975975341796875,0.03674507141113281,-0.012857913970947266,0.017942771315574646
1772725545725492200,8.9854921875,0.019876480102539062,-0.020890355110168457,0.053943946957588196
1772725545735009000,8.995009033203125,0.005602836608886719,-0.03562808036804199,0.01616789400577545
1772725545744525800,9.00452587890625,-0.025022506713867188,-0.03062295913696289,-0.02873075008392334
1772725545754042600,9.014042724609375,-0.008107185363769531,-0.04900217056274414,-0.036127969622612
1772725545763559400,9.023559326171876,0.017989158630371094,-0.04617130756378174,-0.03395478427410126
1772725545773076200,9.033076171875,-0.0010166168212890625,-0.06719100475311279,-0.014405667781829834
1772725545782593000,9.042593017578126,-0.010255813598632812,-0.0669625997543335,0.003293052315711975
1772725545792110000,9.052110107421875,-0.02166461944580078,-0.05279541015625,0.06816783547401428
1772725545801626600,9.061626708984376,-0.049370765686035156,-0.041118741035461426,0.13872557878494263
1772725545811143400,9.071143310546875,-0.097930908203125,-0.017107486724853516,0.1369994878768921
1772725545820660500,9.080660400390625,-0.12000751495361328,-0.0017976760864257812,0.10665078461170197
1772725545830177300,9.09017724609375,-0.1325092315673828,0.0425562858581543,0.043620914220809937
1772725545839694000,9.099694091796875,-0.09319019317626953,0.05866420269012451,0.00581987202167511
1772725545849211000,9.1092109375,-0.0026798248291015625,0.03400838375091553,-0.030488237738609314
1772725545858727700,9.118727783203125,0.1124887466430664,0.06473076343536377,-0.04922701418399811
1772725545868244500,9.128244384765624,0.22140884399414062,0.013039112091064453,-0.030330538749694824
1772725545877761300,9.13776123046875,0.2205343246459961,-0.0013813972473144531,-0.03368748724460602
1772725545887278000,9.147278076171874,0.09966564178466797,-0.013153314590454102,-0.02298220992088318
1772725545896795000,9.156794921875,0.006566047668457031,0.03477346897125244,-0.010413512587547302
1772725545906311700,9.166311767578126,-0.012142181396484375,0.035408854484558105,-0.022163867950439453
1772725545915828500,9.175828369140625,0.0117950439453125,-0.003852367401123047,-0.03149925172328949
1772725545925345300,9.18534521484375,0.03066539764404297,-0.0403292179107666,-0.0027071237564086914
1772725545934862000,9.194862060546875,0.04218006134033203,-0.06454825401306152,0.00233246386051178
1772725545944379000,9.20437890625,-0.0006685256958007812,-0.03166639804840088,-0.0037819892168045044
1772725545953895700,9.213895751953125,0.053727149963378906,-0.01843118667602539,-0.05494708567857742
1772725545963412500,9.22341259765625,0.0461578369140625,-0.027203083038330078,-0.06751035153865814
1772725545972929300,9.23292919921875,0.04590320587158203,-0.022379279136657715,-0.046687252819538116
1772725545982446000,9.242446044921875,0.019834518432617188,-0.013216376304626465,-0.010111406445503235
1772725545991963000,9.251962890625,-0.0010824203491210938,0.01696789264678955,0.006336688995361328
1772725546001479700,9.261479736328125,-0.040566444396972656,0.02833092212677002,-0.0202561616897583
1772725546010996500,9.27099658203125,-0.11484432220458984,0.016756176948547363,-0.0014988183975219727
1772725546020513300,9.28051318359375,-0.13152790069580078,0.03417050838470459,0.010211765766143799
1772725546030030000,9.290030029296876,-0.13157939910888672,0.014207839965820312,0.0031722337007522583
1772725546039547100,9.299547119140625,-0.12232112884521484,0.0044939517974853516,0.029459640383720398
1772725546049064000,9.30906396484375,-0.12984466552734375,0.0051348209381103516,0.04356628656387329
1772725546058580500,9.31858056640625,-0.1822052001953125,-0.007071971893310547,0.07177844643592834
1772725546068097500,9.32809765625,-0.15392398834228516,-0.017908453941345215,0.08547993004322052
1772725546077614300,9.3376142578125,-0.057967185974121094,-0.018709182739257812,0.049574002623558044
1772725546087131100,9.347131103515625,0.0741720199584961,-0.02487015724182129,0.0024684518575668335
1772725546096648000,9.35664794921875,0.1855602264404297,-0.03467690944671631,-0.013330698013305664
1772725546106164700,9.366164794921875,0.20357704162597656,-0.01966714859008789,-0.024495884776115417
1772725546115681500,9.375681640625,0.19556808471679688,-0.033925414085388184,-0.028695672750473022
1772725546125198300,9.3851982421875,0.14305782318115234,-0.010634779930114746,-0.023637443780899048
1772725546134715100,9.394715087890624,0.1032571792602539,-0.002183079719543457,-0.04015272855758667
1772725546144232000,9.40423193359375,0.11834907531738281,-0.010894536972045898,-0.05425077676773071
1772725546153748700,9.413748779296874,0.06975078582763672,-0.019962072372436523,-0.02288144826889038
1772725546163265500,9.423265625,0.014926910400390625,-0.007871866226196289,0.015717506408691406
1772725546172782300,9.4327822265625,-0.010746955871582031,-0.02892768383026123,0.011364266276359558
1772725546182299100,9.442299072265625,-0.06434822082519531,-0.06078612804412842,0.018735617399215698
1772725546191816000,9.45181591796875,-0.07958030700683594,-0.04416465759277344,0.011652886867523193
1772725546201332700,9.461332763671875,-0.08758258819580078,-0.01560962200164795,-0.007390126585960388
1772725546210849500,9.470849609375,-0.06725120544433594,0.007936239242553711,-0.03317388892173767
1772725546220366300,9.480366455078125,-0.10381412506103516,-0.008516311645507812,-0.03688111901283264
1772725546229883100,9.489883056640625,-0.12103748321533203,0.013402581214904785,-0.023809567093849182
1772725546239400200,9.499400146484374,-0.1239776611328125,0.04028046131134033,-0.027470774948596954
1772725546248916700,9.508916748046875,-0.13406085968017578,0.032094717025756836,-0.07329974323511124
1772725546258433500,9.51843359375,-0.11826038360595703,0.02959442138671875,-0.057198718190193176
1772725546267950600,9.52795068359375,-0.08399200439453125,0.02758204936981201,-0.03402768075466156
1772725546277467100,9.537467041015624,-0.029083251953125,0.011317610740661621,-0.018357381224632263
1772725546286984200,9.546984130859375,0.015561103820800781,-0.009713530540466309,-0.035653673112392426
1772725546296501000,9.5565009765625,0.08074951171875,-0.023890972137451172,-0.05505809187889099
1772725546306017800,9.566017822265625,0.1544055938720703,-0.03144180774688721,-0.030192121863365173
1772725546315534600,9.57553466796875,0.15165424346923828,-0.08172643184661865,0.0026081353425979614
1772725546325051400,9.585051513671875,0.10663700103759766,-0.08193361759185791,0.017953529953956604
1772725546334568200,9.594568115234376,0.08823490142822266,-0.0749741792678833,0.05634613335132599
1772725546344085000,9.6040849609375,0.0701913833618164,-0.0895986557006836,0.10859285295009613
1772725546353601800,9.613601806640625,0.10201358795166016,-0.09776556491851807,0.06418974697589874
1772725546363118600,9.62311865234375,0.1005697250366211,-0.08574044704437256,0.019135862588882446
1772725546372635400,9.632635498046875,0.09935379028320312,-0.06797373294830322,-0.003127649426460266
1772725546382152200,9.642152099609374,0.06296443939208984,-0.0887075662612915,-0.02202780544757843
1772725546391669000,9.6516689453125,-0.0035047531127929688,-0.06388366222381592,-0.010113254189491272
1772725546401185800,9.661185791015624,-0.0478668212890625,-0.007880806922912598,0.005064710974693298
1772725546410702600,9.67070263671875,-0.08696460723876953,0.005894660949707031,-0.005209371447563171
1772725546420219400,9.680219482421874,-0.12092781066894531,0.006494760513305664,0.005404412746429443
1772725546429736200,9.689736083984375,-0.14976119995117188,0.06428086757659912,0.008860409259796143
1772725546439253000,9.6992529296875,-0.1193552017211914,0.06962096691131592,-0.015337690711021423
1772725546448769800,9.708769775390625,-0.08945846557617188,0.08894073963165283,-0.04533858597278595
1772725546458286800,9.718286865234376,-0.07185173034667969,0.11511647701263428,-0.0534815713763237
1772725546467803400,9.727803466796875,-0.10882568359375,0.09705233573913574,-0.09004601836204529
1772725546477320200,9.7373203125,-0.11011981964111328,0.09223723411560059,-0.11195822060108185
1772725546486837000,9.7468369140625,-0.06456184387207031,0.046385765075683594,-0.08951196074485779
1772725546496354000,9.75635400390625,0.01773834228515625,0.03513443470001221,-0.06922809034585953
1772725546505870600,9.76587060546875,0.09392547607421875,0.03142213821411133,-0.12344752252101898
1772725546515387600,9.7753876953125,0.07709121704101562,-0.0074615478515625,-0.08407579362392426
1772725546524904400,9.784904541015624,0.13858795166015625,-0.10424792766571045,0.006622225046157837
1772725546534421200,9.794421142578125,0.18544673919677734,-0.12458586692810059,0.13123677670955658
1772725546543938000,9.80393798828125,0.1755504608154297,-0.14033842086791992,0.14363524317741394
1772725546553454800,9.813454833984375,0.1544475555419922,-0.11346912384033203,0.06293180584907532
1772725546562971600,9.8229716796875,0.12927722930908203,-0.06753838062286377,0.011637017130851746
1772725546572488400,9.832488525390625,0.09058475494384766,-0.09626221656799316,0.0775923877954483
1772725546582005200,9.842005126953126,0.15382766723632812,-0.054373860359191895,0.11025503277778625
1772725546591522000,9.85152197265625,0.114776611328125,-0.09264373779296875,0.16107548773288727
1772725546601038800,9.861038818359376,-0.01577472686767578,-0.06928789615631104,0.16645705699920654
1772725546610555600,9.8705556640625,-0.04118824005126953,0.03927648067474365,0.10160726308822632
1772725546620072400,9.880072509765625,-0.01967144012451172,0.034060120582580566,-0.08801285922527313
1772725546629589200,9.88958935546875,-0.013010025024414062,0.026472091674804688,-0.12918154895305634
1772725546639106000,9.89910595703125,0.07593822479248047,0.03993988037109375,-0.029853567481040955
1772725546648622800,9.908622802734374,0.17804908752441406,0.10666334629058838,0.06411130726337433
