time,seconds_elapsed,z,y,x
1772725536836797000,0.096796875,0.011300998739898205,0.024434590712189674,0.08628465235233307
1772725536846313700,0.106313720703125,0.019242240116000175,0.02932151034474373,0.07345648854970932
1772725536855830500,0.11583056640625,0.024740023538470268,0.02260199747979641,0.05146535858511925
1772725536865347300,0.125347412109375,0.03023780696094036,0.000610864779446274,0.03436114266514778
1772725536874864000,0.134864013671875,0.03390299528837204,-0.023212861269712448,0.023365577682852745
1772725536884381000,0.144380859375,0.03390299528837204,-0.03237583488225937,0.01908952370285988
1772725536893897700,0.153897705078125,0.032070402055978775,-0.021380268037319183,0.016035201027989388
1772725536903414500,0.16341455078125,0.029016077518463135,-0.010384701192378998,0.016646064817905426
1772725536912931300,0.172931396484375,0.022907428443431854,-0.001221729558892548,0.01359174121171236
1772725536922448100,0.1824482421875,0.021685699000954628,0.01588248461484909,0.0007635809597559273
1772725536931965000,0.19196484375,0.022296564653515816,0.03237583488225937,-0.015729768201708794
1772725536941481700,0.201481689453125,0.022907428443431854,0.033597562462091446,-0.024281874299049377
1772725536950998500,0.21099853515625,0.02107483521103859,0.03176496922969818,-0.024892739951610565
1772725536960515300,0.220515380859375,0.01740964688360691,0.03848448023200035,-0.02000582218170166
1772725536970032000,0.2300322265625,0.01802051067352295,0.05436696484684944,-0.007788525894284248
1772725536979549000,0.239548828125,0.016187917441129684,0.05925388261675835,0.008704823441803455
1772725536989065700,0.249065673828125,0.019242240116000175,0.0360410213470459,0.020311253145337105
1772725536998582500,0.25858251953125,0.025350889191031456,0.0030543238390237093,0.017867794260382652
1772725537008099300,0.268099365234375,0.03145953640341759,-0.021991131827235222,0.005650499369949102
1772725537017616100,0.2776162109375,0.03023780696094036,-0.027488915249705315,-0.008399390615522861
1772725537027133000,0.2871328125,0.024740023538470268,-0.014660755172371864,-0.012675444595515728
1772725537036649700,0.296649658203125,0.0204639695584774,0.007330377586185932,-0.004123337101191282
1772725537046166500,0.30616650390625,0.016798781231045723,0.02871064469218254,0.009926552884280682
1772725537055683300,0.315683349609375,0.01435532234609127,0.05192350596189499,0.02458730712532997
1772725537065200000,0.3252001953125,0.011300998739898205,0.07513637095689774,0.030085090547800064
1772725537074717000,0.334717041015625,0.005192350596189499,0.07391463965177536,0.030085090547800064
1772725537084233700,0.344233642578125,-0.003359756199643016,0.04214967042207718,0.028863361105322838
1772725537093750500,0.35375048828125,-0.010690134018659592,0.010995565913617611,0.01908952370285988
1772725537103267300,0.363267333984375,-0.011911863461136818,-0.006108647678047419,0.011759147047996521
1772725537112784100,0.3727841796875,-0.008857538923621178,-0.01954767294228077,0.014813470654189587
1772725537122301000,0.382301025390625,-0.005192350596189499,-0.02626718580722809,0.019700389355421066
1772725537131817700,0.391817626953125,-0.0027488914784044027,-0.01954767294228077,0.02825249545276165
1772725537141334500,0.40133447265625,-0.003970621153712273,-0.0030543238390237093,0.04169152304530144
1772725537150851300,0.410851318359375,-0.008246674202382565,0.012217295356094837,0.0539088174700737
1772725537160368000,0.4203681640625,-0.011300998739898205,0.026878049597144127,0.05940660089254379
1772725537169885000,0.429885009765625,-0.014966187067329884,0.0360410213470459,0.05146535858511925
1772725537179401700,0.439401611328125,-0.014966187067329884,0.0360410213470459,0.029474224895238876
1772725537188918500,0.44891845703125,-0.013744457624852657,0.026878049597144127,0.0032070400193333626
1772725537198435300,0.458435302734375,-0.011911863461136818,0.000610864779446274,-0.014508038759231567
1772725537207952100,0.4679521484375,-0.012522728182375431,-0.02626718580722809,-0.018784092739224434
1772725537217469000,0.477468994140625,-0.013133592903614044,-0.0360410213470459,-0.02000582218170166
1772725537226985700,0.48698583984375,-0.012522728182375431,-0.024434590712189674,-0.013286309316754341
1772725537236502500,0.49650244140625,-0.011911863461136818,-0.0030543238390237093,-0.003512472379952669
1772725537246019300,0.506019287109375,-0.00946840364485979,0.026878049597144127,0.004428769461810589
1772725537255536000,0.5155361328125,-0.005803215317428112,0.056810423731803894,0.009926552884280682
1772725537265053000,0.525052978515625,-0.003359756199643016,0.07269290834665298,0.014202605932950974
1772725537274569700,0.53456982421875,0.0009162971982732415,0.06841685622930527,0.01359174121171236
1772725537284086500,0.54408642578125,0.0027488914784044027,0.06047561392188072,0.007483093533664942
1772725537293603300,0.553603271484375,0.000305432389723137,0.050090912729501724,-0.002290742937475443
1772725537303120100,0.5631201171875,-0.005192350596189499,0.03909534588456154,-0.01206457894295454
1772725537312637000,0.572636962890625,-0.008246674202382565,0.023212861269712448,-0.012675444595515728
1772725537322153700,0.58215380859375,-0.005803215317428112,0.01282816007733345,-0.009621120058000088
1772725537331670500,0.59167041015625,-0.000305432389723137,0.006108647678047419,-0.0102319847792387
1772725537341187300,0.601187255859375,0.0027488914784044027,0.007941242307424545,-0.011453714221715927
1772725537350704000,0.6107041015625,0.003970621153712273,0.007330377586185932,-0.012675444595515728
1772725537360221000,0.620220947265625,0.008246674202382565,0.010384701192378998,-0.019394956529140472
1772725537369737700,0.62973779296875,0.011300998739898205,0.011606430634856224,-0.024892739951610565
1772725537379254500,0.639254638671875,0.01435532234609127,0.004886918235570192,-0.025503603741526604
1772725537388771300,0.648771240234375,0.01435532234609127,-0.007941242307424545,-0.018784092739224434
1772725537398288100,0.6582880859375,0.012522728182375431,-0.01588248461484909,-0.014508038759231567
1772725537407805000,0.667804931640625,0.012522728182375431,-0.013439024798572063,-0.009010255336761475
1772725537417321700,0.67732177734375,0.011300998739898205,-0.004886918235570192,0.0001527161948615685
1772725537426838500,0.686838623046875,0.010079269297420979,0.010995565913617611,0.005650499369949102
1772725537436355300,0.696355224609375,0.014966187067329884,0.031154103577136993,0.005650499369949102
1772725537445872000,0.7058720703125,0.022907428443431854,0.0360410213470459,0.007483093533664942
1772725537455389000,0.715388916015625,0.02107483521103859,0.023823726922273636,0.005650499369949102
1772725537464905700,0.72490576171875,0.01802051067352295,0.010384701192378998,0.0007635809597559273
1772725537474422500,0.734422607421875,0.01740964688360691,0.0030543238390237093,-0.002901607658714056
1772725537483939300,0.743939208984375,0.015577051788568497,-0.006108647678047419,-0.005955931730568409
1772725537493456100,0.7534560546875,0.011911863461136818,-0.017715077847242355,-0.004734201822429895
1772725537502973000,0.762972900390625,0.013133592903614044,-0.020769402384757996,0.0001527161948615685
1772725537512489700,0.77248974609375,0.019242240116000175,-0.012217295356094837,0.008704823441803455
1772725537522006500,0.782006591796875,0.0204639695584774,0.0030543238390237093,0.017256930470466614
1772725537531523300,0.7915234375,0.01802051067352295,0.014049889519810677,0.014813470654189587
1772725537541040000,0.8010400390625,0.018631376326084137,0.02932151034474373,0.0025961752980947495
1772725537550557000,0.810556884765625,0.02107483521103859,0.028099779039621353,-0.009621120058000088
1772725537560073700,0.82007373046875,0.016798781231045723,0.008552107028663158,-0.017562363296747208
1772725537569590500,0.829590576171875,0.010079269297420979,-0.012217295356094837,-0.02000582218170166
1772725537579107300,0.839107421875,0.007024944759905338,-0.01954767294228077,-0.021838415414094925
1772725537588624100,0.8486240234375,0.007024944759905338,-0.010995565913617611,-0.019394956529140472
1772725537598141000,0.858140869140625,0.007024944759905338,-0.000610864779446274,-0.01511890348047018
1772725537607657700,0.86765771484375,0.007635809946805239,0.008552107028663158,-0.011453714221715927
1772725537617174500,0.877174560546875,0.010690134018659592,0.020769402384757996,-0.01206457894295454
1772725537626691300,0.88669140625,0.011300998739898205,0.02871064469218254,-0.009010255336761475
1772725537636208000,0.8962080078125,0.011911863461136818,0.024434590712189674,-0.00045814859913662076
1772725537645725000,0.905724853515625,0.012522728182375431,0.010384701192378998,0.006872228812426329
1772725537655241700,0.91524169921875,0.016187917441129684,-0.007330377586185932,0.0062613640911877155
1772725537664758500,0.924758544921875,0.022296564653515816,-0.015271619893610477,-0.00045814859913662076
1772725537674275300,0.934275390625,0.026572618633508682,-0.021991131827235222,-0.0102319847792387
1772725537683792100,0.943792236328125,0.02718348242342472,-0.027488915249705315,-0.019394956529140472
1772725537693309000,0.953308837890625,0.022907428443431854,-0.031154103577136993,-0.024281874299049377
1772725537702825700,0.96282568359375,0.01740964688360691,-0.0360410213470459,-0.021838415414094925
1772725537712342500,0.972342529296875,0.015577051788568497,-0.034208428114652634,-0.01511890348047018
1772725537721859300,0.981859375,0.01435532234609127,-0.031154103577136993,-0.006566796451807022
1772725537731376000,0.991376220703125,0.010690134018659592,-0.028099779039621353,0.0062613640911877155
1772725537740893000,1.000892822265625,0.0015271619195118546,-0.023823726922273636,0.020922118797898293
1772725537750409700,1.01040966796875,-0.010079269297420979,-0.017104214057326317,0.03252854943275452
1772725537759926500,1.019926513671875,-0.018631376326084137,-0.007941242307424545,0.03741546720266342
1772725537769443300,1.029443359375,-0.02412915788590908,0.007330377586185932,0.04046979174017906
1772725537778960100,1.038960205078125,-0.028405211865901947,0.014660755172371864,0.042913250625133514
1772725537788477000,1.048476806640625,-0.03145953640341759,0.007941242307424545,0.0435241162776947
1772725537797993700,1.05799365234375,-0.03023780696094036,-0.006719512399286032,0.03741546720266342
1772725537807510500,1.067510498046875,-0.024740023538470268,-0.017104214057326317,0.028863361105322838
1772725537817027300,1.07702734375,-0.023518294095993042,-0.020158538594841957,0.016646064817905426
1772725537826544000,1.086544189453125,-0.02718348242342472,-0.01588248461484909,0.0001527161948615685
1772725537836061000,1.09606103515625,-0.0308486707508564,-0.009162971749901772,-0.01511890348047018
1772725537845577700,1.10557763671875,-0.03329212963581085,-0.004276053514331579,-0.0206166859716177
1772725537855094500,1.115094482421875,-0.03695731982588768,-0.004276053514331579,-0.015729768201708794
1772725537864611300,1.124611328125,-0.038789913058280945,0,-0.002901607658714056
1772725537874128100,1.134128173828125,-0.03940077871084213,0.009162971749901772,0.006872228812426329
1772725537883645000,1.14364501953125,-0.03817904740571976,0.020158538594841957,0.014202605932950974
1772725537893161700,1.15316162109375,-0.03451386094093323,0.020769402384757996,0.017256930470466614
1772725537902678500,1.162678466796875,-0.0308486707508564,0.012217295356094837,0.014202605932950974
1772725537912195300,1.1721953125,-0.02412915788590908,-0.002443459117785096,0.008093958720564842
1772725537921712000,1.181712158203125,-0.022296564653515816,-0.020158538594841957,-0.001679878099821508
1772725537931229000,1.19122900390625,-0.023518294095993042,-0.023823726922273636,-0.010842849500477314
1772725537940745700,1.200745849609375,-0.023518294095993042,-0.011606430634856224,-0.01695149764418602
1772725537950262500,1.210262451171875,-0.02107483521103859,0.011606430634856224,-0.0206166859716177
1772725537959779300,1.219779296875,-0.01435532234609127,0.03237583488225937,-0.018173227086663246
1772725537969296100,1.229296142578125,-0.004581485874950886,0.037262752652168274,-0.014508038759231567
1772725537978813000,1.23881298828125,0.0027488914784044027,0.021380268037319183,-0.013286309316754341
1772725537988329700,1.248329833984375,0.004581485874950886,-0.001832594396546483,-0.01695149764418602
1772725537997846500,1.257846435546875,0.003359756199643016,-0.008552107028663158,-0.021838415414094925
1772725538007363300,1.26736328125,-0.000305432389723137,-0.011606430634856224,-0.022449281066656113
1772725538016880000,1.276880126953125,-0.0021380267571657896,-0.007941242307424545,-0.01695149764418602
1772725538026397000,1.28639697265625,-0.000305432389723137,0.001832594396546483,-0.007177661173045635
1772725538035913700,1.295913818359375,0.003970621153712273,0.0030543238390237093,0.0062613640911877155
1772725538045430500,1.305430419921875,0.008857538923621178,-0.000610864779446274,0.012370011769235134
1772725538054947300,1.314947265625,0.011300998739898205,-0.006108647678047419,0.009315688163042068
1772725538064464100,1.324464111328125,0.005803215317428112,-0.01893680728971958,0.006872228812426329
1772725538073981000,1.33398095703125,-0.0009162971982732415,-0.028099779039621353,0.0038179049734026194
1772725538083497700,1.343497802734375,-0.007635809946805239,-0.021991131827235222,-0.002901607658714056
1772725538093014500,1.3530146484375,-0.010079269297420979,0,-0.007788525894284248
1772725538112048000,1.372048095703125,-0.005192350596189499,0.04153880476951599,0.0013744457392022014
1772725538121565000,1.38156494140625,0.003359756199643016,0.039706211537122726,0.0062613640911877155
1772725538131081700,1.391081787109375,0.006414080038666725,0.0256563201546669,0.004428769461810589
1772725538150115300,1.410115234375,0.010079269297420979,0.002443459117785096,-0.027336198836565018
1772725538159632100,1.419632080078125,0.00946840364485979,-0.003665188793092966,-0.04016435891389847
1772725538169149000,1.42914892578125,0.010690134018659592,-0.006719512399286032,-0.041386090219020844
1772725538178665700,1.438665771484375,0.013133592903614044,-0.003665188793092966,-0.03527744114398956
1772725538188182500,1.4481826171875,0.01740964688360691,0.0030543238390237093,-0.028557928279042244
1772725538197699300,1.45769921875,0.023518294095993042,0.015271619893610477,-0.025503603741526604
1772725538207216000,1.467216064453125,0.02718348242342472,0.0256563201546669,-0.021838415414094925
1772725538216733000,1.47673291015625,0.02779434807598591,0.030543239787220955,-0.01695149764418602
1772725538226249700,1.486249755859375,0.02718348242342472,0.023212861269712448,-0.011453714221715927
1772725538235766500,1.4957666015625,0.028405211865901947,0.011606430634856224,-0.006566796451807022
1772725538245283300,1.505283447265625,0.02779434807598591,-0.000610864779446274,-0.004123337101191282
1772725538254800100,1.514800048828125,0.02718348242342472,-0.010384701192378998,-0.002901607658714056
1772725538264317000,1.52431689453125,0.02718348242342472,-0.018325943499803543,-0.001679878099821508
1772725538273833700,1.533833740234375,0.029626941308379173,-0.01954767294228077,-0.001679878099821508
1772725538283350500,1.5433505859375,0.032070402055978775,-0.009162971749901772,0.0013744457392022014
1772725538292867300,1.552867431640625,0.03390299528837204,0.004886918235570192,0.005039634648710489
1772725538302384000,1.562384033203125,0.03023780696094036,0.01588248461484909,0.010537417605519295
1772725538311901000,1.57190087890625,0.022907428443431854,0.021991131827235222,0.016035201027989388
1772725538321417700,1.581417724609375,0.01802051067352295,0.024434590712189674,0.017867794260382652
1772725538330934500,1.5909345703125,0.016187917441129684,0.021991131827235222,0.009926552884280682
1772725538340451300,1.600451416015625,0.014966187067329884,0.014049889519810677,-0.00045814859913662076
1772725538349968100,1.609968017578125,0.01740964688360691,0.011606430634856224,-0.010842849500477314
1772725538359485000,1.61948486328125,0.021685699000954628,0.013439024798572063,-0.01511890348047018
1772725538369001700,1.629001708984375,0.022296564653515816,0.014660755172371864,-0.009010255336761475
1772725538378518500,1.6385185546875,0.019242240116000175,0.011606430634856224,-0.001679878099821508
1772725538388035300,1.648035400390625,0.018631376326084137,0.010995565913617611,0.004428769461810589
1772725538397552000,1.65755224609375,0.01802051067352295,0.006108647678047419,0.006872228812426329
1772725538407069000,1.66706884765625,0.013133592903614044,-0.002443459117785096,0.010537417605519295
1772725538416585700,1.676585693359375,0.007635809946805239,-0.010995565913617611,0.011148282326757908
1772725538426102500,1.6861025390625,0.00946840364485979,-0.01282816007733345,0.005650499369949102
1772725538435619300,1.695619384765625,0.016187917441129684,-0.007330377586185932,0.0025961752980947495
1772725538445136100,1.70513623046875,0.016798781231045723,-0.001221729558892548,-0.0010690133785828948
1772725538454653000,1.71465283203125,0.008246674202382565,0,-0.005955931730568409
1772725538464169700,1.724169677734375,-0.004581485874950886,0.003665188793092966,-0.01206457894295454
1772725538473686500,1.7336865234375,-0.014966187067329884,0.009162971749901772,-0.018784092739224434
1772725538483203300,1.743203369140625,-0.022296564653515816,0.01588248461484909,-0.021227551624178886
1772725538492720000,1.75272021484375,-0.024740023538470268,0.01893680728971958,-0.022449281066656113
1772725538502237000,1.76223681640625,-0.02107483521103859,0.01893680728971958,-0.018784092739224434
1772725538511753700,1.771753662109375,-0.01435532234609127,0.01893680728971958,-0.016340631991624832
1772725538521270500,1.7812705078125,-0.007024944759905338,0.014049889519810677,-0.009621120058000088
1772725538530787300,1.790787353515625,0.0015271619195118546,0.007330377586185932,-0.003512472379952669
1772725538540304100,1.80030419921875,0.003359756199643016,-0.003665188793092966,-0.004123337101191282
1772725538549821000,1.809821044921875,-0.0021380267571657896,-0.01588248461484909,-0.0102319847792387
1772725538559337700,1.819337646484375,-0.006414080038666725,-0.024434590712189674,-0.017562363296747208
1772725538568854500,1.8288544921875,-0.008857538923621178,-0.02932151034474373,-0.02306014485657215
1772725538578371300,1.838371337890625,-0.010690134018659592,-0.027488915249705315,-0.02306014485657215
1772725538587888000,1.84788818359375,-0.010690134018659592,-0.01893680728971958,-0.01511890348047018
1772725538597405000,1.857405029296875,-0.007024944759905338,0.001832594396546483,-0.004123337101191282
1772725538606921700,1.866921630859375,-0.0021380267571657896,0.017715077847242355,0.005039634648710489
1772725538616438500,1.8764384765625,0.0009162971982732415,0.01954767294228077,0.008704823441803455
1772725538625955300,1.885955322265625,0.0009162971982732415,0.008552107028663158,0.008704823441803455
1772725538635472100,1.89547216796875,-0.0027488914784044027,-0.012217295356094837,0.006872228812426329
1772725538644989000,1.904989013671875,-0.007635809946805239,-0.034208428114652634,0.007483093533664942
1772725538654505700,1.914505615234375,-0.010690134018659592,-0.04276053607463837,0.006872228812426329
1772725538664022500,1.9240224609375,-0.006414080038666725,-0.039706211537122726,0.008704823441803455
1772725538673539300,1.933539306640625,0.000305432389723137,-0.02871064469218254,0.008704823441803455
1772725538683056000,1.94305615234375,0.003970621153712273,-0.01282816007733345,0.008093958720564842
1772725538692573000,1.952572998046875,0.003970621153712273,0.0030543238390237093,0.008093958720564842
1772725538702089700,1.96208984375,0.003970621153712273,0.014049889519810677,0.0062613640911877155
1772725538711606500,1.9716064453125,-0.0009162971982732415,0.012217295356094837,0.004428769461810589
1772725538721123300,1.981123291015625,-0.004581485874950886,-0.004276053514331579,-0.00045814859913662076
1772725538730640100,1.99064013671875,-0.008246674202382565,-0.01588248461484909,-0.014508038759231567
1772725538740157000,2.000156982421875,-0.007024944759905338,-0.021380268037319183,-0.02672533318400383
1772725538749673700,2.009673828125,-0.004581485874950886,-0.015271619893610477,-0.03588830679655075
1772725538759190500,2.0191904296875,-0.0009162971982732415,0.000610864779446274,-0.041386090219020844
1772725538768707300,2.028707275390625,0.0021380267571657896,0.014660755172371864,-0.037720900028944016
1772725538778224000,2.03822412109375,-0.000305432389723137,0.021380268037319183,-0.027947064489126205
1772725538787741000,2.047740966796875,-0.003970621153712273,0.021380268037319183,-0.018173227086663246
1772725538797257700,2.0572578125,-0.0027488914784044027,0.018325943499803543,-0.007177661173045635
1772725538806774500,2.0667744140625,-0.004581485874950886,0.009773836471140385,-0.004734201822429895
1772725538816291300,2.076291259765625,-0.003359756199643016,-0.010384701192378998,-0.005345067009329796
1772725538825808100,2.08580810546875,0.003359756199643016,-0.02871064469218254,-0.005955931730568409
1772725538835325000,2.095324951171875,0.00946840364485979,-0.033597562462091446,-0.008399390615522861
1772725538844841700,2.104841796875,0.010079269297420979,-0.031154103577136993,-0.003512472379952669
1772725538854358500,2.114358642578125,0.008857538923621178,-0.01954767294228077,0.0019853105768561363
1772725538863875300,2.123875244140625,0.010690134018659592,-0.001221729558892548,0.0001527161948615685
1772725538873392000,2.13339208984375,0.013744457624852657,0.006719512399286032,-0.007177661173045635
1772725538882909000,2.142908935546875,0.016798781231045723,0.009162971749901772,-0.015729768201708794
1772725538892425700,2.15242578125,0.022296564653515816,0.01282816007733345,-0.024892739951610565
1772725538901942500,2.161942626953125,0.028405211865901947,0.010995565913617611,-0.02977965772151947
1772725538911459300,2.171459228515625,0.029626941308379173,0.001832594396546483,-0.031001387163996696
1772725538920976100,2.18097607421875,0.028405211865901947,-0.012217295356094837,-0.03405570983886719
1772725538930493000,2.190492919921875,0.02718348242342472,-0.023823726922273636,-0.0383317656815052
1772725538940009700,2.200009765625,0.03023780696094036,-0.036651886999607086,-0.0383317656815052
1772725538949526500,2.209526611328125,0.03695731982588768,-0.04825831577181816,-0.03222311660647392
1772725538959043300,2.219043212890625,0.04306596517562866,-0.05925388261675835,-0.02916879393160343
1772725538968560000,2.22856005859375,0.044898562133312225,-0.0616973415017128,-0.031612250953912735
1772725538978077000,2.238076904296875,0.04306596517562866,-0.04276053607463837,-0.03405570983886719
1772725538987593700,2.24759375,0.04550942778587341,-0.012217295356094837,-0.02977965772151947
1772725538997110500,2.257110595703125,0.0461202897131443,0.018325943499803543,-0.02000582218170166
1772725539006627300,2.26662744140625,0.0412333719432354,0.03176496922969818,-0.009010255336761475
1772725539016144100,2.27614404296875,0.0308486707508564,0.024434590712189674,-0.0010690133785828948
1772725539025661000,2.285660888671875,0.024740023538470268,0.004276053514331579,-0.002901607658714056
1772725539035177700,2.295177734375,0.021685699000954628,-0.017104214057326317,-0.012675444595515728
1772725539044694500,2.304694580078125,0.018631376326084137,-0.03909534588456154,-0.02367101050913334
1772725539054211300,2.31421142578125,0.01435532234609127,-0.05253437161445618,-0.02977965772151947
1772725539063728000,2.32372802734375,0.010079269297420979,-0.05192350596189499,-0.031612250953912735
1772725539073245000,2.333244873046875,0.006414080038666725,-0.03909534588456154,-0.02916879393160343
1772725539082761700,2.34276171875,0.0015271619195118546,-0.014660755172371864,-0.02367101050913334
1772725539092278500,2.352278564453125,-0.0021380267571657896,0.010995565913617611,-0.006566796451807022
1772725539101795300,2.36179541015625,-0.005803215317428112,0.030543239787220955,0.008704823441803455
1772725539111312100,2.37131201171875,-0.007635809946805239,0.03848448023200035,0.01359174121171236
1772725539120829000,2.380828857421875,-0.005803215317428112,0.024434590712189674,0.009926552884280682
1772725539130345700,2.390345703125,-0.0027488914784044027,-0.006108647678047419,-0.00045814859913662076
1772725539139862500,2.399862548828125,-0.0015271619195118546,-0.03787361457943916,-0.013897174037992954
1772725539149379300,2.40937939453125,-0.003359756199643016,-0.053145237267017365,-0.027947064489126205
1772725539158896000,2.418896240234375,-0.005192350596189499,-0.04581485688686371,-0.037720900028944016
1772725539168413000,2.428412841796875,-0.005803215317428112,-0.023823726922273636,-0.03588830679655075
1772725539177929700,2.4379296875,-0.003359756199643016,0.002443459117785096,-0.021838415414094925
1772725539187446500,2.447446533203125,0.005192350596189499,0.021380268037319183,-0.00045814859913662076
1772725539196963300,2.45696337890625,0.011300998739898205,0.03176496922969818,0.019700389355421066
1772725539206480100,2.466480224609375,0.013133592903614044,0.02871064469218254,0.025809036567807198
1772725539215997000,2.475996826171875,0.00946840364485979,0.014049889519810677,0.01908952370285988
1772725539225513700,2.485513671875,0.003359756199643016,0.001221729558892548,0.0032070400193333626
1772725539235030500,2.495030517578125,-0.003970621153712273,-0.011606430634856224,-0.015729768201708794
1772725539244547300,2.50454736328125,-0.00946840364485979,-0.023823726922273636,-0.031612250953912735
1772725539254064000,2.514064208984375,-0.008246674202382565,-0.02260199747979641,-0.041386090219020844
1772725539263581000,2.523580810546875,0.0009162971982732415,-0.009162971749901772,-0.03711003437638283
1772725539273097700,2.53309765625,0.006414080038666725,0.002443459117785096,-0.01695149764418602
1772725539282614500,2.542614501953125,0.007635809946805239,0.009162971749901772,0.007483093533664942
1772725539292131300,2.55213134765625,0.005803215317428112,0.009162971749901772,0.02764163166284561
1772725539301648100,2.561648193359375,0.000305432389723137,0.006719512399286032,0.03558287397027016
1772725539311165000,2.5711650390625,-0.003970621153712273,0.008552107028663158,0.03130681812763214
1772725539320681700,2.580681640625,-0.007024944759905338,0.009162971749901772,0.020311253145337105
1772725539330198500,2.590198486328125,-0.010690134018659592,0.007941242307424545,0.008704823441803455
1772725539339715300,2.59971533203125,-0.00946840364485979,0.009773836471140385,-0.004123337101191282
1772725539349232000,2.609232177734375,-0.007635809946805239,0.009773836471140385,-0.01206457894295454
1772725539358749000,2.6187490234375,-0.008246674202382565,0.011606430634856224,-0.010842849500477314
1772725539368265700,2.628265625,-0.011911863461136818,0.01649334840476513,-0.007788525894284248
1772725539377782500,2.637782470703125,-0.012522728182375431,0.01588248461484909,-0.005955931730568409
1772725539387299300,2.64729931640625,-0.007635809946805239,0.009773836471140385,-0.002290742937475443
1772725539396816100,2.656816162109375,-0.0021380267571657896,-0.000610864779446274,0.0038179049734026194
1772725539406333000,2.6663330078125,-0.003359756199643016,-0.006108647678047419,0.0032070400193333626
1772725539415850000,2.67585009765625,-0.005803215317428112,-0.004886918235570192,-0.002901607658714056
1772725539425366500,2.685366455078125,-0.003970621153712273,-0.004276053514331579,-0.005345067009329796
1772725539434883300,2.69488330078125,0.000305432389723137,-0.000610864779446274,0.0032070400193333626
1772725539444400000,2.704400146484375,0.005192350596189499,0.012217295356094837,0.012980876490473747
1772725539453917000,2.7139169921875,0.005803215317428112,0.021991131827235222,0.01908952370285988
1772725539463433700,2.723433837890625,-0.0009162971982732415,0.015271619893610477,0.020922118797898293
1772725539472950500,2.732950439453125,-0.008246674202382565,0.009162971749901772,0.016035201027989388
1772725539482467600,2.742467529296875,-0.013133592903614044,0.009162971749901772,0.0038179049734026194
1772725539491984100,2.751984130859375,-0.01435532234609127,0.007941242307424545,-0.011453714221715927
1772725539501501000,2.7615009765625,-0.011911863461136818,0.010995565913617611,-0.024892739951610565
1772725539511017700,2.771017822265625,-0.005803215317428112,0.017104214057326317,-0.027947064489126205
1772725539520534500,2.780534423828125,-0.004581485874950886,0.0256563201546669,-0.02977965772151947
1772725539530051300,2.79005126953125,-0.008857538923621178,0.03237583488225937,-0.03222311660647392
1772725539539568000,2.799568115234375,-0.011911863461136818,0.03481929376721382,-0.030390523374080658
1772725539549085200,2.809085205078125,-0.014966187067329884,0.031154103577136993,-0.025503603741526604
1772725539558601700,2.818601806640625,-0.01435532234609127,0.010995565913617611,-0.018784092739224434
1772725539568118500,2.828118408203125,-0.00946840364485979,-0.008552107028663158,-0.012675444595515728
1772725539577635600,2.837635498046875,-0.0009162971982732415,-0.012217295356094837,-0.012675444595515728
1772725539587152400,2.84715234375,0.0027488914784044027,-0.009162971749901772,-0.008399390615522861
1772725539596669000,2.8566689453125,0.000305432389723137,0.000610864779446274,-0.001679878099821508
1772725539606185700,2.866185791015625,-0.0021380267571657896,0.009773836471140385,0.011148282326757908
1772725539615702800,2.875702880859375,-0.004581485874950886,0.013439024798572063,0.027030766010284424
1772725539625219300,2.88521923828125,-0.00946840364485979,0.014660755172371864,0.029474224895238876
1772725539634736000,2.894736083984375,-0.01435532234609127,0.009162971749901772,0.020311253145337105
1772725539644253200,2.904253173828125,-0.012522728182375431,0.002443459117785096,0.005039634648710489
1772725539653770000,2.91377001953125,-0.00946840364485979,-0.001832594396546483,-0.013897174037992954
1772725539663286500,2.92328662109375,-0.006414080038666725,-0.001221729558892548,-0.024892739951610565
1772725539672803600,2.932803466796875,-0.006414080038666725,0.001221729558892548,-0.022449281066656113
1772725539682320400,2.9423203125,-0.004581485874950886,0.012217295356094837,-0.013286309316754341
1772725539691837000,2.9518369140625,-0.003359756199643016,0.018325943499803543,-0.00045814859913662076
1772725539701353700,2.961353759765625,-0.0027488914784044027,0.009162971749901772,0.0038179049734026194
1772725539710870800,2.970870849609375,0.000305432389723137,-0.010384701192378998,-0.00045814859913662076
1772725539720387600,2.9803876953125,0.0021380267571657896,-0.03298669680953026,-0.0102319847792387
1772725539729904000,2.989904052734375,0.003359756199643016,-0.04214967042207718,-0.021227551624178886
1772725539739421200,2.999421142578125,0.005803215317428112,-0.03298669680953026,-0.024281874299049377
1772725539748938000,3.00893798828125,0.007635809946805239,-0.009162971749901772,-0.013897174037992954
1772725539758454800,3.018454833984375,0.008246674202382565,0.01588248461484909,0.0038179049734026194
1772725539767971600,3.0279716796875,0.007024944759905338,0.037262752652168274,0.02153298258781433
1772725539777488400,3.03748828125,0.005192350596189499,0.0409279391169548,0.030695954337716103
1772725539787005200,3.047005126953125,0.003359756199643016,0.027488915249705315,0.027030766010284424
1772725539796521700,3.056521728515625,0.0009162971982732415,0.000610864779446274,0.01359174121171236
1772725539806038800,3.066038818359375,-0.0015271619195118546,-0.023823726922273636,-0.00045814859913662076
1772725539815555600,3.0755556640625,0.0009162971982732415,-0.031154103577136993,-0.009010255336761475
1772725539825072400,3.085072265625,0.0021380267571657896,-0.03176496922969818,-0.002290742937475443
1772725539834589200,3.094589111328125,0.0015271619195118546,-0.026878049597144127,0.01359174121171236
1772725539844106000,3.10410595703125,-0.0021380267571657896,-0.010995565913617611,0.027030766010284424
1772725539853622800,3.113622802734375,-0.007024944759905338,0.0054977829568088055,0.03741546720266342
1772725539863139600,3.1231396484375,-0.010079269297420979,0.017104214057326317,0.04169152304530144
1772725539872656400,3.132656494140625,-0.008857538923621178,0.020769402384757996,0.04046979174017906
1772725539882173200,3.142173095703125,-0.006414080038666725,0.021991131827235222,0.030695954337716103
1772725539891690000,3.15168994140625,-0.003359756199643016,0.014049889519810677,0.01908952370285988
1772725539901206500,3.16120654296875,-0.005803215317428112,0.004276053514331579,0.010537417605519295
1772725539910723600,3.1707236328125,-0.008857538923621178,-0.001221729558892548,0.005039634648710489
1772725539920240400,3.180240478515625,-0.010079269297420979,-0.004276053514331579,0.0025961752980947495
1772725539929757200,3.189757080078125,-0.00946840364485979,-0.0054977829568088055,0.004428769461810589
1772725539939274000,3.19927392578125,-0.007024944759905338,0.000610864779446274,0.005039634648710489
1772725539948790800,3.208790771484375,-0.000305432389723137,0.011606430634856224,0.005039634648710489
1772725539958307600,3.2183076171875,0.005803215317428112,0.015271619893610477,0.0062613640911877155
1772725539967824400,3.227824462890625,0.005803215317428112,0.014049889519810677,0.006872228812426329
1772725539977341200,3.237341064453125,0.0021380267571657896,0.007330377586185932,0.010537417605519295
1772725539986858000,3.24685791015625,-0.005192350596189499,0.000610864779446274,0.014813470654189587
1772725539996374800,3.256374755859375,-0.010690134018659592,0,0.01847865991294384
1772725540005891600,3.2658916015625,-0.00946840364485979,0.0030543238390237093,0.02153298258781433
1772725540015408400,3.275408447265625,-0.006414080038666725,0.008552107028663158,0.023365577682852745
1772725540024925200,3.28492529296875,-0.003970621153712273,0.003665188793092966,0.030085090547800064
1772725540034442000,3.29444189453125,-0.005192350596189499,-0.004276053514331579,0.03436114266514778
1772725540043958800,3.303958740234375,-0.008246674202382565,-0.012217295356094837,0.03375028073787689
1772725540053475600,3.3134755859375,-0.007024944759905338,-0.012217295356094837,0.026419902220368385
1772725540062992400,3.322992431640625,-0.003970621153712273,0,0.01847865991294384
1772725540072509200,3.33250927734375,-0.0027488914784044027,0.012217295356094837,0.01847865991294384
1772725540082026000,3.34202587890625,-0.0015271619195118546,0.013439024798572063,0.02519817277789116
1772725540091542800,3.351542724609375,0.0009162971982732415,0.006719512399286032,0.028863361105322838
1772725540101059600,3.3610595703125,0.006414080038666725,0.006719512399286032,0.02458730712532997
1772725540110576400,3.370576416015625,0.010690134018659592,0.001221729558892548,0.017256930470466614
1772725540120093200,3.38009326171875,0.008857538923621178,-0.013439024798572063,0.014813470654189587
1772725540129610000,3.38960986328125,0.005192350596189499,-0.023823726922273636,0.01359174121171236
1772725540139126800,3.399126708984375,-0.0009162971982732415,-0.02260199747979641,0.014202605932950974
1772725540148643600,3.4086435546875,-0.003970621153712273,-0.012217295356094837,0.014813470654189587
1772725540158160400,3.418160400390625,-0.0027488914784044027,0.0030543238390237093,0.020922118797898293
1772725540167677200,3.42767724609375,0.0021380267571657896,0.01649334840476513,0.030085090547800064
1772725540177194000,3.437194091796875,0.004581485874950886,0.023212861269712448,0.03497200831770897
1772725540186710800,3.446710693359375,0.005803215317428112,0.02260199747979641,0.03436114266514778
1772725540196227600,3.4562275390625,0.005192350596189499,0.011606430634856224,0.02825249545276165
1772725540205744400,3.465744384765625,0.0009162971982732415,-0.007330377586185932,0.023365577682852745
1772725540215261200,3.47526123046875,-0.005192350596189499,-0.01649334840476513,0.012980876490473747
1772725540224778000,3.484778076171875,-0.007635809946805239,-0.013439024798572063,0.0025961752980947495
1772725540234294800,3.494294677734375,-0.005192350596189499,-0.001832594396546483,0.0007635809597559273
1772725540243811600,3.5038115234375,-0.0021380267571657896,0.009162971749901772,0.007483093533664942
1772725540253328400,3.513328369140625,-0.003359756199643016,0.023212861269712448,0.017867794260382652
1772725540262845200,3.52284521484375,-0.005803215317428112,0.03176496922969818,0.026419902220368385
1772725540272362000,3.532362060546875,-0.011911863461136818,0.029932374134659767,0.03375028073787689
1772725540281878800,3.541878662109375,-0.016798781231045723,0.02260199747979641,0.03802633285522461
1772725540291395600,3.5513955078125,-0.01435532234609127,0.018325943499803543,0.036804601550102234
1772725540300912400,3.560912353515625,-0.007635809946805239,0.011606430634856224,0.028863361105322838
1772725540310429200,3.57042919921875,-0.003359756199643016,0.003665188793092966,0.01847865991294384
1772725540319946000,3.579946044921875,-0.003359756199643016,-0.008552107028663158,0.009926552884280682
1772725540329462800,3.589462890625,-0.005192350596189499,-0.023212861269712448,0.008093958720564842
1772725540338979600,3.5989794921875,-0.008246674202382565,-0.02871064469218254,0.008704823441803455
1772725540348496400,3.608496337890625,-0.012522728182375431,-0.030543239787220955,0.010537417605519295
1772725540358013200,3.61801318359375,-0.016187917441129684,-0.02871064469218254,0.012370011769235134
1772725540367530000,3.627530029296875,-0.013133592903614044,-0.014660755172371864,0.010537417605519295
1772725540377046800,3.637046875,-0.007635809946805239,0.008552107028663158,0.007483093533664942
1772725540386563600,3.6465634765625,-0.007024944759905338,0.02260199747979641,0.012370011769235134
1772725540396080400,3.656080322265625,-0.010690134018659592,0.023823726922273636,0.020311253145337105
1772725540405597200,3.66559716796875,-0.01435532234609127,0.014049889519810677,0.01908952370285988
1772725540415114000,3.675114013671875,-0.018631376326084137,0.002443459117785096,0.008704823441803455
1772725540424630800,3.684630859375,-0.02107483521103859,-0.009162971749901772,-0.004734201822429895
1772725540434147600,3.694147705078125,-0.022296564653515816,-0.017715077847242355,-0.017562363296747208
1772725540443664400,3.703664306640625,-0.023518294095993042,-0.01588248461484909,-0.02611446939408779
1772725540453181400,3.713181396484375,-0.021685699000954628,-0.006719512399286032,-0.02000582218170166
1772725540462698000,3.722697998046875,-0.021685699000954628,0.004276053514331579,-0.002290742937475443
1772725540472214800,3.73221484375,-0.018631376326084137,0.012217295356094837,0.012980876490473747
1772725540481731800,3.74173193359375,-0.013133592903614044,0.008552107028663158,0.020922118797898293
1772725540491248400,3.751248291015625,-0.007024944759905338,-0.004886918235570192,0.02153298258781433
1772725540500765200,3.76076513671875,-0.004581485874950886,-0.018325943499803543,0.017256930470466614
1772725540510282000,3.770281982421875,-0.006414080038666725,-0.028099779039621353,0.01359174121171236
1772725540519799000,3.779799072265625,-0.007635809946805239,-0.02626718580722809,0.014813470654189587
1772725540529315600,3.789315673828125,-0.007635809946805239,-0.01282816007733345,0.02214384824037552
1772725540538832400,3.798832275390625,-0.007024944759905338,0.009162971749901772,0.028863361105322838
1772725540548349400,3.808349365234375,-0.00946840364485979,0.025045456364750862,0.03252854943275452
1772725540557866200,3.8178662109375,-0.012522728182375431,0.02871064469218254,0.03252854943275452
1772725540567382800,3.8273828125,-0.012522728182375431,0.024434590712189674,0.030085090547800064
1772725540576899800,3.83689990234375,-0.00946840364485979,0.013439024798572063,0.027030766010284424
1772725540586416600,3.846416748046875,-0.005192350596189499,0.009162971749901772,0.01847865991294384
1772725540595933200,3.85593310546875,-0.0027488914784044027,0.009773836471140385,0.004428769461810589
1772725540605450200,3.8654501953125,-0.0015271619195118546,0.012217295356094837,-0.009010255336761475
1772725540614967000,3.874967041015625,-0.0009162971982732415,0.017715077847242355,-0.015729768201708794
1772725540624483800,3.88448388671875,-0.0021380267571657896,0.020158538594841957,-0.012675444595515728
1772725540634000600,3.894000732421875,-0.007635809946805239,0.015271619893610477,-0.003512472379952669
1772725540643517400,3.903517333984375,-0.005192350596189499,0.004276053514331579,0.005650499369949102
1772725540653034200,3.9130341796875,0.0015271619195118546,0.001832594396546483,0.011759147047996521
1772725540662550800,3.92255078125,0.010690134018659592,0.004886918235570192,0.009926552884280682
1772725540672067800,3.93206787109375,0.013133592903614044,0.006719512399286032,0.0019853105768561363
1772725540681584600,3.941584716796875,0.011300998739898205,0.0030543238390237093,-0.0102319847792387
1772725540691101400,3.951101318359375,0.006414080038666725,-0.002443459117785096,-0.021227551624178886
1772725540700618200,3.9606181640625,-0.0021380267571657896,-0.0030543238390237093,-0.030390523374080658
1772725540710135000,3.970135009765625,-0.005192350596189499,0.000610864779446274,-0.028557928279042244
1772725540719651800,3.97965185546875,-0.0027488914784044027,0.010384701192378998,-0.01695149764418602
1772725540729168600,3.989168701171875,0.0009162971982732415,0.017104214057326317,0.0025961752980947495
1772725540738685400,3.998685546875,0.0015271619195118546,0.024434590712189674,0.02214384824037552
1772725540748202200,4.0082021484375,0.0015271619195118546,0.023823726922273636,0.03741546720266342
1772725540757719000,4.017718994140625,0.0015271619195118546,0.01588248461484909,0.04474584385752678
1772725540767235800,4.02723583984375,0.0021380267571657896,-0.000610864779446274,0.042913250625133514
1772725540776752600,4.036752685546875,0.0021380267571657896,-0.01282816007733345,0.03741546720266342
1772725540786269400,4.04626953125,0.003359756199643016,-0.012217295356094837,0.029474224895238876
1772725540795786200,4.0557861328125,0.005192350596189499,0.001221729558892548,0.02214384824037552
1772725540805303000,4.065302978515625,0.008246674202382565,0.014660755172371864,0.01908952370285988
1772725540814819800,4.07481982421875,0.010079269297420979,0.017104214057326317,0.023976443335413933
1772725540824336600,4.084336669921875,0.007024944759905338,0.01282816007733345,0.02519817277789116
1772725540833853400,4.093853515625,0.004581485874950886,0.000610864779446274,0.01908952370285988
1772725540843370200,4.103370361328125,0.005192350596189499,-0.010995565913617611,0.009926552884280682
1772725540852887000,4.112886962890625,0.003970621153712273,-0.014660755172371864,-0.0010690133785828948
1772725540862403800,4.12240380859375,0.0027488914784044027,-0.0054977829568088055,-0.006566796451807022
1772725540871920600,4.131920654296875,0.000305432389723137,0.010384701192378998,-0.005955931730568409
1772725540881437400,4.1414375,0.0009162971982732415,0.0256563201546669,0.004428769461810589
1772725540890954200,4.150954345703125,0.003970621153712273,0.04214967042207718,0.019700389355421066
1772725540900471000,4.160470947265625,0.008246674202382565,0.04764745384454727,0.03558287397027016
1772725540909987800,4.16998779296875,0.011911863461136818,0.037262752652168274,0.04535670951008797
1772725540919504600,4.179504638671875,0.010690134018659592,0.012217295356094837,0.04169152304530144
1772725540929021400,4.189021484375,0.006414080038666725,-0.01893680728971958,0.023976443335413933
1772725540938538200,4.198538330078125,0.0009162971982732415,-0.03909534588456154,-0.002901607658714056
1772725540948055000,4.208054931640625,0.000305432389723137,-0.040317077189683914,-0.02916879393160343
1772725540957571800,4.21757177734375,0.0009162971982732415,-0.026878049597144127,-0.04321868345141411
1772725540967088600,4.227088623046875,0.004581485874950886,-0.004276053514331579,-0.040775224566459656
1772725540976605400,4.23660546875,0.006414080038666725,0.0256563201546669,-0.024892739951610565
1772725540986122200,4.246122314453125,0.005192350596189499,0.05436696484684944,-0.003512472379952669
1772725540995639000,4.25563916015625,0.005192350596189499,0.06841685622930527,0.01908952370285988
1772725541005155800,4.26515576171875,0.008246674202382565,0.06108647957444191,0.03252854943275452
1772725541014672600,4.274672607421875,0.013133592903614044,0.03481929376721382,0.03436114266514778
1772725541024189400,4.284189453125,0.015577051788568497,-0.001832594396546483,0.025809036567807198
1772725541033706200,4.293706298828125,0.015577051788568497,-0.03237583488225937,0.016646064817905426
1772725541043223000,4.30322314453125,0.012522728182375431,-0.04764745384454727,0.01359174121171236
1772725541052739800,4.31273974609375,0.00946840364485979,-0.04459312930703163,0.016646064817905426
1772725541062256600,4.322256591796875,0.008246674202382565,-0.02260199747979641,0.02153298258781433
1772725541071773400,4.3317734375,0.008857538923621178,0.006108647678047419,0.026419902220368385
1772725541081290200,4.341290283203125,0.008857538923621178,0.0256563201546669,0.036193739622831345
1772725541090807000,4.35080712890625,0.003970621153712273,0.029932374134659767,0.04230238497257233
1772725541100323800,4.36032373046875,-0.005192350596189499,0.021991131827235222,0.039858926087617874
1772725541109840600,4.369840576171875,-0.016187917441129684,0.004276053514331579,0.030695954337716103
1772725541119357700,4.379357666015625,-0.02107483521103859,-0.01282816007733345,0.016646064817905426
1772725541128874200,4.388874267578125,-0.023518294095993042,-0.021991131827235222,-0.0010690133785828948
1772725541138391000,4.39839111328125,-0.019853105768561363,-0.021991131827235222,-0.013286309316754341
1772725541147908000,4.407908203125,-0.013133592903614044,-0.013439024798572063,-0.0206166859716177
1772725541157424600,4.417424560546875,-0.005803215317428112,0.001832594396546483,-0.02367101050913334
1772725541166941400,4.42694140625,-0.0009162971982732415,0.01893680728971958,-0.022449281066656113
1772725541176458500,4.43645849609375,0.0015271619195118546,0.02626718580722809,-0.02000582218170166
1772725541185975300,4.445975341796875,0.000305432389723137,0.01893680728971958,-0.016340631991624832
1772725541195491800,4.455491943359375,-0.0027488914784044027,0.000610864779446274,-0.015729768201708794
1772725541205009000,4.4650087890625,-0.004581485874950886,-0.011606430634856224,-0.01511890348047018
1772725541214525700,4.474525634765625,-0.004581485874950886,-0.017104214057326317,-0.012675444595515728
1772725541224042200,4.484042236328125,-0.004581485874950886,-0.01282816007733345,-0.007177661173045635
1772725541233559300,4.493559326171875,-0.004581485874950886,-0.011606430634856224,-0.00045814859913662076
1772725541243076000,4.503076171875,-0.0021380267571657896,-0.010384701192378998,0.006872228812426329
1772725541252593000,4.512593017578125,-0.0009162971982732415,-0.009162971749901772,0.011148282326757908
1772725541262109400,4.522109375,-0.0009162971982732415,-0.006719512399286032,0.010537417605519295
1772725541271626500,4.53162646484375,-0.000305432389723137,-0.004886918235570192,0.009926552884280682
1772725541281143300,4.541143310546875,-0.0015271619195118546,-0.004886918235570192,0.011148282326757908
1772725541290660000,4.55066015625,-0.004581485874950886,-0.010995565913617611,0.011759147047996521
1772725541300177000,4.560177001953125,-0.00946840364485979,-0.01954767294228077,0.0062613640911877155
1772725541309693700,4.569693603515625,-0.01435532234609127,-0.02871064469218254,-0.002290742937475443
1772725541319210500,4.57921044921875,-0.018631376326084137,-0.029932374134659767,-0.009621120058000088
1772725541328727300,4.588727294921875,-0.01740964688360691,-0.020158538594841957,-0.014508038759231567
1772725541338244000,4.598244140625,-0.016187917441129684,-0.010995565913617611,-0.008399390615522861
1772725541347761000,4.607760986328125,-0.011911863461136818,-0.006108647678047419,0.0032070400193333626
1772725541357277700,4.617277587890625,-0.00946840364485979,0.0030543238390237093,0.012980876490473747
1772725541366794500,4.62679443359375,-0.005803215317428112,0.017715077847242355,0.012980876490473747
1772725541376311300,4.636311279296875,-0.005192350596189499,0.0256563201546669,0.008093958720564842
1772725541385828000,4.645828125,-0.007635809946805239,0.020158538594841957,-0.004123337101191282
1772725541395345000,4.655344970703125,-0.008246674202382565,0.004276053514331579,-0.017562363296747208
1772725541404861700,4.66486181640625,-0.007635809946805239,-0.014660755172371864,-0.027947064489126205
1772725541414378500,4.67437841796875,-0.004581485874950886,-0.02932151034474373,-0.03588830679655075
1772725541423895300,4.683895263671875,-0.0015271619195118546,-0.03176496922969818,-0.02916879393160343
1772725541433412000,4.693412109375,0.0015271619195118546,-0.021380268037319183,-0.008399390615522861
1772725541442929000,4.702928955078125,0.005803215317428112,-0.001221729558892548,0.014202605932950974
1772725541452445700,4.71244580078125,0.008857538923621178,0.017715077847242355,0.03252854943275452
1772725541461962500,4.72196240234375,0.012522728182375431,0.023823726922273636,0.04108065739274025
1772725541471479300,4.731479248046875,0.01802051067352295,0.01954767294228077,0.04046979174017906
1772725541480996000,4.74099609375,0.021685699000954628,0.009773836471140385,0.030085090547800064
1772725541490513000,4.750512939453125,0.022907428443431854,-0.002443459117785096,0.016035201027989388
1772725541500029700,4.76002978515625,0.021685699000954628,-0.01282816007733345,0.0007635809597559273
1772725541509546500,4.76954638671875,0.021685699000954628,-0.01893680728971958,-0.008399390615522861
1772725541519063300,4.779063232421875,0.02107483521103859,-0.023212861269712448,-0.010842849500477314
1772725541528580000,4.788580078125,0.019242240116000175,-0.017715077847242355,-0.009010255336761475
1772725541538097000,4.798096923828125,0.013744457624852657,-0.006108647678047419,-0.005345067009329796
1772725541547613700,4.80761376953125,0.008857538923621178,0.006719512399286032,-0.0010690133785828948
1772725541557130500,4.817130615234375,0.006414080038666725,0.014049889519810677,0.0025961752980947495
1772725541566647300,4.826647216796875,0.006414080038666725,0.010995565913617611,0.005650499369949102
1772725541576164000,4.8361640625,0.007024944759905338,0.007330377586185932,0.0032070400193333626
1772725541585681000,4.845680908203125,0.005803215317428112,0.0054977829568088055,-0.004734201822429895
1772725541595197700,4.85519775390625,0.0027488914784044027,0.001221729558892548,-0.01206457894295454
1772725541604714500,4.864714599609375,-0.000305432389723137,-0.003665188793092966,-0.0206166859716177
1772725541614231300,4.874231201171875,-0.0021380267571657896,-0.007941242307424545,-0.02672533318400383
1772725541623748000,4.883748046875,-0.000305432389723137,-0.010995565913617611,-0.025503603741526604
1772725541633265000,4.893264892578125,-0.000305432389723137,-0.009162971749901772,-0.02306014485657215
1772725541642781700,4.90278173828125,-0.0015271619195118546,-0.007941242307424545,-0.019394956529140472
1772725541652298500,4.912298583984375,-0.003359756199643016,-0.004886918235570192,-0.019394956529140472
1772725541661815300,4.921815185546875,-0.003359756199643016,0,-0.017562363296747208
1772725541671332000,4.93133203125,-0.003970621153712273,0.0030543238390237093,-0.013286309316754341
1772725541680849200,4.94084912109375,-0.0027488914784044027,0.004886918235570192,-0.006566796451807022
1772725541690365700,4.95036572265625,0.0015271619195118546,0.000610864779446274,-0.00045814859913662076
1772725541699882500,4.959882568359375,0.007635809946805239,-0.007941242307424545,0.0025961752980947495
1772725541709399600,4.969399658203125,0.00946840364485979,-0.014049889519810677,0.0019853105768561363
1772725541718916000,4.978916015625,0.00946840364485979,-0.015271619893610477,0.005039634648710489
1772725541728433000,4.988432861328125,0.007024944759905338,-0.010995565913617611,0.011148282326757908
1772725541737950000,4.997949951171875,0.003359756199643016,-0.006719512399286032,0.016035201027989388
1772725541747466800,5.007466796875,0.0015271619195118546,0,0.017867794260382652
1772725541756983300,5.0169833984375,0.003970621153712273,0.010384701192378998,0.014813470654189587
1772725541766500400,5.026500244140625,0.006414080038666725,0.007330377586185932,0.012370011769235134
1772725541776017200,5.03601708984375,0.006414080038666725,0.001221729558892548,0.0062613640911877155
1772725541785533700,5.04553369140625,0.005803215317428112,-0.006108647678047419,-0.00045814859913662076
1772725541795050800,5.05505078125,0.008246674202382565,-0.009162971749901772,-0.008399390615522861
1772725541804567600,5.064567626953125,0.008246674202382565,-0.007941242307424545,-0.015729768201708794
1772725541814084400,5.07408447265625,0.007024944759905338,-0.009162971749901772,-0.018784092739224434
1772725541823601200,5.08360107421875,0.007024944759905338,-0.012217295356094837,-0.01695149764418602
1772725541833118000,5.093117919921875,0.007635809946805239,-0.014660755172371864,-0.015729768201708794
1772725541842634800,5.102634765625,0.008857538923621178,-0.014049889519810677,-0.016340631991624832
1772725541852151600,5.112151611328125,0.005803215317428112,-0.01282816007733345,-0.018784092739224434
1772725541861668400,5.12166845703125,0.005192350596189499,-0.01588248461484909,-0.019394956529140472
1772725541871185200,5.13118505859375,0.005192350596189499,-0.01649334840476513,-0.0206166859716177
1772725541880702000,5.140701904296875,0.003970621153712273,-0.010384701192378998,-0.0206166859716177
1772725541890218800,5.15021875,0.0027488914784044027,-0.007330377586185932,-0.018784092739224434
1772725541899735600,5.159735595703125,0.0021380267571657896,-0.010384701192378998,-0.014508038759231567
1772725541909252400,5.16925244140625,0.0027488914784044027,-0.013439024798572063,-0.0102319847792387
1772725541918769200,5.17876904296875,0.000305432389723137,-0.01282816007733345,-0.007788525894284248
1772725541928286000,5.188285888671875,-0.004581485874950886,-0.01588248461484909,-0.005955931730568409
1772725541937802800,5.197802734375,-0.010079269297420979,-0.017104214057326317,-0.004734201822429895
1772725541947319600,5.207319580078125,-0.016798781231045723,-0.017715077847242355,-0.009010255336761475
1772725541956836400,5.21683642578125,-0.015577051788568497,-0.008552107028663158,-0.01206457894295454
1772725541966353200,5.226353271484375,-0.011300998739898205,-0.003665188793092966,-0.009010255336761475
1772725541975870000,5.235869873046875,-0.00946840364485979,-0.001832594396546483,-0.004734201822429895
1772725541985386800,5.24538671875,-0.007635809946805239,0.006108647678047419,-0.004734201822429895
1772725541994903600,5.254903564453125,-0.008246674202382565,0.008552107028663158,-0.002290742937475443
1772725542004420400,5.26442041015625,-0.012522728182375431,0,0.0013744457392022014
1772725542013937200,5.273937255859375,-0.01740964688360691,-0.0030543238390237093,0.005039634648710489
1772725542023454000,5.283453857421875,-0.016798781231045723,0.001832594396546483,0.005039634648710489
1772725542032970800,5.292970703125,-0.012522728182375431,0.004276053514331579,0.0025961752980947495
1772725542042487600,5.302487548828125,-0.003359756199643016,0.007330377586185932,0.0025961752980947495
1772725542052004400,5.31200439453125,0.003359756199643016,0.003665188793092966,0.0025961752980947495
1772725542061521200,5.321521240234375,0.0015271619195118546,-0.007941242307424545,-0.0010690133785828948
1772725542071038000,5.331037841796875,-0.003970621153712273,-0.017715077847242355,-0.013286309316754341
1772725542080554800,5.3405546875,-0.011300998739898205,-0.01954767294228077,-0.030390523374080658
1772725542090071600,5.350071533203125,-0.016798781231045723,-0.012217295356094837,-0.04321868345141411
1772725542099588400,5.35958837890625,-0.018631376326084137,0.000610864779446274,-0.04932733252644539
1772725542109105400,5.36910546875,-0.013744457624852657,0.010995565913617611,-0.04627300798892975
1772725542118622000,5.3786220703125,-0.00946840364485979,0.017104214057326317,-0.037720900028944016
1772725542128138800,5.388138671875,-0.007024944759905338,0.012217295356094837,-0.02306014485657215
1772725542137655800,5.39765576171875,-0.0021380267571657896,0.004886918235570192,-0.0102319847792387
1772725542147172400,5.40717236328125,0.0021380267571657896,-0.0054977829568088055,-0.002901607658714056
1772725542156689200,5.416689208984375,0.005192350596189499,-0.014660755172371864,-0.004734201822429895
1772725542166206200,5.426206298828125,0.010079269297420979,-0.02626718580722809,-0.009010255336761475
1772725542175723000,5.435722900390625,0.012522728182375431,-0.03909534588456154,-0.008399390615522861
1772725542185239600,5.445239501953125,0.013133592903614044,-0.04276053607463837,-0.004123337101191282
1772725542194756400,5.45475634765625,0.014966187067329884,-0.03787361457943916,0.0032070400193333626
1772725542204273400,5.4642734375,0.013133592903614044,-0.023823726922273636,0.008093958720564842
1772725542213790000,5.4737900390625,0.013133592903614044,-0.004886918235570192,0.010537417605519295
1772725542223307000,5.48330712890625,0.013744457624852657,0.012217295356094837,0.012370011769235134
1772725542232823800,5.49282373046875,0.011911863461136818,0.017715077847242355,0.014813470654189587
1772725542242340600,5.502340576171875,0.008246674202382565,0.01588248461484909,0.01359174121171236
1772725542251857400,5.511857421875,0.003359756199643016,0.014660755172371864,0.008093958720564842
1772725542261374200,5.521374267578125,0.0021380267571657896,0.013439024798572063,-0.00045814859913662076
1772725542270891000,5.53089111328125,0.0015271619195118546,0.013439024798572063,-0.008399390615522861
1772725542280407800,5.54040771484375,-0.000305432389723137,0.004276053514331579,-0.011453714221715927
1772725542289924600,5.549924560546875,0.0009162971982732415,-0.006108647678047419,-0.011453714221715927
1772725542299441400,5.55944140625,0.005192350596189499,-0.007941242307424545,-0.01206457894295454
1772725542308958200,5.568958251953125,0.007635809946805239,-0.003665188793092966,-0.014508038759231567
1772725542318475000,5.57847509765625,0.003970621153712273,0.003665188793092966,-0.024892739951610565
1772725542327991800,5.58799169921875,0.0021380267571657896,0.011606430634856224,-0.03527744114398956
1772725542337508600,5.597508544921875,0.0015271619195118546,0.009773836471140385,-0.037720900028944016
1772725542347025400,5.607025390625,-0.0015271619195118546,-0.0054977829568088055,-0.034666575491428375
1772725542356542200,5.616542236328125,-0.004581485874950886,-0.017715077847242355,-0.03283398225903511
1772725542366059000,5.62605908203125,-0.006414080038666725,-0.014049889519810677,-0.03283398225903511
1772725542375575800,5.635575927734375,-0.0027488914784044027,-0.001221729558892548,-0.027336198836565018
1772725542385092600,5.645092529296875,0.005803215317428112,0.01282816007733345,-0.016340631991624832
1772725542394609400,5.654609375,0.013744457624852657,0.01954767294228077,-0.003512472379952669
1772725542404126200,5.664126220703125,0.01802051067352295,0.013439024798572063,0.0062613640911877155
1772725542413643000,5.67364306640625,0.01740964688360691,0.001832594396546483,0.007483093533664942
1772725542423159800,5.683159912109375,0.014966187067329884,-0.011606430634856224,-0.00045814859913662076
1772725542432676600,5.692676513671875,0.011911863461136818,-0.020769402384757996,-0.007788525894284248
1772725542442193400,5.702193359375,0.00946840364485979,-0.02260199747979641,-0.009621120058000088
1772725542451710200,5.711710205078125,0.007635809946805239,-0.01649334840476513,-0.007177661173045635
1772725542461227000,5.72122705078125,0.008857538923621178,-0.001832594396546483,-0.00045814859913662076
1772725542470743800,5.730743896484375,0.010079269297420979,0.01588248461484909,0.004428769461810589
1772725542480260600,5.740260498046875,0.010079269297420979,0.03176496922969818,0.0038179049734026194
1772725542489777400,5.74977734375,0.008246674202382565,0.040317077189683914,-0.005955931730568409
1772725542499294200,5.759294189453125,0.008857538923621178,0.03787361457943916,-0.02306014485657215
1772725542508811000,5.76881103515625,0.010079269297420979,0.027488915249705315,-0.03649916872382164
1772725542518327800,5.778327880859375,0.013133592903614044,0.014660755172371864,-0.041386090219020844
1772725542527844600,5.7878447265625,0.011911863461136818,0.004886918235570192,-0.03894263133406639
1772725542537361400,5.797361328125,0.012522728182375431,0.001221729558892548,-0.03527744114398956
1772725542546878200,5.806878173828125,0.011911863461136818,0.000610864779446274,-0.02977965772151947
1772725542556395000,5.81639501953125,0.016798781231045723,-0.007330377586185932,-0.021227551624178886
1772725542565912000,5.825912109375,0.02107483521103859,-0.020158538594841957,-0.015729768201708794
1772725542575428600,5.8354287109375,0.025961752980947495,-0.03237583488225937,-0.01206457894295454
1772725542584945400,5.8449453125,0.029626941308379173,-0.03237583488225937,-0.009010255336761475
1772725542594462500,5.85446240234375,0.0308486707508564,-0.017715077847242355,-0.004734201822429895
1772725542603979300,5.863979248046875,0.02779434807598591,-0.0054977829568088055,0.0032070400193333626
1772725542613495800,5.873495849609375,0.02107483521103859,0.0054977829568088055,0.011759147047996521
1772725542623012900,5.883012939453125,0.01435532234609127,0.014660755172371864,0.012980876490473747
1772725542632529700,5.89252978515625,0.008246674202382565,0.017104214057326317,0.008704823441803455
1772725542642046200,5.902046142578125,0.005803215317428112,0.008552107028663158,0.0001527161948615685
1772725542651563300,5.911563232421875,0.007024944759905338,-0.0030543238390237093,-0.010842849500477314
1772725542661080000,5.921080078125,0.007024944759905338,-0.01282816007733345,-0.021838415414094925
1772725542670596900,5.930596923828125,0.003359756199643016,-0.01282816007733345,-0.02611446939408779
1772725542680113700,5.94011376953125,-0.0009162971982732415,0.000610864779446274,-0.0206166859716177
1772725542689630500,5.94963037109375,-0.004581485874950886,0.01649334840476513,-0.007177661173045635
1772725542699147300,5.959147216796875,-0.007635809946805239,0.02260199747979641,0.004428769461810589
1772725542708664000,5.9686640625,-0.00946840364485979,0.01893680728971958,0.012980876490473747
1772725542718180900,5.978180908203125,-0.010079269297420979,0.0054977829568088055,0.017867794260382652
1772725542727697700,5.98769775390625,-0.015577051788568497,-0.009162971749901772,0.0154243353754282
1772725542737214500,5.99721435546875,-0.021685699000954628,-0.018325943499803543,0.008093958720564842
1772725542746731300,6.006731201171875,-0.022907428443431854,-0.01588248461484909,-0.00045814859913662076
1772725542756248000,6.016248046875,-0.019242240116000175,0.001221729558892548,-0.007177661173045635
1772725542765764900,6.025764892578125,-0.016798781231045723,0.024434590712189674,-0.009010255336761475
1772725542775281700,6.03528173828125,-0.016187917441129684,0.037262752652168274,-0.007788525894284248
1772725542784798500,6.044798583984375,-0.01740964688360691,0.036651886999607086,-0.007788525894284248
1772725542794315300,6.054315185546875,-0.019853105768561363,0.0256563201546669,-0.01511890348047018
1772725542803832000,6.06383203125,-0.02412915788590908,0.01649334840476513,-0.028557928279042244
1772725542813348900,6.073348876953125,-0.02412915788590908,0.01282816007733345,-0.044440411031246185
1772725542822865700,6.08286572265625,-0.01802051067352295,0.01282816007733345,-0.05238165333867073
1772725542832382500,6.092382568359375,-0.007635809946805239,0.004886918235570192,-0.04993819445371628
1772725542841899300,6.101899169921875,0.0027488914784044027,-0.009162971749901772,-0.03711003437638283
1772725542851416000,6.111416015625,0.005803215317428112,-0.025045456364750862,-0.0206166859716177
1772725542860932900,6.120932861328125,0.0021380267571657896,-0.03176496922969818,-0.009621120058000088
1772725542870449700,6.13044970703125,-0.0009162971982732415,-0.02626718580722809,-0.00045814859913662076
1772725542879966500,6.139966552734375,-0.0015271619195118546,-0.01588248461484909,0.008093958720564842
1772725542889483300,6.149483154296875,0.0015271619195118546,-0.006719512399286032,0.016646064817905426
1772725542899000000,6.159,0.008246674202382565,-0.002443459117785096,0.025809036567807198
1772725542908516900,6.168516845703125,0.01435532234609127,0.006108647678047419,0.030695954337716103
1772725542918033700,6.17803369140625,0.014966187067329884,0.009773836471140385,0.03375028073787689
1772725542927550700,6.18755078125,0.00946840364485979,0.008552107028663158,0.03191768378019333
1772725542937067300,6.1970673828125,0.0009162971982732415,0.0054977829568088055,0.02519817277789116
1772725542946584000,6.206583984375,-0.003359756199643016,0.003665188793092966,0.016646064817905426
1772725542956101000,6.21610107421875,-0.003970621153712273,0.007941242307424545,0.008704823441803455
1772725542965617700,6.22561767578125,-0.003359756199643016,0.009773836471140385,0.0062613640911877155
1772725542975134500,6.235134521484375,-0.0027488914784044027,0.006719512399286032,0.011759147047996521
1772725542984651500,6.244651611328125,-0.0009162971982732415,0.003665188793092966,0.016035201027989388
1772725542994168300,6.254168212890625,-0.0015271619195118546,0.001832594396546483,0.017867794260382652
1772725543003684900,6.263684814453125,-0.003970621153712273,-0.001832594396546483,0.01359174121171236
1772725543013202000,6.273201904296875,-0.007024944759905338,-0.004276053514331579,0.0038179049734026194
1772725543022718700,6.28271875,-0.011300998739898205,-0.002443459117785096,-0.005955931730568409
1772725543032235300,6.2922353515625,-0.015577051788568497,-0.001221729558892548,-0.010842849500477314
1772725543041752300,6.30175244140625,-0.019242240116000175,-0.001832594396546483,-0.014508038759231567
1772725543051269000,6.31126904296875,-0.023518294095993042,0.006108647678047419,-0.016340631991624832
1772725543060786000,6.320785888671875,-0.026572618633508682,0.021991131827235222,-0.013286309316754341
1772725543070302700,6.330302734375,-0.02779434807598591,0.03481929376721382,-0.006566796451807022
1772725543079819500,6.339819580078125,-0.0308486707508564,0.0409279391169548,-0.002290742937475443
1772725543089336300,6.34933642578125,-0.0308486707508564,0.031154103577136993,0.0019853105768561363
1772725543098853000,6.35885302734375,-0.025961752980947495,0.015271619893610477,0.0013744457392022014
1772725543108370000,6.368369873046875,-0.01802051067352295,0.000610864779446274,-0.005345067009329796
1772725543117886700,6.37788671875,-0.011300998739898205,-0.007941242307424545,-0.009010255336761475
1772725543127403500,6.387403564453125,-0.010079269297420979,-0.014660755172371864,-0.003512472379952669
1772725543136920300,6.39692041015625,-0.008246674202382565,-0.008552107028663158,0.0062613640911877155
1772725543146437000,6.40643701171875,-0.003359756199643016,-0.000610864779446274,0.014202605932950974
1772725543155954000,6.415953857421875,-0.0009162971982732415,0.002443459117785096,0.017867794260382652
1772725543165470700,6.425470703125,-0.0015271619195118546,0,0.012980876490473747
1772725543174987500,6.434987548828125,-0.007024944759905338,-0.004276053514331579,0.006872228812426329
1772725543184504300,6.44450439453125,-0.00946840364485979,-0.006108647678047419,0.0007635809597559273
1772725543194021000,6.454021240234375,-0.008246674202382565,-0.001832594396546483,-0.002901607658714056
1772725543203538000,6.463537841796875,0.000305432389723137,0.001221729558892548,-0.003512472379952669
1772725543213054700,6.4730546875,0.007635809946805239,0.001221729558892548,0.0025961752980947495
1772725543222571500,6.482571533203125,0.010690134018659592,0.001832594396546483,0.005039634648710489
1772725543232088300,6.49208837890625,0.008246674202382565,0.002443459117785096,0.0013744457392022014
1772725543241605000,6.501605224609375,0.003970621153712273,0.002443459117785096,-0.005955931730568409
1772725543251122000,6.511121826171875,0.0021380267571657896,0.006719512399286032,-0.015729768201708794
1772725543260638700,6.520638671875,0.0015271619195118546,0.010995565913617611,-0.021227551624178886
1772725543270155500,6.530155517578125,0.003970621153712273,0.012217295356094837,-0.021227551624178886
1772725543279672300,6.53967236328125,0.008857538923621178,0.008552107028663158,-0.017562363296747208
1772725543289189000,6.549189208984375,0.011300998739898205,0.009162971749901772,-0.01511890348047018
1772725543298706000,6.558705810546875,0.013744457624852657,0.010384701192378998,-0.015729768201708794
1772725543308222700,6.56822265625,0.010690134018659592,0.014660755172371864,-0.017562363296747208
1772725543317739800,6.57773974609375,0.007024944759905338,0.01588248461484909,-0.018173227086663246
1772725543327256300,6.58725634765625,0.004581485874950886,0.009773836471140385,-0.01695149764418602
1772725543336773400,6.5967734375,0.003970621153712273,-0.003665188793092966,-0.017562363296747208
1772725543346290200,6.606290283203125,0.007024944759905338,-0.01893680728971958,-0.017562363296747208
1772725543355806700,6.615806640625,-0.000305432389723137,-0.01893680728971958,-0.017562363296747208
1772725543365323800,6.62532373046875,-0.005803215317428112,-0.010995565913617611,-0.01695149764418602
1772725543374840600,6.634840576171875,-0.010079269297420979,0.002443459117785096,-0.008399390615522861
1772725543384357400,6.644357421875,-0.014966187067329884,0.012217295356094837,0.0025961752980947495
1772725543393874200,6.653874267578125,-0.019242240116000175,0.012217295356094837,0.009315688163042068
1772725543403391000,6.663390869140625,-0.0204639695584774,0.0030543238390237093,0.014202605932950974
1772725543412907800,6.67290771484375,-0.0204639695584774,-0.010384701192378998,0.014202605932950974
1772725543422424600,6.682424560546875,-0.0204639695584774,-0.017104214057326317,0.012980876490473747
1772725543431941400,6.69194140625,-0.0204639695584774,-0.014660755172371864,0.010537417605519295
1772725543441458200,6.701458251953125,-0.019853105768561363,-0.004276053514331579,0.008093958720564842
1772725543450975000,6.71097509765625,-0.019242240116000175,0.0030543238390237093,0.009315688163042068
1772725543460491800,6.72049169921875,-0.01802051067352295,0.008552107028663158,0.010537417605519295
1772725543470008600,6.730008544921875,-0.016798781231045723,0.010995565913617611,0.006872228812426329
1772725543479525400,6.739525390625,-0.015577051788568497,0.01588248461484909,0.0019853105768561363
1772725543489042200,6.749042236328125,-0.013133592903614044,0.024434590712189674,-0.002290742937475443
1772725543498559000,6.75855908203125,-0.011300998739898205,0.03176496922969818,-0.007788525894284248
1772725543508075800,6.76807568359375,-0.010079269297420979,0.036651886999607086,-0.01511890348047018
1772725543517592600,6.777592529296875,-0.00946840364485979,0.029932374134659767,-0.02672533318400383
1772725543527109400,6.787109375,-0.007635809946805239,0.01282816007733345,-0.04321868345141411
1772725543536626200,6.796626220703125,-0.005803215317428112,-0.007941242307424545,-0.05849030241370201
1772725543546143000,6.80614306640625,-0.0027488914784044027,-0.023212861269712448,-0.06643154472112656
1772725543555659800,6.81565966796875,0.0009162971982732415,-0.027488915249705315,-0.0639880821108818
1772725543565176600,6.825176513671875,0.008857538923621178,-0.021991131827235222,-0.04627300798892975
1772725543574693400,6.834693359375,0.013133592903614044,-0.01282816007733345,-0.019394956529140472
1772725543584210200,6.844210205078125,0.016187917441129684,0.001221729558892548,0.005039634648710489
1772725543593727000,6.85372705078125,0.016798781231045723,0.01282816007733345,0.0154243353754282
1772725543603243800,6.863243896484375,0.013133592903614044,0.014660755172371864,0.014202605932950974
1772725543612760600,6.872760498046875,0.007024944759905338,0.0030543238390237093,0.0038179049734026194
1772725543622277400,6.88227734375,0.005192350596189499,-0.012217295356094837,-0.010842849500477314
1772725543631794200,6.891794189453125,0.008246674202382565,-0.023212861269712448,-0.019394956529140472
1772725543641311000,6.90131103515625,0.007024944759905338,-0.027488915249705315,-0.016340631991624832
1772725543650827800,6.910827880859375,0.0021380267571657896,-0.025045456364750862,-0.004734201822429895
1772725543660344600,6.920344482421875,0.000305432389723137,-0.017715077847242355,0.011759147047996521
1772725543669861600,6.929861572265625,-0.0009162971982732415,-0.009162971749901772,0.03191768378019333
1772725543679378200,6.939378173828125,-0.006414080038666725,-0.009162971749901772,0.045967575162649155
1772725543688895200,6.948895263671875,-0.012522728182375431,-0.012217295356094837,0.045967575162649155
1772725543698412000,6.958412109375,-0.01740964688360691,-0.013439024798572063,0.03558287397027016
1772725543707928800,6.9679287109375,-0.015577051788568497,-0.010995565913617611,0.023976443335413933
1772725543717445600,6.977445556640625,-0.010690134018659592,-0.004276053514331579,0.016646064817905426
1772725543726962400,6.98696240234375,-0.008246674202382565,0.000610864779446274,0.017867794260382652
1772725543736479200,6.996479248046875,-0.007635809946805239,0.007330377586185932,0.02153298258781433
1772725543745996000,7.00599609375,-0.007024944759905338,0.013439024798572063,0.01908952370285988
1772725543755512800,7.015512939453125,-0.003359756199643016,0.010384701192378998,0.007483093533664942
1772725543765029600,7.025029541015625,0.0009162971982732415,0.001221729558892548,-0.01206457894295454
1772725543774546400,7.03454638671875,0.0021380267571657896,-0.009162971749901772,-0.03283398225903511
1772725543784063200,7.044063232421875,-0.0009162971982732415,-0.017104214057326317,-0.044440411031246185
1772725543793580000,7.053580078125,-0.0009162971982732415,-0.018325943499803543,-0.04566214233636856
1772725543803096800,7.063096923828125,0.0021380267571657896,-0.006719512399286032,-0.034666575491428375
1772725543812613600,7.072613525390625,0.004581485874950886,0.0054977829568088055,-0.017562363296747208
1772725543822130400,7.08213037109375,0.004581485874950886,0.010995565913617611,-0.0010690133785828948
1772725543831647200,7.091647216796875,0.005803215317428112,0.011606430634856224,0.009315688163042068
1772725543841164000,7.1011640625,0.007635809946805239,0.010995565913617611,0.009315688163042068
1772725543850680800,7.110680908203125,0.011300998739898205,0.001832594396546483,0.0038179049734026194
1772725543860197600,7.12019775390625,0.015577051788568497,-0.010384701192378998,-0.003512472379952669
1772725543869714400,7.12971435546875,0.01740964688360691,-0.018325943499803543,-0.006566796451807022
1772725543879231200,7.139231201171875,0.016187917441129684,-0.01954767294228077,0.0019853105768561363
1772725543888748000,7.148748046875,0.013744457624852657,-0.014660755172371864,0.016646064817905426
1772725543898264800,7.158264892578125,0.011300998739898205,-0.009162971749901772,0.026419902220368385
1772725543907781600,7.16778173828125,0.007635809946805239,-0.01282816007733345,0.03191768378019333
1772725543917298400,7.17729833984375,0.005192350596189499,-0.01649334840476513,0.026419902220368385
1772725543926815200,7.186815185546875,0.0021380267571657896,-0.013439024798572063,0.017867794260382652
1772725543936332000,7.19633203125,0.0015271619195118546,-0.011606430634856224,0.012370011769235134
1772725543945848800,7.205848876953125,0.0015271619195118546,-0.007941242307424545,0.010537417605519295
1772725543955365600,7.21536572265625,0.0015271619195118546,-0.006108647678047419,0.012980876490473747
1772725543964882700,7.224882568359375,0.004581485874950886,-0.001221729558892548,0.014813470654189587
1772725543974399200,7.234399169921875,0.003359756199643016,0.0054977829568088055,0.011148282326757908
1772725543983916300,7.243916259765625,-0.0015271619195118546,0.006719512399286032,0.005650499369949102
1772725543993433000,7.25343310546875,-0.006414080038666725,0.007330377586185932,-0.00045814859913662076
1772725544002950000,7.262949951171875,-0.007024944759905338,0.001832594396546483,-0.005345067009329796
1772725544012466700,7.272466796875,-0.003359756199643016,-0.003665188793092966,-0.007788525894284248
1772725544021983500,7.2819833984375,0.0015271619195118546,-0.007941242307424545,-0.009010255336761475
1772725544031500300,7.291500244140625,0.003359756199643016,-0.007330377586185932,-0.009010255336761475
1772725544041017000,7.30101708984375,0.003970621153712273,-0.0030543238390237093,-0.006566796451807022
1772725544050534000,7.310533935546875,0.0021380267571657896,0,-0.005345067009329796
1772725544060050700,7.32005078125,0.000305432389723137,0.001221729558892548,-0.005955931730568409
1772725544069567500,7.3295673828125,0.0015271619195118546,-0.001221729558892548,-0.004123337101191282
1772725544079084300,7.339084228515625,0.004581485874950886,-0.004276053514331579,0.0001527161948615685
1772725544088601000,7.34860107421875,0.007024944759905338,-0.011606430634856224,0.006872228812426329
1772725544098118000,7.358117919921875,0.005803215317428112,-0.011606430634856224,0.011148282326757908
1772725544107634700,7.367634765625,0.0027488914784044027,-0.008552107028663158,0.006872228812426329
1772725544117151500,7.3771513671875,-0.0009162971982732415,-0.007941242307424545,-0.0010690133785828948
1772725544126668300,7.386668212890625,-0.0027488914784044027,-0.009162971749901772,-0.007177661173045635
1772725544136185000,7.39618505859375,0.000305432389723137,-0.0030543238390237093,-0.008399390615522861
1772725544145702000,7.405701904296875,0.007024944759905338,0.011606430634856224,-0.007788525894284248
1772725544155218700,7.41521875,0.016187917441129684,0.03237583488225937,-0.004123337101191282
1772725544164735500,7.424735595703125,0.018631376326084137,0.05192350596189499,0.0001527161948615685
1772725544174252300,7.434252197265625,0.01435532234609127,0.059864748269319534,0.005039634648710489
1772725544183769000,7.44376904296875,0.005803215317428112,0.05253437161445618,0.004428769461810589
1772725544193286000,7.453285888671875,0.0009162971982732415,0.03298669680953026,-0.005345067009329796
1772725544202802700,7.462802734375,0.003970621153712273,-0.001221729558892548,-0.017562363296747208
1772725544212319500,7.472319580078125,0.005803215317428112,-0.0360410213470459,-0.03222311660647392
1772725544221836300,7.481836181640625,0.003359756199643016,-0.04764745384454727,-0.041386090219020844
1772725544231353000,7.49135302734375,0.0015271619195118546,-0.0360410213470459,-0.03527744114398956
1772725544240870000,7.500869873046875,-0.0021380267571657896,-0.009773836471140385,-0.016340631991624832
1772725544250387000,7.510386962890625,-0.007635809946805239,0.01588248461484909,0.004428769461810589
1772725544259903500,7.519903564453125,-0.011911863461136818,0.030543239787220955,0.020922118797898293
1772725544269420300,7.529420166015625,-0.01435532234609127,0.030543239787220955,0.02458730712532997
1772725544278937300,7.538937255859375,-0.016798781231045723,0.01954767294228077,0.01359174121171236
1772725544288454100,7.5484541015625,-0.01740964688360691,-0.001221729558892548,-0.001679878099821508
1772725544297970700,7.557970703125,-0.018631376326084137,-0.023212861269712448,-0.0102319847792387
1772725544307487700,7.56748779296875,-0.0204639695584774,-0.037262752652168274,-0.009010255336761475
1772725544317004500,7.577004638671875,-0.02107483521103859,-0.03848448023200035,-0.0010690133785828948
1772725544326521300,7.586521240234375,-0.016798781231045723,-0.028099779039621353,0.010537417605519295
1772725544336038100,7.5960380859375,-0.008857538923621178,-0.009773836471140385,0.02153298258781433
1772725544345555000,7.605554931640625,-0.003970621153712273,0.004276053514331579,0.029474224895238876
1772725544355071700,7.61507177734375,-0.0015271619195118546,0.014049889519810677,0.028863361105322838
1772725544364588500,7.624588623046875,0.003359756199643016,0.017104214057326317,0.019700389355421066
1772725544374105300,7.634105224609375,0.006414080038666725,0.010384701192378998,0.010537417605519295
1772725544383622100,7.6436220703125,0.006414080038666725,-0.001221729558892548,0.0025961752980947495
1772725544393139000,7.653138916015625,0.007024944759905338,-0.010384701192378998,-0.004734201822429895
1772725544402655700,7.66265576171875,0.004581485874950886,-0.018325943499803543,-0.004123337101191282
1772725544412172500,7.672172607421875,0.0015271619195118546,-0.020769402384757996,-0.0010690133785828948
1772725544421689300,7.681689453125,-0.0015271619195118546,-0.01588248461484909,0.005039634648710489
1772725544431206100,7.6912060546875,-0.003359756199643016,-0.008552107028663158,0.009315688163042068
1772725544440723000,7.700722900390625,-0.000305432389723137,0.001832594396546483,0.009315688163042068
1772725544450239700,7.71023974609375,0.0015271619195118546,0.01282816007733345,0.006872228812426329
1772725544459756500,7.719756591796875,0.005192350596189499,0.018325943499803543,0.008093958720564842
1772725544469273300,7.7292734375,0.00946840364485979,0.020769402384757996,0.009926552884280682
1772725544478790100,7.7387900390625,0.013133592903614044,0.017104214057326317,0.0032070400193333626
1772725544488307000,7.748306884765625,0.012522728182375431,0.004886918235570192,-0.004123337101191282
1772725544497823700,7.75782373046875,0.003970621153712273,-0.008552107028663158,-0.014508038759231567
1772725544507340500,7.767340576171875,-0.0021380267571657896,-0.012217295356094837,-0.02916879393160343
1772725544516857300,7.776857421875,-0.005803215317428112,-0.010384701192378998,-0.040775224566459656
1772725544526374100,7.7863740234375,-0.004581485874950886,-0.0030543238390237093,-0.04566214233636856
1772725544535891000,7.795890869140625,0.0009162971982732415,0.007330377586185932,-0.043829549103975296
1772725544545408000,7.805407958984375,0.004581485874950886,0.015271619893610477,-0.034666575491428375
1772725544554924500,7.814924560546875,0.0009162971982732415,0.017715077847242355,-0.017562363296747208
1772725544564441600,7.824441650390625,-0.0009162971982732415,0.017104214057326317,0.0007635809597559273
1772725544573958400,7.83395849609375,-0.0009162971982732415,0.010995565913617611,0.01359174121171236
1772725544583475200,7.84347509765625,-0.0009162971982732415,-0.001832594396546483,0.02153298258781433
1772725544592992000,7.852991943359375,0.000305432389723137,-0.020769402384757996,0.027030766010284424
1772725544602508800,7.8625087890625,0.005192350596189499,-0.02932151034474373,0.023365577682852745
1772725544612025600,7.872025634765625,0.008857538923621178,-0.031154103577136993,0.020922118797898293
1772725544621542400,7.88154248046875,0.00946840364485979,-0.024434590712189674,0.019700389355421066
1772725544631059200,7.89105908203125,0.008246674202382565,-0.0054977829568088055,0.017867794260382652
1772725544640576000,7.900575927734375,0.007024944759905338,0.018325943499803543,0.01847865991294384
1772725544650092800,7.9100927734375,0.0009162971982732415,0.02932151034474373,0.02458730712532997
1772725544659609600,7.919609619140625,-0.004581485874950886,0.023823726922273636,0.029474224895238876
1772725544669126400,7.92912646484375,-0.007024944759905338,0.017715077847242355,0.01908952370285988
1772725544678643200,7.938643310546875,-0.004581485874950886,0.006108647678047419,0.0001527161948615685
1772725544688160000,7.948159912109375,0.000305432389723137,-0.012217295356094837,-0.01695149764418602
1772725544697676800,7.9576767578125,0.0021380267571657896,-0.026878049597144127,-0.030390523374080658
1772725544707193600,7.967193603515625,0.004581485874950886,-0.029932374134659767,-0.034666575491428375
1772725544716710400,7.97671044921875,0.005803215317428112,-0.02260199747979641,-0.03405570983886719
1772725544726227200,7.986227294921875,0.007635809946805239,-0.004276053514331579,-0.0334448479115963
1772725544735744000,7.995743896484375,0.010690134018659592,0.013439024798572063,-0.025503603741526604
1772725544745260800,8.0052607421875,0.010079269297420979,0.021991131827235222,-0.008399390615522861
1772725544754777600,8.014777587890626,0.006414080038666725,0.01954767294228077,0.008704823441803455
1772725544764294400,8.02429443359375,0.003970621153712273,0.012217295356094837,0.016035201027989388
1772725544773811200,8.033811279296875,0.004581485874950886,0.004886918235570192,0.012980876490473747
1772725544783328000,8.043327880859374,0.007024944759905338,-0.004276053514331579,0.005039634648710489
1772725544792844800,8.0528447265625,0.008246674202382565,-0.01588248461484909,-0.002901607658714056
1772725544802361900,8.06236181640625,0.00946840364485979,-0.024434590712189674,-0.007177661173045635
1772725544811878400,8.07187841796875,0.008857538923621178,-0.02932151034474373,-0.002901607658714056
1772725544821395200,8.081395263671874,0.006414080038666725,-0.023823726922273636,0.006872228812426329
1772725544830912300,8.090912353515625,0.003970621153712273,-0.013439024798572063,0.01847865991294384
1772725544840429000,8.100428955078126,0.004581485874950886,0.001832594396546483,0.023976443335413933
1772725544849945900,8.10994580078125,0.006414080038666725,0.012217295356094837,0.022754713892936707
1772725544859462700,8.119462646484376,0.005803215317428112,0.009773836471140385,0.01908952370285988
1772725544868979500,8.1289794921875,0.005192350596189499,0.0030543238390237093,0.014202605932950974
1772725544878496300,8.138496337890626,0.003970621153712273,-0.010384701192378998,0.0062613640911877155
1772725544888013000,8.148012939453125,0.003970621153712273,-0.01954767294228077,-0.009010255336761475
1772725544897529900,8.15752978515625,0.000305432389723137,-0.01649334840476513,-0.024281874299049377
1772725544907046700,8.167046630859375,-0.0021380267571657896,-0.009773836471140385,-0.02977965772151947
1772725544916563500,8.1765634765625,0.000305432389723137,0.004276053514331579,-0.02306014485657215
1772725544926080300,8.186080322265624,0.007024944759905338,0.017104214057326317,-0.009010255336761475
1772725544935597000,8.19559716796875,0.012522728182375431,0.021991131827235222,0.0025961752980947495
1772725544945113900,8.20511376953125,0.012522728182375431,0.01588248461484909,0.0062613640911877155
1772725544954630700,8.214630615234375,0.00946840364485979,0.004276053514331579,0.0025961752980947495
1772725544964147500,8.2241474609375,0.003359756199643016,-0.012217295356094837,-0.004123337101191282
1772725544973664300,8.233664306640625,0.0009162971982732415,-0.021380268037319183,-0.009010255336761475
1772725544983181000,8.24318115234375,0.003970621153712273,-0.023212861269712448,-0.003512472379952669
1772725544992697900,8.25269775390625,0.010079269297420979,-0.017715077847242355,0.004428769461810589
1772725545002214700,8.262214599609376,0.011300998739898205,-0.010995565913617611,0.009926552884280682
1772725545011731500,8.2717314453125,0.006414080038666725,-0.000610864779446274,0.012980876490473747
1772725545021248300,8.281248291015626,0.0015271619195118546,0.010995565913617611,0.006872228812426329
1772725545030765000,8.29076513671875,-0.0027488914784044027,0.012217295356094837,0.0007635809597559273
1772725545040281900,8.30028173828125,-0.006414080038666725,0.003665188793092966,-0.006566796451807022
1772725545049798700,8.309798583984374,-0.008857538923621178,-0.010995565913617611,-0.01695149764418602
1772725545059315700,8.319315673828125,-0.011300998739898205,-0.023212861269712448,-0.024281874299049377
1772725545068832300,8.328832275390624,-0.013133592903614044,-0.024434590712189674,-0.02306014485657215
1772725545078349000,8.33834912109375,-0.01435532234609127,-0.012217295356094837,-0.013897174037992954
1772725545087866000,8.3478662109375,-0.013133592903614044,0.000610864779446274,-0.002901607658714056
1772725545097382700,8.357382568359375,-0.007024944759905338,0.01282816007733345,0.005650499369949102
1772725545106899500,8.3668994140625,0.0009162971982732415,0.023823726922273636,0.006872228812426329
1772725545116416500,8.37641650390625,0.005803215317428112,0.01893680728971958,0.0019853105768561363
1772725545125933300,8.385933349609376,0.004581485874950886,0.0054977829568088055,-0.007788525894284248
1772725545135450000,8.3954501953125,0.0009162971982732415,-0.006719512399286032,-0.018784092739224434
1772725545144967000,8.404966796875,-0.0009162971982732415,-0.013439024798572063,-0.0206166859716177
1772725545154483700,8.414483642578125,-0.004581485874950886,-0.011606430634856224,-0.009010255336761475
1772725545164000500,8.42400048828125,-0.005803215317428112,-0.007330377586185932,0.009926552884280682
1772725545173517300,8.433517333984375,-0.0021380267571657896,-0.002443459117785096,0.027030766010284424
1772725545183034000,8.4430341796875,0.000305432389723137,0.001221729558892548,0.03436114266514778
1772725545192551000,8.452551025390624,0.0015271619195118546,0.002443459117785096,0.028863361105322838
1772725545202067700,8.462067626953125,-0.000305432389723137,-0.001832594396546483,0.016035201027989388
1772725545211584500,8.47158447265625,0.000305432389723137,-0.008552107028663158,0.004428769461810589
1772725545221101300,8.481101318359375,0.0015271619195118546,-0.014660755172371864,-0.002290742937475443
1772725545230618000,8.4906181640625,0.003970621153712273,-0.013439024798572063,-0.003512472379952669
1772725545240135000,8.500135009765625,0.0021380267571657896,-0.014049889519810677,-0.0010690133785828948
1772725545249651700,8.509651611328126,0.0015271619195118546,-0.008552107028663158,-0.0010690133785828948
1772725545259168500,8.51916845703125,-0.0009162971982732415,0.006108647678047419,-0.006566796451807022
1772725545268685300,8.528685302734376,-0.0027488914784044027,0.01893680728971958,-0.01206457894295454
1772725545278202000,8.5382021484375,-0.003359756199643016,0.025045456364750862,-0.01206457894295454
1772725545287719000,8.547718994140626,-0.004581485874950886,0.02260199747979641,-0.014508038759231567
1772725545297235700,8.557235595703125,-0.007635809946805239,0.01893680728971958,-0.0206166859716177
1772725545306752500,8.56675244140625,-0.011300998739898205,0.01649334840476513,-0.02611446939408779
1772725545316269600,8.57626953125,-0.015577051788568497,0.011606430634856224,-0.022449281066656113
1772725545325786000,8.5857861328125,-0.01802051067352295,0.004886918235570192,-0.012675444595515728
1772725545335303000,8.595302978515624,-0.016798781231045723,-0.003665188793092966,-0.003512472379952669
1772725545344820000,8.604820068359375,-0.011300998739898205,-0.013439024798572063,0.005039634648710489
1772725545354336500,8.61433642578125,-0.003970621153712273,-0.021380268037319183,0.012370011769235134
1772725545363853600,8.623853515625,-0.0009162971982732415,-0.023212861269712448,0.01847865991294384
1772725545373370400,8.633370361328126,-0.0015271619195118546,-0.018325943499803543,0.02519817277789116
1772725545382887200,8.64288720703125,-0.003970621153712273,-0.008552107028663158,0.02764163166284561
1772725545392404000,8.652404052734376,-0.005192350596189499,0.001221729558892548,0.025809036567807198
1772725545401920800,8.661920654296875,-0.006414080038666725,0.001221729558892548,0.01908952370285988
1772725545411437600,8.6714375,-0.007024944759905338,-0.006108647678047419,0.012370011769235134
1772725545420954400,8.680954345703125,-0.003359756199643016,-0.008552107028663158,0.005039634648710489
1772725545430471200,8.69047119140625,0.0009162971982732415,-0.006108647678047419,0.0007635809597559273
1772725545439988000,8.699988037109375,0.003970621153712273,-0.001832594396546483,0.0007635809597559273
1772725545449504800,8.7095048828125,0.005192350596189499,-0.002443459117785096,0.0032070400193333626
1772725545459021600,8.719021484375,0.005803215317428112,-0.003665188793092966,0.0013744457392022014
1772725545468538400,8.728538330078125,0.005803215317428112,-0.009773836471140385,-0.004123337101191282
1772725545478055200,8.73805517578125,0.006414080038666725,-0.01649334840476513,-0.012675444595515728
1772725545487572000,8.747572021484375,0.008857538923621178,-0.01649334840476513,-0.021838415414094925
1772725545497088800,8.7570888671875,0.01435532234609127,-0.01588248461484909,-0.027947064489126205
1772725545506605600,8.76660546875,0.015577051788568497,-0.017104214057326317,-0.02977965772151947
1772725545516122400,8.776122314453126,0.011300998739898205,-0.017715077847242355,-0.028557928279042244
1772725545525639200,8.78563916015625,0.007635809946805239,-0.009773836471140385,-0.027947064489126205
1772725545535156000,8.795156005859376,0.008246674202382565,0,-0.02306014485657215
1772725545544672800,8.8046728515625,0.005803215317428112,0.001221729558892548,-0.013286309316754341
1772725545554189600,8.814189453125,0.005803215317428112,0,-0.004123337101191282
1772725545563706600,8.82370654296875,0.00946840364485979,-0.0030543238390237093,0.004428769461810589
1772725545573223400,8.833223388671875,0.010690134018659592,-0.011606430634856224,0.010537417605519295
1772725545582740000,8.842739990234374,0.006414080038666725,-0.020158538594841957,0.012370011769235134
1772725545592257000,8.852257080078125,0.0015271619195118546,-0.021991131827235222,0.011759147047996521
1772725545601773800,8.86177392578125,-0.005192350596189499,-0.017715077847242355,0.006872228812426329
1772725545611290400,8.871290283203125,-0.010690134018659592,-0.008552107028663158,0.0001527161948615685
1772725545620807400,8.880807373046874,-0.008246674202382565,0.001832594396546483,-0.008399390615522861
1772725545630324200,8.89032421875,-0.005803215317428112,0.006719512399286032,-0.013286309316754341
1772725545639841000,8.899841064453126,-0.0015271619195118546,0.008552107028663158,-0.014508038759231567
1772725545649357800,8.90935791015625,0.0021380267571657896,0.007330377586185932,-0.013286309316754341
1772725545658874600,8.91887451171875,0.003970621153712273,0.004276053514331579,-0.01206457894295454
1772725545668391400,8.928391357421875,0.003970621153712273,-0.002443459117785096,-0.013286309316754341
1772725545677908200,8.937908203125,0.003970621153712273,-0.007941242307424545,-0.011453714221715927
1772725545687425000,8.947425048828125,0.007024944759905338,-0.010995565913617611,-0.006566796451807022
1772725545696941800,8.95694189453125,0.008857538923621178,-0.013439024798572063,0.0019853105768561363
1772725545706458600,8.966458740234375,0.00946840364485979,-0.006719512399286032,0.005650499369949102
1772725545715975400,8.975975341796875,0.007635809946805239,0.004276053514331579,0.009315688163042068
1772725545725492200,8.9854921875,-0.000305432389723137,0.010995565913617611,0.012980876490473747
1772725545735009000,8.995009033203125,-0.0027488914784044027,0.007941242307424545,0.010537417605519295
1772725545744525800,9.00452587890625,-0.0015271619195118546,0.000610864779446274,0.0032070400193333626
1772725545754042600,9.014042724609375,0.0015271619195118546,-0.008552107028663158,0.0007635809597559273
1772725545763559400,9.023559326171876,0.005803215317428112,-0.007330377586185932,0.0038179049734026194
1772725545773076200,9.033076171875,0.00946840364485979,0.003665188793092966,0.006872228812426329
1772725545782593000,9.042593017578126,0.010079269297420979,0.01282816007733345,0.009926552884280682
1772725545792110000,9.052110107421875,0.005803215317428112,0.01649334840476513,0.011759147047996521
1772725545801626600,9.061626708984376,-0.0027488914784044027,0.011606430634856224,0.010537417605519295
1772725545811143400,9.071143310546875,-0.01435532234609127,0.003665188793092966,0.0019853105768561363
1772725545820660500,9.080660400390625,-0.019242240116000175,-0.001832594396546483,-0.0102319847792387
1772725545830177300,9.09017724609375,-0.01802051067352295,-0.004276053514331579,-0.021838415414094925
1772725545839694000,9.099694091796875,-0.016798781231045723,0.0030543238390237093,-0.02977965772151947
1772725545849211000,9.1092109375,-0.011911863461136818,0.013439024798572063,-0.024281874299049377
1772725545858727700,9.118727783203125,-0.008246674202382565,0.01954767294228077,-0.007788525894284248
1772725545868244500,9.128244384765624,-0.008857538923621178,0.01588248461484909,0.012980876490473747
1772725545877761300,9.13776123046875,-0.013133592903614044,0.006719512399286032,0.026419902220368385
1772725545887278000,9.147278076171874,-0.013133592903614044,0.0054977829568088055,0.025809036567807198
1772725545896795000,9.156794921875,-0.008246674202382565,0.0030543238390237093,0.01847865991294384
1772725545906311700,9.166311767578126,-0.003970621153712273,-0.002443459117785096,0.012370011769235134
1772725545915828500,9.175828369140625,-0.0027488914784044027,-0.003665188793092966,0.011148282326757908
1772725545925345300,9.18534521484375,-0.0021380267571657896,0,0.01359174121171236
1772725545934862000,9.194862060546875,-0.003970621153712273,0.002443459117785096,0.014813470654189587
1772725545944379000,9.20437890625,-0.0021380267571657896,0.010384701192378998,0.012370011769235134
1772725545953895700,9.213895751953125,0.0009162971982732415,0.006108647678047419,0.0154243353754282
1772725545963412500,9.22341259765625,0.004581485874950886,0.007941242307424545,0.02214384824037552
1772725545972929300,9.23292919921875,0.007024944759905338,0.010995565913617611,0.029474224895238876
1772725545982446000,9.242446044921875,0.0027488914784044027,0.006108647678047419,0.03252854943275452
1772725545991963000,9.251962890625,0.0009162971982732415,-0.001832594396546483,0.03252854943275452
1772725546001479700,9.261479736328125,0.0021380267571657896,-0.006108647678047419,0.027030766010284424
1772725546010996500,9.27099658203125,0.000305432389723137,-0.004276053514331579,0.01847865991294384
1772725546020513300,9.28051318359375,0.0009162971982732415,-0.000610864779446274,0.012370011769235134
1772725546030030000,9.290030029296876,0.0015271619195118546,0.002443459117785096,0.0062613640911877155
1772725546039547100,9.299547119140625,0.0021380267571657896,0.0054977829568088055,0.0007635809597559273
1772725546049064000,9.30906396484375,0.0009162971982732415,0.0054977829568088055,-0.007788525894284248
1772725546058580500,9.31858056640625,-0.0021380267571657896,0.007330377586185932,-0.021838415414094925
1772725546068097500,9.32809765625,-0.006414080038666725,0.007330377586185932,-0.034666575491428375
1772725546077614300,9.3376142578125,-0.008246674202382565,0.007330377586185932,-0.03955349326133728
1772725546087131100,9.347131103515625,-0.006414080038666725,0.007330377586185932,-0.03222311660647392
1772725546096648000,9.35664794921875,-0.005803215317428112,0.006719512399286032,-0.01695149764418602
1772725546106164700,9.366164794921875,-0.005803215317428112,0.0030543238390237093,-0.003512472379952669
1772725546115681500,9.375681640625,-0.005803215317428112,0,0.005039634648710489
1772725546125198300,9.3851982421875,-0.005803215317428112,-0.002443459117785096,0.008704823441803455
1772725546134715100,9.394715087890624,-0.003970621153712273,-0.0054977829568088055,0.012370011769235134
1772725546144232000,9.40423193359375,0.0015271619195118546,-0.006719512399286032,0.01847865991294384
1772725546153748700,9.413748779296874,0.003359756199643016,-0.000610864779446274,0.023976443335413933
1772725546163265500,9.423265625,0.0021380267571657896,0.006719512399286032,0.025809036567807198
1772725546172782300,9.4327822265625,-0.000305432389723137,0.006719512399286032,0.025809036567807198
1772725546182299100,9.442299072265625,-0.003359756199643016,0.004886918235570192,0.01908952370285988
1772725546191816000,9.45181591796875,-0.007024944759905338,0.001832594396546483,0.009315688163042068
1772725546201332700,9.461332763671875,-0.008246674202382565,-0.001832594396546483,0.004428769461810589
1772725546210849500,9.470849609375,-0.005192350596189499,-0.001221729558892548,0.0025961752980947495
1772725546220366300,9.480366455078125,-0.003359756199643016,0.004276053514331579,-0.001679878099821508
1772725546229883100,9.489883056640625,-0.0015271619195118546,0.007330377586185932,-0.006566796451807022
1772725546239400200,9.499400146484374,0.0009162971982732415,0.007330377586185932,-0.013286309316754341
1772725546248916700,9.508916748046875,0.006414080038666725,0.009773836471140385,-0.0206166859716177
1772725546258433500,9.51843359375,0.010079269297420979,0.010384701192378998,-0.02977965772151947
1772725546267950600,9.52795068359375,0.010079269297420979,0.013439024798572063,-0.034666575491428375
1772725546277467100,9.537467041015624,0.010079269297420979,0.01282816007733345,-0.03283398225903511
1772725546286984200,9.546984130859375,0.012522728182375431,0.01588248461484909,-0.02916879393160343
1772725546296501000,9.5565009765625,0.014966187067329884,0.01588248461484909,-0.02306014485657215
1772725546306017800,9.566017822265625,0.016798781231045723,0.007941242307424545,-0.015729768201708794
1772725546315534600,9.57553466796875,0.013744457624852657,-0.004276053514331579,-0.0102319847792387
1772725546325051400,9.585051513671875,0.010079269297420979,-0.009773836471140385,-0.008399390615522861
1772725546334568200,9.594568115234376,0.003970621153712273,-0.013439024798572063,-0.009621120058000088
1772725546344085000,9.6040849609375,-0.004581485874950886,-0.010995565913617611,-0.006566796451807022
1772725546353601800,9.613601806640625,-0.008857538923621178,-0.004276053514331579,0.0025961752980947495
1772725546363118600,9.62311865234375,-0.00946840364485979,0.006108647678047419,0.014813470654189587
1772725546372635400,9.632635498046875,-0.007635809946805239,0.01588248461484909,0.027030766010284424
1772725546382152200,9.642152099609374,-0.005803215317428112,0.023212861269712448,0.033139415085315704
1772725546391669000,9.6516689453125,-0.003970621153712273,0.02260199747979641,0.02764163166284561
1772725546401185800,9.661185791015624,-0.006414080038666725,0.008552107028663158,0.016646064817905426
1772725546410702600,9.67070263671875,-0.010079269297420979,-0.010384701192378998,0.005039634648710489
1772725546420219400,9.680219482421874,-0.012522728182375431,-0.01588248461484909,-0.007788525894284248
1772725546429736200,9.689736083984375,-0.013744457624852657,-0.015271619893610477,-0.015729768201708794
1772725546439253000,9.6992529296875,-0.011911863461136818,-0.007941242307424545,-0.018784092739224434
1772725546448769800,9.708769775390625,-0.006414080038666725,0.002443459117785096,-0.018173227086663246
1772725546458286800,9.718286865234376,-0.0009162971982732415,0.0054977829568088055,-0.019394956529140472
1772725546467803400,9.727803466796875,0.004581485874950886,0.0030543238390237093,-0.02916879393160343
1772725546477320200,9.7373203125,0.011911863461136818,0.003665188793092966,-0.04199695214629173
1772725546486837000,9.7468369140625,0.01740964688360691,-0.0030543238390237093,-0.05543597787618637
1772725546496354000,9.75635400390625,0.01740964688360691,-0.02260199747979641,-0.06520981341600418
1772725546505870600,9.76587060546875,0.026572618633508682,-0.034208428114652634,-0.06826414167881012
1772725546515387600,9.7753876953125,0.028405211865901947,-0.049480047076940536,-0.06887500733137131
1772725546524904400,9.784904541015624,0.019242240116000175,-0.04886918142437935,-0.04627300798892975
1772725546534421200,9.794421142578125,0.008246674202382565,-0.023823726922273636,-0.015729768201708794
1772725546543938000,9.80393798828125,-0.0015271619195118546,0.004886918235570192,0.014813470654189587
1772725546553454800,9.813454833984375,0.0021380267571657896,0.04459312930703163,0.04046979174017906
1772725546562971600,9.8229716796875,0.011911863461136818,0.07024945318698883,0.058795735239982605
1772725546572488400,9.832488525390625,0.016187917441129684,0.08307760953903198,0.0691804364323616
1772725546582005200,9.842005126953126,0.011911863461136818,0.06475166976451874,0.07406735420227051
1772725546591522000,9.85152197265625,-0.003359756199643016,0.03481929376721382,0.06795870512723923
1772725546601038800,9.861038818359376,-0.019242240116000175,0.007330377586185932,0.04413498193025589
1772725546610555600,9.8705556640625,-0.022296564653515816,-0.039706211537122726,0.008704823441803455
1772725546620072400,9.880072509765625,-0.008246674202382565,-0.10079269111156464,-0.027336198836565018
1772725546629589200,9.88958935546875,-0.003359756199643016,-0.13194678723812103,-0.05177079141139984
1772725546639106000,9.89910595703125,-0.01802051067352295,-0.12400554865598679,-0.04932733252644539
1772725546648622800,9.908622802734374,-0.03023780696094036,-0.08979712426662445,-0.01695149764418602
