time,seconds_elapsed,z,y,x
1772728920043744000,0.075743896484375,-0.12522727251052856,-0.05742128938436508,-0.18875721096992493
1772728920062780200,0.0947802734375,-0.12278381735086441,-0.0513126403093338,-0.16737695038318634
1772728920072298000,0.104298095703125,-0.1233946830034256,-0.04825831577181816,-0.15210533142089844
1772728920081816000,0.113816162109375,-0.11972949653863907,-0.04520399495959282,-0.14294235408306122
1772728920091334100,0.123334228515625,-0.1130099818110466,-0.043371398001909256,-0.14233149588108063
1772728920100852200,0.132852294921875,-0.10384701192378998,-0.040317077189683914,-0.14660754799842834
1772728920110370300,0.142370361328125,-0.09346231073141098,-0.02871064469218254,-0.1490510106086731
1772728920119888400,0.151888427734375,-0.0824667438864708,-0.0054977829568088055,-0.143553227186203
1772728920129406200,0.16140625,-0.07086031138896942,0.018325943499803543,-0.13622283935546875
1772728920138924500,0.170924560546875,-0.056199558079242706,0.033597562462091446,-0.1331685185432434
1772728920148442400,0.1804423828125,-0.043982263654470444,0.02932151034474373,-0.13011419773101807
1772728920157960400,0.18996044921875,-0.0360410213470459,0.0030543238390237093,-0.12217295914888382
1772728920167478500,0.199478515625,-0.027488915249705315,-0.0256563201546669,-0.11545344442129135
1772728920176996600,0.20899658203125,-0.020769402384757996,-0.043982263654470444,-0.10629047453403473
1772728920186514400,0.218514404296875,-0.01588248461484909,-0.0616973415017128,-0.08979712426662445
1772728920196032800,0.22803271484375,-0.012217295356094837,-0.07391463965177536,-0.0720820426940918
1772728920205550600,0.237550537109375,-0.009162971749901772,-0.0818558782339096,-0.05070177838206291
1772728920215068700,0.247068603515625,-0.007941242307424545,-0.08552107214927673,-0.02871064469218254
1772728920224586800,0.256586669921875,-0.001221729558892548,-0.09407317638397217,-0.0030543238390237093
1772728920234104800,0.266104736328125,0.007330377586185932,-0.09957095980644226,0.024434590712189674
1772728920243623000,0.275622802734375,0.009162971749901772,-0.08063415437936783,0.05192350596189499
1772728920253141000,0.28514111328125,0.004276053514331579,-0.049480047076940536,0.08063415437936783
1772728920262658800,0.294658935546875,0.000610864779446274,-0.012217295356094837,0.10934479534626007
1772728920272177000,0.304177001953125,0.003665188793092966,0.04214967042207718,0.13011419773101807
1772728920281695000,0.313695068359375,0.010995565913617611,0.10140355676412582,0.13622283935546875
1772728920291213000,0.323213134765625,0.01954767294228077,0.14538581669330597,0.1282816082239151
1772728920300731100,0.332731201171875,0.028099779039621353,0.17043127119541168,0.10506874322891235
1772728920310249200,0.342249267578125,0.03848448023200035,0.1740964651107788,0.07147117704153061
1772728920319767000,0.35176708984375,0.0513126403093338,0.164322629570961,0.031154103577136993
1772728920329285000,0.36128515625,0.06902772188186646,0.14538581669330597,-0.007941242307424545
1772728920338803200,0.37080322265625,0.08979712426662445,0.1282816082239151,-0.043982263654470444
1772728920348321300,0.3803212890625,0.12034036219120026,0.11972949653863907,-0.0665842592716217
1772728920357839400,0.38983935546875,0.1496618688106537,0.11911863088607788,-0.06414080411195755
1772728920367357400,0.399357421875,0.17043127119541168,0.10384701192378998,-0.03298669680953026
1772728920376875300,0.408875244140625,0.19120067358016968,0.06291907280683517,0.007330377586185932
1772728920386393300,0.418393310546875,0.20830489695072174,0.009773836471140385,0.05558869615197182
1772728920395911400,0.427911376953125,0.23335035145282745,-0.02626718580722809,0.11728604137897491
1772728920405429500,0.437429443359375,0.2565632164478302,-0.024434590712189674,0.17653992772102356
1772728920414947300,0.446947265625,0.27000224590301514,0.007330377586185932,0.22785256803035736
1772728920424465700,0.456465576171875,0.2712239623069763,0.06108647957444191,0.27977606654167175
1772728920433983500,0.4659833984375,0.2663370370864868,0.11239911615848541,0.32620179653167725
1772728920443501600,0.47550146484375,0.2663370370864868,0.164322629570961,0.3646862804889679
1772728920453019600,0.48501953125,0.26450446248054504,0.2315177470445633,0.4050033390522003
1772728920462537700,0.494537841796875,0.2663370370864868,0.2987128794193268,0.4367683231830597
1772728920472055800,0.504055908203125,0.27488914132118225,0.3488037884235382,0.44959646463394165
1772728920481574000,0.513573974609375,0.28466299176216125,0.3756818473339081,0.44959646463394165
1772728920491091700,0.523091796875,0.29443681240081787,0.3848448097705841,0.44409868121147156
1772728920500609800,0.53260986328125,0.29443681240081787,0.39339691400527954,0.42943793535232544
1772728920510127900,0.5421279296875,0.28588470816612244,0.40744680166244507,0.4098902642726898
1772728920519646000,0.55164599609375,0.27855435013771057,0.4166097939014435,0.38667741417884827
1772728920529164000,0.5611640625,0.2706131041049957,0.42455101013183594,0.3549124300479889
1772728920538682000,0.57068212890625,0.2626718580722809,0.4196641147136688,0.3121519088745117
1772728920548200000,0.580199951171875,0.2577849328517914,0.4098902642726898,0.2467893660068512
1772728920557718000,0.589718017578125,0.2406807243824005,0.38179048895835876,0.16737695038318634
1772728920567236000,0.599236083984375,0.22785256803035736,0.3738492429256439,0.0818558782339096
1772728920576754200,0.608754150390625,0.2260199636220932,0.35246896743774414,0
1772728920586272300,0.618272216796875,0.22235478460788727,0.29626941680908203,-0.07024945318698883
1772728920595790300,0.627790283203125,0.21319180727005005,0.23762640357017517,-0.12705987691879272
1772728920605308400,0.637308349609375,0.19669845700263977,0.1893680840730667,-0.16065743565559387
1772728920614826200,0.646826171875,0.17104214429855347,0.15821397304534912,-0.15821397304534912
1772728920624344300,0.65634423828125,0.1386663019657135,0.1331685185432434,-0.12522727251052856
1772728920633862400,0.6658623046875,0.10079269111156464,0.12034036219120026,-0.07391463965177536
1772728920643380500,0.67538037109375,0.059864748269319534,0.1698204129934311,-0.012217295356094837
1772728920652898600,0.684898681640625,0.030543239787220955,0.09529490768909454,0.020769402384757996
1772728920662416600,0.694416748046875,0.01954767294228077,-0.012217295356094837,-0.001221729558892548
1772728920671934700,0.703934814453125,0.011606430634856224,-0.08796452730894089,-0.04886918142437935
1772728920681452500,0.71345263671875,-0.000610864779446274,-0.13927717506885529,-0.07880155742168427
1772728920690970600,0.722970703125,-0.004886918235570192,-0.15515965223312378,-0.1026252806186676
1772728920700488700,0.73248876953125,-0.006719512399286032,-0.15149445831775665,-0.12217295914888382
1772728920710006800,0.7420068359375,0.001832594396546483,-0.14233149588108063,-0.13561198115348816
1772728920719524900,0.75152490234375,0.012217295356094837,-0.12644900381565094,-0.13927717506885529
1772728920729043000,0.76104296875,0.009162971749901772,-0.10751219838857651,-0.12950333952903748
1772728920738560800,0.770560791015625,-0.0030543238390237093,-0.08613193035125732,-0.11117739230394363
1772728920748078800,0.780078857421875,-0.015271619893610477,-0.07513637095689774,-0.09712749719619751
1772728920757597000,0.789596923828125,-0.017104214057326317,-0.0824667438864708,-0.09896009415388107
1772728920767115000,0.799114990234375,-0.01282816007733345,-0.09957095980644226,-0.1178968995809555
1772728920776633000,0.808633056640625,-0.006108647678047419,-0.12156209349632263,-0.14477495849132538
1772728920786151200,0.818151123046875,-0.000610864779446274,-0.14049890637397766,-0.16798780858516693
1772728920795669200,0.827669189453125,0,-0.1484401375055313,-0.17715078592300415
1772728920805187000,0.83718701171875,-0.0054977829568088055,-0.14477495849132538,-0.16737695038318634
1772728920814705200,0.846705078125,-0.014049889519810677,-0.12583814561367035,-0.1386663019657135
1772728920824223200,0.85622314453125,-0.021380268037319183,-0.09040798991918564,-0.09285144507884979
1772728920833741300,0.8657412109375,-0.03543015569448471,-0.06352993845939636,-0.040317077189683914
1772728920843259400,0.87525927734375,-0.050090912729501724,-0.05253437161445618,0.009773836471140385
1772728920852777500,0.884777587890625,-0.06352993845939636,-0.0665842592716217,0.04825831577181816
1772728920862295300,0.89429541015625,-0.07574722915887833,-0.1026252806186676,0.06902772188186646
1772728920871813400,0.9038134765625,-0.08674279600381851,-0.15577052533626556,0.07574722915887833
1772728920881331500,0.91333154296875,-0.09712749719619751,-0.19792018830776215,0.07757982611656189
1772728920890849500,0.922849609375,-0.11239911615848541,-0.21685700118541718,0.07757982611656189
1772728920900367600,0.93236767578125,-0.13011419773101807,-0.21930044889450073,0.07757982611656189
1772728920909885700,0.9418857421875,-0.14660754799842834,-0.20280711352825165,0.07635809481143951
1772728920919403500,0.951403564453125,-0.16004657745361328,-0.16798780858516693,0.07513637095689774
1772728920928921600,0.960921630859375,-0.17348559200763702,-0.1233946830034256,0.06719512492418289
1772728920938439700,0.970439697265625,-0.1893680840730667,-0.09957095980644226,0.053145237267017365
1772728920947957800,0.979957763671875,-0.2009745091199875,-0.10751219838857651,0.039706211537122726
1772728920957475800,0.989475830078125,-0.20830489695072174,-0.1331685185432434,0.040317077189683914
1772728920966994000,0.998993896484375,-0.2205221801996231,-0.1594357043504715,0.05436696484684944
1772728920976511700,1.00851171875,-0.23518294095993042,-0.19364413619041443,0.08429934084415436
1772728920986029800,1.01802978515625,-0.2522871494293213,-0.2309068888425827,0.12522727251052856
1772728920995548000,1.0275478515625,-0.2657261788845062,-0.2577849328517914,0.16737695038318634
1772728921005066000,1.03706591796875,-0.27977606654167175,-0.2663370370864868,0.20891575515270233
1772728921014584000,1.046583984375,-0.2932150959968567,-0.24801109731197357,0.2406807243824005
1772728921024102100,1.05610205078125,-0.30115634202957153,-0.20891575515270233,0.2626718580722809
1772728921033620000,1.065619873046875,-0.3066541254520416,-0.1692095398902893,0.27488914132118225
1772728921043138000,1.075137939453125,-0.3121519088745117,-0.1484401375055313,0.2724456787109375
1772728921052656000,1.08465625,-0.3182605504989624,-0.14538581669330597,0.25473061203956604
1772728921062174200,1.09417431640625,-0.3225366175174713,-0.15027274191379547,0.21868959069252014
1772728921071692300,1.1036923828125,-0.32192572951316833,-0.143553227186203,0.1747073233127594
1772728921081210400,1.11321044921875,-0.3182605504989624,-0.13194678723812103,0.1331685185432434
1772728921090728200,1.122728271484375,-0.3084867000579834,-0.13622283935546875,0.10018182545900345
1772728921100246300,1.132246337890625,-0.2981020212173462,-0.15027274191379547,0.07635809481143951
1772728921109764400,1.141764404296875,-0.28405213356018066,-0.1649334877729416,0.06108647957444191
1772728921119282400,1.151282470703125,-0.2761108875274658,-0.17592905461788177,0.053756099194288254
1772728921128800500,1.160800537109375,-0.27366742491722107,-0.19242240488529205,0.06536252796649933
1772728921138318600,1.170318603515625,-0.277332603931427,-0.23273947834968567,0.10873392969369888
1772728921147836400,1.17983642578125,-0.27977606654167175,-0.29016077518463135,0.17837251722812653
1772728921157354500,1.1893544921875,-0.28588470816612244,-0.3433060050010681,0.258395791053772
1772728921166872600,1.19887255859375,-0.3042106628417969,-0.3756818473339081,0.33231043815612793
1772728921176390700,1.208390625,-0.3335321843624115,-0.39217519760131836,0.389120876789093
1772728921185908700,1.21790869140625,-0.3738492429256439,-0.3995055556297302,0.42882707715034485
1772728921195426800,1.2274267578125,-0.41783151030540466,-0.3995055556297302,0.45875945687294006
1772728921204944600,1.236944580078125,-0.45509424805641174,-0.39767298102378845,0.47586366534233093
1772728921214462700,1.246462646484375,-0.48991355299949646,-0.3811796307563782,0.4734202027320862
1772728921223980800,1.255980712890625,-0.5259546041488647,-0.3543015718460083,0.4465421438217163
1772728921233499000,1.265498779296875,-0.565049946308136,-0.3084867000579834,0.39217519760131836
1772728921243017000,1.275016845703125,-0.6059778332710266,-0.23457208275794983,0.32131487131118774
1772728921252535000,1.28453515625,-0.646905779838562,-0.15821397304534912,0.2461785078048706
1772728921262052900,1.294052978515625,-0.6768381595611572,-0.10751219838857651,0.17287473380565643
1772728921271571000,1.303571044921875,-0.685390293598175,-0.09101885557174683,0.09101885557174683
1772728921281089000,1.313089111328125,-0.6774490475654602,-0.08613193035125732,0.001832594396546483
1772728921290607000,1.322607177734375,-0.6640099883079529,-0.09590577334165573,-0.08002328872680664
1772728921300125200,1.332125244140625,-0.6450732350349426,-0.12522727251052856,-0.14599667489528656
1772728921309643300,1.341643310546875,-0.6261364221572876,-0.1698204129934311,-0.19364413619041443
1772728921319161000,1.3511611328125,-0.6133082509040833,-0.22724169492721558,-0.21991132199764252
1772728921328679200,1.36067919921875,-0.6004800796508789,-0.28466299176216125,-0.21197007596492767
1772728921338197200,1.370197265625,-0.5852084755897522,-0.33597561717033386,-0.15515965223312378
1772728921347715300,1.37971533203125,-0.5632173418998718,-0.3646862804889679,-0.06597339361906052
1772728921357233400,1.3892333984375,-0.5436696410179138,-0.3787361681461334,0.028099779039621353
1772728921366751500,1.39875146484375,-0.5253437161445618,-0.3842339515686035,0.09834922850131989
1772728921376269300,1.408269287109375,-0.5070177912712097,-0.35735589265823364,0.1282816082239151
1772728921385787400,1.417787353515625,-0.4929678738117218,-0.30970844626426697,0.1185077652335167
1772728921395305500,1.427305419921875,-0.4868592321872711,-0.2663370370864868,0.08979712426662445
1772728921404823600,1.436823486328125,-0.48930269479751587,-0.23029601573944092,0.05558869615197182
1772728921414341600,1.446341552734375,-0.49541133642196655,-0.1997527778148651,0.017104214057326317
1772728921423859700,1.455859619140625,-0.5051851868629456,-0.1698204129934311,-0.0256563201546669
1772728921433377800,1.465377685546875,-0.5125155448913574,-0.1533270627260208,-0.06902772188186646
1772728921442895600,1.4748955078125,-0.5180133581161499,-0.16126830875873566,-0.11117739230394363
1772728921452413700,1.48441357421875,-0.5210676789283752,-0.18142683804035187,-0.1539379209280014
1772728921461931800,1.493931884765625,-0.5247328281402588,-0.20891575515270233,-0.2003636509180069
1772728921471449900,1.503449951171875,-0.5247328281402588,-0.24373504519462585,-0.24801109731197357
1772728921480968000,1.512968017578125,-0.5180133581161499,-0.2822195291519165,-0.2889390289783478
1772728921490486000,1.522486083984375,-0.5057960152626038,-0.3078758418560028,-0.3066541254520416
1772728921500003800,1.53200390625,-0.49541133642196655,-0.3182605504989624,-0.2981020212173462
1772728921509522000,1.54152197265625,-0.4874700903892517,-0.3090975880622864,-0.26878049969673157
1772728921519040000,1.5510400390625,-0.4776962697505951,-0.29016077518463135,-0.22479823231697083
1772728921528558000,1.56055810546875,-0.4673115611076355,-0.2657261788845062,-0.17531819641590118
1772728921538076200,1.570076171875,-0.46059203147888184,-0.2364046722650528,-0.12217295914888382
1772728921547594200,1.57959423828125,-0.4575377106666565,-0.20769402384757996,-0.07391463965177536
1772728921557112000,1.589112060546875,-0.4575377106666565,-0.17715078592300415,-0.03848448023200035
1772728921566630100,1.598630126953125,-0.4569268524646759,-0.1441640853881836,-0.012217295356094837
1772728921576148200,1.608148193359375,-0.45387253165245056,-0.10629047453403473,-0.004276053514331579
1772728921585666300,1.617666259765625,-0.4477638900279999,-0.06536252796649933,-0.009773836471140385
1772728921595184000,1.62718408203125,-0.43921178579330444,-0.040317077189683914,-0.018325943499803543
1772728921604702500,1.636702392578125,-0.430659681558609,-0.02871064469218254,-0.030543239787220955
1772728921614220300,1.64622021484375,-0.42088583111763,-0.030543239787220955,-0.047036588191986084
1772728921623738400,1.65573828125,-0.40378162264823914,-0.036651886999607086,-0.07330377399921417
1772728921633256400,1.66525634765625,-0.3848448097705841,-0.04886918142437935,-0.1026252806186676
1772728921642774500,1.6747744140625,-0.3652971386909485,-0.07757982611656189,-0.12767073512077332
1772728921652292400,1.684292236328125,-0.34574946761131287,-0.13011419773101807,-0.14477495849132538
1772728921661810700,1.693810791015625,-0.32681265473365784,-0.1899789422750473,-0.1545487940311432
1772728921671328500,1.70332861328125,-0.31459537148475647,-0.24801109731197357,-0.1594357043504715
1772728921680846600,1.7128466796875,-0.3029889166355133,-0.29626941680908203,-0.16065743565559387
1772728921690364700,1.72236474609375,-0.29626941680908203,-0.32192572951316833,-0.15271618962287903
1772728921699882800,1.7318828125,-0.28954991698265076,-0.3042106628417969,-0.13439024984836578
1772728921709400600,1.741400634765625,-0.27855435013771057,-0.24923282861709595,-0.10629047453403473
1772728921718918700,1.750918701171875,-0.26511532068252563,-0.17226386070251465,-0.0720820426940918
1772728921728436700,1.760436767578125,-0.24801109731197357,-0.07086031138896942,-0.02871064469218254
1772728921737954800,1.769954833984375,-0.2254091054201126,0.04581485688686371,0.012217295356094837
1772728921747473000,1.779472900390625,-0.19669845700263977,0.15577052533626556,0.040317077189683914
1772728921756991000,1.788990966796875,-0.16615521907806396,0.235793799161911,0.05070177838206291
1772728921766508800,1.7985087890625,-0.13622283935546875,0.2822195291519165,0.0360410213470459
1772728921776027000,1.80802685546875,-0.1026252806186676,0.29077163338661194,-0.000610864779446274
1772728921785545000,1.817544921875,-0.06719512492418289,0.26389357447624207,-0.04459312930703163
1772728921795063000,1.82706298828125,-0.037262752652168274,0.18631376326084137,-0.08796452730894089
1772728921804581000,1.8365810546875,-0.014660755172371864,0.06047561392188072,-0.13011419773101807
1772728921814099200,1.84609912109375,0.0030543238390237093,-0.10323614627122879,-0.15638138353824615
1772728921823617000,1.855616943359375,0.024434590712189674,-0.2718348205089569,-0.14294235408306122
1772728921833135000,1.865135009765625,0.04825831577181816,-0.430659681558609,-0.06291907280683517
1772728921842653200,1.874653076171875,0.06963858753442764,-0.5338957905769348,0.06291907280683517
1772728921852171300,1.884171142578125,0.07330377399921417,-0.5571087002754211,0.20769402384757996
1772728921861689300,1.893689453125,0.06963858753442764,-0.5290089249610901,0.34147340059280396
1772728921871207400,1.90320751953125,0.06719512492418289,-0.4471530318260193,0.44409868121147156
1772728921880725200,1.912725341796875,0.0665842592716217,-0.31581708788871765,0.5082395076751709
1772728921890243300,1.922243408203125,0.0616973415017128,-0.15638138353824615,0.5381718873977661
1772728921899761400,1.931761474609375,0.053145237267017365,-0.0054977829568088055,0.5296197533607483
1772728921909279500,1.941279541015625,0.03909534588456154,0.12156209349632263,0.47464191913604736
1772728921918797600,1.950797607421875,0.023823726922273636,0.21685700118541718,0.3707949221134186
1772728921928315600,1.960315673828125,0.010384701192378998,0.2761108875274658,0.2412915825843811
1772728921937833700,1.969833740234375,0.0054977829568088055,0.3029889166355133,0.11484257876873016
1772728921947351600,1.9793515625,0.002443459117785096,0.2968802750110626,0.015271619893610477
1772728921956869600,1.98886962890625,0.004276053514331579,0.26450446248054504,-0.050090912729501724
1772728921966387700,1.9983876953125,0.010384701192378998,0.21441353857517242,-0.09101885557174683
1772728921975905800,2.00790576171875,0.020158538594841957,0.16859868168830872,-0.12400554865598679
1772728921985424000,2.017423828125,0.0360410213470459,0.1282816082239151,-0.14538581669330597
1772728921994942000,2.02694189453125,0.053756099194288254,0.07574722915887833,-0.14049890637397766
1772728922004459800,2.036459716796875,0.07269290834665298,0.009773836471140385,-0.10629047453403473
1772728922013977900,2.045977783203125,0.08857539296150208,-0.06536252796649933,-0.056199558079242706
1772728922023496000,2.055495849609375,0.09896009415388107,-0.12461641430854797,-0.006719512399286032
1772728922033014000,2.065013916015625,0.10323614627122879,-0.15699224174022675,0.026878049597144127
1772728922042531800,2.07453173828125,0.10323614627122879,-0.15515965223312378,0.0409279391169548
1772728922052050200,2.08405029296875,0.09896009415388107,-0.12522727251052856,0.04276053607463837
1772728922061568000,2.093568115234375,0.0922405794262886,-0.08124501258134842,0.03848448023200035
1772728922071086000,2.103086181640625,0.0824667438864708,-0.03543015569448471,0.03237583488225937
1772728922080604200,2.112604248046875,0.06841685622930527,0.007330377586185932,0.02626718580722809
1772728922090122200,2.122122314453125,0.04886918142437935,0.043982263654470444,0.014049889519810677
1772728922099640000,2.13164013671875,0.02626718580722809,0.07513637095689774,-0.009162971749901772
1772728922109158100,2.141158203125,0.004886918235570192,0.09162971377372742,-0.04459312930703163
1772728922118676200,2.15067626953125,-0.01282816007733345,0.09529490768909454,-0.09040798991918564
1772728922128194300,2.1601943359375,-0.025045456364750862,0.08918625861406326,-0.143553227186203
1772728922137712400,2.16971240234375,-0.03543015569448471,0.07819069176912308,-0.2009745091199875
1772728922147230500,2.17923046875,-0.046425722539424896,0.049480047076940536,-0.2565632164478302
1772728922156748300,2.188748291015625,-0.05742128938436508,0.007941242307424545,-0.3072649836540222
1772728922166266400,2.198266357421875,-0.06475166976451874,-0.03298669680953026,-0.34697118401527405
1772728922175784400,2.207784423828125,-0.06841685622930527,-0.06902772188186646,-0.37140578031539917
1772728922185302500,2.217302490234375,-0.0720820426940918,-0.09834922850131989,-0.3787361681461334
1772728922194820600,2.226820556640625,-0.07086031138896942,-0.1233946830034256,-0.3738492429256439
1772728922204338700,2.236338623046875,-0.06597339361906052,-0.13255766034126282,-0.360410213470459
1772728922213856500,2.2458564453125,-0.056199558079242706,-0.1331685185432434,-0.3298669755458832
1772728922223374600,2.25537451171875,-0.04825831577181816,-0.13439024984836578,-0.2834412455558777
1772728922232892700,2.264892578125,-0.047036588191986084,-0.1380554437637329,-0.23029601573944092
1772728922242410800,2.27441064453125,-0.04276053607463837,-0.1331685185432434,-0.1802051067352295
1772728922251928800,2.2839287109375,-0.03543015569448471,-0.1026252806186676,-0.12705987691879272
1772728922261447000,2.293447021484375,-0.033597562462091446,-0.06291907280683517,-0.06475166976451874
1772728922270964700,2.30296484375,-0.037262752652168274,-0.033597562462091446,-0.010384701192378998
1772728922280482800,2.31248291015625,-0.046425722539424896,-0.021991131827235222,0.020769402384757996
1772728922290001000,2.3220009765625,-0.05742128938436508,-0.023823726922273636,0.020769402384757996
1772728922299519000,2.33151904296875,-0.06414080411195755,-0.028099779039621353,-0.0054977829568088055
1772728922309037000,2.341037109375,-0.06719512492418289,-0.034208428114652634,-0.04581485688686371
1772728922318555100,2.35055517578125,-0.07024945318698883,-0.05497783049941063,-0.09468404203653336
1772728922328073000,2.360072998046875,-0.07147117704153061,-0.08552107214927673,-0.14538581669330597
1772728922337591000,2.369591064453125,-0.07086031138896942,-0.10079269111156464,-0.18753549456596375
1772728922347109000,2.379109130859375,-0.06475166976451874,-0.10323614627122879,-0.20402882993221283
1772728922356627200,2.388627197265625,-0.05436696484684944,-0.10445787757635117,-0.19364413619041443
1772728922366145300,2.398145263671875,-0.043982263654470444,-0.10751219838857651,-0.16615521907806396
1772728922375663000,2.4076630859375,-0.036651886999607086,-0.10079269111156464,-0.12583814561367035
1772728922385181200,2.41718115234375,-0.03237583488225937,-0.08307760953903198,-0.06047561392188072
1772728922394699300,2.42669921875,-0.033597562462091446,-0.056810423731803894,0.03543015569448471
1772728922404217300,2.43621728515625,-0.039706211537122726,-0.021991131827235222,0.15515965223312378
1772728922413735400,2.4457353515625,-0.04886918142437935,0.006719512399286032,0.27550002932548523
1772728922423253500,2.45525341796875,-0.0616973415017128,0.028099779039621353,0.36224281787872314
1772728922432771300,2.464771240234375,-0.06780599057674408,0.059864748269319534,0.39339691400527954
1772728922442289400,2.474289306640625,-0.06841685622930527,0.09407317638397217,0.36712974309921265
1772728922451807500,2.483807373046875,-0.05742128938436508,0.10934479534626007,0.30115634202957153
1772728922461325600,2.49332568359375,-0.03909534588456154,0.10384701192378998,0.21319180727005005
1772728922470843600,2.50284375,-0.013439024798572063,0.08429934084415436,0.1185077652335167
1772728922480361700,2.51236181640625,0.020158538594841957,0.06597339361906052,0.033597562462091446
1772728922489879600,2.521879638671875,0.06536252796649933,0.05192350596189499,-0.04153880476951599
1772728922499397600,2.531397705078125,0.10690133273601532,0.026878049597144127,-0.09834922850131989
1772728922508915700,2.540915771484375,0.13683371245861053,-0.018325943499803543,-0.12034036219120026
1772728922518433800,2.550433837890625,0.15210533142089844,-0.07452550530433655,-0.09346231073141098
1772728922527952000,2.559951904296875,0.1533270627260208,-0.15027274191379547,-0.007330377586185932
1772728922537470000,2.569469970703125,0.14782927930355072,-0.22968515753746033,0.1331685185432434
1772728922546987800,2.57898779296875,0.13133592903614044,-0.2889390289783478,0.2993237376213074
1772728922556505900,2.588505859375,0.10079269111156464,-0.2968802750110626,0.45326167345046997
1772728922566024000,2.59802392578125,0.06475166976451874,-0.24006985127925873,0.574212908744812
1772728922575542000,2.6075419921875,0.03787361457943916,-0.1533270627260208,0.6615665555000305
1772728922585060000,2.61706005859375,0.02626718580722809,-0.07819069176912308,0.7128791809082031
1772728922594578200,2.626578125,0.017104214057326317,-0.013439024798572063,0.7281508445739746
1772728922604096000,2.636095947265625,0.000610864779446274,0.04825831577181816,0.7037162184715271
1772728922613614000,2.645614013671875,-0.01893680728971958,0.09468404203653336,0.6585122346878052
1772728922623132200,2.655132080078125,-0.03909534588456154,0.12095122784376144,0.593149721622467
1772728922632650200,2.664650146484375,-0.046425722539424896,0.11728604137897491,0.5094612240791321
1772728922642168000,2.67416796875,-0.043982263654470444,0.11423171311616898,0.4153880476951599
1772728922651686400,2.683686279296875,-0.036651886999607086,0.1130099818110466,0.3176496922969818
1772728922661204200,2.693204345703125,-0.02871064469218254,0.10567960888147354,0.22663083672523499
1772728922670722300,2.702722412109375,-0.020158538594841957,0.10079269111156464,0.1337793916463852
1772728922680240400,2.712240478515625,-0.004886918235570192,0.10384701192378998,0.029932374134659767
1772728922689758500,2.721758544921875,0.01649334840476513,0.11239911615848541,-0.06902772188186646
1772728922699276300,2.7312763671875,0.04520399495959282,0.11056652665138245,-0.14782927930355072
1772728922708794400,2.74079443359375,0.0818558782339096,0.09651663154363632,-0.20463970303535461
1772728922718312400,2.7503125,0.12278381735086441,0.07880155742168427,-0.2419024556875229
1772728922727830500,2.75983056640625,0.16737695038318634,0.05742128938436508,-0.2565632164478302
1772728922737348600,2.7693486328125,0.2107483446598053,0.03481929376721382,-0.23945899307727814
1772728922746866700,2.77886669921875,0.2522871494293213,0.01588248461484909,-0.185092031955719
1772728922756384800,2.788384765625,0.2974911332130432,0.006108647678047419,-0.09896009415388107
1772728922765902600,2.797902587890625,0.3433060050010681,0.017104214057326317,-0.014660755172371864
1772728922775420700,2.807420654296875,0.38179048895835876,0.036651886999607086,0.04214967042207718
1772728922784938800,2.816938720703125,0.4159989058971405,0.056810423731803894,0.05864302068948746
1772728922794456800,2.826456787109375,0.44898560643196106,0.07086031138896942,0.05070177838206291
1772728922803975000,2.835974853515625,0.4764745235443115,0.08429934084415436,0.028099779039621353
1772728922813493000,2.845492919921875,0.4935787320137024,0.09529490768909454,0
1772728922823010800,2.8550107421875,0.5015199780464172,0.1026252806186676,-0.039706211537122726
1772728922832529000,2.86452880859375,0.5033525824546814,0.09834922850131989,-0.09896009415388107
1772728922842047000,2.874046875,0.5051851868629456,0.08307760953903198,-0.17104214429855347
1772728922851565000,2.88356494140625,0.5045742988586426,0.05558869615197182,-0.2406807243824005
1772728922861083000,2.893082763671875,0.5076286196708679,0.023212861269712448,-0.30115634202957153
1772728922870601200,2.902601318359375,0.5094612240791321,-0.008552107028663158,-0.3549124300479889
1772728922880119000,2.912119140625,0.5094612240791321,-0.04214967042207718,-0.40744680166244507
1772728922889637000,2.92163720703125,0.5131264328956604,-0.07635809481143951,-0.4563159942626953
1772728922899155200,2.9311552734375,0.5253437161445618,-0.10018182545900345,-0.4935787320137024
1772728922908673300,2.94067333984375,0.5485565662384033,-0.11606431007385254,-0.5137372612953186
1772728922918191000,2.950191162109375,0.573602020740509,-0.12950333952903748,-0.5174024701118469
1772728922927709200,2.959709228515625,0.5937605500221252,-0.13194678723812103,-0.5039634704589844
1772728922937227300,2.969227294921875,0.6010909676551819,-0.12217295914888382,-0.48075059056282043
1772728922946745300,2.978745361328125,0.5980366468429565,-0.08613193035125732,-0.4471530318260193
1772728922956263400,2.988263427734375,0.5955931544303894,-0.0256563201546669,-0.4105011224746704
1772728922965781500,2.997781494140625,0.5974257588386536,0.04520399495959282,-0.3707949221134186
1772728922975299300,3.00729931640625,0.5992583632469177,0.1081230640411377,-0.3249800503253937
1772728922984817400,3.0168173828125,0.5992583632469177,0.164322629570961,-0.2718348205089569
1772728922994335500,3.02633544921875,0.5968148708343506,0.20891575515270233,-0.21807873249053955
1772728923003853600,3.035853515625,0.5888736248016357,0.23823726177215576,-0.1740964651107788
1772728923013371600,3.04537158203125,0.5815432667732239,0.24984370172023773,-0.14660754799842834
1772728923022889700,3.0548896484375,0.5827649831771851,0.24862197041511536,-0.1331685185432434
1772728923032407600,3.064407470703125,0.5949822664260864,0.24862197041511536,-0.12217295914888382
1772728923041925600,3.073925537109375,0.6126973628997803,0.24495677649974823,-0.11056652665138245
1772728923051443700,3.083443603515625,0.6273581385612488,0.23029601573944092,-0.10079269111156464
1772728923060961800,3.0929619140625,0.6395754218101501,0.205861434340477,-0.09407317638397217
1772728923070480000,3.10247998046875,0.6517927050590515,0.17837251722812653,-0.0824667438864708
1772728923079997700,3.111997802734375,0.6633991599082947,0.15027274191379547,-0.05742128938436508
1772728923089515800,3.121515869140625,0.6719512343406677,0.12522727251052856,-0.025045456364750862
1772728923099033900,3.131033935546875,0.676227331161499,0.10629047453403473,0.012217295356094837
1772728923108552000,3.140552001953125,0.6768381595611572,0.0922405794262886,0.05558869615197182
1772728923118070000,3.150070068359375,0.676227331161499,0.09101885557174683,0.10690133273601532
1772728923127588000,3.159588134765625,0.676227331161499,0.10079269111156464,0.1588248461484909
1772728923137106000,3.16910595703125,0.6829468011856079,0.12400554865598679,0.205861434340477
1772728923146624000,3.1786240234375,0.6933315396308899,0.16554436087608337,0.2406807243824005
1772728923156142000,3.18814208984375,0.7067705392837524,0.2101374864578247,0.24923282861709595
1772728923165660200,3.19766015625,0.7202095985412598,0.25473061203956604,0.22174391150474548
1772728923175178200,3.20717822265625,0.7336485981941223,0.2919933497905731,0.15638138353824615
1772728923184696300,3.2166962890625,0.748920202255249,0.3121519088745117,0.07941242307424545
1772728923194214100,3.226214111328125,0.767857015132904,0.30543237924575806,0.009162971749901772
1772728923203732200,3.235732177734375,0.7898481488227844,0.28588470816612244,-0.053756099194288254
1772728923213250300,3.245250244140625,0.8069523572921753,0.2614501118659973,-0.1233946830034256
1772728923222768400,3.254768310546875,0.813671886920929,0.2467893660068512,-0.20158538222312927
1772728923232286200,3.2642861328125,0.813060998916626,0.25350889563560486,-0.2730565667152405
1772728923241804500,3.273804443359375,0.8191696405410767,0.25900667905807495,-0.3121519088745117
1772728923251322400,3.283322265625,0.8277217745780945,0.2528980076313019,-0.2926042377948761
1772728923260840400,3.29284033203125,0.8393282294273376,0.22235478460788727,-0.18142683804035187
1772728923270358500,3.302358642578125,0.8594867587089539,0.1637117564678192,0.03176496922969818
1772728923279876600,3.311876708984375,0.8759800791740417,0.10873392969369888,0.3017672002315521
1772728923289394400,3.32139453125,0.8710931539535522,0.08307760953903198,0.5571087002754211
1772728923298912500,3.33091259765625,0.8484911918640137,0.1130099818110466,0.7464767694473267
1772728923308430600,3.3404306640625,0.8344413042068481,0.2101374864578247,0.8753692507743835
1772728923317948700,3.34994873046875,0.8399390578269958,0.34086254239082336,0.9541707634925842
1772728923327466800,3.359466796875,0.850934624671936,0.48991355299949646,0.9669989347457886
1772728923336984800,3.36898486328125,0.8570432662963867,0.6462949514389038,0.9144645929336548
1772728923346502700,3.378502685546875,0.8594867587089539,0.7837395071983337,0.7935133576393127
1772728923356020700,3.388020751953125,0.8600975871086121,0.8784235715866089,0.6163625717163086
1772728923365538800,3.397538818359375,0.8674280047416687,0.9101884961128235,0.4056142270565033
1772728923375057000,3.407056884765625,0.8857539296150208,0.8869756460189819,0.18570289015769958
1772728923384575000,3.416574951171875,0.9169080257415771,0.8271108865737915,-0.012217295356094837
1772728923394093000,3.426093017578125,0.9590576887130737,0.7379246354103088,-0.17226386070251465
1772728923403611000,3.43561083984375,1.0024291276931763,0.6340776681900024,-0.29138249158859253
1772728923413129000,3.44512890625,1.046411395072937,0.5216785073280334,-0.37262752652168274
1772728923422647000,3.45464697265625,1.084285020828247,0.4050033390522003,-0.42332929372787476
1772728923432165000,3.4641650390625,1.1129956245422363,0.2926042377948761,-0.4575377106666565
1772728923441683200,3.47368310546875,1.1313215494155884,0.1948658674955368,-0.48502662777900696
1772728923451201000,3.483200927734375,1.1331541538238525,0.09590577334165573,-0.5045742988586426
1772728923460719000,3.492718994140625,1.1184934377670288,-0.014049889519810677,-0.5015199780464172
1772728923470237200,3.5022373046875,1.0958913564682007,-0.11667517572641373,-0.46608981490135193
1772728923479755300,3.51175537109375,1.0702351331710815,-0.18203771114349365,-0.401949018239975
1772728923489273300,3.5212734375,1.045189619064331,-0.19730933010578156,-0.318871408700943
1772728923498791400,3.53079150390625,1.0225876569747925,-0.14782927930355072,-0.22418737411499023
1772728923508309200,3.540309326171875,1.000596523284912,-0.05558869615197182,-0.12400554865598679
1772728923517827300,3.549827392578125,0.9743293523788452,0.06291907280683517,-0.028099779039621353
1772728923527345400,3.559345458984375,0.943175196647644,0.185092031955719,0.04581485688686371
1772728923536863500,3.568863525390625,0.9114102721214294,0.2932150959968567,0.08429934084415436
1772728923546381600,3.578381591796875,0.8857539296150208,0.38179048895835876,0.08002328872680664
1772728923555899600,3.587899658203125,0.8680388331413269,0.4465421438217163,0.04153880476951599
1772728923565417500,3.59741748046875,0.8588758707046509,0.49663305282592773,-0.020769402384757996
1772728923574935600,3.606935546875,0.8558215498924255,0.5345066785812378,-0.08796452730894089
1772728923584453600,3.61645361328125,0.8576541543006897,0.5406153202056885,-0.13988803327083588
1772728923593971700,3.6259716796875,0.8600975871086121,0.516791582107544,-0.17165300250053406
1772728923603489500,3.635489501953125,0.8637627959251404,0.47097674012184143,-0.19792018830776215
1772728923613008000,3.6450078125,0.8674280047416687,0.4251618981361389,-0.22357651591300964
1772728923622525700,3.654525634765625,0.8741474747657776,0.3952295184135437,-0.24923282861709595
1772728923632043800,3.664043701171875,0.880256175994873,0.36285367608070374,-0.2712239623069763
1772728923641561900,3.673561767578125,0.8814778923988342,0.32559093832969666,-0.2883281707763672
1772728923651080000,3.683079833984375,0.880256175994873,0.2932150959968567,-0.29626941680908203
1772728923660597800,3.69259765625,0.8778126835823059,0.2706131041049957,-0.2974911332130432
1772728923670115800,3.70211572265625,0.8753692507743835,0.2528980076313019,-0.29626941680908203
1772728923679634000,3.711634033203125,0.8723149299621582,0.23273947834968567,-0.2932150959968567
1772728923689152000,3.721152099609375,0.870482325553894,0.21319180727005005,-0.28954991698265076
1772728923698670000,3.730670166015625,0.8717040419578552,0.20341797173023224,-0.27916520833969116
1772728923708188200,3.740188232421875,0.8759800791740417,0.19608759880065918,-0.2577849328517914
1772728923717706000,3.7497060546875,0.8808670043945312,0.19181154668331146,-0.22235478460788727
1772728923727224000,3.75922412109375,0.8826996088027954,0.1954767256975174,-0.18264856934547424
1772728923736742100,3.7687421875,0.8741474747657776,0.19730933010578156,-0.14660754799842834
1772728923746260200,3.77826025390625,0.8619301915168762,0.1893680840730667,-0.12095122784376144
1772728923755778300,3.7877783203125,0.8533781170845032,0.17043127119541168,-0.10323614627122879
1772728923765296000,3.797296142578125,0.8491020202636719,0.14110976457595825,-0.08613193035125732
1772728923774814200,3.806814208984375,0.8472694754600525,0.11056652665138245,-0.06597339361906052
1772728923784332300,3.816332275390625,0.8448259830474854,0.08307760953903198,-0.04886918142437935
1772728923793850400,3.825850341796875,0.8381064534187317,0.05925388261675835,-0.036651886999607086
1772728923803368400,3.835368408203125,0.8307760953903198,0.05497783049941063,-0.014049889519810677
1772728923812886500,3.844886474609375,0.8210022449493408,0.06536252796649933,0.025045456364750862
1772728923822404400,3.854404296875,0.8179479241371155,0.08857539296150208,0.08491020649671555
1772728923831922400,3.86392236328125,0.8167262077331543,0.10690133273601532,0.15760311484336853
1772728923841440500,3.8734404296875,0.8167262077331543,0.11178825795650482,0.22479823231697083
1772728923850958600,3.88295849609375,0.8167262077331543,0.09896009415388107,0.2730565667152405
1772728923860476700,3.8924765625,0.8118392825126648,0.07635809481143951,0.29443681240081787
1772728923869994800,3.901994873046875,0.8051197528839111,0.04825831577181816,0.27977606654167175
1772728923879512600,3.9115126953125,0.8063415288925171,0.03787361457943916,0.23212862014770508
1772728923889030700,3.92103076171875,0.8173370957374573,0.040317077189683914,0.15699224174022675
1772728923898548700,3.930548828125,0.8368847370147705,0.04276053607463837,0.06108647957444191
1772728923908066800,3.94006689453125,0.860708475112915,0.034208428114652634,-0.043982263654470444
1772728923917584600,3.949584716796875,0.8900299668312073,0.02932151034474373,-0.15577052533626556
1772728923927102700,3.959102783203125,0.9315688014030457,0.043982263654470444,-0.2712239623069763
1772728923936620800,3.968620849609375,0.9883792400360107,0.07086031138896942,-0.35674503445625305
1772728923946139000,3.978138916015625,1.0458004474639893,0.08124501258134842,-0.38240134716033936
1772728923955657000,3.987656982421875,1.084285020828247,0.04520399495959282,-0.3335321843624115
1772728923965175000,3.997175048828125,1.1026109457015991,-0.053756099194288254,-0.20463970303535461
1772728923974692900,4.00669287109375,1.1038326025009155,-0.18570289015769958,0.006719512399286032
1772728923984211000,4.0162109375,1.0873392820358276,-0.2724456787109375,0.27427828311920166
1772728923993729000,4.02572900390625,1.043357014656067,-0.2938259541988373,0.546113133430481
1772728924003247000,4.0352470703125,0.9786053895950317,-0.25411975383758545,0.7806851863861084
1772728924012765200,4.04476513671875,0.9187406301498413,-0.13622283935546875,0.9669989347457886
1772728924022283300,4.054283203125,0.8747583627700806,0.047036588191986084,1.0751219987869263
1772728924031801000,4.063801025390625,0.8460476994514465,0.2809978127479553,1.0855066776275635
1772728924041319200,4.073319091796875,0.8448259830474854,0.545502245426178,0.9975422024726868
1772728924050837200,4.082837158203125,0.8735366463661194,0.7788525819778442,0.8301652073860168
1772728924060355300,4.092355224609375,0.925460159778595,0.924238383769989,0.6023126840591431
1772728924069873400,4.101873291015625,0.9920443892478943,0.9767727851867676,0.3500255048274994
1772728924079391200,4.11139111328125,1.0684025287628174,0.9468404054641724,0.1178968995809555
1772728924088909300,4.120909423828125,1.1380411386489868,0.8454368710517883,-0.07513637095689774
1772728924098427400,4.130427490234375,1.2003493309020996,0.6646208763122559,-0.21991132199764252
1772728924107945500,4.139945556640625,1.2547162771224976,0.44898560643196106,-0.3182605504989624
1772728924117463600,4.149463623046875,1.2968659400939941,0.25961753726005554,-0.3585776388645172
1772728924126981600,4.158981689453125,1.3365721702575684,0.11056652665138245,-0.3194822669029236
1772728924136499500,4.16849951171875,1.3756674528121948,0.0054977829568088055,-0.22357651591300964
1772728924146017500,4.178017578125,1.4117084741592407,-0.031154103577136993,-0.09529490768909454
1772728924155535600,4.18753564453125,1.441640853881836,-0.001832594396546483,0.043982263654470444
1772728924165053700,4.1970537109375,1.4679080247879028,0.08613193035125732,0.18264856934547424
1772728924174571800,4.20657177734375,1.4868448972702026,0.21197007596492767,0.3072649836540222
1772728924184089900,4.21608984375,1.499062180519104,0.3494146466255188,0.4068359434604645
1772728924193607700,4.225607666015625,1.5112794637680054,0.4862483739852905,0.471587598323822
1772728924203125800,4.235125732421875,1.525329351425171,0.6133082509040833,0.49663305282592773
1772728924212643800,4.244643798828125,1.5412118434906006,0.7177661061286926,0.4838049113750458
1772728924222162000,4.254161865234375,1.5595377683639526,0.7904590368270874,0.43371400237083435
1772728924231679700,4.2636796875,1.5766420364379883,0.8436042666435242,0.3500255048274994
1772728924241197800,4.27319775390625,1.5992439985275269,0.8643736839294434,0.23457208275794983
1772728924250716000,4.2827158203125,1.6236785650253296,0.8576541543006897,0.09896009415388107
1772728924260234000,4.29223388671875,1.6438370943069458,0.8368847370147705,-0.04153880476951599
1772728924269752000,4.301751953125,1.6591087579727173,0.8093958497047424,-0.18631376326084137
1772728924279270100,4.311270263671875,1.6798781156539917,0.7922916412353516,-0.3292561173439026
1772728924288788000,4.3207880859375,1.7061452865600586,0.7721330523490906,-0.4569268524646759
1772728924298306000,4.33030615234375,1.7342450618743896,0.7367029190063477,-0.5497782826423645
1772728924307824000,4.33982421875,1.7592905759811401,0.6860011219978333,-0.6096430420875549
1772728924317342200,4.34934228515625,1.7794491052627563,0.6371319890022278,-0.6420188546180725
1772728924326860300,4.3588603515625,1.7947207689285278,0.5919279456138611,-0.6414080262184143
1772728924336378400,4.36837841796875,1.8044945001602173,0.5351175665855408,-0.6053670048713684
1772728924345896200,4.377896240234375,1.8179335594177246,0.4728093445301056,-0.5406153202056885
1772728924355414300,4.387414306640625,1.8393138647079468,0.4147771894931793,-0.4575377106666565
1772728924364932400,4.396932373046875,1.8625266551971436,0.37140578031539917,-0.3646862804889679
1772728924374450400,4.406450439453125,1.8735222816467285,0.360410213470459,-0.27550002932548523
1772728924383968500,4.415968505859375,1.8723005056381226,0.379347026348114,-0.19792018830776215
1772728924393486300,4.425486328125,1.8613049983978271,0.4251618981361389,-0.13255766034126282
1772728924403004400,4.43500439453125,1.8454225063323975,0.4838049113750458,-0.07757982611656189
1772728924412522500,4.4445224609375,1.8270965814590454,0.5430588126182556,-0.03543015569448471
1772728924422040600,4.45404052734375,1.8106032609939575,0.6010909676551819,-0.002443459117785096
1772728924431558700,4.46355859375,1.79410982131958,0.6487383842468262,0.02260199747979641
1772728924441076700,4.47307666015625,1.7782273292541504,0.6902772188186646,0.04153880476951599
1772728924450594600,4.482594482421875,1.7641774415969849,0.720820426940918,0.056199558079242706
1772728924460112600,4.492112548828125,1.7525711059570312,0.7312051653862,0.06352993845939636
1772728924469630700,4.501630615234375,1.7427972555160522,0.7293725609779358,0.06597339361906052
1772728924479148800,4.511148681640625,1.739132046699524,0.7226530313491821,0.06108647957444191
1772728924488666600,4.52066650390625,1.739132046699524,0.711046576499939,0.05253437161445618
1772728924498184700,4.530184814453125,1.739132046699524,0.6969966888427734,0.04764745384454727
1772728924507702800,4.539702880859375,1.7360776662826538,0.6860011219978333,0.04581485688686371
1772728924517220900,4.549220947265625,1.7318016290664673,0.6872228980064392,0.04886918142437935
1772728924526739000,4.558739013671875,1.729358196258545,0.6988292932510376,0.05864302068948746
1772728924536257000,4.568257080078125,1.7275255918502808,0.7098248600959778,0.07513637095689774
1772728924545774800,4.57777490234375,1.7305799722671509,0.7263182401657104,0.09162971377372742
1772728924555293000,4.58729296875,1.7366886138916016,0.739757239818573,0.10201441496610641
1772728924564811000,4.59681103515625,1.7421863079071045,0.7446441650390625,0.10079269111156464
1772728924574329000,4.6063291015625,1.7452406883239746,0.7373138070106506,0.09651663154363632
1772728924583847200,4.61584716796875,1.740964651107788,0.7128791809082031,0.09407317638397217
1772728924593365200,4.625365234375,1.7385212182998657,0.6695078015327454,0.09162971377372742
1772728924602883000,4.634883056640625,1.7397428750991821,0.6304124593734741,0.08368847519159317
1772728924612401200,4.644401123046875,1.7427972555160522,0.6053670048713684,0.07330377399921417
1772728924621919200,4.653919189453125,1.7427972555160522,0.5864301919937134,0.06536252796649933
1772728924631437300,4.663437255859375,1.7372994422912598,0.573602020740509,0.06291907280683517
1772728924640955400,4.672955322265625,1.7275255918502808,0.5852084755897522,0.06047561392188072
1772728924650473200,4.68247314453125,1.719584345817566,0.6255255341529846,0.06047561392188072
1772728924659991300,4.6919912109375,1.7153083086013794,0.675616443157196,0.05253437161445618
1772728924669509400,4.70150927734375,1.7189735174179077,0.7330377101898193,0.02626718580722809
1772728924679027500,4.71102734375,1.7305799722671509,0.7977893948554993,-0.03298669680953026
1772728924688545500,4.720545654296875,1.7544035911560059,0.8527672290802002,-0.12522727251052856
1772728924698063600,4.730063720703125,1.785557746887207,0.8918625712394714,-0.22296564280986786
1772728924707581400,4.73958154296875,1.8130466938018799,0.905912458896637,-0.2926042377948761
1772728924717099500,4.749099609375,1.8270965814590454,0.8735366463661194,-0.31581708788871765
1772728924726617600,4.75861767578125,1.841146469116211,0.7751874327659607,-0.24556763470172882
1772728924736135700,4.7681357421875,1.8704679012298584,0.6243038177490234,-0.04886918142437935
1772728924745653500,4.777653564453125,1.9077306985855103,0.5180133581161499,0.2467893660068512
1772728924755171800,4.787171875,1.9370522499084473,0.47525280714035034,0.564439058303833
1772728924764689700,4.796689697265625,1.932165265083313,0.49052441120147705,0.8271108865737915
1772728924774207700,4.806207763671875,1.905898094177246,0.5870410799980164,1.0097594261169434
1772728924783725800,4.815725830078125,1.8802417516708374,0.7507528066635132,1.1111630201339722
1772728924793244000,4.825243896484375,1.8545855283737183,0.9505056142807007,1.119104266166687
1772728924802761700,4.83476171875,1.839924693107605,1.176525592803955,1.0293071269989014
1772728924812279800,4.84427978515625,1.848476767539978,1.398269534111023,0.8478803038597107
1772728924821798000,4.8537978515625,1.8820743560791016,1.5497639179229736,0.5876519083976746
1772728924831316000,4.86331591796875,1.9388848543167114,1.6022982597351074,0.2919933497905731
1772728924840834000,4.872833984375,2.008523464202881,1.5656464099884033,0.009773836471140385
1772728924850352000,4.88235205078125,2.079383611679077,1.459966778755188,-0.22296564280986786
1772728924859870000,4.891869873046875,2.143524408340454,1.3066397905349731,-0.39828383922576904
1772728924869388000,4.901387939453125,2.1985023021698,1.1233803033828735,-0.5204567909240723
1772728924878906000,4.910906005859375,2.2449281215667725,0.915075421333313,-0.5766563415527344
1772728924888424200,4.920424072265625,2.27424955368042,0.6976075768470764,-0.5607738494873047
1772728924897942000,4.92994189453125,2.2754712104797363,0.49602219462394714,-0.4880809485912323
1772728924907460000,4.939460205078125,2.2473714351654053,0.3347539007663727,-0.37812530994415283
1772728924916978200,4.948978271484375,2.196669816970825,0.2528980076313019,-0.25900667905807495
1772728924926496300,4.958496337890625,2.134972333908081,0.2516762912273407,-0.15577052533626556
1772728924936014300,4.968014404296875,2.076329469680786,0.3274235129356384,-0.07574722915887833
1772728924945532400,4.977532470703125,2.0219624042510986,0.4355465769767761,-0.0054977829568088055
1772728924955050500,4.987050537109375,1.9633194208145142,0.5412262082099915,0.05925388261675835
1772728924964568300,4.996568359375,1.9028438329696655,0.6414080262184143,0.11239911615848541
1772728924974086400,5.00608642578125,1.8454225063323975,0.730594277381897,0.14721840620040894
1772728924983604500,5.0156044921875,1.79410982131958,0.8179479241371155,0.15271618962287903
1772728924993122600,5.02512255859375,1.7544035911560059,0.9022472500801086,0.13194678723812103
1772728925002640400,5.034640380859375,1.7275255918502808,0.9676098227500916,0.08552107214927673
1772728925012158500,5.044158447265625,1.7153083086013794,1.0097594261169434,0.024434590712189674
1772728925021676500,5.053676513671875,1.7061452865600586,1.0348049402236938,-0.04214967042207718
1772728925031194600,5.063194580078125,1.6951497793197632,1.033583164215088,-0.1130099818110466
1772728925040712700,5.072712646484375,1.6841541528701782,1.0122029781341553,-0.18814635276794434
1772728925050230800,5.082230712890625,1.6731586456298828,0.9834923148155212,-0.2632827162742615
1772728925059748600,5.09174853515625,1.6615521907806396,0.9382883310317993,-0.3298669755458832
1772728925069266700,5.1012666015625,1.646891474723816,0.8814778923988342,-0.38667741417884827
1772728925078784800,5.11078466796875,1.6285655498504639,0.8191696405410767,-0.43004879355430603
1772728925088302800,5.120302734375,1.599854826927185,0.7440332770347595,-0.4563159942626953
1772728925097821000,5.129821044921875,1.5552617311477661,0.6707295179367065,-0.471587598323822
1772728925107339000,5.139339111328125,1.50028395652771,0.5968148708343506,-0.4776962697505951
1772728925116856800,5.14885693359375,1.442862629890442,0.5332849621772766,-0.46425724029541016
1772728925126375000,5.158375,1.387273907661438,0.4770853817462921,-0.42394015192985535
1772728925135893000,5.16789306640625,1.3353503942489624,0.4355465769767761,-0.36835145950317383
1772728925145411000,5.1774111328125,1.286481261253357,0.4111120104789734,-0.30970844626426697
1772728925154929000,5.186928955078125,1.2455532550811768,0.38728827238082886,-0.24862197041511536
1772728925164447000,5.196447021484375,1.2107340097427368,0.3549124300479889,-0.19364413619041443
1772728925173965000,5.205965087890625,1.1801908016204834,0.3274235129356384,-0.15088360011577606
1772728925183483100,5.215483154296875,1.155145287513733,0.29993459582328796,-0.1081230640411377
1772728925193001200,5.225001220703125,1.1294889450073242,0.2767217457294464,-0.06230820715427399
1772728925202519300,5.234519287109375,1.1032217741012573,0.25961753726005554,-0.010384701192378998
1772728925212037000,5.244037109375,1.0781763792037964,0.2419024556875229,0.03909534588456154
1772728925221555200,5.25355517578125,1.0506874322891235,0.22846342623233795,0.07757982611656189
1772728925231073300,5.2630732421875,1.0219768285751343,0.2052505612373352,0.09834922850131989
1772728925240591400,5.27259130859375,0.988990068435669,0.16859868168830872,0.09834922850131989
1772728925250109400,5.282109375,0.9511164426803589,0.12644900381565094,0.0873536616563797
1772728925259627300,5.291627197265625,0.915075421333313,0.08857539296150208,0.07513637095689774
1772728925269145300,5.301145263671875,0.8839213252067566,0.0513126403093338,0.07757982611656189
1772728925278663400,5.310663330078125,0.850934624671936,0.009162971749901772,0.0977383628487587
1772728925288181500,5.320181396484375,0.8185588121414185,-0.0360410213470459,0.12644900381565094
1772728925297699600,5.329699462890625,0.7880155444145203,-0.07513637095689774,0.16676609218120575
1772728925307217700,5.3392177734375,0.7611374855041504,-0.10873392969369888,0.20769402384757996
1772728925316735500,5.348735595703125,0.7373138070106506,-0.13011419773101807,0.2419024556875229
1772728925326253600,5.358253662109375,0.7128791809082031,-0.1490510106086731,0.2608392536640167
1772728925335771600,5.367771728515625,0.6811142563819885,-0.16737695038318634,0.24923282861709595
1772728925345289700,5.377289794921875,0.6456840634346008,-0.18387030065059662,0.20158538222312927
1772728925354807600,5.3868076171875,0.6114756464958191,-0.18387030065059662,0.1233946830034256
1772728925364325600,5.39632568359375,0.5790998339653015,-0.18142683804035187,0.01649334840476513
1772728925373843700,5.40584375,0.5577195286750793,-0.18264856934547424,-0.11728604137897491
1772728925383361800,5.41536181640625,0.555276095867157,-0.16310089826583862,-0.26878049969673157
1772728925392879900,5.4248798828125,0.5681042671203613,-0.13133592903614044,-0.401949018239975
1772728925402398000,5.43439794921875,0.5876519083976746,-0.12461641430854797,-0.4770853817462921
1772728925411915800,5.443915771484375,0.6004800796508789,-0.17837251722812653,-0.42332929372787476
1772728925421433900,5.453433837890625,0.5790998339653015,-0.27855435013771057,-0.2205221801996231
1772728925430952000,5.462951904296875,0.5204567909240723,-0.37323838472366333,0.0824667438864708
1772728925440470000,5.472469970703125,0.41783151030540466,-0.3842339515686035,0.39828383922576904
1772728925449988000,5.481988037109375,0.29504770040512085,-0.2779434621334076,0.6603448390960693
1772728925459506000,5.491505859375,0.21502439677715302,-0.08429934084415436,0.841160774230957
1772728925469024000,5.50102392578125,0.1747073233127594,0.14721840620040894,0.9126319885253906
1772728925478542000,5.5105419921875,0.1545487940311432,0.3439168632030487,0.880256175994873
1772728925488060200,5.52006005859375,0.14599667489528656,0.47464191913604736,0.7819069027900696
1772728925497578200,5.529578125,0.13988803327083588,0.5424479246139526,0.6560688018798828
1772728925507096300,5.539096435546875,0.13500112295150757,0.5607738494873047,0.5253437161445618
1772728925516614100,5.5486142578125,0.1386663019657135,0.5436696410179138,0.4001164436340332
1772728925526132200,5.55813232421875,0.1496618688106537,0.5021308660507202,0.27916520833969116
1772728925535650300,5.567650390625,0.17043127119541168,0.4312705397605896,0.17226386070251465
1772728925545168400,5.57716845703125,0.19853104650974274,0.34574946761131287,0.08368847519159317
1772728925554686200,5.586686279296875,0.2309068888425827,0.2669478952884674,0.01588248461484909
1772728925564204500,5.59620458984375,0.2669478952884674,0.20463970303535461,-0.025045456364750862
1772728925573722400,5.605722412109375,0.2987128794193268,0.16126830875873566,-0.03176496922969818
1772728925583240400,5.615240478515625,0.32009315490722656,0.13622283935546875,-0.001221729558892548
1772728925592758500,5.624758544921875,0.33658650517463684,0.13683371245861053,0.04825831577181816
1772728925602276600,5.634276611328125,0.3494146466255188,0.1545487940311432,0.10018182545900345
1772728925611794400,5.64379443359375,0.36712974309921265,0.18631376326084137,0.143553227186203
1772728925621312500,5.6533125,0.39339691400527954,0.24312418699264526,0.17043127119541168
1772728925630830600,5.66283056640625,0.4202749729156494,0.3335321843624115,0.18325942754745483
1772728925640348700,5.6723486328125,0.4477638900279999,0.4367683231830597,0.18753549456596375
1772728925649866500,5.681866455078125,0.4740310609340668,0.5259546041488647,0.1795942485332489
1772728925659384600,5.691384521484375,0.5045742988586426,0.5900954008102417,0.1496618688106537
1772728925668902700,5.700902587890625,0.5381718873977661,0.6151408553123474,0.09590577334165573
1772728925678420700,5.710420654296875,0.573602020740509,0.6071996092796326,0.023212861269712448
1772728925687938800,5.719938720703125,0.6096430420875549,0.5827649831771851,-0.06291907280683517
1772728925697457000,5.729456787109375,0.6438514590263367,0.5473348498344421,-0.15760311484336853
1772728925706975000,5.73897509765625,0.6780598759651184,0.4929678738117218,-0.25350889563560486
1772728925716492800,5.748492919921875,0.7086031436920166,0.4251618981361389,-0.34147340059280396
1772728925726011000,5.758010986328125,0.739757239818573,0.3659079968929291,-0.41233372688293457
1772728925735529000,5.767529052734375,0.7648026943206787,0.318871408700943,-0.46425724029541016
1772728925745047000,5.777047119140625,0.7794634699821472,0.27427828311920166,-0.5015199780464172
1772728925754564900,5.78656494140625,0.7855721116065979,0.23518294095993042,-0.5296197533607483
1772728925764083200,5.796083251953125,0.7855721116065979,0.2107483446598053,-0.5522217750549316
1772728925773601000,5.80560107421875,0.7855721116065979,0.20341797173023224,-0.5619956254959106
1772728925783119000,5.815119140625,0.7843503952026367,0.19669845700263977,-0.5534434914588928
1772728925792637200,5.82463720703125,0.7849612236022949,0.1802051067352295,-0.5216785073280334
1772728925802155300,5.8341552734375,0.7812960743904114,0.16004657745361328,-0.46425724029541016
1772728925811673000,5.843673095703125,0.7690787315368652,0.14049890637397766,-0.389120876789093
1772728925821191200,5.853191162109375,0.748920202255249,0.1178968995809555,-0.30543237924575806
1772728925830709200,5.862709228515625,0.7202095985412598,0.10751219838857651,-0.22724169492721558
1772728925840227300,5.872227294921875,0.6878337264060974,0.12583814561367035,-0.16554436087608337
1772728925849745400,5.881745361328125,0.6536253094673157,0.164322629570961,-0.12034036219120026
1772728925859263500,5.891263427734375,0.6200277805328369,0.205861434340477,-0.08002328872680664
1772728925868781300,5.90078125,0.5882627964019775,0.23945899307727814,-0.04520399495959282
1772728925878299400,5.91029931640625,0.5558869242668152,0.2571740746498108,-0.021991131827235222
1772728925887817500,5.9198173828125,0.5222893953323364,0.26022839546203613,-0.009162971749901772
1772728925897335600,5.92933544921875,0.4874700903892517,0.24801109731197357,-0.007330377586185932
1772728925906853400,5.938853271484375,0.45509424805641174,0.21930044889450073,-0.006108647678047419
1772728925916371500,5.948371337890625,0.430659681558609,0.17776164412498474,-0.0030543238390237093
1772728925925889500,5.9578896484375,0.41416633129119873,0.13683371245861053,0.000610864779446274
1772728925935407600,5.96740771484375,0.4056142270565033,0.09834922850131989,0.010995565913617611
1772728925944925700,5.97692578125,0.39767298102378845,0.056810423731803894,0.021380268037319183
1772728925954443800,5.98644384765625,0.38850998878479004,0.007330377586185932,0.03481929376721382
1772728925963961600,5.995961669921875,0.3787361681461334,-0.03909534588456154,0.056199558079242706
1772728925973479700,6.005479736328125,0.3695732057094574,-0.07574722915887833,0.08552107214927673
1772728925982997800,6.014997802734375,0.35735589265823364,-0.08368847519159317,0.11667517572641373
1772728925992515800,6.024515869140625,0.3439168632030487,-0.05436696484684944,0.1533270627260208
1772728926002034000,6.034033935546875,0.3335321843624115,0.000610864779446274,0.19303326308727264
1772728926011551700,6.0435517578125,0.33108872175216675,0.07574722915887833,0.23762640357017517
1772728926021069800,6.05306982421875,0.3347539007663727,0.16187916696071625,0.2779434621334076
1772728926030588000,6.062587890625,0.34697118401527405,0.24862197041511536,0.28954991698265076
1772728926040106000,6.07210595703125,0.3707949221134186,0.3274235129356384,0.2718348205089569
1772728926049624000,6.0816240234375,0.401949018239975,0.39767298102378845,0.24801109731197357
1772728926059142100,6.09114208984375,0.4361574649810791,0.44409868121147156,0.21502439677715302
1772728926068660000,6.100659912109375,0.47036588191986084,0.45875945687294006,0.16310089826583862
1772728926078178000,6.110177978515625,0.5015199780464172,0.44898560643196106,0.08918625861406326
1772728926087696100,6.119696044921875,0.5351175665855408,0.4276053309440613,0.000610864779446274
1772728926097214200,6.129214111328125,0.5577195286750793,0.3854556679725647,-0.0818558782339096
1772728926106732000,6.13873193359375,0.5656607747077942,0.32009315490722656,-0.1386663019657135
1772728926116250000,6.14825,0.5681042671203613,0.22357651591300964,-0.15515965223312378
1772728926125768200,6.157768310546875,0.5827649831771851,0.09712749719619751,-0.09101885557174683
1772728926135286300,6.167286376953125,0.6157516837120056,-0.023212861269712448,0.05436696484684944
1772728926144804400,6.176804443359375,0.6554579138755798,-0.11056652665138245,0.24312418699264526
1772728926154322400,6.186322509765625,0.6829468011856079,-0.15760311484336853,0.4276053309440613
1772728926163840300,6.19584033203125,0.6933315396308899,-0.1490510106086731,0.5772672295570374
1772728926173358300,6.2053583984375,0.6969966888427734,-0.056810423731803894,0.6860011219978333
1772728926182876400,6.21487646484375,0.7012727856636047,0.09162971377372742,0.7617483735084534
1772728926192394500,6.22439453125,0.7061597108840942,0.24801109731197357,0.8008437156677246
1772728926201912600,6.23391259765625,0.7067705392837524,0.39217519760131836,0.7715222239494324
1772728926211430400,6.243430419921875,0.7006618976593018,0.5259546041488647,0.6420188546180725
1772728926220948500,6.252948486328125,0.6939423680305481,0.6365211009979248,0.4324922561645508
1772728926230466600,6.262466552734375,0.6982184648513794,0.7006618976593018,0.20219624042510986
1772728926239984600,6.271984619140625,0.7226530313491821,0.7232639193534851,-0.002443459117785096
1772728926249502700,6.281502685546875,0.7531962990760803,0.7263182401657104,-0.14660754799842834
1772728926259020800,6.291020751953125,0.7831286191940308,0.7232639193534851,-0.2370155304670334
1772728926268538600,6.30053857421875,0.8093958497047424,0.7043271064758301,-0.2981020212173462
1772728926278056700,6.310056640625,0.831997811794281,0.6701186895370483,-0.328645259141922
1772728926287574800,6.31957470703125,0.8545998334884644,0.6139190793037415,-0.31642794609069824
1772728926297092900,6.3290927734375,0.8692606091499329,0.536339282989502,-0.27916520833969116
1772728926306610700,6.338610595703125,0.8784235715866089,0.43493571877479553,-0.22724169492721558
1772728926316128800,6.348128662109375,0.8784235715866089,0.3121519088745117,-0.16676609218120575
1772728926325646800,6.357646728515625,0.8662062287330627,0.18203771114349365,-0.10506874322891235
1772728926335165000,6.3671650390625,0.841160774230957,0.07880155742168427,-0.056199558079242706
1772728926344683000,6.37668310546875,0.8093958497047424,0.034208428114652634,-0.024434590712189674
1772728926354201000,6.386201171875,0.7727439403533936,0.033597562462091446,0
1772728926363719000,6.395718994140625,0.7342594861984253,0.07024945318698883,0.017715077847242355
1772728926373237000,6.405237060546875,0.6994401812553406,0.14049890637397766,0.02932151034474373
1772728926382755000,6.414755126953125,0.6652317643165588,0.22479823231697083,0.03481929376721382
1772728926392273200,6.424273193359375,0.6334667801856995,0.3035998046398163,0.03298669680953026
1772728926401791000,6.433791015625,0.6078104376792908,0.3744601011276245,0.015271619893610477
1772728926411309000,6.44330908203125,0.5870410799980164,0.43371400237083435,-0.018325943499803543
1772728926420827100,6.4528271484375,0.5705476999282837,0.47097674012184143,-0.0616973415017128
1772728926430345200,6.46234521484375,0.5589412450790405,0.48502662777900696,-0.10629047453403473
1772728926439863300,6.47186328125,0.5516108870506287,0.4776962697505951,-0.1484401375055313
1772728926449381400,6.48138134765625,0.5424479246139526,0.45448338985443115,-0.18387030065059662
1772728926458899500,6.4908994140625,0.5314523577690125,0.4251618981361389,-0.21258094906806946
1772728926468417300,6.500417236328125,0.5186241865158081,0.3854556679725647,-0.2364046722650528
1772728926477935400,6.509935302734375,0.5021308660507202,0.33658650517463684,-0.2528980076313019
1772728926487453400,6.519453369140625,0.4819723069667816,0.2889390289783478,-0.26022839546203613
1772728926496971500,6.528971435546875,0.4563159942626953,0.24373504519462585,-0.25534147024154663
1772728926506489300,6.5384892578125,0.4269944727420807,0.20463970303535461,-0.24373504519462585
1772728926516007400,6.54800732421875,0.39278605580329895,0.1698204129934311,-0.22174391150474548
1772728926525525500,6.557525390625,0.3591884970664978,0.13744457066059113,-0.1905898153781891
1772728926535043600,6.567043701171875,0.33047783374786377,0.10567960888147354,-0.1490510106086731
1772728926544561700,6.576561767578125,0.3017672002315521,0.07880155742168427,-0.09896009415388107
1772728926554079700,6.586079833984375,0.2761108875274658,0.06352993845939636,-0.04825831577181816
1772728926563597600,6.59559765625,0.2577849328517914,0.07269290834665298,0.0030543238390237093
1772728926573115600,6.60511572265625,0.24251331388950348,0.09162971377372742,0.05497783049941063
1772728926582633700,6.6146337890625,0.22479823231697083,0.09590577334165573,0.10201441496610641
1772728926592151800,6.62415185546875,0.20952661335468292,0.0922405794262886,0.13683371245861053
1772728926601669600,6.633669677734375,0.19914191961288452,0.08368847519159317,0.14721840620040894
1772728926611187700,6.643187744140625,0.18875721096992493,0.06291907280683517,0.13194678723812103
1772728926620705800,6.652705810546875,0.17653992772102356,0.0360410213470459,0.08979712426662445
1772728926630224000,6.662223876953125,0.1594357043504715,0.017104214057326317,0.026878049597144127
1772728926639742000,6.671741943359375,0.14049890637397766,0.007941242307424545,-0.047036588191986084
1772728926649260000,6.681260009765625,0.1233946830034256,0.014049889519810677,-0.10995566099882126
1772728926658777900,6.69077783203125,0.10690133273601532,0.024434590712189674,-0.14721840620040894
1772728926668296000,6.7002958984375,0.0873536616563797,0.02626718580722809,-0.1637117564678192
1772728926677814000,6.70981396484375,0.06963858753442764,0.021380268037319183,-0.16126830875873566
1772728926687332000,6.71933203125,0.04886918142437935,0.006108647678047419,-0.14477495849132538
1772728926696850200,6.72885009765625,0.023212861269712448,-0.007330377586185932,-0.11117739230394363
1772728926706368000,6.738367919921875,0.004886918235570192,-0.017104214057326317,-0.0513126403093338
1772728926715886000,6.747885986328125,-0.011606430634856224,-0.02932151034474373,0.03481929376721382
1772728926725404200,6.757404052734375,-0.026878049597144127,-0.030543239787220955,0.12767073512077332
1772728926734922200,6.766922119140625,-0.049480047076940536,-0.020769402384757996,0.19914191961288452
1772728926744440300,6.7764404296875,-0.0769689604640007,-0.015271619893610477,0.23518294095993042
1772728926753958400,6.78595849609375,-0.10751219838857651,-0.014660755172371864,0.2260199636220932
1772728926763476200,6.795476318359375,-0.13255766034126282,-0.009773836471140385,0.17776164412498474
1772728926772994300,6.804994384765625,-0.14538581669330597,-0.004886918235570192,0.10079269111156464
1772728926782512400,6.814512451171875,-0.14538581669330597,0.008552107028663158,0.006108647678047419
1772728926792030500,6.824030517578125,-0.1331685185432434,0.011606430634856224,-0.09346231073141098
1772728926801548300,6.83354833984375,-0.1130099818110466,-0.015271619893610477,-0.1740964651107788
1772728926811066400,6.84306640625,-0.08796452730894089,-0.07757982611656189,-0.2101374864578247
1772728926820584400,6.85258447265625,-0.0665842592716217,-0.1740964651107788,-0.1740964651107788
1772728926830102500,6.8621025390625,-0.05253437161445618,-0.2864955961704254,-0.04581485688686371
1772728926839620600,6.87162060546875,-0.05436696484684944,-0.38179048895835876,0.1692095398902893
1772728926849138700,6.881138671875,-0.08674279600381851,-0.430659681558609,0.40927940607070923
1772728926858656500,6.890656494140625,-0.15088360011577606,-0.40866854786872864,0.6078104376792908
1772728926868174600,6.900174560546875,-0.22296564280986786,-0.32009315490722656,0.7250964641571045
1772728926877692700,6.909692626953125,-0.2834412455558777,-0.22235478460788727,0.7568614482879639
1772728926887210800,6.919210693359375,-0.33536475896835327,-0.14294235408306122,0.7067705392837524
1772728926896728800,6.928728759765625,-0.38301220536231995,-0.07574722915887833,0.6047561168670654
1772728926906246700,6.93824658203125,-0.4221075773239136,-0.023823726922273636,0.48075059056282043
1772728926915764700,6.9477646484375,-0.4581485986709595,0.0054977829568088055,0.3549124300479889
1772728926925282800,6.95728271484375,-0.4923570156097412,0.002443459117785096,0.23396120965480804
1772728926934801000,6.96680078125,-0.5180133581161499,-0.031154103577136993,0.11362084746360779
1772728926944319000,6.976319091796875,-0.5296197533607483,-0.07819069176912308,0.000610864779446274
1772728926953837000,6.985837158203125,-0.5320632457733154,-0.11911863088607788,-0.08552107214927673
1772728926963355000,6.99535498046875,-0.5302306413650513,-0.15515965223312378,-0.14172062277793884
1772728926972873000,7.004873046875,-0.5296197533607483,-0.18203771114349365,-0.17592905461788177
1772728926982391000,7.01439111328125,-0.5296197533607483,-0.1997527778148651,-0.19303326308727264
1772728926991909000,7.0239091796875,-0.5253437161445618,-0.19853104650974274,-0.1905898153781891
1772728927001427000,7.033427001953125,-0.5143481492996216,-0.1698204129934311,-0.1539379209280014
1772728927010945000,7.042945068359375,-0.4917461574077606,-0.12644900381565094,-0.06719512492418289
1772728927020463000,7.052463134765625,-0.45875945687294006,-0.08979712426662445,0.05864302068948746
1772728927029981200,7.061981201171875,-0.4263836145401001,-0.06108647957444191,0.19425499439239502
1772728927039499300,7.071499267578125,-0.39889469742774963,-0.04825831577181816,0.30543237924575806
1772728927049017300,7.081017333984375,-0.3738492429256439,-0.020158538594841957,0.3591884970664978
1772728927058535200,7.09053515625,-0.347582072019577,0.023212861269712448,0.35246896743774414
1772728927068053200,7.10005322265625,-0.31581708788871765,0.05925388261675835,0.3084867000579834
1772728927077571300,7.1095712890625,-0.27977606654167175,0.07147117704153061,0.24006985127925873
1772728927087089400,7.11908935546875,-0.2461785078048706,0.05864302068948746,0.14660754799842834
1772728927096607200,7.128607177734375,-0.21685700118541718,0.03543015569448471,0.031154103577136993
1772728927106125300,7.138125244140625,-0.19608759880065918,-0.001832594396546483,-0.08857539296150208
1772728927115643400,7.147643310546875,-0.185092031955719,-0.05497783049941063,-0.19669845700263977
1772728927125161500,7.157161376953125,-0.17592905461788177,-0.1178968995809555,-0.2889390289783478
1772728927134679600,7.166679443359375,-0.1692095398902893,-0.17715078592300415,-0.3659079968929291
1772728927144197400,7.176197265625,-0.16004657745361328,-0.22296564280986786,-0.42882707715034485
1772728927153715500,7.185715576171875,-0.14477495849132538,-0.24923282861709595,-0.4685332775115967
1772728927163233500,7.195233642578125,-0.12644900381565094,-0.2571740746498108,-0.4770853817462921
1772728927172751600,7.204751708984375,-0.11117739230394363,-0.24923282861709595,-0.4618137776851654
1772728927182269700,7.214269775390625,-0.09590577334165573,-0.21930044889450073,-0.4312705397605896
1772728927191787800,7.223787841796875,-0.08429934084415436,-0.18081597983837128,-0.3811796307563782
1772728927201305600,7.2333056640625,-0.07819069176912308,-0.14477495849132538,-0.3139844834804535
1772728927210823700,7.24282373046875,-0.07880155742168427,-0.1178968995809555,-0.24373504519462585
1772728927220341800,7.252341796875,-0.08368847519159317,-0.09346231073141098,-0.18387030065059662
1772728927229859800,7.26185986328125,-0.08918625861406326,-0.06291907280683517,-0.13744457066059113
1772728927239378000,7.2713779296875,-0.09529490768909454,-0.02260199747979641,-0.10629047453403473
1772728927248896000,7.28089599609375,-0.10018182545900345,0.024434590712189674,-0.0818558782339096
1772728927258413800,7.290413818359375,-0.10140355676412582,0.06047561392188072,-0.0665842592716217
1772728927267932000,7.299931884765625,-0.09896009415388107,0.0873536616563797,-0.05192350596189499
1772728927277450000,7.309449951171875,-0.0922405794262886,0.10629047453403473,-0.039706211537122726
1772728927286968000,7.318968017578125,-0.08307760953903198,0.11423171311616898,-0.029932374134659767
1772728927296486000,7.32848583984375,-0.0720820426940918,0.11362084746360779,-0.028099779039621353
1772728927306004000,7.33800390625,-0.05803215503692627,0.10445787757635117,-0.03543015569448471
1772728927315522000,7.34752197265625,-0.03909534588456154,0.08613193035125732,-0.043371398001909256
1772728927325040000,7.3570400390625,-0.017715077847242355,0.059864748269319534,-0.04764745384454727
1772728927334558200,7.36655810546875,0.000610864779446274,0.030543239787220955,-0.0360410213470459
1772728927344076300,7.376076171875,0.013439024798572063,0.012217295356094837,0.006108647678047419
1772728927353594000,7.385593994140625,0.01893680728971958,0.006108647678047419,0.0665842592716217
1772728927363112200,7.3951123046875,0.018325943499803543,0.023212861269712448,0.13194678723812103
1772728927372630300,7.40463037109375,0.01649334840476513,0.0720820426940918,0.19364413619041443
1772728927382148400,7.4141484375,0.018325943499803543,0.13927717506885529,0.2419024556875229
1772728927391666400,7.42366650390625,0.0256563201546669,0.2009745091199875,0.2669478952884674
1772728927401184300,7.433184326171875,0.03787361457943916,0.25473061203956604,0.26389357447624207
1772728927410702300,7.442702392578125,0.053145237267017365,0.3023780584335327,0.2412915825843811
1772728927420220400,7.452220458984375,0.07452550530433655,0.3384190797805786,0.21258094906806946
1772728927429738500,7.461738525390625,0.10323614627122879,0.3555232882499695,0.17531819641590118
1772728927439256600,7.471256591796875,0.13927717506885529,0.35735589265823364,0.12767073512077332
1772728927448774700,7.480774658203125,0.18570289015769958,0.337808221578598,0.07269290834665298
1772728927458292500,7.49029248046875,0.23396120965480804,0.2864955961704254,0.010995565913617611
1772728927467810600,7.499810546875,0.27550002932548523,0.21807873249053955,-0.05253437161445618
1772728927477328600,7.50932861328125,0.31031930446624756,0.15149445831775665,-0.10323614627122879
1772728927486846700,7.5188466796875,0.3445277214050293,0.08552107214927673,-0.11178825795650482
1772728927496364500,7.528364501953125,0.3787361681461334,0.017715077847242355,-0.059864748269319534
1772728927505882600,7.537882568359375,0.411722868680954,-0.0360410213470459,0.046425722539424896
1772728927515400700,7.547400634765625,0.4324922561645508,-0.06047561392188072,0.1905898153781891
1772728927524918800,7.556918701171875,0.43432486057281494,-0.05864302068948746,0.3426951467990875
1772728927534436600,7.5664365234375,0.42271843552589417,-0.01649334840476513,0.47952884435653687
1772728927543955000,7.575954833984375,0.40744680166244507,0.0818558782339096,0.583375871181488
1772728927553472800,7.58547265625,0.3970620930194855,0.21930044889450073,0.6487383842468262
1772728927562990800,7.594990966796875,0.3958403766155243,0.35674503445625305,0.6560688018798828
1772728927572509000,7.604509033203125,0.39278605580329895,0.4789179861545563,0.5888736248016357
1772728927582026800,7.61402685546875,0.38667741417884827,0.5803215503692627,0.4520399272441864
1772728927591544800,7.623544921875,0.38179048895835876,0.6530144214630127,0.2614501118659973
1772728927601063000,7.63306298828125,0.3903425931930542,0.6878337264060974,0.05925388261675835
1772728927610581000,7.6425810546875,0.4050033390522003,0.6768381595611572,-0.12217295914888382
1772728927620099000,7.65209912109375,0.42088583111763,0.6236929297447205,-0.2712239623069763
1772728927629617200,7.6616171875,0.4367683231830597,0.5442805290222168,-0.389120876789093
1772728927639135000,7.671135009765625,0.4428769648075104,0.4459312856197357,-0.472198486328125
1772728927648653000,7.680653076171875,0.45448338985443115,0.30604326725006104,-0.5033525824546814
1772728927658171100,7.690171142578125,0.4838049113750458,0.12400554865598679,-0.481361448764801
1772728927667689200,7.699689208984375,0.5064069032669067,-0.059864748269319534,-0.40866854786872864
1772728927677207300,7.709207275390625,0.5192350745201111,-0.22418737411499023,-0.2993237376213074
1772728927686725400,7.718725341796875,0.5186241865158081,-0.3292561173439026,-0.17592905461788177
1772728927696243200,7.7282431640625,0.5021308660507202,-0.34574946761131287,-0.05864302068948746
1772728927705761300,7.73776123046875,0.47097674012184143,-0.3072649836540222,0.033597562462091446
1772728927715279400,7.747279296875,0.4318813979625702,-0.23457208275794983,0.09712749719619751
1772728927724797400,7.75679736328125,0.3964512348175049,-0.13927717506885529,0.13683371245861053
1772728927734315300,7.766315185546875,0.3695732057094574,-0.049480047076940536,0.16126830875873566
1772728927743833300,7.775833251953125,0.34636032581329346,0.029932374134659767,0.16615521907806396
1772728927753351400,7.785351318359375,0.3243691921234131,0.09529490768909454,0.14782927930355072
1772728927762869500,7.794869384765625,0.30604326725006104,0.14782927930355072,0.09040798991918564
1772728927772387600,7.8043876953125,0.2938259541988373,0.18325942754745483,-0.011606430634856224
1772728927781905700,7.81390576171875,0.29016077518463135,0.19120067358016968,-0.13988803327083588
1772728927791423500,7.823423583984375,0.28954991698265076,0.1740964651107788,-0.25961753726005554
1772728927800941600,7.832941650390625,0.2926042377948761,0.14110976457595825,-0.35063639283180237
1772728927810459600,7.842459716796875,0.2974911332130432,0.10995566099882126,-0.4062250852584839
1772728927819977700,7.851977783203125,0.2968802750110626,0.0769689604640007,-0.4355465769767761
1772728927829495800,7.861495849609375,0.2877173125743866,0.04276053607463837,-0.44470956921577454
1772728927839013600,7.871013671875,0.27427828311920166,0.0054977829568088055,-0.4373791813850403
1772728927848531700,7.88053173828125,0.2565632164478302,-0.02932151034474373,-0.4202749729156494
1772728927858049800,7.8900498046875,0.23945899307727814,-0.05192350596189499,-0.3952295184135437
1772728927867567900,7.89956787109375,0.22296564280986786,-0.053145237267017365,-0.3610210716724396
1772728927877086000,7.9090859375,0.1997527778148651,-0.04276053607463837,-0.31581708788871765
1772728927886604000,7.91860400390625,0.16676609218120575,-0.027488915249705315,-0.25473061203956604
1772728927896121900,7.928121826171875,0.13133592903614044,-0.01893680728971958,-0.1893680840730667
1772728927905640000,7.937639892578125,0.10140355676412582,-0.008552107028663158,-0.13011419773101807
1772728927915158000,7.947157958984375,0.0769689604640007,-0.0030543238390237093,-0.07941242307424545
1772728927924676000,7.956676025390625,0.053145237267017365,-0.002443459117785096,-0.0360410213470459
1772728927934194000,7.96619384765625,0.02932151034474373,-0.004886918235570192,-0.007330377586185932
1772728927943712000,7.9757119140625,0.007941242307424545,-0.000610864779446274,0.004886918235570192
1772728927953230000,7.98522998046875,-0.008552107028663158,0.011606430634856224,-0.004276053514331579
1772728927962748200,7.994748046875,-0.01893680728971958,0.029932374134659767,-0.0409279391169548
1772728927972266200,8.004266357421875,-0.024434590712189674,0.03909534588456154,-0.09590577334165573
1772728927981784300,8.013784423828126,-0.026878049597144127,0.039706211537122726,-0.15638138353824615
1772728927991302100,8.02330224609375,-0.02932151034474373,0.030543239787220955,-0.20402882993221283
1772728928000820200,8.0328203125,-0.034208428114652634,0.01282816007733345,-0.23457208275794983
1772728928010338300,8.04233837890625,-0.04581485688686371,-0.011606430634856224,-0.258395791053772
1772728928019856400,8.0518564453125,-0.07024945318698883,-0.03481929376721382,-0.27550002932548523
1772728928029374200,8.061374267578126,-0.0977383628487587,-0.05742128938436508,-0.2724456787109375
1772728928038892300,8.070892333984375,-0.12278381735086441,-0.09590577334165573,-0.23762640357017517
1772728928048410400,8.080410400390624,-0.1380554437637329,-0.13194678723812103,-0.164322629570961
1772728928057928400,8.089928466796875,-0.14538581669330597,-0.15821397304534912,-0.04825831577181816
1772728928067446500,8.099446533203125,-0.15210533142089844,-0.15149445831775665,0.09529490768909454
1772728928076964600,8.108964599609376,-0.16676609218120575,-0.10934479534626007,0.22724169492721558
1772728928086482400,8.118482421875,-0.185092031955719,-0.06291907280683517,0.30970844626426697
1772728928096000500,8.12800048828125,-0.20402882993221283,-0.046425722539424896,0.31581708788871765
1772728928105518600,8.1375185546875,-0.22174391150474548,-0.06719512492418289,0.2467893660068512
1772728928115036700,8.14703662109375,-0.23762640357017517,-0.11972949653863907,0.13500112295150757
1772728928124554800,8.1565546875,-0.24556763470172882,-0.17776164412498474,0.013439024798572063
1772728928134072600,8.166072509765625,-0.24923282861709595,-0.22174391150474548,-0.08429934084415436
1772728928143590700,8.175590576171874,-0.24923282861709595,-0.2419024556875229,-0.14110976457595825
1772728928153108700,8.185108642578125,-0.2461785078048706,-0.24984370172023773,-0.1594357043504715
1772728928162626800,8.194626708984375,-0.2370155304670334,-0.2577849328517914,-0.14110976457595825
1772728928172144600,8.20414453125,-0.23029601573944092,-0.2577849328517914,-0.08613193035125732
1772728928181663000,8.2136630859375,-0.23335035145282745,-0.2412915825843811,0.009773836471140385
1772728928191180800,8.223180908203124,-0.24801109731197357,-0.2254091054201126,0.15271618962287903
1772728928200699000,8.232698974609375,-0.27366742491722107,-0.22663083672523499,0.3225366175174713
1772728928210217000,8.242217041015625,-0.3090975880622864,-0.22968515753746033,0.472198486328125
1772728928219735000,8.251735107421876,-0.3543015718460083,-0.21930044889450073,0.5662716627120972
1772728928229252900,8.2612529296875,-0.39400777220726013,-0.2003636509180069,0.6035344004631042
1772728928238771000,8.27077099609375,-0.4214966893196106,-0.17653992772102356,0.6120865345001221
1772728928248289000,8.2802890625,-0.4373791813850403,-0.1533270627260208,0.5992583632469177
1772728928257807000,8.28980712890625,-0.4428769648075104,-0.12767073512077332,0.5662716627120972
1772728928267325200,8.2993251953125,-0.44898560643196106,-0.08979712426662445,0.5094612240791321
1772728928276843000,8.308843017578125,-0.4569268524646759,-0.0513126403093338,0.4373791813850403
1772728928286361000,8.318361083984374,-0.4740310609340668,-0.03176496922969818,0.3481929302215576
1772728928295879200,8.327879150390626,-0.4923570156097412,-0.039706211537122726,0.23945899307727814
1772728928305397200,8.337397216796875,-0.5057960152626038,-0.056810423731803894,0.11728604137897491
1772728928314915300,8.346915283203124,-0.5131264328956604,-0.0720820426940918,-0.009773836471140385
1772728928324433400,8.356433349609375,-0.5143481492996216,-0.08552107214927673,-0.12034036219120026
1772728928333951200,8.365951171875,-0.5057960152626038,-0.10201441496610641,-0.19792018830776215
1772728928343469300,8.37546923828125,-0.4917461574077606,-0.12522727251052856,-0.2510654330253601
1772728928352987400,8.3849873046875,-0.471587598323822,-0.14782927930355072,-0.2834412455558777
1772728928362505500,8.39450537109375,-0.44470956921577454,-0.1649334877729416,-0.29504770040512085
1772728928372023300,8.404023193359375,-0.4166097939014435,-0.17348559200763702,-0.2809978127479553
1772728928381541400,8.413541259765625,-0.3946186602115631,-0.17531819641590118,-0.23212862014770508
1772728928391059500,8.4230595703125,-0.36712974309921265,-0.16310089826583862,-0.1441640853881836
1772728928400577500,8.43257763671875,-0.3390299379825592,-0.1380554437637329,-0.0360410213470459
1772728928410095600,8.442095703125,-0.3133736252784729,-0.10629047453403473,0.06352993845939636
1772728928419613700,8.45161376953125,-0.29504770040512085,-0.06963858753442764,0.12705987691879272
1772728928429131500,8.461131591796875,-0.28038692474365234,-0.03543015569448471,0.1496618688106537
1772728928438649600,8.470649658203126,-0.2706131041049957,-0.006719512399286032,0.13622283935546875
1772728928448167700,8.480167724609375,-0.2663370370864868,0.021991131827235222,0.09407317638397217
1772728928457685800,8.489685791015624,-0.25961753726005554,0.04825831577181816,0.03909534588456154
1772728928467203600,8.49920361328125,-0.2510654330253601,0.05436696484684944,-0.018325943499803543
1772728928476721700,8.5087216796875,-0.2467893660068512,0.04581485688686371,-0.07147117704153061
1772728928486239700,8.51823974609375,-0.24251331388950348,0.028099779039621353,-0.12400554865598679
1772728928495757800,8.5277578125,-0.23823726177215576,-0.001832594396546483,-0.17715078592300415
1772728928505276000,8.53727587890625,-0.23212862014770508,-0.036651886999607086,-0.2315177470445633
1772728928514794000,8.5467939453125,-0.2260199636220932,-0.06597339361906052,-0.2767217457294464
1772728928524311800,8.556311767578125,-0.21197007596492767,-0.08491020649671555,-0.31031930446624756
1772728928533830000,8.565829833984376,-0.19242240488529205,-0.08674279600381851,-0.32192572951316833
1772728928543348000,8.575347900390625,-0.17043127119541168,-0.06719512492418289,-0.3072649836540222
1772728928552866000,8.584865966796874,-0.14721840620040894,-0.0409279391169548,-0.2712239623069763
1772728928562384100,8.594384033203125,-0.12583814561367035,-0.01588248461484909,-0.22418737411499023
1772728928571902000,8.60390185546875,-0.1081230640411377,0.011606430634856224,-0.1740964651107788
1772728928581420000,8.613419921875,-0.08857539296150208,0.036651886999607086,-0.13255766034126282
1772728928590938000,8.622938232421875,-0.0665842592716217,0.06230820715427399,-0.09896009415388107
1772728928600456200,8.632456298828124,-0.04764745384454727,0.0824667438864708,-0.07147117704153061
1772728928609974000,8.64197412109375,-0.03237583488225937,0.09712749719619751,-0.04886918142437935
1772728928619492400,8.651492431640625,-0.017715077847242355,0.1130099818110466,-0.034208428114652634
1772728928629010200,8.66101025390625,0.000610864779446274,0.13500112295150757,-0.02871064469218254
1772728928638528300,8.6705283203125,0.01954767294228077,0.16004657745361328,-0.02626718580722809
1772728928648046300,8.68004638671875,0.03909534588456154,0.1802051067352295,-0.023823726922273636
1772728928657564200,8.689564208984375,0.059864748269319534,0.19120067358016968,-0.021380268037319183
1772728928667082200,8.699082275390625,0.08002328872680664,0.19120067358016968,-0.02260199747979641
1772728928676600300,8.708600341796876,0.10567960888147354,0.17715078592300415,-0.02932151034474373
1772728928686118400,8.718118408203125,0.13561198115348816,0.15027274191379547,-0.03176496922969818
1772728928695636500,8.727636474609374,0.16249002516269684,0.10873392969369888,-0.027488915249705315
1772728928705154600,8.737154541015625,0.18325942754745483,0.05497783049941063,-0.010995565913617611
1772728928714672400,8.74667236328125,0.2009745091199875,-0.006719512399286032,0.02932151034474373
1772728928724190500,8.7561904296875,0.21991132199764252,-0.06291907280683517,0.08857539296150208
1772728928733708500,8.76570849609375,0.23762640357017517,-0.0977383628487587,0.15149445831775665
1772728928743226600,8.7752265625,0.2516762912273407,-0.10629047453403473,0.20708316564559937
1772728928752744700,8.78474462890625,0.26389357447624207,-0.07819069176912308,0.25045454502105713
1772728928762262800,8.7942626953125,0.2779434621334076,-0.011606430634856224,0.2669478952884674
1772728928771780600,8.803780517578126,0.2993237376213074,0.08429934084415436,0.25045454502105713
1772728928781298700,8.813298583984375,0.32192572951316833,0.185092031955719,0.1948658674955368
1772728928790816800,8.822816650390624,0.33658650517463684,0.2706131041049957,0.12400554865598679
1772728928800334800,8.8323349609375,0.35246896743774414,0.32681265473365784,0.03787361457943916
1772728928809852700,8.841852783203125,0.3738492429256439,0.3481929302215576,-0.05497783049941063
1772728928819370800,8.851370849609374,0.39828383922576904,0.337808221578598,-0.1545487940311432
1772728928828888800,8.860888916015625,0.42455101013183594,0.2889390289783478,-0.2577849328517914
1772728928838407000,8.870406982421875,0.4465421438217163,0.2052505612373352,-0.35735589265823364
1772728928847925000,8.879925048828126,0.4563159942626953,0.09101885557174683,-0.4251618981361389
1772728928857443000,8.889443115234375,0.46975502371788025,-0.07147117704153061,-0.42455101013183594
1772728928866961000,8.8989609375,0.4838049113750458,-0.24984370172023773,-0.3176496922969818
1772728928876479000,8.90847900390625,0.4831940531730652,-0.4050033390522003,-0.14233149588108063
1772728928885997000,8.9179970703125,0.46364638209342957,-0.471587598323822,0.059864748269319534
1772728928895515100,8.92751513671875,0.42821621894836426,-0.44409868121147156,0.24923282861709595
1772728928905033000,8.937032958984375,0.3903425931930542,-0.3335321843624115,0.39889469742774963
1772728928914551000,8.946551025390624,0.3585776388645172,-0.15699224174022675,0.5094612240791321
1772728928924069000,8.956069091796875,0.34147340059280396,0.059864748269319534,0.5937605500221252
1772728928933587200,8.965587158203125,0.3298669755458832,0.2993237376213074,0.6493492722511292
1772728928943105300,8.975105224609376,0.31459537148475647,0.516791582107544,0.6597339510917664
1772728928952623400,8.984623291015625,0.29626941680908203,0.6805033683776855,0.6151408553123474
1772728928962141200,8.99414111328125,0.277332603931427,0.7757982611656189,0.5039634704589844
1772728928971659300,9.0036591796875,0.2577849328517914,0.8191696405410767,0.3335321843624115
1772728928981177300,9.01317724609375,0.2467893660068512,0.8118392825126648,0.13744457066059113
1772728928990695400,9.0226953125,0.2510654330253601,0.7373138070106506,-0.04886918142437935
1772728929000213500,9.032213623046875,0.258395791053772,0.6352993845939636,-0.20463970303535461
1772728929009731300,9.0417314453125,0.2822195291519165,0.5131264328956604,-0.3176496922969818
1772728929019249400,9.05124951171875,0.3127627670764923,0.3640754222869873,-0.3848448097705841
1772728929028767500,9.060767578125,0.34147340059280396,0.18387030065059662,-0.3952295184135437
1772728929038285600,9.07028564453125,0.3659079968929291,-0.014660755172371864,-0.35796675086021423
1772728929047803400,9.079803466796875,0.38240134716033936,-0.20952661335468292,-0.2864955961704254
1772728929057321500,9.089321533203124,0.39400777220726013,-0.36712974309921265,-0.2052505612373352
1772728929066839600,9.098839599609375,0.3952295184135437,-0.4569268524646759,-0.12767073512077332
1772728929076357600,9.108357666015625,0.3799578845500946,-0.46608981490135193,-0.05742128938436508
1772728929085875700,9.117875732421876,0.3555232882499695,-0.3946186602115631,0.004276053514331579
1772728929095393800,9.127393798828125,0.32559093832969666,-0.2657261788845062,0.05742128938436508
1772728929104911600,9.13691162109375,0.2938259541988373,-0.1288924664258957,0.1081230640411377
1772728929114429700,9.1464296875,0.2626718580722809,0.004276053514331579,0.14538581669330597
1772728929123947800,9.15594775390625,0.22968515753746033,0.12034036219120026,0.15271618962287903
1772728929133465900,9.1654658203125,0.1954767256975174,0.19853104650974274,0.1130099818110466
1772728929142984000,9.17498388671875,0.16310089826583862,0.2370155304670334,0.03176496922969818
1772728929152501800,9.184501708984374,0.13622283935546875,0.24862197041511536,-0.06841685622930527
1772728929162019800,9.194019775390625,0.1178968995809555,0.2467893660068512,-0.1692095398902893
1772728929171538000,9.203537841796875,0.10690133273601532,0.23029601573944092,-0.24862197041511536
1772728929181056000,9.213055908203126,0.10384701192378998,0.19792018830776215,-0.2968802750110626
1772728929190574000,9.222573974609375,0.1026252806186676,0.15638138353824615,-0.3139844834804535
1772728929200092200,9.232092041015624,0.1026252806186676,0.11728604137897491,-0.30970844626426697
1772728929209610000,9.24160986328125,0.10018182545900345,0.07513637095689774,-0.29626941680908203
1772728929219128000,9.251128173828125,0.09346231073141098,0.021380268037319183,-0.27550002932548523
1772728929228646100,9.260646240234376,0.0824667438864708,-0.03909534588456154,-0.24006985127925873
1772728929238164200,9.270164306640625,0.06230820715427399,-0.08552107214927673,-0.19364413619041443
1772728929247682000,9.27968212890625,0.040317077189683914,-0.11911863088607788,-0.14172062277793884
1772728929257200000,9.2892001953125,0.011606430634856224,-0.1441640853881836,-0.08857539296150208
1772728929266718200,9.29871826171875,-0.023212861269712448,-0.1637117564678192,-0.04214967042207718
1772728929276236300,9.308236328125,-0.06108647957444191,-0.16676609218120575,-0.001221729558892548
1772728929285754000,9.317754150390625,-0.09346231073141098,-0.1441640853881836,0.040317077189683914
1772728929295272400,9.3272724609375,-0.1185077652335167,-0.11178825795650482,0.08796452730894089
1772728929304790300,9.336790283203126,-0.13622283935546875,-0.07269290834665298,0.1380554437637329
1772728929314308400,9.346308349609375,-0.14599667489528656,-0.040317077189683914,0.18387030065059662
1772728929323826400,9.355826416015624,-0.15088360011577606,-0.012217295356094837,0.21685700118541718
1772728929333344500,9.365344482421875,-0.15638138353824615,-0.004276053514331579,0.22724169492721558
1772728929342862300,9.3748623046875,-0.16187916696071625,-0.03298669680953026,0.21197007596492767
1772728929352380400,9.38438037109375,-0.17165300250053406,-0.09101885557174683,0.16126830875873566
1772728929361898500,9.3938984375,-0.18570289015769958,-0.15638138353824615,0.08429934084415436
1772728929371416600,9.40341650390625,-0.2009745091199875,-0.2162461280822754,-0.000610864779446274
1772728929380934700,9.4129345703125,-0.21135921776294708,-0.24984370172023773,-0.07024945318698883
1772728929390452500,9.422452392578125,-0.21991132199764252,-0.25900667905807495,-0.10445787757635117
1772728929399970600,9.431970458984376,-0.22968515753746033,-0.26022839546203613,-0.09896009415388107
1772728929409488600,9.441488525390625,-0.2370155304670334,-0.25473061203956604,-0.06108647957444191
1772728929419006700,9.4510068359375,-0.2528980076313019,-0.23884813487529755,0.01282816007733345
1772728929428524800,9.46052490234375,-0.277332603931427,-0.2254091054201126,0.12095122784376144
1772728929438043000,9.47004296875,-0.30970844626426697,-0.21197007596492767,0.24006985127925873
1772728929447560700,9.479560791015626,-0.3347539007663727,-0.18203771114349365,0.3530798554420471
1772728929457078800,9.489078857421875,-0.35124725103378296,-0.13744457066059113,0.4324922561645508
1772728929466596900,9.498596923828124,-0.3585776388645172,-0.10018182545900345,0.45448338985443115
1772728929476115000,9.508114990234375,-0.3634645342826843,-0.0769689604640007,0.41844236850738525
1772728929485632800,9.5176328125,-0.36163195967674255,-0.0616973415017128,0.34147340059280396
1772728929495150800,9.52715087890625,-0.3433060050010681,-0.03909534588456154,0.2467893660068512
1772728929504669000,9.5366689453125,-0.31642794609069824,-0.01282816007733345,0.14721840620040894
1772728929514187000,9.54618701171875,-0.29077163338661194,-0.01649334840476513,0.059864748269319534
1772728929523705000,9.555705078125,-0.2712239623069763,-0.06108647957444191,0.004886918235570192
1772728929533223200,9.56522314453125,-0.24801109731197357,-0.15088360011577606,0.010384701192378998
1772728929542741000,9.574740966796876,-0.22357651591300964,-0.2571740746498108,0.0824667438864708
1772728929552259000,9.584259033203125,-0.1997527778148651,-0.32192572951316833,0.22907429933547974
1772728929561777200,9.593777099609374,-0.18081597983837128,-0.3439168632030487,0.41233372688293457
1772728929571295200,9.603295166015625,-0.18753549456596375,-0.3292561173439026,0.5870410799980164
1772728929580813300,9.612813232421875,-0.22357651591300964,-0.27977606654167175,0.7238747477531433
1772728929590331100,9.6223310546875,-0.27855435013771057,-0.19914191961288452,0.8142827749252319
1772728929599849200,9.63184912109375,-0.3280344009399414,-0.1178968995809555,0.8558215498924255
1772728929609367300,9.6413671875,-0.360410213470459,-0.046425722539424896,0.8533781170845032
1772728929618885400,9.650885498046875,-0.3707949221134186,0.030543239787220955,0.8142827749252319
1772728929628403500,9.660403564453125,-0.35674503445625305,0.1026252806186676,0.7422007322311401
1772728929637921500,9.669921630859376,-0.32620179653167725,0.1533270627260208,0.6365211009979248
1772728929647439400,9.679439453125,-0.29504770040512085,0.1844811588525772,0.4990765154361725
1772728929656957400,9.68895751953125,-0.26511532068252563,0.19425499439239502,0.3500255048274994
1772728929666475500,9.6984755859375,-0.23884813487529755,0.1802051067352295,0.21807873249053955
1772728929675993600,9.70799365234375,-0.20891575515270233,0.1331685185432434,0.10873392969369888
1772728929685511400,9.717511474609376,-0.18387030065059662,0.07452550530433655,0.01649334840476513
1772728929695029500,9.727029541015625,-0.1740964651107788,0.017715077847242355,-0.07513637095689774
1772728929704547600,9.736547607421874,-0.17592905461788177,-0.04520399495959282,-0.1698204129934311
1772728929714065700,9.746065673828125,-0.18203771114349365,-0.10567960888147354,-0.2565632164478302
1772728929723583500,9.75558349609375,-0.19730933010578156,-0.06597339361906052,-0.2608392536640167
1772728929733101600,9.7651015625,-0.22785256803035736,-0.01893680728971958,-0.25473061203956604
1772728929761655800,9.79365576171875,-0.23335035145282745,-0.36835145950317383,-0.5699368119239807
1772728929771174000,9.803173828125,-0.22785256803035736,-0.45020735263824463,-0.5790998339653015
1772728929780691700,9.812691650390626,-0.21502439677715302,-0.4935787320137024,-0.5283980369567871
1772728929790209800,9.822209716796875,-0.18631376326084137,-0.4740310609340668,-0.41905322670936584
1772728929799727900,9.831727783203124,-0.15577052533626556,-0.35735589265823364,-0.24740023910999298
