time,seconds_elapsed,z,y,x
1772728920044854000,0.07685400390625,8.831908226013184,3.8500516414642334,-0.9475577473640442
1772728920054372000,0.0863720703125,8.937192916870117,3.845266103744507,-0.9044869542121887
1772728920063890200,0.09589013671875,8.970691680908203,3.8883368968963623,-0.8949156403541565
1772728920073408000,0.105407958984375,8.93240737915039,3.94815731048584,-0.882951557636261
1772728920082926000,0.114926025390625,8.910871505737305,4.000799655914307,-0.8901300430297852
1772728920092444200,0.124444091796875,8.882157325744629,4.048655986785889,-0.9044869542121887
1772728920101962200,0.133962158203125,8.918049812316895,4.043870449066162,-0.9044869542121887
1772728920111480300,0.143480224609375,9.023334503173828,4.077369689941406,-0.8685946464538574
1772728920120998400,0.152998291015625,9.119047164916992,4.06540584564209,-0.8662018179893494
1772728920130516200,0.16251611328125,9.145368576049805,4.067798614501953,-0.9379864931106567
1772728920140034600,0.17203466796875,9.245866775512695,4.0319061279296875,-0.9619147181510925
1772728920149552400,0.181552490234375,9.42772102355957,4.01754903793335,-0.9595218896865845
1772728920159070500,0.191070556640625,9.535398483276367,3.9744784832000732,-0.9762716293334961
1772728920168588500,0.200588623046875,9.585647583007812,3.9792640209198,-0.9427721500396729
1772728920178106600,0.210106689453125,9.66221809387207,3.9744784832000732,-0.9020941257476807
1772728920187624400,0.21962451171875,9.719645500183105,3.94815731048584,-0.8446664214134216
1772728920197142800,0.229142822265625,9.791430473327637,3.9122650623321533,-0.8231309652328491
1772728920206660600,0.23866064453125,9.89432144165039,3.88594388961792,-0.7489534616470337
1772728920216178700,0.2481787109375,9.997213363647461,3.862015724182129,-0.729810893535614
1772728920225696800,0.25769677734375,10.061819076538086,3.830909013748169,-0.7393822073936462
1772728920235214800,0.26721484375,10.054640769958496,3.7902309894561768,-0.6293123364448547
1772728920244733000,0.27673291015625,10.076175689697266,3.7495529651641846,-0.5575276613235474
1772728920254251000,0.2862509765625,10.073782920837402,3.704089403152466,-0.5886343717575073
1772728920263768800,0.295768798828125,10.030712127685547,3.7663028240203857,-0.7226324677467346
1772728920273287000,0.305286865234375,9.93978500366211,3.799802303314209,-0.8255237936973572
1772728920282805000,0.314804931640625,9.868000984191895,3.8189449310302734,-0.9355936646461487
1772728920292323000,0.324322998046875,9.856036186218262,3.8285162448883057,-1.031306505203247
1772728920301841200,0.333841064453125,9.865608215332031,3.768695592880249,-1.1150553226470947
1772728920311359200,0.343359130859375,9.92542839050293,3.689732551574707,-1.2418749332427979
1772728920320877000,0.352876953125,10.03310489654541,3.603590965270996,-1.3232308626174927
1772728920330395100,0.36239501953125,10.12881851196289,3.4480574131011963,-1.3902299404144287
1772728920339913200,0.371913330078125,10.336994171142578,3.311666488647461,-1.404586911201477
1772728920349431300,0.381431396484375,10.621739387512207,3.105883836746216,-1.4165509939193726
1772728920358949400,0.390949462890625,10.956734657287598,2.854637384414673,-1.3184453248977661
1772728920368467500,0.400467529296875,11.184053421020508,2.6392834186553955,-1.3543375730514526
1772728920377985300,0.4099853515625,11.258230209350586,2.5196423530578613,-1.3806586265563965
1772728920387503400,0.41950341796875,11.198410034179688,2.486142635345459,-1.4141582250595093
1772728920397021400,0.429021484375,10.971092224121094,2.4358935356140137,-1.3351950645446777
1772728920406539500,0.43853955078125,10.619346618652344,2.368894338607788,-1.1581261157989502
1772728920416057300,0.448057373046875,10.29153060913086,2.3018953800201416,-0.9834501147270203
1772728920425575700,0.45757568359375,10.023533821105957,2.311466693878174,-0.9523434042930603
1772728920435093500,0.467093505859375,9.774680137634277,2.342573404312134,-0.9930213689804077
1772728920444611600,0.476611572265625,9.542576789855957,2.4023938179016113,-1.0408778190612793
1772728920454129700,0.486129638671875,9.32722282409668,2.4335005283355713,-1.0504491329193115
1772728920463647700,0.495647705078125,9.049654960632324,2.56510591506958,-1.1748759746551514
1772728920473165800,0.505165771484375,8.805587768554688,2.651247501373291,-1.3040883541107178
1772728920482684000,0.514683837890625,8.642875671386719,2.7517459392547607,-1.397408366203308
1772728920492201700,0.52420166015625,8.468199729919434,2.7972097396850586,-1.4931213855743408
1772728920501719800,0.5337197265625,8.305487632751465,2.830709218978882,-1.4404792785644531
1772728920511238000,0.54323779296875,8.293522834777832,2.8211379051208496,-1.4404792785644531
1772728920520756000,0.552755859375,8.207381248474121,2.823530673980713,-1.423729419708252
1772728920530273800,0.562273681640625,8.135597229003906,2.871387243270874,-1.428515076637268
1772728920539792100,0.571792236328125,8.039883613586426,2.9527430534362793,-1.5026925802230835
1772728920549310000,0.58131005859375,8.059026718139648,2.988635540008545,-1.552941918373108
1772728920558828000,0.590828125,8.202595710754395,3.0005996227264404,-1.5361921787261963
1772728920568346000,0.60034619140625,8.183453559875488,3.077169895172119,-1.6342978477478027
1772728920577864200,0.6098642578125,8.3629150390625,3.146561861038208,-1.7228323221206665
1772728920587382300,0.61938232421875,8.642875671386719,3.1657042503356934,-1.794616937637329
1772728920596900400,0.628900390625,8.997013092041016,3.2063822746276855,-1.7730815410614014
1772728920606418200,0.638418212890625,9.308079719543457,3.201596736907959,-1.7060825824737549
1772728920615936300,0.647936279296875,9.556933403015137,3.201596736907959,-1.521835207939148
1772728920625454300,0.657454345703125,9.626325607299805,3.2303106784820557,-1.404586911201477
1772728920634972400,0.666972412109375,9.29611587524414,3.2063822746276855,-1.3591232299804688
1772728920644490500,0.676490478515625,9.042476654052734,3.376272678375244,-1.4452649354934692
1772728920654008600,0.686008544921875,9.047262191772461,3.5030922889709473,-1.5002998113632202
1772728920663526400,0.6955263671875,8.676374435424805,3.689732551574707,-1.373480200767517
1772728920673044700,0.705044677734375,8.571090698242188,3.641875982284546,-1.2035897970199585
1772728920682562600,0.7145625,8.427521705627441,3.603590965270996,-1.100698471069336
1772728920692080600,0.72408056640625,8.360522270202637,3.634697675704956,-1.1126625537872314
1772728920701598700,0.7335986328125,8.439485549926758,3.7471601963043213,-1.1437692642211914
1772728920711116800,0.74311669921875,8.542376518249512,3.744767427444458,-1.1892328262329102
1772728920720634600,0.752634521484375,8.60459041595459,3.6610186100006104,-1.0911271572113037
1772728920730153000,0.762153076171875,8.671588897705078,3.5844483375549316,-0.9643075466156006
1772728920739670800,0.7716708984375,8.71226692199707,3.603590965270996,-0.9451649188995361
1772728920749188900,0.78118896484375,8.654839515686035,3.6921253204345703,-1.0528420209884644
1772728920758707000,0.79070703125,8.566305160522461,3.783052682876587,-1.184447169303894
1772728920768225000,0.80022509765625,8.539983749389648,3.8811583518981934,-1.31365966796875
1772728920777743000,0.8097431640625,8.554341316223145,3.9433717727661133,-1.4572290182113647
1772728920787261200,0.81926123046875,8.640482902526855,4.01754903793335,-1.5098711252212524
1772728920796779000,0.828779052734375,8.788837432861328,4.084548473358154,-1.495514154434204
1772728920806297000,0.838297119140625,8.903693199157715,4.115654945373535,-1.5050854682922363
1772728920815815200,0.847815185546875,8.958727836608887,4.106083869934082,-1.5122638940811157
1772728920825333200,0.857333251953125,9.035298347473145,4.130012035369873,-1.490728497505188
1772728920834851300,0.866851318359375,9.028120040893555,4.096512317657471,-1.4979069232940674
1772728920844369400,0.876369384765625,8.96829891204834,4.12761926651001,-1.588834285736084
1772728920853887200,0.88588720703125,8.898907661437988,4.132404804229736,-1.5960127115249634
1772728920863405300,0.8954052734375,8.81515884399414,4.177868366241455,-1.5960127115249634
1772728920872923400,0.90492333984375,8.73619556427002,4.206582069396973,-1.5122638940811157
1772728920882441500,0.91444140625,8.6907320022583,4.2592244148254395,-1.4093725681304932
1772728920891959600,0.92395947265625,8.650053977966309,4.254438877105713,-1.301695466041565
1772728920901477600,0.9334775390625,8.69791030883789,4.340580463409424,-1.1820544004440308
1772728920910995500,0.942995361328125,8.779266357421875,4.429114818572998,-1.100698471069336
1772728920920513500,0.952513427734375,8.879764556884766,4.474578380584717,-1.0480563640594482
1772728920930031600,0.962031494140625,9.121439933776855,4.462614059448242,-1.0360921621322632
1772728920939549700,0.9715498046875,9.489934921264648,4.395615100860596,-1.0360921621322632
1772728920949067800,0.98106787109375,9.90149974822998,4.381258487701416,-1.0217353105545044
1772728920958585900,0.9905859375,10.26042366027832,4.278367042541504,-0.9930213689804077
1772728920968104000,1.00010400390625,10.64088249206543,4.113262176513672,-1.031306505203247
1772728920977621800,1.009621826171875,10.925628662109375,4.043870449066162,-1.0911271572113037
1772728920987139800,1.019139892578125,11.069197654724121,3.9984066486358643,-1.160519003868103
1772728920996658000,1.028657958984375,11.093125343322754,4.005585193634033,-1.1892328262329102
1772728921006176000,1.038176025390625,10.97587776184082,4.0319061279296875,-1.2394821643829346
1772728921015694000,1.047694091796875,10.786844253540039,4.101297855377197,-1.31365966796875
1772728921025212200,1.057212158203125,10.595418930053711,4.156332969665527,-1.3208380937576294
1772728921034730000,1.06672998046875,10.470992088317871,4.182653903961182,-1.2562319040298462
1772728921044248000,1.076248046875,10.423135757446289,4.18983268737793,-1.1629117727279663
1772728921053766100,1.08576611328125,10.310672760009766,4.206582069396973,-1.0671988725662231
1772728921063284200,1.0952841796875,10.212567329406738,4.187439441680908,-1.00259268283844
1772728921072802300,1.10480224609375,10.198209762573242,4.130012035369873,-1.069591760635376
1772728921082320400,1.1143203125,10.28195858001709,4.0319061279296875,-1.155733346939087
1772728921091838200,1.123838134765625,10.442277908325195,3.900300979614258,-1.2921242713928223
1772728921101356300,1.133356201171875,10.573883056640625,3.7878382205963135,-1.2801600694656372
1772728921110874400,1.142874267578125,10.65523910522461,3.586841106414795,-1.2203395366668701
1772728921120392400,1.152392333984375,10.770094871520996,3.3882367610931396,-1.191625714302063
1772728921129910500,1.16191064453125,10.980663299560547,3.2135608196258545,-1.0863415002822876
1772728921139428600,1.1714287109375,11.09073257446289,3.081955671310425,-0.973878800868988
1772728921148946400,1.180946533203125,10.985448837280273,2.9240293502807617,-0.8015955686569214
1772728921158464500,1.190464599609375,10.604990005493164,2.775674343109131,-0.5048855543136597
1772728921167982600,1.199982666015625,10.040284156799316,2.6225335597991943,-0.1459621787071228
1772728921177500700,1.209500732421875,9.461220741271973,2.4837498664855957,0.14356936514377594
1772728921187018800,1.219018798828125,8.949156761169434,2.423929452896118,0.39481574296951294
1772728921196536800,1.228536865234375,8.48734188079834,2.392822742462158,0.5886343717575073
1772728921206054700,1.2380546875,8.042277336120605,2.383251428604126,0.7058826684951782
1772728921215572700,1.24757275390625,7.606783390045166,2.4047868251800537,0.7824530005455017
1772728921225090800,1.2570908203125,7.2813591957092285,2.414358139038086,0.8709874153137207
1772728921234609000,1.26660888671875,7.089933395385742,2.4430718421936035,0.9355936646461487
1772728921244127000,1.276126953125,7.109076023101807,2.517249345779419,0.9116654396057129
1772728921253645000,1.28564501953125,7.3052873611450195,2.6297121047973633,0.7920243144035339
1772728921263163000,1.295162841796875,7.523034572601318,2.7349963188171387,0.5168496966362
1772728921272681000,1.304680908203125,7.731209754943848,2.8283164501190186,0.22971096634864807
1772728921282199000,1.314198974609375,8.075776100158691,2.888136863708496,0.06939185410737991
1772728921291717000,1.323717041015625,8.525627136230469,2.8833513259887695,-0.08853443711996078
1772728921301235200,1.333235107421875,9.040083885192871,2.799602508544922,-0.24167509377002716
1772728921310753300,1.342753173828125,9.506684303283691,2.6775684356689453,-0.3397808074951172
1772728921320271000,1.35227099609375,9.872786521911621,2.586641311645508,-0.3924229145050049
1772728921329789200,1.3617890625,10.200602531433105,2.5842485427856445,-0.4163511395454407
1772728921339307300,1.371307373046875,10.341779708862305,2.682354211807251,-0.42831525206565857
1772728921348825300,1.380825439453125,10.152746200561523,2.8283164501190186,-0.380458801984787
1772728921358343400,1.390343505859375,9.659825325012207,3.0029923915863037,-0.3206382393836975
1772728921367861500,1.399861572265625,9.001798629760742,3.16331148147583,-0.30149564146995544
1772728921377379300,1.40937939453125,8.38684368133545,3.345165967941284,-0.2632105052471161
1772728921386897400,1.4188974609375,7.960920810699463,3.462414264678955,-0.20817556977272034
1772728921396415500,1.42841552734375,7.738388538360596,3.541377544403076,-0.13160525262355804
1772728921405933600,1.43793359375,7.575676441192627,3.601198196411133,-0.08135596662759781
1772728921415451400,1.447451416015625,7.527820110321045,3.627519130706787,-0.08853443711996078
1772728921424969700,1.4569697265625,7.606783390045166,3.649054527282715,-0.15314064919948578
1772728921434487600,1.466487548828125,7.755138397216797,3.675375461578369,-0.20817556977272034
1772728921444005600,1.476005615234375,7.927421569824219,3.682554006576538,-0.2584248483181
1772728921453523700,1.485523681640625,8.061419486999512,3.6681971549987793,-0.3038884699344635
1772728921463041800,1.495041748046875,8.181060791015625,3.6634113788604736,-0.3565305769443512
1772728921472559900,1.504559814453125,8.367700576782227,3.6610186100006104,-0.47617170214653015
1772728921482078000,1.514077880859375,8.628518104553223,3.6777684688568115,-0.47617170214653015
1772728921491595800,1.523595703125,8.949156761169434,3.675375461578369,-0.46420758962631226
1772728921501113900,1.53311376953125,9.186046600341797,3.610769271850586,-0.41156548261642456
1772728921510632000,1.5426318359375,9.391828536987305,3.5988051891326904,-0.39481574296951294
1772728921520150000,1.55214990234375,9.482755661010742,3.603590965270996,-0.3517449200153351
1772728921529668000,1.561668212890625,9.54496955871582,3.6442689895629883,-0.32542386651039124
1772728921539186200,1.571186279296875,9.513862609863281,3.7112679481506348,-0.2799602448940277
1772728921548704000,1.5807041015625,9.377471923828125,3.768695592880249,-0.2153540402650833
1772728921558222000,1.59022216796875,9.212367057800293,3.8356947898864746,-0.20578274130821228
1772728921567740200,1.599740234375,9.040083885192871,3.9361932277679443,-0.22013968229293823
1772728921577258200,1.60925830078125,8.918049812316895,4.01754903793335,-0.2679961323738098
1772728921586776300,1.6187763671875,8.927620887756348,4.06540584564209,-0.30628129839897156
1772728921596294100,1.628294189453125,8.997013092041016,4.120440483093262,-0.3684946894645691
1772728921605812200,1.637812255859375,9.097511291503906,4.192225456237793,-0.42352959513664246
1772728921615330300,1.647330322265625,9.157332420349121,4.256831645965576,-0.5335994362831116
1772728921624848400,1.656848388671875,9.260223388671875,4.304687976837158,-0.6317051649093628
1772728921634366500,1.666366455078125,9.473184585571289,4.386044025421143,-0.7226324677467346
1772728921643884500,1.675884521484375,9.714859962463379,4.417150497436523,-0.7800601720809937
1772728921653402400,1.68540234375,9.956535339355469,4.431507587432861,-0.7872386574745178
1772728921662920700,1.694920654296875,10.114460945129395,4.376472473144531,-0.7513462901115417
1772728921672438500,1.7044384765625,10.200602531433105,4.302295207977295,-0.6939185857772827
1772728921681956600,1.71395654296875,10.315458297729492,4.216153621673584,-0.6005984544754028
1772728921691474700,1.723474609375,10.351350784301758,4.175475597381592,-0.5599204897880554
1772728921700992800,1.73299267578125,10.418350219726562,4.192225456237793,-0.5670989751815796
1772728921710510600,1.742510498046875,10.420742988586426,4.192225456237793,-0.5742774605751038
1772728921720028700,1.752028564453125,10.40638542175293,4.187439441680908,-0.6699903607368469
1772728921729546800,1.761546630859375,10.380064964294434,4.2209391593933105,-0.8087740540504456
1772728921739064800,1.77106494140625,10.348958015441895,4.292723655700684,-0.9499505758285522
1772728921748583000,1.7805830078125,10.308279991149902,4.266402721405029,-1.1222338676452637
1772728921758101000,1.79010107421875,10.284351348876953,4.225724697113037,-1.3495519161224365
1772728921767618800,1.799618896484375,10.301101684570312,4.125226020812988,-1.6151553392410278
1772728921777137000,1.809136962890625,10.396814346313477,3.9984066486358643,-1.825723648071289
1772728921786655000,1.818655029296875,10.604990005493164,3.7567315101623535,-1.9573289155960083
1772728921796173000,1.828173095703125,10.810772895812988,3.4648072719573975,-2.0889341831207275
1772728921805691100,1.837691162109375,11.01416301727295,3.1130621433258057,-2.172683000564575
1772728921815209200,1.847209228515625,11.25344467163086,2.785245656967163,-2.172683000564575
1772728921824727000,1.85672705078125,11.609975814819336,2.462214469909668,-2.076970100402832
1772728921834245000,1.8662451171875,11.715259552001953,2.256431818008423,-1.8759729862213135
1772728921843763200,1.87576318359375,11.365907669067383,2.0482561588287354,-1.4931213855743408
1772728921853281300,1.88528125,10.683953285217285,1.9214365482330322,-1.196411371231079
1772728921862799400,1.89479931640625,9.923035621643066,1.8640087842941284,-1.0097711086273193
1772728921872317400,1.9043173828125,9.152546882629395,1.9142581224441528,-0.8422735929489136
1772728921881835300,1.913835205078125,8.532805442810059,2.012363910675049,-0.7465606927871704
1772728921891353300,1.923353271484375,7.992027759552002,2.139183521270752,-0.7585247755050659
1772728921900871400,1.932871337890625,7.587640762329102,2.2923240661621094,-0.7800601720809937
1772728921910389500,1.942389404296875,7.29810905456543,2.4263222217559814,-0.8733802437782288
1772728921919907600,1.951907470703125,7.231110095977783,2.4765713214874268,-1.0217353105545044
1772728921929425700,1.96142578125,7.4847493171691895,2.5052852630615234,-1.1892328262329102
1772728921938943500,1.970943603515625,7.9489569664001465,2.4837498664855957,-1.3112667798995972
1772728921948461600,1.980461669921875,8.506484031677246,2.4526431560516357,-1.368694543838501
1772728921957979600,1.989979736328125,8.963513374328613,2.4526431560516357,-1.459621787071228
1772728921967497700,1.999497802734375,9.229117393493652,2.4646072387695312,-1.5074782371520996
1772728921977015800,2.009015869140625,9.439684867858887,2.495713949203491,-1.5290136337280273
1772728921986534000,2.018533935546875,9.712467193603516,2.524427890777588,-1.5170495510101318
1772728921996051700,2.0280517578125,9.970891952514648,2.531606435775757,-1.4859428405761719
1772728922005569800,2.03756982421875,10.097711563110352,2.5603201389312744,-1.4093725681304932
1772728922015087900,2.047087890625,9.956535339355469,2.63449764251709,-1.2610175609588623
1772728922024606000,2.05660595703125,9.585647583007812,2.746960401535034,-1.069591760635376
1772728922034124000,2.0661240234375,9.061619758605957,2.8905298709869385,-0.8805587291717529
1772728922043641900,2.075641845703125,8.614161491394043,3.046063184738159,-0.7178468108177185
1772728922053160000,2.085159912109375,8.267202377319336,3.184846878051758,-0.607776939868927
1772728922062678000,2.094677978515625,8.003992080688477,3.2685956954956055,-0.5335994362831116
1772728922072196000,2.104196044921875,7.8556365966796875,3.3571300506591797,-0.4618147611618042
1772728922081714200,2.113714111328125,7.7838521003723145,3.428914785385132,-0.380458801984787
1772728922091232300,2.123232177734375,7.6977105140686035,3.4983067512512207,-0.3684946894645691
1772728922100750000,2.13275,7.590033531188965,3.5437703132629395,-0.4139583110809326
1772728922110268200,2.14226806640625,7.561319351196289,3.6059837341308594,-0.5335994362831116
1772728922119786200,2.1517861328125,7.5565338134765625,3.665804386138916,-0.638883650302887
1772728922129304300,2.16130419921875,7.621140003204346,3.7016966342926025,-0.7585247755050659
1772728922138822400,2.170822509765625,7.740781307220459,3.6873397827148438,-0.7992027401924133
1772728922148340500,2.180340576171875,7.9250288009643555,3.665804386138916,-0.8733802437782288
1772728922157858300,2.1898583984375,8.164310455322266,3.656233072280884,-0.9834501147270203
1772728922167376400,2.19937646484375,8.434700012207031,3.665804386138916,-1.0887342691421509
1772728922176894500,2.20889453125,8.72901725769043,3.6945180892944336,-1.1365907192230225
1772728922186412500,2.21841259765625,8.975478172302246,3.6993038654327393,-1.1653046607971191
1772728922195930600,2.2279306640625,9.154939651489258,3.7160534858703613,-1.2059825658798218
1772728922205448700,2.23744873046875,9.387042999267578,3.7112679481506348,-1.191625714302063
1772728922214966500,2.246966552734375,9.621540069580078,3.706482172012329,-1.1676974296569824
1772728922224484600,2.256484619140625,9.757930755615234,3.6921253204345703,-1.1365907192230225
1772728922234002700,2.266002685546875,9.741181373596191,3.6945180892944336,-1.2083754539489746
1772728922243520800,2.275520751953125,9.645467758178711,3.730410575866699,-1.2442678213119507
1772728922253038800,2.285038818359375,9.590433120727539,3.7974095344543457,-1.215553879737854
1772728922262557000,2.294556884765625,9.461220741271973,3.82373046875,-1.1700903177261353
1772728922272074800,2.30407470703125,9.281759262084961,3.8739798069000244,-1.098305583000183
1772728922281592800,2.3135927734375,9.018548965454102,3.9792640209198,-1.1078768968582153
1772728922291111000,2.32311083984375,8.803194046020508,4.122833251953125,-1.1413763761520386
1772728922300629000,2.33262890625,8.745766639709473,4.240081787109375,-1.1724830865859985
1772728922310146800,2.342146728515625,8.800801277160645,4.316651821136475,-1.1988041400909424
1772728922319665200,2.3516650390625,8.994620323181152,4.388436794281006,-1.2275179624557495
1772728922329183000,2.361182861328125,9.274580955505371,4.445864677429199,-1.2729816436767578
1772728922338701000,2.370701171875,9.671789169311523,4.438685894012451,-1.3112667798995972
1772728922348219100,2.38021923828125,10.147960662841797,4.342973232269287,-1.454836130142212
1772728922357737200,2.3897373046875,10.557133674621582,4.268795490264893,-1.5744773149490356
1772728922367255000,2.399255126953125,10.853843688964844,4.1730828285217285,-1.6654045581817627
1772728922376773000,2.408773193359375,11.176874160766602,4.0797624588012695,-1.7443677186965942
1772728922386291200,2.418291259765625,11.46401309967041,4.067798614501953,-1.7922241687774658
1772728922395809300,2.427809326171875,11.645867347717285,4.07258415222168,-1.8041882514953613
1772728922405327400,2.437327392578125,11.607583045959473,4.158725738525391,-1.7419748306274414
1772728922414845400,2.446845458984375,11.236695289611816,4.264009952545166,-1.6941183805465698
1772728922424363500,2.456363525390625,10.628918647766113,4.388436794281006,-1.6630117893218994
1772728922433881300,2.46588134765625,10.06421184539795,4.543970108032227,-1.5696916580200195
1772728922443399400,2.4753994140625,9.710074424743652,4.6372904777526855,-1.5912270545959473
1772728922452917500,2.48491748046875,9.638289451599121,4.639683246612549,-1.5720844268798828
1772728922462435600,2.494435546875,9.755537986755371,4.603790760040283,-1.5098711252212524
1772728922471953700,2.50395361328125,10.054640769958496,4.4721856117248535,-1.5194423198699951
1772728922481471700,2.5134716796875,10.430314064025879,4.213760852813721,-1.6031911373138428
1772728922490989600,2.522989501953125,10.88016414642334,3.8428730964660645,-1.612762451171875
1772728922500507600,2.532507568359375,11.478370666503906,3.397808074951172,-1.5696916580200195
1772728922510025700,2.542025634765625,12.083754539489746,2.943171739578247,-1.4213366508483887
1772728922519543800,2.551543701171875,12.619746208190918,2.4574289321899414,-1.25144624710083
1772728922529062000,2.561061767578125,12.918848991394043,2.0889341831207275,-1.129412293434143
1772728922538580000,2.570580078125,12.75613784790039,1.8472590446472168,-0.9571290612220764
1772728922548097800,2.580097900390625,12.081361770629883,1.7012969255447388,-0.7058826684951782
1772728922557615900,2.589615966796875,11.109875679016113,1.6366907358169556,-0.4259224236011505
1772728922567134000,2.599134033203125,10.133604049682617,1.6773686408996582,-0.17706887423992157
1772728922576652000,2.608652099609375,9.355937004089355,1.7467604875564575,-0.04785645380616188
1772728922586170000,2.618170166015625,8.628518104553223,1.7922241687774658,0.03349951654672623
1772728922595688200,2.627688232421875,7.95134973526001,1.8616160154342651,0.21296121180057526
1772728922605206000,2.6372060546875,7.487142086029053,1.947757601737976,0.3158525824546814
1772728922614724000,2.64672412109375,7.171289443969727,1.9956140518188477,0.20578274130821228
1772728922624242200,2.6562421875,6.951149940490723,2.084148406982422,0.040677983313798904
1772728922633760300,2.66576025390625,6.802794933319092,2.225325107574463,-0.14356936514377594
1772728922643278000,2.675278076171875,6.833901405334473,2.344966173171997,-0.27038896083831787
1772728922652796400,2.68479638671875,6.98704195022583,2.416750907897949,-0.37088751792907715
1772728922662314200,2.694314208984375,7.176074981689453,2.478964328765869,-0.5359922647476196
1772728922671832300,2.703832275390625,7.35314416885376,2.5459632873535156,-0.6819544434547424
1772728922681350400,2.713350341796875,7.668996810913086,2.5842485427856445,-0.8781659007072449
1772728922690868500,2.722868408203125,8.116454124450684,2.579462766647339,-1.0911271572113037
1772728922700386300,2.73238623046875,8.616554260253906,2.557927370071411,-1.2275179624557495
1772728922709904400,2.741904296875,9.042476654052734,2.4813570976257324,-1.3040883541107178
1772728922719422500,2.75142236328125,9.425328254699707,2.4095723628997803,-1.3543375730514526
1772728922728940500,2.7609404296875,9.760323524475098,2.359323024749756,-1.4069796800613403
1772728922738458600,2.770458740234375,9.982855796813965,2.352144718170166,-1.4021940231323242
1772728922747976700,2.779976806640625,10.107282638549805,2.447857618331909,-1.397408366203308
1772728922757494500,2.78949462890625,9.884750366210938,2.6153552532196045,-1.3663017749786377
1772728922767012600,2.7990126953125,9.377471923828125,2.7876384258270264,-1.31365966796875
1772728922776530700,2.80853076171875,8.776873588562012,2.9527430534362793,-1.28255295753479
1772728922786048800,2.818048828125,8.324629783630371,3.1034910678863525,-1.28255295753479
1772728922795566800,2.82756689453125,8.051848411560059,3.2063822746276855,-1.2370892763137817
1772728922805085000,2.8370849609375,7.867600917816162,3.304488182067871,-1.0959128141403198
1772728922814602800,2.846602783203125,7.7216386795043945,3.376272678375244,-0.9954141974449158
1772728922824120800,2.856120849609375,7.539783954620361,3.445664644241333,-0.8877372145652771
1772728922833639000,2.865638916015625,7.424928665161133,3.510270833969116,-0.7561319470405579
1772728922843157000,2.875156982421875,7.475177764892578,3.5844483375549316,-0.641276478767395
1772728922852675000,2.884675048828125,7.611568927764893,3.596412420272827,-0.5623133182525635
1772728922862193000,2.89419287109375,7.7838521003723145,3.6323046684265137,-0.4953143000602722
1772728922871711000,2.9037109375,7.970492362976074,3.6299118995666504,-0.4307080805301666
1772728922881229000,2.91322900390625,8.193024635314941,3.6634113788604736,-0.397208571434021
1772728922890747100,2.9227470703125,8.417949676513672,3.713660717010498,-0.45942193269729614
1772728922900265200,2.93226513671875,8.666803359985352,3.768695592880249,-0.5479564070701599
1772728922909783300,2.941783203125,8.93958568572998,3.8261234760284424,-0.5479564070701599
1772728922919301000,2.951301025390625,9.150154113769531,3.830909013748169,-0.49292147159576416
1772728922928819200,2.960819091796875,9.317651748657227,3.845266103744507,-0.35892340540885925
1772728922938337300,2.970337158203125,9.394221305847168,3.8763725757598877,-0.3086741268634796
1772728922947855400,2.97985546875,9.485149383544922,3.900300979614258,-0.36610186100006104
1772728922957373400,2.98937353515625,9.518648147583008,3.9768712520599365,-0.4785645306110382
1772728922966891500,2.9988916015625,9.647860527038574,4.024727821350098,-0.5958128571510315
1772728922976409300,3.008409423828125,9.81535816192627,4.058227062225342,-0.641276478767395
1772728922985927400,3.017927490234375,9.93260669708252,4.041477680206299,-0.6340979933738708
1772728922995445500,3.027445556640625,9.958928108215332,4.046263217926025,-0.6364908218383789
1772728923004963600,3.036963623046875,9.923035621643066,4.058227062225342,-0.6675975322723389
1772728923014481700,3.046481689453125,9.8871431350708,4.1036906242370605,-0.7896314859390259
1772728923023999700,3.055999755859375,9.853643417358398,4.185046672821045,-0.9332008361816406
1772728923033517600,3.065517578125,9.841679573059082,4.211368083953857,-1.0193424224853516
1772728923043035600,3.07503564453125,9.868000984191895,4.194618225097656,-1.0265209674835205
1772728923052553700,3.0845537109375,9.896714210510254,4.1659040451049805,-0.9930213689804077
1772728923062071800,3.09407177734375,9.982855796813965,4.146761417388916,-1.0336993932724
1772728923071589600,3.103589599609375,10.145567893981934,4.122833251953125,-1.0097711086273193
1772728923081107700,3.113107666015625,10.214960098266602,4.094119548797607,-0.9284151792526245
1772728923090625800,3.122625732421875,10.28195858001709,4.048655986785889,-0.794417142868042
1772728923100143900,3.132143798828125,10.303494453430176,4.012763500213623,-0.6508477330207825
1772728923109662000,3.141661865234375,10.28195858001709,3.9672999382019043,-0.5431707501411438
1772728923119180000,3.151179931640625,10.193424224853516,3.981656789779663,-0.4570291340351105
1772728923128697900,3.16069775390625,10.05703353881836,4.089334011077881,-0.4307080805301666
1772728923138216000,3.1702158203125,9.863214492797852,4.139583110809326,-0.4307080805301666
1772728923147734000,3.179734130859375,9.588040351867676,4.242474555969238,-0.46899324655532837
1772728923157252000,3.189252197265625,9.315258979797363,4.304687976837158,-0.46899324655532837
1772728923166770200,3.198770263671875,9.09990406036377,4.390829563140869,-0.5359922647476196
1772728923176288300,3.208288330078125,9.162117958068848,4.40757942199707,-0.7082754969596863
1772728923185806000,3.21780615234375,9.470791816711426,4.426722049713135,-0.8973084688186646
1772728923195324200,3.22732421875,9.781859397888184,4.376472473144531,-1.0887342691421509
1772728923204842200,3.23684228515625,10.021141052246094,4.247260093688965,-1.2275179624557495
1772728923214360300,3.2463603515625,10.250852584838867,4.000799655914307,-1.2681959867477417
1772728923223878400,3.25587841796875,10.607382774353027,3.665804386138916,-1.3830515146255493
1772728923233396200,3.265396240234375,11.203195571899414,3.25663161277771,-1.5936198234558105
1772728923242914600,3.27491455078125,11.949756622314453,2.830709218978882,-1.7754744291305542
1772728923252432400,3.284432373046875,12.79442310333252,2.4047868251800537,-1.8065811395645142
1772728923261950500,3.293950439453125,13.605589866638184,1.94297194480896,-1.7443677186965942
1772728923271468500,3.303468505859375,13.868800163269043,1.581655740737915,-1.672582983970642
1772728923280986600,3.312986572265625,13.2299165725708,1.2993026971817017,-1.3782658576965332
1772728923290504400,3.32250439453125,11.849257469177246,1.196411371231079,-1.0671988725662231
1772728923300022500,3.3320224609375,10.427921295166016,1.3471591472625732,-0.8350951075553894
1772728923309540600,3.34154052734375,9.272188186645508,1.674975872039795,-0.8303094506263733
1772728923319058700,3.35105859375,8.090133666992188,2.021935224533081,-0.8949156403541565
1772728923328576800,3.36057666015625,7.0923261642456055,2.3234307765960693,-0.9044869542121887
1772728923338094800,3.3700947265625,6.32662296295166,2.5842485427856445,-0.9930213689804077
1772728923347612700,3.37961279296875,5.876772403717041,2.7900311946868896,-1.1461620330810547
1772728923357130800,3.389130859375,5.7547383308410645,2.885744094848633,-1.2969099283218384
1772728923366648800,3.39864892578125,5.92223596572876,2.8809585571289062,-1.5290136337280273
1772728923376167000,3.4081669921875,6.38883638381958,2.823530673980713,-1.7682958841323853
1772728923385685000,3.41768505859375,7.063612461090088,2.7349963188171387,-1.9812572002410889
1772728923395203000,3.427203125,7.704888820648193,2.6392834186553955,-2.0578274726867676
1772728923404721000,3.436720947265625,8.329415321350098,2.557927370071411,-2.043470621109009
1772728923414239000,3.446239013671875,8.863015174865723,2.4741785526275635,-1.9262222051620483
1772728923423757000,3.455757080078125,9.28893756866455,2.462214469909668,-1.7682958841323853
1772728923433275100,3.465275146484375,9.592825889587402,2.4670002460479736,-1.5553346872329712
1772728923442793000,3.47479296875,9.882357597351074,2.4646072387695312,-1.306481122970581
1772728923452311000,3.48431103515625,10.195816993713379,2.4047868251800537,-1.0360921621322632
1772728923461829000,3.4938291015625,10.459028244018555,2.3736801147460938,-0.8159525394439697
1772728923471347200,3.50334716796875,10.545169830322266,2.392822742462158,-0.638883650302887
1772728923480865300,3.512865234375,10.425528526306152,2.469393014907837,-0.4307080805301666
1772728923490383400,3.52238330078125,10.14317512512207,2.53399920463562,-0.3086741268634796
1772728923499901200,3.531901123046875,9.834501266479492,2.6608188152313232,-0.18424734473228455
1772728923509419300,3.541419189453125,9.499505996704102,2.768495798110962,-0.007178467698395252
1772728923518937300,3.550937255859375,9.121439933776855,2.8761727809906006,0.1052841991186142
1772728923528455400,3.560455322265625,8.685946464538574,2.9862427711486816,0.09810572862625122
1772728923537973500,3.569973388671875,8.257631301879883,3.108276605606079,-0.03349951654672623
1772728923547491600,3.57949169921875,7.893921852111816,3.242274761199951,-0.21774685382843018
1772728923557009700,3.589009765625,7.625925540924072,3.359523057937622,-0.43549370765686035
1772728923566527500,3.598527587890625,7.561319351196289,3.4097721576690674,-0.638883650302887
1772728923576045600,3.608045654296875,7.774280548095703,3.404986619949341,-0.8374879360198975
1772728923585563600,3.617563720703125,8.044670104980469,3.3475589752197266,-1.0360921621322632
1772728923595081700,3.627081787109375,8.252845764160156,3.345165967941284,-1.210768222808838
1772728923604599600,3.636599609375,8.317451477050781,3.4193434715270996,-1.3208380937576294
1772728923614118000,3.646117919921875,8.317451477050781,3.5054850578308105,-1.435693621635437
1772728923623635700,3.6556357421875,8.372486114501953,3.565305709838867,-1.4572290182113647
1772728923633153800,3.66515380859375,8.511270523071289,3.5988051891326904,-1.4859428405761719
1772728923642671900,3.674671875,8.650053977966309,3.6370904445648193,-1.4069796800613403
1772728923652190000,3.68418994140625,8.757730484008789,3.7184464931488037,-1.3423734903335571
1772728923661707800,3.693707763671875,8.894122123718262,3.761517286300659,-1.28255295753479
1772728923671225900,3.703225830078125,8.992227554321289,3.806980848312378,-1.184447169303894
1772728923680744000,3.712743896484375,9.095118522644043,3.8021950721740723,-1.1413763761520386
1772728923690262000,3.722261962890625,9.198010444641113,3.81655216217041,-1.1270195245742798
1772728923699780000,3.731780029296875,9.372686386108398,3.840480327606201,-1.1389836072921753
1772728923709298200,3.741298095703125,9.559326171875,3.8596229553222656,-1.124626636505127
1772728923718816000,3.75081591796875,9.66221809387207,3.8333017826080322,-1.069591760635376
1772728923728334000,3.760333984375,9.707681655883789,3.8117663860321045,-0.9523434042930603
1772728923737852200,3.76985205078125,9.717252731323242,3.845266103744507,-0.8877372145652771
1772728923747370200,3.779370361328125,9.774680137634277,3.902693748474121,-0.8733802437782288
1772728923756888000,3.78888818359375,9.8871431350708,3.9457645416259766,-0.9188438653945923
1772728923766406100,3.79840625,10.016355514526367,3.9912281036376953,-0.9308080077171326
1772728923775924200,3.80792431640625,10.104889869689941,4.005585193634033,-0.8566305041313171
1772728923785442300,3.8174423828125,10.164710998535156,4.00319242477417,-0.763310432434082
1772728923794960400,3.82696044921875,10.277173042297363,4.01037073135376,-0.7369893789291382
1772728923804478500,3.836478515625,10.408778190612793,4.000799655914307,-0.7250252366065979
1772728923813996300,3.845996337890625,10.583454132080078,4.043870449066162,-0.8374879360198975
1772728923823514400,3.855514404296875,10.72702407836914,4.058227062225342,-0.8997012972831726
1772728923833032400,3.865032470703125,10.691131591796875,4.110869407653809,-0.9571290612220764
1772728923842550500,3.874550537109375,10.53081226348877,4.211368083953857,-0.9882357716560364
1772728923852068600,3.884068603515625,10.224531173706055,4.319045066833496,-0.882951557636261
1772728923861586700,3.893586669921875,9.834501266479492,4.453042984008789,-0.7920243144035339
1772728923871104800,3.903104736328125,9.43489933013916,4.59421968460083,-0.7848458290100098
1772728923880622600,3.91262255859375,9.190832138061523,4.694717884063721,-0.763310432434082
1772728923890140700,3.922140625,9.131011009216309,4.754538536071777,-0.7752745151519775
1772728923899658800,3.93165869140625,9.300901412963867,4.692325115203857,-0.794417142868042
1772728923909176800,3.9411767578125,9.511469841003418,4.572684288024902,-0.8255237936973572
1772728923918694700,3.950694580078125,9.77707290649414,4.340580463409424,-0.97148597240448
1772728923928212700,3.960212646484375,10.305887222290039,3.9385859966278076,-1.222732424736023
1772728923937730800,3.969730712890625,11.150553703308105,3.4408788681030273,-1.4476577043533325
1772728923947249000,3.979248779296875,12.07896900177002,2.8522446155548096,-1.4380863904953003
1772728923956767000,3.98876708984375,13.00499153137207,2.2851455211639404,-1.4021940231323242
1772728923966285000,3.99828515625,13.651053428649902,1.8185452222824097,-1.3519448041915894
1772728923975803000,4.007802978515625,13.715659141540527,1.5074782371520996,-1.1940184831619263
1772728923985321000,4.017321044921875,13.079168319702148,1.404586911201477,-0.8231309652328491
1772728923994839000,4.026839111328125,12.019147872924805,1.3926228284835815,-0.34695929288864136
1772728924004357000,4.036357177734375,10.810772895812988,1.4811571836471558,0.014356935396790504
1772728924013875200,4.045875244140625,9.501898765563965,1.7276179790496826,0.26560330390930176
1772728924023393300,4.055393310546875,8.161917686462402,2.0410776138305664,0.44745782017707825
1772728924032911000,4.0649111328125,7.020541667938232,2.359323024749756,0.4259224236011505
1772728924042429200,4.07442919921875,6.300302028656006,2.65842604637146,0.13160525262355804
1772728924051947300,4.083947265625,6.049055576324463,2.8689942359924316,-0.2273181527853012
1772728924061465300,4.09346533203125,6.252445697784424,2.967100143432617,-0.5718846321105957
1772728924070983200,4.102983154296875,6.927221775054932,2.9001009464263916,-0.8877372145652771
1772728924080501200,4.112501220703125,7.893921852111816,2.651247501373291,-1.1389836072921753
1772728924090019300,4.122019287109375,8.93240737915039,2.3018953800201416,-1.2897313833236694
1772728924099537400,4.131537353515625,9.7938232421875,1.9884356260299683,-1.454836130142212
1772728924109055500,4.141055419921875,10.590633392333984,1.7754744291305542,-1.3806586265563965
1772728924118573600,4.150573486328125,11.337193489074707,1.6223337650299072,-1.2299108505249023
1772728924128091400,4.16009130859375,11.846864700317383,1.550549030303955,-1.1054840087890625
1772728924137609500,4.169609375,11.91625690460205,1.5122638940811157,-0.9236295223236084
1772728924147127600,4.17912744140625,11.58843994140625,1.526620864868164,-0.7226324677467346
1772728924156645600,4.188645751953125,11.033305168151855,1.6342978477478027,-0.46899324655532837
1772728924166163700,4.198163818359375,10.37767219543457,1.7635103464126587,-0.22013968229293823
1772728924175681800,4.207681884765625,9.693324089050293,1.9142581224441528,-0.02871387079358101
1772728924185199900,4.217199951171875,8.994620323181152,2.0961127281188965,0.02153540402650833
1772728924194717700,4.2267177734375,8.319844245910645,2.273181438446045,-0.02632104977965355
1772728924204235800,4.23623583984375,7.755138397216797,2.4598217010498047,-0.08374879509210587
1772728924213753900,4.24575390625,7.283751964569092,2.6464617252349854,-0.1746760457754135
1772728924223272000,4.25527197265625,6.915257453918457,2.794816732406616,-0.27038896083831787
1772728924232789800,4.264789794921875,6.7070817947387695,2.9359934329986572,-0.45942193269729614
1772728924242307800,4.274307861328125,6.6113691329956055,3.022135019302368,-0.6795616149902344
1772728924251826000,4.283825927734375,6.714260101318359,3.0412776470184326,-0.7513462901115417
1772728924261344000,4.293343994140625,6.872186660766602,3.019742250442505,-0.8159525394439697
1772728924270862000,4.302862060546875,7.087540626525879,3.029313564300537,-0.9308080077171326
1772728924280380200,4.312380126953125,7.506284713745117,2.988635540008545,-0.9930213689804077
1772728924289898000,4.32189794921875,8.169096946716309,2.9001009464263916,-1.0169496536254883
1772728924299416000,4.331416015625,8.831908226013184,2.8115665912628174,-0.9690931439399719
1772728924308934100,4.34093408203125,9.379864692687988,2.682354211807251,-0.8733802437782288
1772728924318452200,4.3504521484375,9.93260669708252,2.572284460067749,-0.7322037220001221
1772728924327970000,4.359969970703125,10.494919776916504,2.4670002460479736,-0.576670229434967
1772728924337488400,4.36948828125,10.971092224121094,2.423929452896118,-0.47617170214653015
1772728924347006200,4.379006103515625,11.289337158203125,2.4813570976257324,-0.4211367964744568
1772728924356524300,4.388524169921875,11.408978462219238,2.495713949203491,-0.2919243574142456
1772728924366042400,4.39804248046875,11.301301002502441,2.524427890777588,-0.038285162299871445
1772728924375560400,4.407560546875,11.026126861572266,2.5148565769195557,0.20578274130821228
1772728924385078300,4.417078369140625,10.712666511535645,2.5531418323516846,0.4498506486415863
1772728924394596400,4.426596435546875,10.40638542175293,2.63449764251709,0.5886343717575073
1772728924404114400,4.436114501953125,10.109675407409668,2.770888566970825,0.672383189201355
1772728924413632500,4.445632568359375,9.870393753051758,2.847458839416504,0.6843472719192505
1772728924423150600,4.455150634765625,9.647860527038574,2.9072794914245605,0.6580262184143066
1772728924432668700,4.464668701171875,9.45882797241211,2.9479575157165527,0.6293123364448547
1772728924442186500,4.4741865234375,9.34875774383545,3.005385160446167,0.5814558863639832
1772728924451704600,4.48370458984375,9.293723106384277,3.0580272674560547,0.5335994362831116
1772728924461222700,4.49322265625,9.19561767578125,3.1202406883239746,0.4211367964744568
1772728924470740700,4.50274072265625,9.119047164916992,3.1561331748962402,0.31824541091918945
1772728924480258800,4.5122587890625,9.119047164916992,3.2231321334838867,0.23449662327766418
1772728924489776600,4.521776611328125,9.159725189208984,3.25663161277771,0.2225325107574463
1772728924499294700,4.531294677734375,9.233902931213379,3.242274761199951,0.27038896083831787
1772728924508812800,4.540812744140625,9.279366493225098,3.2590243816375732,0.2919243574142456
1772728924518331000,4.550330810546875,9.336793899536133,3.263810157775879,0.29431718587875366
1772728924527849000,4.559848876953125,9.415757179260254,3.311666488647461,0.2871387302875519
1772728924537367000,4.569366943359375,9.44447135925293,3.3786656856536865,0.20817556977272034
1772728924546884900,4.578884765625,9.415757179260254,3.445664644241333,0.12203395366668701
1772728924556403000,4.58840283203125,9.387042999267578,3.486342668533325,0.14117653667926788
1772728924565921000,4.597921142578125,9.439684867858887,3.510270833969116,0.14356936514377594
1772728924575439000,4.607439208984375,9.559326171875,3.5126636028289795,0.16031911969184875
1772728924584957200,4.616957275390625,9.667003631591797,3.510270833969116,0.16031911969184875
1772728924594475300,4.626475341796875,9.707681655883789,3.5198421478271484,0.11006984114646912
1772728924603993000,4.6359931640625,9.724431037902832,3.5126636028289795,0.08853443711996078
1772728924613511200,4.64551123046875,9.817750930786133,3.5222349166870117,0.14356936514377594
1772728924623029200,4.655029296875,9.93260669708252,3.493520975112915,0.19621145725250244
1772728924632547300,4.66454736328125,10.016355514526367,3.476771354675293,0.2153540402650833
1772728924642065200,4.674065185546875,10.12881851196289,3.555734395980835,0.23210379481315613
1772728924651583200,4.683583251953125,10.171889305114746,3.682554006576538,0.16271193325519562
1772728924661101300,4.693101318359375,10.14317512512207,3.792623996734619,-0.016749758273363113
1772728924670619400,4.702619384765625,10.1216402053833,3.8333017826080322,-0.31345975399017334
1772728924680137500,4.712137451171875,10.229316711425781,3.7734813690185547,-0.6556333899497986
1772728924689655600,4.721655517578125,10.645668029785156,3.5341989994049072,-1.0217353105545044
1772728924699173400,4.73117333984375,11.418549537658691,3.060420274734497,-1.306481122970581
1772728924708691500,4.74069140625,12.2799654006958,2.4646072387695312,-1.4644074440002441
1772728924718209500,4.75020947265625,13.272987365722656,1.8376877307891846,-1.557727575302124
1772728924727727600,4.7597275390625,14.31625747680664,1.2873386144638062,-1.674975872039795
1772728924737245700,4.76924560546875,14.845071792602539,0.8327022790908813,-1.7180466651916504
1772728924746763500,4.778763427734375,14.469398498535156,0.49292147159576416,-1.581655740737915
1772728924756281600,4.788281494140625,13.16530990600586,0.2512463629245758,-1.0959128141403198
1772728924765799700,4.797799560546875,11.511869430541992,0.2153540402650833,-0.5216353535652161
1772728924775317800,4.80731787109375,10.03549861907959,0.48813581466674805,-0.24406790733337402
1772728924784835800,4.8168359375,8.539983749389648,0.9044869542121887,-0.15074782073497772
1772728924794354000,4.82635400390625,7.250252723693848,1.3806586265563965,-0.22492532432079315
1772728924803871700,4.835871826171875,6.238088607788086,1.8759729862213135,-0.5575276613235474
1772728924813389800,4.845389892578125,5.723631858825684,2.2157537937164307,-0.9978070259094238
1772728924822908000,4.854907958984375,5.795416355133057,2.3234307765960693,-1.454836130142212
1772728924832426000,4.864426025390625,6.484549522399902,2.2133610248565674,-1.8305093050003052
1772728924841944000,4.873944091796875,7.475177764892578,1.9573289155960083,-2.0003998279571533
1772728924851462100,4.883462158203125,8.49452018737793,1.5912270545959473,-2.0195422172546387
1772728924860980000,4.89297998046875,9.387042999267578,1.2658032178878784,-1.9908283948898315
1772728924870498000,4.902498046875,10.351350784301758,1.0839486122131348,-1.8640087842941284
1772728924880016100,4.91201611328125,11.212766647338867,0.9762716293334961,-1.6031911373138428
1772728924889534200,4.9215341796875,11.765508651733398,0.8733802437782288,-1.196411371231079
1772728924899052000,4.931052001953125,11.944971084594727,0.8662018179893494,-0.729810893535614
1772728924908570000,4.940570068359375,11.674581527709961,0.9595218896865845,-0.2560320198535919
1772728924918088200,4.950088134765625,11.050054550170898,1.1509476900100708,0.11006984114646912
1772728924927606300,4.959606201171875,10.363314628601074,1.3926228284835815,0.38285163044929504
1772728924937124400,4.969124267578125,9.868000984191895,1.6462619304656982,0.5838487148284912
1772728924946642400,4.978642333984375,9.456435203552246,1.8472590446472168,0.760917603969574
1772728924956160300,4.98816015625,9.078369140625,1.9884356260299683,0.9379864931106567
1772728924965678300,4.99767822265625,8.676374435424805,2.1056840419769287,0.97148597240448
1772728924975196400,5.007196533203125,8.204988479614258,2.249253273010254,0.9332008361816406
1772728924984714500,5.016714599609375,7.802994728088379,2.3856441974639893,0.8470591902732849
1772728924994232600,5.026232666015625,7.523034572601318,2.5220351219177246,0.6771687865257263
1772728925003750400,5.03575048828125,7.384250640869141,2.6297121047973633,0.44027936458587646
1772728925013268500,5.0452685546875,7.412964344024658,2.7038896083831787,0.24167509377002716
1772728925022786600,5.05478662109375,7.513463020324707,2.737389087677002,0.05742774158716202
1772728925032304600,5.0643046875,7.64028263092041,2.7086751461029053,-0.11724831163883209
1772728925041822700,5.07382275390625,7.795815944671631,2.6967110633850098,-0.31824541091918945
1772728925051340800,5.0833408203125,8.049455642700195,2.7038896083831787,-0.45942193269729614
1772728925060858600,5.092858642578125,8.327022552490234,2.713460922241211,-0.5264210104942322
1772728925070376700,5.102376708984375,8.61894702911377,2.699103832244873,-0.550349235534668
1772728925079894800,5.111894775390625,8.930013656616211,2.754138946533203,-0.5431707501411438
1772728925089412900,5.121412841796875,9.226723670959473,2.799602508544922,-0.42831525206565857
1772728925098931000,5.130930908203125,9.41336441040039,2.8498518466949463,-0.3038884699344635
1772728925108449000,5.140448974609375,9.638289451599121,2.9551360607147217,-0.23449662327766418
1772728925117966800,5.149966796875,9.963713645935059,3.10109806060791,-0.1339980661869049
1772728925127485000,5.15948486328125,10.147960662841797,3.2063822746276855,-0.05742774158716202
1772728925137003000,5.1690029296875,10.171889305114746,3.2853455543518066,0.02392822690308094
1772728925146521000,5.17852099609375,10.171889305114746,3.4025938510894775,0.07896314561367035
1772728925156039000,5.188038818359375,10.102497100830078,3.5030922889709473,0.14835500717163086
1772728925165557000,5.197556884765625,9.963713645935059,3.570091485977173,0.21774685382843018
1772728925175075000,5.207074951171875,9.8871431350708,3.651447296142578,0.31106695532798767
1772728925184593200,5.21659326171875,9.858428955078125,3.7495529651641846,0.36610186100006104
1772728925194111000,5.226111083984375,9.820143699645996,3.8572301864624023,0.45224347710609436
1772728925203629300,5.23562939453125,9.736394882202148,3.9290146827697754,0.5335994362831116
1772728925213147100,5.245147216796875,9.571290969848633,4.07258415222168,0.5694918036460876
1772728925222665200,5.254665283203125,9.449256896972656,4.206582069396973,0.6580262184143066
1772728925232183300,5.264183349609375,9.353543281555176,4.326223373413086,0.7250252366065979
1772728925241701400,5.273701416015625,9.34875774383545,4.426722049713135,0.7992027401924133
1772728925251219500,5.283219482421875,9.430113792419434,4.4721856117248535,0.8255237936973572
1772728925260737300,5.2927373046875,9.616754531860352,4.512863636016846,0.8087740540504456
1772728925270255400,5.30225537109375,9.906285285949707,4.453042984008789,0.8063812255859375
1772728925279773400,5.3117734375,10.124032974243164,4.374079704284668,0.794417142868042
1772728925289291500,5.32129150390625,10.28195858001709,4.3070807456970215,0.7920243144035339
1772728925298809600,5.3308095703125,10.305887222290039,4.254438877105713,0.7872386574745178
1772728925308327700,5.34032763671875,10.26042366027832,4.232903480529785,0.7728816866874695
1772728925317845500,5.349845458984375,10.145567893981934,4.254438877105713,0.8374879360198975
1772728925327363600,5.359363525390625,9.9469633102417,4.266402721405029,0.9499505758285522
1772728925336881700,5.368881591796875,9.750752449035645,4.3070807456970215,1.0600204467773438
1772728925346399700,5.378399658203125,9.55214786529541,4.3549370765686035,1.124626636505127
1772728925355917600,5.38791748046875,9.45882797241211,4.41475772857666,1.1318050622940063
1772728925365435600,5.397435546875,9.477970123291016,4.3788652420043945,1.074377417564392
1772728925374953700,5.40695361328125,9.698110580444336,4.110869407653809,0.8614161610603333
1772728925384471800,5.416471923828125,10.334601402282715,3.6059837341308594,0.5551348328590393
1772728925393990000,5.425989990234375,11.34676456451416,2.9288148880004883,0.28953152894973755
1772728925403508000,5.435508056640625,12.753745079040527,2.210968017578125,0.08135596662759781
1772728925413025800,5.44502587890625,14.242080688476562,1.6295121908187866,0.10049854964017868
1772728925422544000,5.4545439453125,14.981462478637695,1.057627558708191,0.20338992774486542
1772728925432062000,5.46406201171875,14.455041885375977,0.6939185857772827,0.4331009089946747
1772728925441580000,5.473580078125,12.957134246826172,0.7226324677467346,0.698704183101654
1772728925451097900,5.483097900390625,11.37069320678711,0.9882357716560364,0.6364908218383789
1772728925460616000,5.492615966796875,9.91825008392334,1.4524433612823486,0.4570291340351105
1772728925470134000,5.502134033203125,8.683553695678711,1.919043779373169,0.30628129839897156
1772728925479652000,5.511652099609375,7.88913631439209,2.1822543144226074,0.13878370821475983
1772728925489170200,5.521170166015625,7.558926582336426,2.289931297302246,0.062213387340307236
1772728925498688300,5.530688232421875,7.57806921005249,2.3306093215942383,-0.02632104977965355
1772728925508206000,5.5402060546875,7.707281589508057,2.306680917739868,-0.16031911969184875
1772728925517724200,5.54972412109375,7.920242786407471,2.266003131866455,-0.3397808074951172
1772728925527242200,5.5592421875,8.233702659606934,2.280359983444214,-0.5096712112426758
1772728925536760300,5.56876025390625,8.528019905090332,2.3186452388763428,-0.6508477330207825
1772728925546278400,5.5782783203125,8.803194046020508,2.3330020904541016,-0.8087740540504456
1772728925555796200,5.587796142578125,9.087940216064453,2.368894338607788,-0.9044869542121887
1772728925565314600,5.597314453125,9.370293617248535,2.3712873458862305,-0.9379864931106567
1772728925574832400,5.606832275390625,9.573683738708496,2.376072883605957,-0.8350951075553894
1772728925584350500,5.6163505859375,9.571290969848633,2.390429735183716,-0.7250252366065979
1772728925593868500,5.62586865234375,9.379864692687988,2.4765713214874268,-0.5982056856155396
1772728925603386600,5.63538671875,8.9850492477417,2.6153552532196045,-0.5383850932121277
1772728925612904400,5.644904541015625,8.539983749389648,2.7972097396850586,-0.5575276613235474
1772728925622422500,5.654422607421875,8.056633949279785,2.9359934329986572,-0.5838487148284912
1772728925631940600,5.663940673828125,7.680960655212402,3.036491870880127,-0.5814558863639832
1772728925641458700,5.673458740234375,7.436892986297607,3.1920254230499268,-0.5958128571510315
1772728925650976500,5.6829765625,7.259823799133301,3.304488182067871,-0.6508477330207825
1772728925660494600,5.69249462890625,7.168896675109863,3.4432718753814697,-0.729810893535614
1772728925670012700,5.7020126953125,7.087540626525879,3.5341989994049072,-0.8446664214134216
1772728925679530800,5.71153076171875,7.080362319946289,3.6299118995666504,-0.9068797826766968
1772728925689048800,5.721048828125,7.144968509674072,3.6466617584228516,-0.9308080077171326
1772728925698567000,5.73056689453125,7.286144733428955,3.696911096572876,-0.9619147181510925
1772728925708084700,5.740084716796875,7.542177200317383,3.706482172012329,-0.9427721500396729
1772728925717602800,5.749602783203125,7.8556365966796875,3.689732551574707,-0.9427721500396729
1772728925727121000,5.759120849609375,8.193024635314941,3.6442689895629883,-0.8446664214134216
1772728925736639000,5.768638916015625,8.563912391662598,3.5772697925567627,-0.6891329288482666
1772728925746157000,5.778156982421875,8.882157325744629,3.5198421478271484,-0.5240281820297241
1772728925755675000,5.7876748046875,9.128618240356445,3.4983067512512207,-0.3732803463935852
1772728925765193000,5.79719287109375,9.396614074707031,3.4672000408172607,-0.27756741642951965
1772728925774711000,5.8067109375,9.719645500183105,3.4408788681030273,-0.16749759018421173
1772728925784229000,5.81622900390625,10.04985523223877,3.376272678375244,-0.12681959569454193
1772728925793747200,5.825747314453125,10.382457733154297,3.290131092071533,-0.01196411345154047
1772728925803265300,5.835265380859375,10.638489723205566,3.266202926635742,0.14835500717163086
1772728925812783000,5.844783203125,10.715060234069824,3.280559778213501,0.32303106784820557
1772728925822301200,5.85430126953125,10.564311981201172,3.3379876613616943,0.5048855543136597
1772728925831819300,5.8638193359375,10.210174560546875,3.436093330383301,0.6556333899497986
1772728925841337300,5.87333740234375,9.865608215332031,3.5581271648406982,0.7728816866874695
1772728925850855400,5.88285546875,9.650253295898438,3.6873397827148438,0.8470591902732849
1772728925860373500,5.89237353515625,9.559326171875,3.82373046875,0.8709874153137207
1772728925869891300,5.901891357421875,9.504291534423828,3.9218363761901855,0.8398807644844055
1772728925879409400,5.911409423828125,9.42772102355957,3.9696927070617676,0.7968099117279053
1772728925888927500,5.920927490234375,9.437292098999023,4.046263217926025,0.7896314859390259
1772728925898445600,5.930445556640625,9.518648147583008,4.130012035369873,0.7154539823532104
1772728925907963400,5.93996337890625,9.650253295898438,4.206582069396973,0.6005984544754028
1772728925917481500,5.9494814453125,9.731609344482422,4.273581027984619,0.5024927258491516
1772728925926999600,5.95899951171875,9.853643417358398,4.3310089111328125,0.4139583110809326
1772728925936517600,5.968517578125,9.958928108215332,4.319045066833496,0.44745782017707825
1772728925946035700,5.97803564453125,10.114460945129395,4.309473514556885,0.4833501875400543
1772728925955553800,5.9875537109375,10.310672760009766,4.242474555969238,0.5407779216766357
1772728925965071600,5.997071533203125,10.494919776916504,4.240081787109375,0.5910272002220154
1772728925974589700,6.006589599609375,10.48534870147705,4.199403762817383,0.6556333899497986
1772728925984107800,6.016107666015625,10.425528526306152,4.1659040451049805,0.6771687865257263
1772728925993625900,6.0256259765625,10.351350784301758,4.156332969665527,0.6125625967979431
1772728926003144000,6.03514404296875,10.344172477722168,4.132404804229736,0.550349235534668
1772728926012661800,6.044661865234375,10.305887222290039,4.158725738525391,0.4498506486415863
1772728926022179800,6.054179931640625,10.159924507141113,4.18983268737793,0.2799602448940277
1772728926031698000,6.063697998046875,9.937392234802246,4.240081787109375,-0.040677983313798904
1772728926041216000,6.073216064453125,9.877572059631348,4.240081787109375,-0.35413774847984314
1772728926050734000,6.082734130859375,9.891928672790527,4.240081787109375,-0.6340979933738708
1772728926060252200,6.092252197265625,9.889535903930664,4.218546390533447,-0.8805587291717529
1772728926069770000,6.10177001953125,9.891928672790527,4.194618225097656,-1.1676974296569824
1772728926079288000,6.1112880859375,9.970891952514648,4.098905086517334,-1.423729419708252
1772728926088806100,6.12080615234375,10.234102249145508,3.933800458908081,-1.6199408769607544
1772728926098324200,6.13032421875,10.664810180664062,3.665804386138916,-1.6630117893218994
1772728926107842000,6.139842041015625,11.126625061035156,3.314059257507324,-1.7395820617675781
1772728926117360000,6.149360107421875,11.866007804870605,2.9359934329986572,-1.8735800981521606
1772728926126878200,6.158878173828125,12.497713088989258,2.5196423530578613,-2.007578134536743
1772728926136396300,6.168396240234375,12.717852592468262,2.1511476039886475,-1.9621145725250244
1772728926145914000,6.1779140625,12.277572631835938,1.801795482635498,-1.6965112686157227
1772728926155432400,6.187432373046875,11.291729927062988,1.6295121908187866,-1.2849457263946533
1772728926164950300,6.1969501953125,10.104889869689941,1.648654818534851,-0.9834501147270203
1772728926174468400,6.20646826171875,9.08554744720459,1.8496519327163696,-0.8135597109794617
1772728926183986400,6.215986328125,8.25523853302002,2.0985054969787598,-0.8303094506263733
1772728926193504500,6.22550439453125,7.403393268585205,2.400001049041748,-0.849452018737793
1772728926203022300,6.235022216796875,6.508477687835693,2.715853691101074,-0.849452018737793
1772728926212540400,6.24454052734375,5.850451469421387,2.9551360607147217,-0.8685946464538574
1772728926222058500,6.25405859375,5.7619171142578125,3.091526746749878,-0.9643075466156006
1772728926231576600,6.26357666015625,6.178267955780029,3.0029923915863037,-1.129412293434143
1772728926241094700,6.2730947265625,6.9583282470703125,2.9288148880004883,-1.2299108505249023
1772728926250612700,6.28261279296875,7.779066562652588,2.8187451362609863,-1.215553879737854
1772728926260130600,6.292130615234375,8.391629219055176,2.6321048736572266,-1.2083754539489746
1772728926269648600,6.301648681640625,8.951549530029297,2.5387847423553467,-1.2011969089508057
1772728926279166700,6.311166748046875,9.600004196166992,2.455035924911499,-1.1700903177261353
1772728926288684800,6.320684814453125,10.073782920837402,2.4502503871917725,-1.1102696657180786
1772728926298203000,6.330202880859375,10.353743553161621,2.4430718421936035,-0.9403793215751648
1772728926307720700,6.339720703125,10.473384857177734,2.431107759475708,-0.760917603969574
1772728926317238800,6.34923876953125,10.408778190612793,2.495713949203491,-0.519242525100708
1772728926326756900,6.3587568359375,10.145567893981934,2.5914268493652344,-0.20578274130821228
1772728926336275000,6.36827490234375,9.66221809387207,2.7421748638153076,0.059820566326379776
1772728926345793000,6.37779296875,9.174081802368164,2.895315408706665,0.29431718587875366
1772728926355311000,6.38731103515625,8.745766639709473,3.084348440170288,0.5096712112426758
1772728926364829000,6.396828857421875,8.346165657043457,3.2207393646240234,0.6317051649093628
1772728926374347000,6.406346923828125,8.054241180419922,3.3332018852233887,0.6891329288482666
1772728926383865000,6.415864990234375,7.858029365539551,3.4241292476654053,0.7537391185760498
1772728926393383200,6.425383056640625,7.678567886352539,3.5461630821228027,0.6867401003837585
1772728926402901000,6.43490087890625,7.537391185760498,3.651447296142578,0.5623133182525635
1772728926412419000,6.444419189453125,7.518248558044434,3.7543387413024902,0.4307080805301666
1772728926421937200,6.453937255859375,7.573283672332764,3.783052682876587,0.26081767678260803
1772728926431455200,6.463455322265625,7.781459331512451,3.7902309894561768,0.10289137065410614
1772728926440973300,6.472973388671875,8.02074146270752,3.78544545173645,-0.02392822690308094
1772728926450491400,6.482491455078125,8.2695951461792,3.744767427444458,-0.14835500717163086
1772728926460009200,6.49200927734375,8.504091262817383,3.744767427444458,-0.23688943684101105
1772728926469527300,6.50152734375,8.70508861541748,3.7256247997283936,-0.29431718587875366
1772728926479045400,6.51104541015625,8.94676399230957,3.728017568588257,-0.397208571434021
1772728926488563500,6.5205634765625,9.131011009216309,3.744767427444458,-0.397208571434021
1772728926498081500,6.53008154296875,9.267401695251465,3.8117663860321045,-0.3038884699344635
1772728926507599400,6.539599365234375,9.363115310668945,3.8356947898864746,-0.2679961323738098
1772728926517117400,6.549117431640625,9.489934921264648,3.88594388961792,-0.23688943684101105
1772728926526635500,6.558635498046875,9.585647583007812,3.9122650623321533,-0.26081767678260803
1772728926536153600,6.568153564453125,9.643074989318848,3.955335855484009,-0.22492532432079315
1772728926545671700,6.577671630859375,9.595218658447266,3.957728624343872,-0.1459621787071228
1772728926555189800,6.587189697265625,9.477970123291016,3.988835334777832,-0.11006984114646912
1772728926564707600,6.59670751953125,9.387042999267578,4.053441524505615,-0.10289137065410614
1772728926574225700,6.6062255859375,9.353543281555176,4.110869407653809,-0.09092725813388824
1772728926583743700,6.61574365234375,9.212367057800293,4.194618225097656,-0.06699903309345245
1772728926593261800,6.62526171875,8.980263710021973,4.323830604553223,-0.14835500717163086
1772728926602779600,6.634779541015625,8.762516975402832,4.455435752868652,-0.12442677468061447
1772728926612297700,6.644297607421875,8.599804878234863,4.563112735748291,-0.07178468257188797
1772728926621815800,6.65381591796875,8.48016357421875,4.661218643188477,0.007178467698395252
1772728926631334000,6.663333984375,8.508877754211426,4.737788677215576,0.09810572862625122
1772728926640852000,6.67285205078125,8.726624488830566,4.78803825378418,0.13160525262355804
1772728926650370000,6.6823701171875,9.154939651489258,4.72582483291626,0.11006984114646912
1772728926659887900,6.691887939453125,9.68375301361084,4.6301116943359375,0.064606212079525
1772728926669406000,6.701406005859375,10.104889869689941,4.527220249176025,-0.02632104977965355
1772728926678924000,6.710924072265625,10.463813781738281,4.493721008300781,-0.1052841991186142
1772728926688442000,6.720442138671875,10.72702407836914,4.474578380584717,-0.08614161610603333
1772728926697960000,6.7299599609375,11.071590423583984,4.4721856117248535,-0.22013968229293823
1772728926707478000,6.73947802734375,11.349157333374023,4.508078098297119,-0.3206382393836975
1772728926716996000,6.74899609375,11.408978462219238,4.548755645751953,-0.39481574296951294
1772728926726514200,6.75851416015625,11.198410034179688,4.570291042327881,-0.3445664644241333
1772728926736032300,6.7680322265625,10.899307250976562,4.603790760040283,-0.19621145725250244
1772728926745550300,6.77755029296875,10.487741470336914,4.6540398597717285,-0.07657032459974289
1772728926755068400,6.787068359375,10.138389587402344,4.692325115203857,-0.004785645287483931
1772728926764586200,6.796586181640625,9.915857315063477,4.706682205200195,0.014356935396790504
1772728926774104300,6.806104248046875,9.860821723937988,4.658825874328613,-0.02153540402650833
1772728926783622400,6.815622314453125,10.04985523223877,4.445864677429199,-0.064606212079525
1772728926793140500,6.825140380859375,10.482955932617188,4.058227062225342,-0.11006984114646912
1772728926802658300,6.834658203125,11.2247314453125,3.5341989994049072,-0.2512463629245758
1772728926812176400,6.84417626953125,12.011969566345215,2.9455647468566895,-0.36610186100006104
1772728926821694500,6.853694580078125,12.897314071655273,2.4670002460479736,-0.3852444589138031
1772728926831212500,6.863212646484375,13.351950645446777,2.060220241546631,-0.2512463629245758
1772728926840730600,6.872730712890625,13.03370475769043,1.7563318014144897,0.04785645380616188
1772728926850248700,6.882248779296875,11.894721031188965,1.6462619304656982,0.4713860750198364
1772728926859766500,6.8917666015625,10.50927734375,1.7635103464126587,0.9020941257476807
1772728926869284600,6.90128466796875,9.236295700073242,1.9573289155960083,1.1030912399291992
1772728926878802700,6.910802734375,8.073383331298828,2.170290231704712,1.191625714302063
1772728926888320800,6.92032080078125,7.226324558258057,2.3712873458862305,1.2562319040298462
1772728926897838600,6.929838623046875,6.807580471038818,2.495713949203491,1.1988041400909424
1772728926907356700,6.939356689453125,6.711867332458496,2.5603201389312744,1.129412293434143
1772728926916874800,6.948874755859375,6.836294174194336,2.5770699977874756,1.0336993932724
1772728926926392800,6.958392822265625,7.106683254241943,2.5746772289276123,0.8805587291717529
1772728926935911000,6.967910888671875,7.412964344024658,2.5914268493652344,0.6436693072319031
1772728926945429000,6.977428955078125,7.891529083251953,2.59621262550354,0.4426721930503845
1772728926954946800,6.98694677734375,8.408378601074219,2.5986053943634033,0.2679961323738098
1772728926964465000,6.99646484375,8.812766075134277,2.5842485427856445,0.14117653667926788
1772728926973983000,7.00598291015625,9.159725189208984,2.579462766647339,0.01196411345154047
1772728926983501000,7.0155009765625,9.44447135925293,2.610569477081299,-0.12203395366668701
1772728926993019100,7.02501904296875,9.650253295898438,2.6321048736572266,-0.2273181527853012
1772728927002537000,7.034536865234375,9.987641334533691,2.66560435295105,-0.36610186100006104
1772728927012055000,7.044054931640625,10.179067611694336,2.7349963188171387,-0.5048855543136597
1772728927021573000,7.053572998046875,10.107282638549805,2.8450660705566406,-0.4905286431312561
1772728927031091200,7.06309130859375,9.664610862731934,2.981456995010376,-0.4426721930503845
1772728927040609300,7.072609375,8.886942863464355,3.10109806060791,-0.4498506486415863
1772728927050127400,7.08212744140625,8.025527000427246,3.326023578643799,-0.4785645306110382
1772728927059645200,7.091645263671875,7.393822193145752,3.5437703132629395,-0.5072783827781677
1772728927069163300,7.101163330078125,7.04925537109375,3.7184464931488037,-0.6317051649093628
1772728927078681300,7.110681396484375,6.738188743591309,3.809373617172241,-0.7082754969596863
1772728927088199400,7.120199462890625,6.539584159851074,3.895515203475952,-0.6843472719192505
1772728927097717200,7.12971728515625,6.534798622131348,3.933800458908081,-0.6340979933738708
1772728927107235300,7.1392353515625,6.7621169090271,3.955335855484009,-0.5694918036460876
1772728927116753400,7.14875341796875,7.022934436798096,3.90987229347229,-0.5096712112426758
1772728927126271500,7.158271484375,7.334001541137695,3.8763725757598877,-0.4737788736820221
1772728927135789600,7.16778955078125,7.63310432434082,3.864408493041992,-0.4331009089946747
1772728927145307400,7.177307373046875,8.02791976928711,3.8668015003204346,-0.4713860750198364
1772728927154825500,7.186825439453125,8.482556343078613,3.840480327606201,-0.40677985548973083
1772728927164343600,7.196343505859375,8.846264839172363,3.814159393310547,-0.3086741268634796
1772728927173861600,7.205861572265625,9.107083320617676,3.7902309894561768,-0.21296121180057526
1772728927183379700,7.215379638671875,9.391828536987305,3.78544545173645,-0.14356936514377594
1772728927192897500,7.2248974609375,9.688538551330566,3.8213376998901367,-0.02871387079358101
1772728927202415600,7.23441552734375,9.853643417358398,3.8500516414642334,-0.0023928226437419653
1772728927211933700,7.24393359375,9.817750930786133,3.9433717727661133,-0.007178467698395252
1772728927221451800,7.25345166015625,9.674181938171387,4.041477680206299,-0.019142581149935722
1772728927230969900,7.262969970703125,9.487542152404785,4.1730828285217285,-0.040677983313798904
1772728927240488000,7.272488037109375,9.346364974975586,4.271188259124756,-0.0526420995593071
1772728927250006000,7.282006103515625,9.281759262084961,4.340580463409424,-0.11006984114646912
1772728927259523800,7.29152392578125,9.300901412963867,4.417150497436523,-0.17946170270442963
1772728927269042000,7.3010419921875,9.379864692687988,4.450650215148926,-0.22971096634864807
1772728927278560000,7.31056005859375,9.492327690124512,4.510470867156982,-0.30149564146995544
1772728927288078000,7.320078125,9.588040351867676,4.53200626373291,-0.38285163044929504
1772728927297596000,7.329595947265625,9.664610862731934,4.551148891448975,-0.4618147611618042
1772728927307114000,7.339114013671875,9.791430473327637,4.527220249176025,-0.5838487148284912
1772728927316632000,7.348632080078125,9.997213363647461,4.524827480316162,-0.6699903607368469
1772728927326150100,7.358150146484375,10.241280555725098,4.445864677429199,-0.7058826684951782
1772728927335668200,7.367668212890625,10.53081226348877,4.328616142272949,-0.6867401003837585
1772728927345186300,7.377186279296875,10.784451484680176,4.247260093688965,-0.5934200286865234
1772728927354704100,7.3867041015625,10.794022560119629,4.225724697113037,-0.5024927258491516
1772728927364222200,7.39622216796875,10.64088249206543,4.247260093688965,-0.4737788736820221
1772728927373740300,7.405740234375,10.39202880859375,4.366901397705078,-0.4785645306110382
1772728927383258400,7.41525830078125,10.078569412231445,4.48414945602417,-0.5120640397071838
1772728927392776200,7.424776123046875,9.762716293334961,4.603790760040283,-0.6125625967979431
1772728927402294300,7.434294189453125,9.523433685302734,4.651647090911865,-0.7752745151519775
1772728927411812400,7.443812255859375,9.45882797241211,4.701896667480469,-0.9427721500396729
1772728927421330400,7.453330322265625,9.446864128112793,4.7234320640563965,-1.124626636505127
1772728927430848500,7.4628486328125,9.525827407836914,4.697110652923584,-1.306481122970581
1772728927440366600,7.47236669921875,9.614361763000488,4.634897232055664,-1.521835207939148
1772728927449884400,7.481884521484375,9.812965393066406,4.493721008300781,-1.6414763927459717
1772728927459402500,7.491402587890625,10.021141052246094,4.2592244148254395,-1.674975872039795
1772728927468920600,7.500920654296875,10.262816429138184,3.955335855484009,-1.6821542978286743
1772728927478438700,7.510438720703125,10.683953285217285,3.620340585708618,-1.6701902151107788
1772728927487956700,7.519956787109375,11.205588340759277,3.290131092071533,-1.6534404754638672
1772728927497474600,7.529474609375,11.576476097106934,2.9455647468566895,-1.5912270545959473
1772728927506992600,7.53899267578125,11.648261070251465,2.5986053943634033,-1.4500504732131958
1772728927516510700,7.5485107421875,11.267802238464355,2.335394859313965,-1.1700903177261353
1772728927526028800,7.55802880859375,10.53799057006836,2.196611166000366,-0.9284151792526245
1772728927535546600,7.567546630859375,9.56650447845459,2.3234307765960693,-0.8231309652328491
1772728927545065000,7.57706494140625,8.717052459716797,2.548356056213379,-0.7872386574745178
1772728927554582800,7.586582763671875,7.910671710968018,2.8594231605529785,-0.914058268070221
1772728927564100900,7.596100830078125,7.121040344238281,3.1345977783203125,-1.0911271572113037
1772728927573619000,7.605618896484375,6.477370738983154,3.4121651649475098,-1.1820544004440308
1772728927583136800,7.61513671875,6.041877269744873,3.586841106414795,-1.2442678213119507
1772728927592654800,7.62465478515625,6.099305152893066,3.706482172012329,-1.3878371715545654
1772728927602173000,7.6341728515625,6.585047721862793,3.665804386138916,-1.5553346872329712
1772728927611691000,7.64369091796875,7.252645492553711,3.5605201721191406,-1.6582261323928833
1772728927621209000,7.653208984375,7.975277900695801,3.326023578643799,-1.7012969255447388
1772728927630727000,7.662726806640625,8.671588897705078,3.1657042503356934,-1.6199408769607544
1772728927640245000,7.672244873046875,9.528220176696777,3.0939197540283203,-1.526620864868164
1772728927649763000,7.68176318359375,10.360921859741211,3.0269205570220947,-1.5553346872329712
1772728927659281200,7.69128125,10.987841606140137,2.9479575157165527,-1.5050854682922363
1772728927668799200,7.70079931640625,11.2247314453125,2.950350284576416,-1.2969099283218384
1772728927678317300,7.7103173828125,11.054841041564941,2.9718856811523438,-0.9690931439399719
1772728927687835400,7.71983544921875,10.420742988586426,3.0939197540283203,-0.5575276613235474
1772728927697353200,7.729353271484375,9.647860527038574,3.2039895057678223,-0.1866401731967926
1772728927706871300,7.738871337890625,8.865407943725586,3.3619158267974854,0.09571290761232376
1772728927716389400,7.748389404296875,8.240880966186523,3.541377544403076,0.26560330390930176
1772728927725907500,7.757907470703125,7.788637638092041,3.6873397827148438,0.2799602448940277
1772728927735425300,7.76742529296875,7.424928665161133,3.7663028240203857,0.30149564146995544
1772728927744943400,7.776943359375,7.077969551086426,3.8428730964660645,0.32542386651039124
1772728927754461400,7.78646142578125,6.750152587890625,3.90987229347229,0.30628129839897156
1772728927763979500,7.7959794921875,6.455835342407227,4.043870449066162,0.22013968229293823
1772728927773497600,7.80549755859375,6.331408500671387,4.096512317657471,0.07178468257188797
1772728927783015700,7.815015625,6.539584159851074,4.137190341949463,-0.0933200865983963
1772728927792533500,7.824533447265625,6.97986364364624,4.115654945373535,-0.2632105052471161
1772728927802051600,7.834051513671875,7.499105930328369,4.051048755645752,-0.4426721930503845
1772728927811569700,7.843569580078125,8.015955924987793,3.9840497970581055,-0.5072783827781677
1772728927821087700,7.853087646484375,8.46341323852539,3.9122650623321533,-0.550349235534668
1772728927830605600,7.86260546875,8.800801277160645,3.8907296657562256,-0.605384111404419
1772728927840123600,7.87212353515625,9.020941734313965,3.902693748474121,-0.6675975322723389
1772728927849641700,7.881641845703125,9.183652877807617,3.950550079345703,-0.6891329288482666
1772728927859159800,7.891159912109375,9.28893756866455,4.027120590209961,-0.6747759580612183
1772728927868678000,7.900677978515625,9.387042999267578,4.06540584564209,-0.6149554252624512
1772728927878196000,7.910196044921875,9.480362892150879,4.113262176513672,-0.5240281820297241
1772728927887713800,7.9197138671875,9.473184585571289,4.163511276245117,-0.4666004180908203
1772728927897232000,7.92923193359375,9.372686386108398,4.223331928253174,-0.4618147611618042
1772728927906750000,7.93875,9.20279598236084,4.254438877105713,-0.4953143000602722
1772728927916268000,7.94826806640625,9.040083885192871,4.268795490264893,-0.4450650215148926
1772728927925786000,7.9577861328125,8.891729354858398,4.342973232269287,-0.363709032535553
1772728927935304000,7.967303955078125,8.681160926818848,4.431507587432861,-0.31106695532798767
1772728927944822000,7.976822021484375,8.50169849395752,4.5822553634643555,-0.27038896083831787
1772728927954340000,7.986340087890625,8.317451477050781,4.706682205200195,-0.3158525824546814
1772728927963858200,7.995858154296875,8.324629783630371,4.835894584655762,-0.34695929288864136
1772728927973376300,8.005376220703125,8.504091262817383,4.852644443511963,-0.33738797903060913
1772728927982894300,8.014894287109374,8.848658561706543,4.843072891235352,-0.33020952343940735
1772728927992412200,8.024412109375,9.353543281555176,4.766502857208252,-0.3326023519039154
1772728928001930200,8.03393017578125,9.834501266479492,4.60139799118042,-0.31824541091918945
1772728928011448300,8.0434482421875,10.214960098266602,4.481756687164307,-0.23210379481315613
1772728928020966400,8.05296630859375,10.674382209777832,4.350151538848877,-0.14356936514377594
1772728928030484200,8.062484130859374,11.2247314453125,4.206582069396973,-0.2512463629245758
1772728928040002300,8.072002197265626,11.782258987426758,4.132404804229736,-0.44027936458587646
1772728928049520400,8.081520263671875,12.201003074645996,4.151547431945801,-0.5886343717575073
1772728928059038500,8.09103857421875,12.368500709533691,4.225724697113037,-0.6197410821914673
1772728928068556500,8.100556640625,12.074183464050293,4.295116424560547,-0.5838487148284912
1772728928078074600,8.11007470703125,11.454442024230957,4.398007869720459,-0.4977070987224579
1772728928087592400,8.119592529296876,10.715060234069824,4.47697114944458,-0.4307080805301666
1772728928097110500,8.129110595703125,10.083354949951172,4.551148891448975,-0.2991028428077698
1772728928106628600,8.138628662109374,9.719645500183105,4.610969066619873,-0.2225325107574463
1772728928116146700,8.148146728515625,9.66939640045166,4.625326156616211,-0.16031911969184875
1772728928125664800,8.157664794921875,9.860821723937988,4.510470867156982,-0.11724831163883209
1772728928135182600,8.1671826171875,10.234102249145508,4.34536600112915,-0.12203395366668701
1772728928144700700,8.17670068359375,10.715060234069824,4.036691665649414,-0.14117653667926788
1772728928154218800,8.18621875,11.179266929626465,3.6873397827148438,-0.26081767678260803
1772728928163736800,8.19573681640625,11.598011016845703,3.3308091163635254,-0.3565305769443512
1772728928173254700,8.205254638671875,11.83011531829834,3.0101709365844727,-0.3732803463935852
1772728928182773000,8.21477294921875,12.007184028625488,2.7661030292510986,-0.349352091550827
1772728928192290800,8.224290771484375,11.96172046661377,2.610569477081299,-0.2679961323738098
1772728928201809000,8.233808837890624,11.440085411071777,2.5292134284973145,-0.10049854964017868
1772728928211327000,8.243326904296875,10.506884574890137,2.462214469909668,0.20338992774486542
1772728928230363000,8.26236279296875,8.767302513122559,2.5674986839294434,0.6149554252624512
1772728928239881000,8.271880859375,8.154739379882812,2.641676187515259,0.6340979933738708
1772728928249399000,8.28139892578125,7.630711555480957,2.7014968395233154,0.5623133182525635
1772728928258917000,8.290917236328125,7.2335028648376465,2.7014968395233154,0.5814558863639832
1772728928268435000,8.30043505859375,7.0061845779418945,2.6799614429473877,0.6317051649093628
1772728928277953000,8.309953125,6.927221775054932,2.651247501373291,0.6245267391204834
1772728928287471000,8.31947119140625,6.900900363922119,2.644068956375122,0.6604190468788147
1772728928296989200,8.3289892578125,6.951149940490723,2.682354211807251,0.6101697683334351
1772728928306507300,8.33850732421875,7.10429048538208,2.761317253112793,0.4953143000602722
1772728928316025300,8.348025390625,7.456035137176514,2.8187451362609863,0.30149564146995544
1772728928325543200,8.357543212890626,7.9728851318359375,2.857030153274536,0.12203395366668701
1772728928335061200,8.367061279296875,8.523234367370605,2.8809585571289062,-0.059820566326379776
1772728928344579300,8.376579345703124,8.9850492477417,2.840280532836914,-0.2153540402650833
1772728928354097400,8.386097412109375,9.382257461547852,2.8354947566986084,-0.3517449200153351
1772728928363615500,8.395615478515625,9.757930755615234,2.885744094848633,-0.4091726839542389
1772728928373133300,8.40513330078125,10.107282638549805,2.8522446155548096,-0.41874396800994873
1772728928382651400,8.4146513671875,10.336994171142578,2.8498518466949463,-0.5024927258491516
1772728928392169500,8.42416943359375,10.353743553161621,2.9312076568603516,-0.5335994362831116
1772728928401687600,8.4336875,10.016355514526367,3.050848960876465,-0.48095735907554626
1772728928411205600,8.44320556640625,9.389435768127441,3.2039895057678223,-0.4139583110809326
1772728928420723700,8.4527236328125,8.678768157958984,3.3403804302215576,-0.349352091550827
1772728928430241500,8.462241455078125,8.11406135559082,3.4959139823913574,-0.31345975399017334
1772728928439759600,8.471759521484374,7.664210796356201,3.634697675704956,-0.28953152894973755
1772728928449277700,8.481277587890625,7.403393268585205,3.730410575866699,-0.31345975399017334
1772728928458795800,8.490795654296875,7.362715244293213,3.8045880794525146,-0.3613162338733673
1772728928468313600,8.500313720703126,7.405786037445068,3.8285162448883057,-0.36610186100006104
1772728928477831700,8.509831787109375,7.491927623748779,3.8261234760284424,-0.4043870270252228
1772728928487349800,8.519349853515624,7.566105365753174,3.8500516414642334,-0.4666004180908203
1772728928496867800,8.528867919921876,7.719245910644531,3.8835511207580566,-0.5335994362831116
1772728928506385700,8.5383857421875,7.88913631439209,3.871587038040161,-0.5718846321105957
1772728928515904000,8.547904052734374,8.118846893310547,3.895515203475952,-0.6340979933738708
1772728928525421800,8.557421875,8.429914474487305,3.9218363761901855,-0.6317051649093628
1772728928534940000,8.56693994140625,8.740981101989746,3.924229145050049,-0.6269195079803467
1772728928544458000,8.5764580078125,9.07119083404541,3.9122650623321533,-0.6101697683334351
1772728928553976000,8.58597607421875,9.29611587524414,3.9146578311920166,-0.5694918036460876
1772728928563494100,8.595494140625,9.4061861038208,3.9529430866241455,-0.5144568681716919
1772728928573012000,8.605011962890625,9.372686386108398,3.9936211109161377,-0.4833501875400543
1772728928582530000,8.614530029296875,9.29611587524414,4.0558342933654785,-0.4713860750198364
1772728928592048000,8.624048095703126,9.212367057800293,4.115654945373535,-0.45942193269729614
1772728928601566200,8.633566162109375,9.18843936920166,4.12761926651001,-0.42831525206565857
1772728928611084000,8.643083984375,9.128618240356445,4.18983268737793,-0.4426721930503845
1772728928620602400,8.652602294921875,9.08554744720459,4.244867324829102,-0.4785645306110382
1772728928630120200,8.6621201171875,9.121439933776855,4.287938117980957,-0.5288137793540955
1772728928639638300,8.67163818359375,9.233902931213379,4.314259052276611,-0.5670989751815796
1772728928649156400,8.68115625,9.408578872680664,4.338187217712402,-0.6245267391204834
1772728928658674200,8.690674072265624,9.595218658447266,4.350151538848877,-0.6939185857772827
1772728928668192300,8.700192138671875,9.738788604736328,4.362115859985352,-0.7728816866874695
1772728928677710300,8.70971044921875,9.942177772521973,4.333401679992676,-0.8925228714942932
1772728928687228400,8.719228515625,10.15035343170166,4.302295207977295,-0.916451096534729
1772728928696746500,8.72874658203125,10.353743553161621,4.18983268737793,-0.8781659007072449
1772728928706264300,8.738264404296874,10.552348136901855,4.098905086517334,-0.7824530005455017
1772728928715782400,8.747782470703125,10.74138069152832,4.046263217926025,-0.6364908218383789
1772728928725300500,8.757300537109375,10.705488204956055,4.058227062225342,-0.4953143000602722
1772728928734818600,8.766818603515626,10.490134239196777,4.110869407653809,-0.3326023519039154
1772728928744336600,8.776336669921875,10.1814603805542,4.225724697113037,-0.2392822653055191
1772728928753854700,8.785854736328124,9.762716293334961,4.467400074005127,-0.15553347766399384
1772728928763372500,8.79537255859375,9.308079719543457,4.618147850036621,-0.20578274130821228
1772728928772890600,8.804890625,9.006584167480469,4.730610370635986,-0.3445664644241333
1772728928782408700,8.81440869140625,8.937192916870117,4.804787635803223,-0.4570291340351105
1772728928791926800,8.8239267578125,9.080761909484863,4.804787635803223,-0.6436693072319031
1772728928801444900,8.83344482421875,9.286544799804688,4.756931304931641,-0.8638089895248413
1772728928810962700,8.842962646484375,9.542576789855957,4.587040901184082,-1.1700903177261353
1772728928820480800,8.852480712890625,9.956535339355469,4.29033088684082,-1.373480200767517
1772728928829998800,8.861998779296876,10.473384857177734,3.893122434616089,-1.5194423198699951
1772728928839517000,8.871516845703125,10.96630573272705,3.476771354675293,-1.4835500717163086
1772728928849035000,8.881034912109374,11.641081809997559,3.0891339778900146,-1.3567304611206055
1772728928858553000,8.890552978515625,12.39721393585205,2.746960401535034,-1.3160524368286133
1772728928868071000,8.90007080078125,12.76331615447998,2.376072883605957,-1.160519003868103
1772728928877589000,8.909589111328126,12.473784446716309,2.0961127281188965,-0.8973084688186646
1772728928887107000,8.919107177734375,11.633903503417969,1.9764715433120728,-0.641276478767395
1772728928896625200,8.928625244140624,10.53799057006836,2.007578134536743,-0.5335994362831116
1772728928906143000,8.93814306640625,9.504291534423828,2.170290231704712,-0.48813581466674805
1772728928915661000,8.9476611328125,8.650053977966309,2.423929452896118,-0.5599204897880554
1772728928925179100,8.95717919921875,7.95134973526001,2.7278177738189697,-0.7058826684951782
1772728928934697200,8.966697265625,7.350750923156738,2.967100143432617,-0.8590233325958252
1772728928944215000,8.976215087890624,6.853044033050537,3.1824541091918945,-1.0528420209884644
1772728928953733400,8.9857333984375,6.510870456695557,3.342773199081421,-1.2418749332427979
1772728928963251200,8.995251220703125,6.309873104095459,3.4791641235351562,-1.4572290182113647
1772728928972769300,9.004769287109376,6.422336101531982,3.5581271648406982,-1.588834285736084
1772728928982287400,9.014287353515625,6.903293132781982,3.562912940979004,-1.8113667964935303
1772728928991805400,9.023805419921874,7.458428382873535,3.476771354675293,-1.9597218036651611
1772728929001323500,9.033323486328126,8.104490280151367,3.376272678375244,-2.021935224533081
1772728929010841300,9.04284130859375,8.819944381713867,3.294916868209839,-1.978864312171936
1772728929020359400,9.052359375,9.631111145019531,3.1752755641937256,-1.8855443000793457
1772728929029877500,9.06187744140625,10.327422142028809,3.1034910678863525,-1.7515461444854736
1772728929039395600,9.0713955078125,10.774880409240723,3.046063184738159,-1.5553346872329712
1772728929048913400,9.080913330078126,10.853843688964844,3.0795626640319824,-1.306481122970581
1772728929058431500,9.090431396484375,10.540383338928223,3.0939197540283203,-0.9643075466156006
1772728929067949600,9.099949462890624,9.927821159362793,3.211168050765991,-0.5814558863639832
1772728929077467600,9.109467529296875,9.236295700073242,3.359523057937622,-0.2512463629245758
1772728929086985700,9.11898583984375,8.683553695678711,3.5150563716888428,-0.016749758273363113
1772728929096503800,9.12850390625,8.310273170471191,3.6394832134246826,0.17706887423992157
1772728929106021600,9.138021728515625,8.00638484954834,3.7734813690185547,0.23210379481315613
1772728929115539700,9.147539794921874,7.652246952056885,3.8835511207580566,0.24167509377002716
1772728929125057800,9.157057861328125,7.3052873611450195,4.024727821350098,0.24646073579788208
1772728929134575900,9.166575927734375,7.061219692230225,4.070191383361816,0.16510476171970367
1772728929144093700,9.17609375,7.008577346801758,4.139583110809326,-0.009571290574967861
1772728929153611800,9.18561181640625,7.130611419677734,4.192225456237793,-0.21296121180057526
1772728929163129900,9.1951298828125,7.496713161468506,4.180261135101318,-0.4163511395454407
1772728929172648000,9.20464794921875,7.9968132972717285,4.101297855377197,-0.6173482537269592
1772728929182166000,9.214166015625,8.523234367370605,3.9936211109161377,-0.8470591902732849
1772728929191684000,9.22368408203125,8.937192916870117,3.924229145050049,-1.0145567655563354
1772728929201202000,9.233201904296875,9.20997428894043,3.8763725757598877,-1.1030912399291992
1772728929210720000,9.242719970703124,9.442078590393066,3.869194269180298,-1.0887342691421509
1772728929220238000,9.252238037109375,9.614361763000488,3.871587038040161,-1.0241280794143677
1772728929229756200,9.261756103515625,9.7005033493042,3.8835511207580566,-0.9212366938591003
1772728929239274200,9.271274169921876,9.712467193603516,3.900300979614258,-0.851844847202301
1772728929248792000,9.2807919921875,9.614361763000488,3.933800458908081,-0.7393822073936462
1772728929258310100,9.29031005859375,9.477970123291016,3.957728624343872,-0.6197410821914673
1772728929267828200,9.299828125,9.286544799804688,4.024727821350098,-0.5264210104942322
1772728929277346300,9.30934619140625,9.140582084655762,4.070191383361816,-0.4618147611618042
1772728929286864100,9.318864013671876,9.028120040893555,4.118047714233398,-0.4163511395454407
1772728929296382500,9.328382568359375,8.937192916870117,4.237689018249512,-0.4618147611618042
1772728929305900300,9.337900390625,8.81515884399414,4.35254430770874,-0.4737788736820221
1772728929315418400,9.34741845703125,8.659625053405762,4.438685894012451,-0.4977070987224579
1772728929324936400,9.3569365234375,8.49452018737793,4.54636287689209,-0.5048855543136597
1772728929334454500,9.36645458984375,8.37009334564209,4.673182487487793,-0.4546363055706024
1772728929343972400,9.375972412109375,8.283951759338379,4.783252239227295,-0.4450650215148926
1772728929353490400,9.385490478515624,8.248059272766113,4.902893543243408,-0.4259224236011505
1772728929363008500,9.395008544921875,8.38684368133545,5.036891460418701,-0.4378865361213684
1772728929372526600,9.404526611328125,8.685946464538574,5.084748268127441,-0.4378865361213684
1772728929382044400,9.41404443359375,9.20997428894043,5.099104881286621,-0.4378865361213684
1772728929391562500,9.4235625,9.812965393066406,5.058426856994629,-0.39960137009620667
1772728929401080600,9.43308056640625,10.353743553161621,4.876572608947754,-0.5240281820297241
1772728929410598700,9.4425986328125,10.904092788696289,4.737788677215576,-0.5838487148284912
1772728929420116700,9.45211669921875,11.411371231079102,4.646861553192139,-0.6317051649093628
1772728929429634800,9.461634765625,11.645867347717285,4.627718925476074,-0.6963114142417908
1772728929439152600,9.471152587890625,11.598011016845703,4.694717884063721,-0.7920243144035339
1772728929448670700,9.480670654296874,11.272587776184082,4.840680122375488,-0.8709874153137207
1772728929458188800,9.490188720703125,10.810772895812988,4.926821708679199,-0.9092726111412048
1772728929467707000,9.499706787109375,10.39920711517334,5.003392219543457,-0.8159525394439697
1772728929477225000,9.509224853515626,10.159924507141113,5.06799840927124,-0.7585247755050659
1772728929486742800,9.51874267578125,10.023533821105957,5.051248550415039,-0.8135597109794617
1772728929496260900,9.5282607421875,10.04267692565918,4.900500774383545,-0.8709874153137207
1772728929505779000,9.537779052734376,10.310672760009766,4.560719966888428,-0.9284151792526245
1772728929515297000,9.547297119140625,10.801201820373535,4.091726779937744,-0.9810572862625122
1772728929524815000,9.556815185546874,11.492727279663086,3.601198196411133,-1.0767701864242554
1772728929534333200,9.566333251953125,12.098111152648926,3.1752755641937256,-1.2083754539489746
1772728929543851000,9.57585107421875,12.425928115844727,2.8426733016967773,-1.2873386144638062
1772728929553369000,9.585369140625,12.263216018676758,2.6153552532196045,-1.2993026971817017
1772728929562887200,9.59488720703125,11.571690559387207,2.526820659637451,-1.0719845294952393
1772728929572405200,9.6044052734375,10.566704750061035,2.541177749633789,-0.6556333899497986
1772728929581923000,9.613923095703125,9.547362327575684,2.667997360229492,-0.33020952343940735
1772728929591441200,9.623441162109375,8.650053977966309,2.806781053543091,-0.19381862878799438
1772728929600959200,9.632959228515626,7.8819580078125,2.991028308868408,-0.14835500717163086
1772728929610477300,9.642477294921875,7.190432071685791,3.1417760848999023,-0.1052841991186142
1772728929619995400,9.651995361328124,6.649653911590576,3.2279176712036133,-0.13160525262355804
1772728929629513500,9.661513427734375,6.288337707519531,3.2757742404937744,-0.2105683982372284
1772728929639031300,9.67103125,6.049055576324463,3.304488182067871,-0.22492532432079315
1772728929648549400,9.68054931640625,6.013163089752197,3.304488182067871,-0.2560320198535919
1772728929658067500,9.6900673828125,6.25723123550415,3.304488182067871,-0.38285163044929504
1772728929667585500,9.69958544921875,6.714260101318359,3.2925238609313965,-0.5024927258491516
1772728929677103600,9.709103515625,7.159325122833252,3.2614171504974365,-0.5742774605751038
1772728929686621400,9.718621337890625,7.5086774826049805,3.218346357345581,-0.4737788736820221
1772728929696139500,9.728139404296876,7.812565803527832,3.122633457183838,-0.39960137009620667
1772728929705657600,9.73765771484375,8.178668022155762,3.0867412090301514,-0.37806597352027893
1772728929715175700,9.74717578125,8.575876235961914,3.060420274734497,-0.4259224236011505
1772728929724693500,9.756693603515625,8.980263710021973,2.909672260284424,-0.33020952343940735
1772728929734211600,9.766211669921875,9.157332420349121,2.8426733016967773,-0.4091726839542389
1772728929762765800,9.794765869140624,10.901700019836426,2.792423963546753,-0.8685946464538574
1772728929772284000,9.804283935546875,11.33240795135498,2.6560330390930176,-0.7968099117279053
1772728929781801700,9.8138017578125,11.466405868530273,2.5603201389312744,-0.6939185857772827
1772728929791319800,9.82331982421875,11.404192924499512,2.6464617252349854,-0.6101697683334351
1772728929800838000,9.832837890625,11.011770248413086,2.682354211807251,-0.519242525100708
