time,seconds_elapsed,z,y,x
1772709363677092900,0.0510927734375,-0.9797210693359375,0.063995361328125,0.100830078125
1772709363687117800,0.061117919921875,-0.986602783203125,0.063385009765625,0.1014404296875
1772709363697142800,0.071142822265625,-0.9945526123046875,0.063629150390625,0.0993804931640625
1772709363707167700,0.081167724609375,-0.9952392578125,0.0630645751953125,0.09710693359375
1772709363717193000,0.09119287109375,-0.98919677734375,0.0611724853515625,0.09783935546875
1772709363727216600,0.101216552734375,-0.9841461181640625,0.0632476806640625,0.09979248046875
1772709363737241900,0.111241943359375,-0.9859619140625,0.0634918212890625,0.099761962890625
1772709363747266800,0.121266845703125,-0.990753173828125,0.06268310546875,0.0979461669921875
1772709363757291800,0.131291748046875,-0.992950439453125,0.063873291015625,0.098175048828125
1772709363767316700,0.141316650390625,-0.99151611328125,0.063720703125,0.099700927734375
1772709363777342000,0.151342041015625,-0.98773193359375,0.0632476806640625,0.100433349609375
1772709363787367000,0.161366943359375,-0.9852752685546875,0.0635833740234375,0.098236083984375
1772709363797392000,0.171391845703125,-0.98883056640625,0.0649871826171875,0.0985870361328125
1772709363807416600,0.18141650390625,-0.9903106689453125,0.064117431640625,0.0994873046875
1772709363817441800,0.19144189453125,-0.990386962890625,0.0639801025390625,0.1002197265625
1772709363827466800,0.201466796875,-0.98828125,0.0617523193359375,0.099090576171875
1772709363837490700,0.21149072265625,-0.987396240234375,0.0626068115234375,0.0991668701171875
1772709363847516000,0.221515869140625,-0.9890594482421875,0.0628814697265625,0.099212646484375
1772709363857540900,0.231540771484375,-0.9890594482421875,0.063690185546875,0.0990142822265625
1772709363867565800,0.24156591796875,-0.9903564453125,0.063446044921875,0.099212646484375
1772709363877590800,0.2515908203125,-0.989105224609375,0.0623016357421875,0.1001129150390625
1772709363887615700,0.26161572265625,-0.9883880615234375,0.063079833984375,0.098846435546875
1772709363897640700,0.271640625,-0.98797607421875,0.0643157958984375,0.1009674072265625
1772709363907665700,0.281665771484375,-0.98944091796875,0.063934326171875,0.1007232666015625
1772709363917691000,0.29169091796875,-0.9893951416015625,0.062957763671875,0.099151611328125
1772709363927715800,0.3017158203125,-0.9878692626953125,0.062164306640625,0.0997467041015625
1772709363937740800,0.31174072265625,-0.9867095947265625,0.0633544921875,0.0998687744140625
1772709363947765800,0.321765869140625,-0.989501953125,0.06353759765625,0.0992889404296875
1772709363957791000,0.331791015625,-0.988372802734375,0.0625152587890625,0.0982208251953125
1772709363967814700,0.341814697265625,-0.990509033203125,0.0630950927734375,0.09918212890625
1772709363977839600,0.351839599609375,-0.99053955078125,0.0633697509765625,0.0992889404296875
1772709363987864800,0.36186474609375,-0.989105224609375,0.06439208984375,0.0984649658203125
1772709363997889800,0.371889892578125,-0.9914703369140625,0.0631256103515625,0.09844970703125
1772709364007914800,0.381914794921875,-0.9906005859375,0.063568115234375,0.0982666015625
1772709364017939700,0.391939697265625,-0.9889068603515625,0.0623626708984375,0.098785400390625
1772709364027965000,0.40196484375,-0.988861083984375,0.0631561279296875,0.0978851318359375
1772709364037990000,0.411989990234375,-0.98876953125,0.063873291015625,0.0986328125
1772709364048014800,0.422014892578125,-0.989471435546875,0.064300537109375,0.0994720458984375
1772709364058039600,0.43203955078125,-0.9885101318359375,0.0641632080078125,0.0992279052734375
1772709364068064800,0.442064697265625,-0.9883270263671875,0.0635528564453125,0.0998687744140625
1772709364078089700,0.45208984375,-0.990570068359375,0.06304931640625,0.1003875732421875
1772709364088113700,0.46211376953125,-0.9872894287109375,0.061309814453125,0.0998077392578125
1772709364098139000,0.472138916015625,-0.9869842529296875,0.0619659423828125,0.09893798828125
1772709364108163800,0.482163818359375,-0.989654541015625,0.0628662109375,0.0990142822265625
1772709364118188800,0.492188720703125,-0.9902191162109375,0.064697265625,0.0998077392578125
1772709364128213800,0.5022138671875,-0.9902496337890625,0.063751220703125,0.0980072021484375
1772709364138238700,0.51223876953125,-0.9885711669921875,0.0628204345703125,0.098388671875
1772709364148263700,0.522263671875,-0.9893035888671875,0.0630645751953125,0.099884033203125
1772709364158288600,0.53228857421875,-0.990203857421875,0.06353759765625,0.0997772216796875
1772709364168313900,0.54231396484375,-0.990386962890625,0.0650177001953125,0.09979248046875
1772709364178338800,0.5523388671875,-0.9885711669921875,0.063201904296875,0.098419189453125
1772709364188363800,0.56236376953125,-0.9874420166015625,0.06304931640625,0.0991363525390625
1772709364198388700,0.572388671875,-0.988037109375,0.064727783203125,0.099761962890625
1772709364208413000,0.582412841796875,-0.990234375,0.0643310546875,0.1006927490234375
1772709364218437600,0.592437744140625,-0.9909515380859375,0.06207275390625,0.099609375
1772709364228462600,0.602462646484375,-0.9884033203125,0.0640869140625,0.0988006591796875
1772709364238487800,0.61248779296875,-0.9885711669921875,0.064422607421875,0.0998687744140625
1772709364248512800,0.6225126953125,-0.989044189453125,0.0643310546875,0.09967041015625
1772709364258538200,0.632538330078125,-0.9899139404296875,0.064056396484375,0.0993194580078125
1772709364268563200,0.642563232421875,-0.9895782470703125,0.0635833740234375,0.0985107421875
1772709364278588400,0.65258837890625,-0.988433837890625,0.06256103515625,0.09918212890625
1772709364288613400,0.66261328125,-0.9899139404296875,0.0629730224609375,0.099822998046875
1772709364298638300,0.672638427734375,-0.9906158447265625,0.0634765625,0.099334716796875
1772709364308663300,0.682663330078125,-0.989898681640625,0.0636444091796875,0.0996856689453125
1772709364318688500,0.6926884765625,-0.98974609375,0.0627899169921875,0.0987091064453125
1772709364328712200,0.702712158203125,-0.9892730712890625,0.0631103515625,0.0988922119140625
1772709364338737200,0.712737060546875,-0.9895172119140625,0.062469482421875,0.098846435546875
1772709364348762400,0.722762451171875,-0.98895263671875,0.062774658203125,0.0997314453125
1772709364358787300,0.732787353515625,-0.98828125,0.0646209716796875,0.10015869140625
1772709364368812300,0.742812255859375,-0.987579345703125,0.065216064453125,0.0994415283203125
1772709364378837200,0.752837158203125,-0.9893035888671875,0.064910888671875,0.099639892578125
1772709364388862500,0.762862548828125,-0.989959716796875,0.063140869140625,0.1008758544921875
1772709364398887400,0.772887451171875,-0.9883270263671875,0.06256103515625,0.0993194580078125
1772709364408912100,0.782912109375,-0.99072265625,0.063018798828125,0.1000213623046875
1772709364418937000,0.79293701171875,-0.98828125,0.063568115234375,0.0978240966796875
1772709364428962300,0.80296240234375,-0.9892730712890625,0.0646209716796875,0.0987396240234375
1772709364438987300,0.8129873046875,-0.9892730712890625,0.0643463134765625,0.0987548828125
1772709364449011200,0.82301123046875,-0.9881439208984375,0.063720703125,0.098907470703125
1772709364459036400,0.833036376953125,-0.988739013671875,0.0623626708984375,0.09967041015625
1772709364469061400,0.843061279296875,-0.990264892578125,0.062774658203125,0.0993499755859375
1772709364479086000,0.853086181640625,-0.9897918701171875,0.0615081787109375,0.097686767578125
1772709364489111300,0.863111328125,-0.990631103515625,0.059661865234375,0.0987091064453125
1772709364499136300,0.87313623046875,-0.986968994140625,0.0612640380859375,0.09844970703125
1772709364509161200,0.8831611328125,-0.9869232177734375,0.062255859375,0.09918212890625
1772709364519186200,0.893186279296875,-0.9901580810546875,0.0634765625,0.0992584228515625
1772709364529211400,0.90321142578125,-0.99078369140625,0.0644989013671875,0.099822998046875
1772709364539236400,0.913236328125,-0.99066162109375,0.066009521484375,0.0984039306640625
1772709364549261300,0.92326123046875,-0.9898529052734375,0.0672149658203125,0.0989990234375
1772709364559286300,0.933286376953125,-0.9893035888671875,0.0651397705078125,0.1003875732421875
1772709364569310200,0.943310302734375,-0.988037109375,0.064422607421875,0.099822998046875
1772709364579335200,0.953335205078125,-0.988983154296875,0.0643310546875,0.0987548828125
1772709364589360000,0.963360107421875,-0.987823486328125,0.06304931640625,0.0995635986328125
1772709364599385300,0.97338525390625,-0.989715576171875,0.061859130859375,0.1008453369140625
1772709364609410300,0.983410400390625,-0.9880218505859375,0.063629150390625,0.0985260009765625
1772709364619435300,0.993435302734375,-0.988311767578125,0.062713623046875,0.0986328125
1772709364629460200,1.003460205078125,-0.9900054931640625,0.0632781982421875,0.099334716796875
1772709364639485400,1.0134853515625,-0.990631103515625,0.061492919921875,0.100799560546875
1772709364649510400,1.023510498046875,-0.9875640869140625,0.06085205078125,0.099884033203125
1772709364659535000,1.03353515625,-0.98529052734375,0.060760498046875,0.099700927734375
1772709364669560300,1.043560302734375,-0.9878082275390625,0.0633087158203125,0.0986785888671875
1772709364679584300,1.053584228515625,-0.99072265625,0.0644073486328125,0.0987091064453125
1772709364689609200,1.063609130859375,-0.99176025390625,0.0640106201171875,0.09912109375
1772709364699634400,1.073634521484375,-0.989959716796875,0.06304931640625,0.10003662109375
1772709364709659400,1.083659423828125,-0.9878692626953125,0.06378173828125,0.0981292724609375
1772709364719684400,1.093684326171875,-0.9888763427734375,0.0654296875,0.0993804931640625
1772709364729709300,1.103709228515625,-0.9901580810546875,0.0652618408203125,0.1008758544921875
1772709364739734300,1.113734375,-0.9897003173828125,0.063079833984375,0.0988616943359375
1772709364749759200,1.12375927734375,-0.988525390625,0.062713623046875,0.1000823974609375
1772709364759784200,1.1337841796875,-0.9870147705078125,0.06414794921875,0.1000213623046875
1772709364769809200,1.14380908203125,-0.9883575439453125,0.064422607421875,0.0996246337890625
1772709364779834400,1.15383447265625,-0.990478515625,0.064697265625,0.0998992919921875
1772709364789859300,1.163859375,-0.9902191162109375,0.064117431640625,0.099029541015625
1772709364799883300,1.17388330078125,-0.9871673583984375,0.0624542236328125,0.0994720458984375
1772709364809908500,1.183908447265625,-0.9882659912109375,0.0634613037109375,0.0987396240234375
1772709364819933200,1.19393310546875,-0.98907470703125,0.0639801025390625,0.099639892578125
1772709364829958100,1.203958251953125,-0.9898223876953125,0.0634765625,0.0991058349609375
1772709364839983000,1.213983154296875,-0.9885101318359375,0.0625,0.0982666015625
1772709364850008300,1.22400830078125,-0.98834228515625,0.062408447265625,0.0997161865234375
1772709364860033300,1.234033203125,-0.9888916015625,0.0632476806640625,0.0979461669921875
1772709364870058200,1.244058349609375,-0.9886932373046875,0.0637969970703125,0.0979766845703125
1772709364880083200,1.254083251953125,-0.9895477294921875,0.06317138671875,0.0986480712890625
1772709364890108400,1.2641083984375,-0.9900054931640625,0.0630645751953125,0.099029541015625
1772709364900133400,1.27413330078125,-0.990081787109375,0.0645904541015625,0.099090576171875
1772709364910157300,1.2841572265625,-0.990814208984375,0.0631256103515625,0.09918212890625
1772709364920182300,1.294182373046875,-0.98858642578125,0.0631103515625,0.0995635986328125
1772709364930207200,1.304207275390625,-0.98779296875,0.0634613037109375,0.0991058349609375
1772709364940232200,1.314232177734375,-0.9896697998046875,0.063812255859375,0.099029541015625
1772709364950257400,1.32425732421875,-0.990509033203125,0.06451416015625,0.0994415283203125
1772709364960282400,1.334282470703125,-0.9888153076171875,0.0632781982421875,0.1002044677734375
1772709364970307300,1.344307373046875,-0.98828125,0.0623626708984375,0.0992889404296875
1772709364980332300,1.354332275390625,-0.9876861572265625,0.0622711181640625,0.100799560546875
1772709364990357200,1.364357177734375,-0.9883880615234375,0.0634307861328125,0.0995330810546875
1772709365000382200,1.37438232421875,-0.9892730712890625,0.0643463134765625,0.099334716796875
1772709365010407200,1.3844072265625,-0.98956298828125,0.0637054443359375,0.100250244140625
1772709365020431400,1.394431396484375,-0.9882049560546875,0.06353759765625,0.1000518798828125
1772709365030456300,1.404456298828125,-0.98699951171875,0.0641937255859375,0.10003662109375
1772709365040481300,1.414481201171875,-0.98876953125,0.06378173828125,0.0988922119140625
1772709365050506200,1.42450634765625,-0.9905242919921875,0.0635986328125,0.09881591796875
1772709365060531500,1.434531494140625,-0.9886016845703125,0.061767578125,0.0999908447265625
1772709365070556200,1.44455615234375,-0.989837646484375,0.061798095703125,0.0984954833984375
1772709365080581000,1.4545810546875,-0.9881744384765625,0.0633697509765625,0.09857177734375
1772709365090606300,1.4646064453125,-0.99005126953125,0.0631561279296875,0.097320556640625
1772709365100631300,1.47463134765625,-0.9906005859375,0.0653228759765625,0.098052978515625
1772709365110656300,1.48465625,-0.9901885986328125,0.0648040771484375,0.098358154296875
1772709365120681200,1.49468115234375,-0.990692138671875,0.064239501953125,0.0995025634765625
1772709365130705400,1.504705322265625,-0.9883880615234375,0.0630950927734375,0.0982818603515625
1772709365140730400,1.51473046875,-0.9887237548828125,0.063262939453125,0.0977783203125
1772709365150755000,1.524755126953125,-0.989837646484375,0.0630035400390625,0.0984954833984375
1772709365160780300,1.5347802734375,-0.988922119140625,0.06390380859375,0.098785400390625
1772709365170805200,1.54480517578125,-0.988800048828125,0.0638427734375,0.09930419921875
1772709365180830200,1.554830322265625,-0.988372802734375,0.0645904541015625,0.0981597900390625
1772709365190855200,1.564855224609375,-0.9906158447265625,0.0648651123046875,0.0999298095703125
1772709365200880400,1.57488037109375,-0.9916534423828125,0.06109619140625,0.100555419921875
1772709365210905300,1.5849052734375,-0.988555908203125,0.0617218017578125,0.0985107421875
1772709365220930300,1.594930419921875,-0.9861297607421875,0.0616455078125,0.0971221923828125
1772709365230955300,1.604955322265625,-0.9897003173828125,0.064117431640625,0.0973052978515625
1772709365240979200,1.614979248046875,-0.9919586181640625,0.065399169921875,0.09661865234375
1772709365251003600,1.625003662109375,-0.991607666015625,0.0642242431640625,0.0976715087890625
1772709365261028900,1.63502880859375,-0.9876251220703125,0.0641326904296875,0.0986480712890625
1772709365271053800,1.6450537109375,-0.9885101318359375,0.0620574951171875,0.1000213623046875
1772709365281078800,1.655078857421875,-0.9886627197265625,0.062164306640625,0.0996551513671875
1772709365291103700,1.665103759765625,-0.9893035888671875,0.06427001953125,0.098846435546875
1772709365301129000,1.67512890625,-0.99029541015625,0.063079833984375,0.10040283203125
1772709365311154000,1.68515380859375,-0.9889984130859375,0.063568115234375,0.0995025634765625
1772709365321179000,1.695178955078125,-0.987945556640625,0.06402587890625,0.0991058349609375
1772709365331203800,1.705203857421875,-0.9890899658203125,0.0623779296875,0.0984954833984375
1772709365341227800,1.715227783203125,-0.989837646484375,0.062103271484375,0.0980377197265625
1772709365351252700,1.725252685546875,-0.9889678955078125,0.0631256103515625,0.0975799560546875
1772709365361277700,1.735277587890625,-0.989410400390625,0.0630950927734375,0.0980682373046875
1772709365371303000,1.745302978515625,-0.989227294921875,0.06219482421875,0.0977325439453125
1772709365381328000,1.755327880859375,-0.9886322021484375,0.063323974609375,0.0975189208984375
1772709365391352800,1.765352783203125,-0.9889678955078125,0.064208984375,0.1004638671875
1772709365401377800,1.775377685546875,-0.9890289306640625,0.063079833984375,0.0990142822265625
1772709365411402800,1.78540283203125,-0.9881134033203125,0.0630340576171875,0.0972747802734375
1772709365421427700,1.795427734375,-0.9898681640625,0.064056396484375,0.0982818603515625
1772709365431452700,1.80545263671875,-0.9893341064453125,0.064910888671875,0.09783935546875
1772709365441476900,1.815476806640625,-0.9898681640625,0.06488037109375,0.0977783203125
1772709365451501800,1.825501708984375,-0.98968505859375,0.0638427734375,0.098541259765625
1772709365461526800,1.83552685546875,-0.988861083984375,0.0628814697265625,0.099334716796875
1772709365471552000,1.845552001953125,-0.988128662109375,0.0632476806640625,0.098968505859375
1772709365481577000,1.855576904296875,-0.987335205078125,0.06402587890625,0.0982818603515625
1772709365491601700,1.8656015625,-0.989715576171875,0.064666748046875,0.0975799560546875
1772709365501626600,1.875626708984375,-0.989715576171875,0.0641326904296875,0.09820556640625
1772709365511651800,1.88565185546875,-0.98773193359375,0.0642547607421875,0.09796142578125
1772709365521676800,1.8956767578125,-0.989105224609375,0.062591552734375,0.0970001220703125
1772709365531701800,1.90570166015625,-0.9900665283203125,0.0628814697265625,0.0987396240234375
1772709365541726700,1.915726806640625,-0.9918365478515625,0.0648193359375,0.099029541015625
1772709365551751000,1.9257509765625,-0.9896240234375,0.0642547607421875,0.0985565185546875
1772709365561775900,1.93577587890625,-0.9898223876953125,0.0626983642578125,0.099578857421875
1772709365571800800,1.94580078125,-0.9877471923828125,0.0634307861328125,0.0984344482421875
1772709365581825800,1.95582568359375,-0.988525390625,0.06390380859375,0.0991363525390625
1772709365591850800,1.965850830078125,-0.98956298828125,0.0634918212890625,0.0990753173828125
1772709365601875700,1.975875732421875,-0.9903411865234375,0.063751220703125,0.099945068359375
1772709365611901000,1.98590087890625,-0.990142822265625,0.0626068115234375,0.098846435546875
1772709365621926000,1.99592578125,-0.9890289306640625,0.0628204345703125,0.09906005859375
1772709365631950800,2.005950927734375,-0.9899139404296875,0.0631561279296875,0.098175048828125
1772709365641975800,2.015975830078125,-0.99102783203125,0.0640716552734375,0.09765625
1772709365651999700,2.025999755859375,-0.9896240234375,0.065155029296875,0.09735107421875
1772709365662024700,2.036024658203125,-0.9906463623046875,0.064483642578125,0.0995635986328125
1772709365672049700,2.046049560546875,-0.9896697998046875,0.0631866455078125,0.0980377197265625
1772709365682075000,2.056074951171875,-0.9882965087890625,0.0628814697265625,0.0988616943359375
1772709365692099800,2.066099853515625,-0.9894256591796875,0.062896728515625,0.0984039306640625
1772709365702124800,2.076124755859375,-0.988067626953125,0.06341552734375,0.097869873046875
1772709365712149800,2.086149658203125,-0.9889373779296875,0.0645599365234375,0.097869873046875
1772709365722175000,2.096175048828125,-0.9901885986328125,0.064300537109375,0.09912109375
1772709365732200000,2.106199951171875,-0.9910125732421875,0.064971923828125,0.1002197265625
1772709365742225000,2.116224853515625,-0.990081787109375,0.062225341796875,0.0996551513671875
1772709365752249600,2.12624951171875,-0.9875335693359375,0.06256103515625,0.09832763671875
1772709365762273800,2.136273681640625,-0.9882049560546875,0.063873291015625,0.097076416015625
1772709365772298800,2.146298828125,-0.9910125732421875,0.0650634765625,0.095672607421875
1772709365782323700,2.15632373046875,-0.991607666015625,0.0662384033203125,0.09600830078125
1772709365792349000,2.166348876953125,-0.9910125732421875,0.0642547607421875,0.097808837890625
1772709365802374000,2.176373779296875,-0.9869232177734375,0.0639801025390625,0.0974273681640625
1772709365812398800,2.18639892578125,-0.98797607421875,0.062713623046875,0.0974273681640625
1772709365822423800,2.196423828125,-0.9912261962890625,0.0640716552734375,0.09930419921875
1772709365832448800,2.20644873046875,-0.9898834228515625,0.06524658203125,0.099853515625
1772709365842473700,2.2164736328125,-0.9876708984375,0.062774658203125,0.1001129150390625
1772709365852498700,2.226498779296875,-0.98553466796875,0.063812255859375,0.0990753173828125
1772709365862523000,2.23652294921875,-0.9874725341796875,0.06268310546875,0.0995941162109375
1772709365872547800,2.2465478515625,-0.9901275634765625,0.0637969970703125,0.0987701416015625
1772709365882572800,2.25657275390625,-0.9911956787109375,0.063720703125,0.0970458984375
1772709365892598000,2.266597900390625,-0.98846435546875,0.06231689453125,0.0980224609375
1772709365902622700,2.276622802734375,-0.9886016845703125,0.0629730224609375,0.0990447998046875
1772709365912647700,2.286647705078125,-0.989288330078125,0.06378173828125,0.0992279052734375
1772709365922672600,2.296672607421875,-0.990081787109375,0.06390380859375,0.0995635986328125
1772709365932697900,2.30669775390625,-0.9892578125,0.0659942626953125,0.0976409912109375
1772709365942722800,2.316722900390625,-0.9896087646484375,0.0641326904296875,0.098052978515625
1772709365952747800,2.326747802734375,-0.988922119140625,0.0626068115234375,0.098602294921875
1772709365962772000,2.33677197265625,-0.988494873046875,0.06292724609375,0.09918212890625
1772709365972797000,2.346796875,-0.9904327392578125,0.064483642578125,0.098541259765625
1772709365982821600,2.356821533203125,-0.9895477294921875,0.063568115234375,0.0975341796875
1772709365992846800,2.366846923828125,-0.9903717041015625,0.0630340576171875,0.099151611328125
1772709366002871800,2.376871826171875,-0.989837646484375,0.0628662109375,0.100555419921875
1772709366012896800,2.386896728515625,-0.9886322021484375,0.0634918212890625,0.1007080078125
1772709366022921700,2.396921630859375,-0.9898529052734375,0.0648193359375,0.0982666015625
1772709366032947000,2.406947021484375,-0.9911041259765625,0.06396484375,0.099029541015625
1772709366042972000,2.416971923828125,-0.99017333984375,0.0644073486328125,0.0993804931640625
1772709366052996900,2.426996826171875,-0.9883270263671875,0.0626678466796875,0.1002655029296875
1772709366063020800,2.437020751953125,-0.9879913330078125,0.0620880126953125,0.0991058349609375
1772709366073045800,2.447045654296875,-0.989227294921875,0.062744140625,0.0985565185546875
1772709366083070700,2.45707080078125,-0.9899444580078125,0.0633087158203125,0.0988311767578125
1772709366093095700,2.467095703125,-0.989776611328125,0.0636444091796875,0.0967254638671875
1772709366103121000,2.477120849609375,-0.987762451171875,0.0631561279296875,0.0996551513671875
1772709366113145900,2.487145751953125,-0.98822021484375,0.0640869140625,0.0988616943359375
1772709366123170800,2.4971708984375,-0.9885711669921875,0.064361572265625,0.0985565185546875
1772709366133195800,2.50719580078125,-0.9887847900390625,0.06378173828125,0.0993499755859375
1772709366143221000,2.517220947265625,-0.989501953125,0.06427001953125,0.0983734130859375
1772709366153246000,2.527245849609375,-0.9903106689453125,0.063629150390625,0.0991668701171875
1772709366163269600,2.53726953125,-0.9882049560546875,0.0637664794921875,0.09918212890625
1772709366173294800,2.547294921875,-0.98858642578125,0.06329345703125,0.097930908203125
1772709366183319800,2.55731982421875,-0.9907684326171875,0.0652008056640625,0.0989990234375
1772709366193344800,2.5673447265625,-0.9907379150390625,0.065338134765625,0.0988006591796875
1772709366203369700,2.57736962890625,-0.9892578125,0.063812255859375,0.0988311767578125
1772709366213395000,2.58739501953125,-0.989349365234375,0.062408447265625,0.098907470703125
1772709366223420000,2.597419921875,-0.9894256591796875,0.0622100830078125,0.0984039306640625
1772709366233444900,2.60744482421875,-0.9878692626953125,0.0620574951171875,0.09991455078125
1772709366243469800,2.6174697265625,-0.9888458251953125,0.06329345703125,0.098907470703125
1772709366253494800,2.627494873046875,-0.9896697998046875,0.064361572265625,0.0985260009765625
1772709366263518500,2.6375185546875,-0.989715576171875,0.065185546875,0.0987548828125
1772709366273543700,2.647543701171875,-0.99090576171875,0.063690185546875,0.1000213623046875
1772709366283568600,2.657568603515625,-0.9883880615234375,0.062103271484375,0.0988922119140625
1772709366293593600,2.667593505859375,-0.98638916015625,0.062774658203125,0.09869384765625
1772709366303618600,2.67761865234375,-0.9879608154296875,0.0624847412109375,0.0976104736328125
1772709366313643800,2.687643798828125,-0.9913787841796875,0.0641937255859375,0.098907470703125
1772709366323668700,2.697668701171875,-0.9915008544921875,0.0643157958984375,0.0973663330078125
1772709366333693700,2.707693603515625,-0.9893798828125,0.0633392333984375,0.09710693359375
1772709366343718700,2.71771875,-0.98699951171875,0.063507080078125,0.09771728515625
1772709366353743600,2.72774365234375,-0.9902191162109375,0.0634765625,0.10003662109375
1772709366363767600,2.737767578125,-0.9908447265625,0.0648651123046875,0.1001129150390625
1772709366373792800,2.747792724609375,-0.9886474609375,0.0639495849609375,0.09979248046875
1772709366383817700,2.757817626953125,-0.988006591796875,0.0635986328125,0.098907470703125
1772709366393842700,2.7678427734375,-0.98822021484375,0.06365966796875,0.0983428955078125
1772709366403867600,2.77786767578125,-0.9888458251953125,0.0634002685546875,0.0988006591796875
1772709366413892900,2.787892822265625,-0.9898529052734375,0.0632476806640625,0.09796142578125
1772709366423917800,2.797917724609375,-0.988311767578125,0.063568115234375,0.0992431640625
1772709366433942500,2.807942626953125,-0.9882049560546875,0.0631256103515625,0.0990142822265625
1772709366443967500,2.817967529296875,-0.9897003173828125,0.0637359619140625,0.1002655029296875
1772709366453991700,2.82799169921875,-0.9891510009765625,0.065673828125,0.0992889404296875
1772709366464016600,2.8380166015625,-0.9872283935546875,0.064849853515625,0.0987548828125
1772709366474041600,2.84804150390625,-0.9893798828125,0.0621795654296875,0.0987548828125
1772709366484066800,2.85806689453125,-0.9888458251953125,0.0621795654296875,0.0987396240234375
1772709366494091800,2.868091796875,-0.988677978515625,0.063323974609375,0.0989837646484375
1772709366504116500,2.878116455078125,-0.989654541015625,0.0642852783203125,0.0985870361328125
1772709366514141400,2.888141357421875,-0.98992919921875,0.06414794921875,0.0986785888671875
1772709366524166700,2.898166748046875,-0.99072265625,0.0643310546875,0.0987091064453125
1772709366534191600,2.908191650390625,-0.9892425537109375,0.0629730224609375,0.1000518798828125
1772709366544216600,2.918216552734375,-0.9865875244140625,0.0612335205078125,0.0996856689453125
1772709366554241500,2.928241455078125,-0.988250732421875,0.0611419677734375,0.0997772216796875
1772709366564265700,2.938265625,-0.9900360107421875,0.064910888671875,0.09918212890625
1772709366574290700,2.948290771484375,-0.9944915771484375,0.0684661865234375,0.1006622314453125
1772709366584315600,2.958315673828125,-0.9910430908203125,0.0663299560546875,0.10321044921875
1772709366594340600,2.968340576171875,-0.9853057861328125,0.0645599365234375,0.1002655029296875
1772709366604365600,2.978365478515625,-0.9851531982421875,0.064483642578125,0.0990142822265625
1772709366614390500,2.988390625,-0.98895263671875,0.065643310546875,0.09893798828125
1772709366624415700,2.998415771484375,-0.9915008544921875,0.0658416748046875,0.0984649658203125
1772709366634440700,3.008440673828125,-0.992340087890625,0.0644378662109375,0.0982818603515625
1772709366644465700,3.018465576171875,-0.99163818359375,0.06341552734375,0.0977325439453125
1772709366654489900,3.02848974609375,-0.987091064453125,0.0602874755859375,0.0966949462890625
1772709366664514600,3.0385146484375,-0.983367919921875,0.059478759765625,0.0980377197265625
1772709366674539500,3.04853955078125,-0.9871063232421875,0.060089111328125,0.0977783203125
1772709366684564500,3.058564453125,-0.9916534423828125,0.05999755859375,0.0957794189453125
1772709366694589700,3.068589599609375,-0.9918670654296875,0.059234619140625,0.09637451171875
1772709366704614700,3.07861474609375,-0.989501953125,0.0556182861328125,0.097808837890625
1772709366714639600,3.0886396484375,-0.9839324951171875,0.0560150146484375,0.0994415283203125
1772709366724664600,3.09866455078125,-0.9861602783203125,0.062530517578125,0.1004180908203125
1772709366734689800,3.108689697265625,-0.9931640625,0.066864013671875,0.0999603271484375
1772709366744714800,3.11871484375,-0.9953155517578125,0.0686492919921875,0.098785400390625
1772709366754738700,3.12873876953125,-0.9897308349609375,0.0673065185546875,0.0976409912109375
1772709366764763600,3.138763671875,-0.9859161376953125,0.0645599365234375,0.0977935791015625
1772709366774788600,3.14878857421875,-0.9850006103515625,0.0639801025390625,0.0974273681640625
1772709366784813600,3.1588134765625,-0.98895263671875,0.0641632080078125,0.09613037109375
1772709366794838800,3.1688388671875,-0.9893341064453125,0.0653076171875,0.0972747802734375
1772709366804863700,3.17886376953125,-0.98919677734375,0.0642242431640625,0.0993194580078125
1772709366814888700,3.188888671875,-0.9871368408203125,0.061431884765625,0.1001129150390625
1772709366824913700,3.19891357421875,-0.9885406494140625,0.05841064453125,0.0983428955078125
1772709366834939000,3.20893896484375,-0.987884521484375,0.060791015625,0.0977020263671875
1772709366844963600,3.218963623046875,-0.9898223876953125,0.0641326904296875,0.0958251953125
1772709366854987500,3.228987548828125,-0.9949188232421875,0.064910888671875,0.100555419921875
1772709366865012700,3.2390126953125,-0.990753173828125,0.0630950927734375,0.1017608642578125
1772709366875037700,3.24903759765625,-0.983428955078125,0.0637969970703125,0.1000823974609375
1772709366885062700,3.259062744140625,-0.986785888671875,0.061614990234375,0.1038360595703125
1772709366895087600,3.269087646484375,-0.9929351806640625,0.0552978515625,0.0967559814453125
1772709366905112800,3.27911279296875,-0.988922119140625,0.05328369140625,0.0954742431640625
1772709366915137800,3.2891376953125,-0.9835357666015625,0.068634033203125,0.09735107421875
1772709366925162500,3.29916259765625,-0.9882049560546875,0.080596923828125,0.1049346923828125
1772709366935187500,3.3091875,-0.9997100830078125,0.067047119140625,0.1080322265625
1772709366945212700,3.319212646484375,-0.9922637939453125,0.0598907470703125,0.0974578857421875
1772709366955236600,3.329236572265625,-0.9842376708984375,0.0559844970703125,0.0941009521484375
1772709366965261800,3.33926171875,-0.9854583740234375,0.05029296875,0.0967559814453125
1772709366975286800,3.349286865234375,-0.9848175048828125,0.0504302978515625,0.101470947265625
1772709366985311700,3.359311767578125,-0.9857940673828125,0.0566864013671875,0.1075592041015625
1772709366995336700,3.369336669921875,-0.989654541015625,0.0609130859375,0.108062744140625
1772709367005361700,3.379361572265625,-0.994415283203125,0.0581817626953125,0.09906005859375
1772709367015386600,3.38938671875,-0.9940643310546875,0.058441162109375,0.0986175537109375
1772709367025411600,3.39941162109375,-0.9893798828125,0.062469482421875,0.10211181640625
1772709367035436500,3.4094365234375,-0.988037109375,0.065185546875,0.1077117919921875
1772709367045461800,3.419461669921875,-0.9879608154296875,0.06573486328125,0.1049957275390625
1772709367055485700,3.429485595703125,-0.9893951416015625,0.0656890869140625,0.1002960205078125
1772709367065510700,3.4395107421875,-0.991851806640625,0.066131591796875,0.099334716796875
1772709367075535600,3.44953564453125,-0.99212646484375,0.0643310546875,0.1016082763671875
1772709367085560600,3.459560546875,-0.98822021484375,0.063812255859375,0.1017913818359375
1772709367095585500,3.46958544921875,-0.986328125,0.0644378662109375,0.097076416015625
1772709367105610500,3.479610595703125,-0.9905548095703125,0.06689453125,0.0960235595703125
1772709367115635700,3.4896357421875,-0.995513916015625,0.0630950927734375,0.098114013671875
1772709367125660700,3.49966064453125,-0.9935455322265625,0.0595550537109375,0.09619140625
1772709367135685600,3.509685546875,-0.98516845703125,0.0598907470703125,0.0956573486328125
1772709367145710600,3.519710693359375,-0.9845733642578125,0.0568695068359375,0.094818115234375
1772709367155734500,3.529734619140625,-0.985931396484375,0.057403564453125,0.096466064453125
1772709367165759500,3.539759521484375,-0.9899749755859375,0.0563507080078125,0.0988922119140625
1772709367175784700,3.54978466796875,-0.991058349609375,0.0547943115234375,0.1006011962890625
1772709367185809700,3.5598095703125,-0.98968505859375,0.057708740234375,0.097900390625
1772709367195834600,3.569834716796875,-0.98760986328125,0.0556793212890625,0.092315673828125
1772709367205859600,3.579859619140625,-0.9869537353515625,0.057586669921875,0.094482421875
1772709367215884800,3.589884765625,-0.987548828125,0.0631103515625,0.09918212890625
1772709367225909800,3.59990966796875,-0.9912567138671875,0.0641632080078125,0.100616455078125
1772709367235934700,3.609934814453125,-0.9921112060546875,0.06011962890625,0.096221923828125
1772709367245959700,3.619959716796875,-0.990936279296875,0.0575408935546875,0.0968475341796875
1772709367255984400,3.629984375,-0.9881591796875,0.06158447265625,0.10028076171875
1772709367266009300,3.64000927734375,-0.9868927001953125,0.068115234375,0.102447509765625
1772709367276034300,3.650034423828125,-0.9902191162109375,0.067474365234375,0.10400390625
1772709367286059300,3.660059326171875,-0.9892730712890625,0.06341552734375,0.1009368896484375
1772709367296084500,3.67008447265625,-0.988189697265625,0.0609893798828125,0.101043701171875
1772709367306109400,3.680109375,-0.98779296875,0.0585479736328125,0.1021575927734375
1772709367316134100,3.690134033203125,-0.9901123046875,0.06048583984375,0.1015625
1772709367326159400,3.700159423828125,-0.989501953125,0.066619873046875,0.1007232666015625
1772709367336184300,3.710184326171875,-0.9906158447265625,0.0672607421875,0.10137939453125
1772709367346209300,3.720209228515625,-0.99005126953125,0.0636444091796875,0.1021270751953125
1772709367356233500,3.7302333984375,-0.9878692626953125,0.064788818359375,0.1007843017578125
1772709367366258400,3.740258544921875,-0.989501953125,0.06024169921875,0.09967041015625
1772709367376283400,3.750283447265625,-0.9906005859375,0.0611572265625,0.0990447998046875
1772709367386308400,3.760308349609375,-0.9897613525390625,0.0610504150390625,0.097991943359375
1772709367396333300,3.770333251953125,-0.99169921875,0.0540618896484375,0.0966644287109375
1772709367406358300,3.780358154296875,-0.9857940673828125,0.0577239990234375,0.0980224609375
1772709367416383200,3.79038330078125,-0.9847412109375,0.063873291015625,0.100341796875
1772709367426408200,3.800408203125,-0.9886474609375,0.0701141357421875,0.0980682373046875
1772709367436433400,3.810433349609375,-0.996307373046875,0.07049560546875,0.0960693359375
1772709367446458400,3.820458251953125,-0.9936676025390625,0.064727783203125,0.097137451171875
1772709367456482300,3.830482421875,-0.9844512939453125,0.060394287109375,0.1003570556640625
1772709367466507500,3.840507568359375,-0.9814605712890625,0.0558319091796875,0.10186767578125
1772709367476532200,3.8505322265625,-0.99102783203125,0.0537261962890625,0.096588134765625
1772709367486557200,3.86055712890625,-0.9954986572265625,0.05645751953125,0.0920257568359375
1772709367496582100,3.87058203125,-0.9927825927734375,0.0641632080078125,0.1013336181640625
1772709367506607400,3.880607421875,-0.9882354736328125,0.0675048828125,0.0999908447265625
1772709367516632300,3.89063232421875,-0.986053466796875,0.0666961669921875,0.09912109375
1772709367526657300,3.9006572265625,-0.986541748046875,0.0637054443359375,0.0985107421875
1772709367536682200,3.91068212890625,-0.9886322021484375,0.0607757568359375,0.0968780517578125
1772709367546707500,3.92070751953125,-0.989959716796875,0.0631103515625,0.0980072021484375
1772709367556732400,3.930732421875,-0.9929656982421875,0.0641326904296875,0.0991058349609375
1772709367566756400,3.94075634765625,-0.991485595703125,0.0652618408203125,0.0977783203125
1772709367576781300,3.95078125,-0.9910430908203125,0.065887451171875,0.0998077392578125
1772709367586806300,3.96080615234375,-0.987091064453125,0.066314697265625,0.09716796875
1772709367596831200,3.970831298828125,-0.9876708984375,0.0661773681640625,0.0980377197265625
1772709367606856400,3.9808564453125,-0.9899139404296875,0.06378173828125,0.09747314453125
1772709367616881400,3.99088134765625,-0.98931884765625,0.066314697265625,0.097686767578125
1772709367626906400,4.00090625,-0.991485595703125,0.0652008056640625,0.0997314453125
1772709367636931300,4.010931396484375,-0.9903564453125,0.063079833984375,0.0987091064453125
1772709367646956300,4.020956298828125,-0.9864501953125,0.063629150390625,0.097991943359375
1772709367656981200,4.030981201171875,-0.98858642578125,0.06195068359375,0.098052978515625
1772709367667006200,4.041006103515625,-0.98883056640625,0.061676025390625,0.09857177734375
1772709367677030400,4.051030517578125,-0.9889984130859375,0.0603485107421875,0.0975341796875
1772709367687055400,4.061055419921875,-0.98876953125,0.0612945556640625,0.099151611328125
1772709367697080300,4.071080322265625,-0.989715576171875,0.0621795654296875,0.0994110107421875
1772709367707105300,4.081105224609375,-0.989471435546875,0.0631256103515625,0.0978546142578125
1772709367717130500,4.091130615234375,-0.98968505859375,0.0648345947265625,0.0969390869140625
1772709367727155200,4.1011552734375,-0.9896240234375,0.0643463134765625,0.0982208251953125
1772709367737180200,4.11118017578125,-0.990142822265625,0.064239501953125,0.1001739501953125
1772709367747205400,4.121205322265625,-0.9923095703125,0.06689453125,0.099700927734375
1772709367757230300,4.131230224609375,-0.9904022216796875,0.0672607421875,0.09783935546875
1772709367767255300,4.14125537109375,-0.98797607421875,0.0666351318359375,0.0979461669921875
1772709367777279500,4.151279541015625,-0.9879302978515625,0.0651702880859375,0.099212646484375
1772709367787304400,4.161304443359375,-0.9884490966796875,0.0663909912109375,0.0985870361328125
1772709367797329400,4.171329345703125,-0.9921875,0.0664215087890625,0.0973052978515625
1772709367807354000,4.18135400390625,-0.992767333984375,0.0662078857421875,0.097991943359375
1772709367817379300,4.19137939453125,-0.9891815185546875,0.0647735595703125,0.100433349609375
1772709367827404300,4.201404296875,-0.9860687255859375,0.0594329833984375,0.10009765625
1772709367837429200,4.21142919921875,-0.9850006103515625,0.0588531494140625,0.0962371826171875
1772709367847454200,4.2214541015625,-0.9884796142578125,0.0602874755859375,0.0970306396484375
1772709367857479400,4.2314794921875,-0.9909515380859375,0.0626983642578125,0.1007232666015625
1772709367867504400,4.24150439453125,-0.9928741455078125,0.0666351318359375,0.10113525390625
1772709367877528300,4.2515283203125,-0.990570068359375,0.06329345703125,0.0973968505859375
1772709367887553300,4.26155322265625,-0.9884490966796875,0.05853271484375,0.095916748046875
1772709367897578200,4.271578125,-0.9848175048828125,0.0587005615234375,0.093994140625
1772709367907603200,4.281603271484375,-0.9858856201171875,0.060516357421875,0.0945587158203125
1772709367917628400,4.29162841796875,-0.9916534423828125,0.0647735595703125,0.098388671875
1772709367927653400,4.3016533203125,-0.9922027587890625,0.0642242431640625,0.0988311767578125
1772709367937678300,4.31167822265625,-0.9861297607421875,0.0680389404296875,0.09979248046875
1772709367947703300,4.321703369140625,-0.987457275390625,0.0705718994140625,0.1092529296875
1772709367957728500,4.331728515625,-0.9936370849609375,0.0655517578125,0.1017913818359375
1772709367967753500,4.34175341796875,-0.993072509765625,0.0635223388671875,0.0979156494140625
1772709367977777200,4.351777099609375,-0.993621826171875,0.0544586181640625,0.094329833984375
1772709367987802400,4.36180224609375,-0.98291015625,0.0590972900390625,0.099273681640625
1772709367997827300,4.371827392578125,-0.9832611083984375,0.06292724609375,0.1042938232421875
1772709368007852300,4.381852294921875,-0.9867706298828125,0.063934326171875,0.1041717529296875
1772709368017877200,4.391877197265625,-0.9906463623046875,0.064788818359375,0.101531982421875
1772709368027902500,4.40190234375,-0.992218017578125,0.05963134765625,0.0995941162109375
1772709368037927400,4.411927490234375,-0.9900360107421875,0.0598907470703125,0.0992889404296875
1772709368047952400,4.421952392578125,-0.98980712890625,0.06304931640625,0.1002197265625
1772709368057977000,4.43197705078125,-0.9896697998046875,0.0652923583984375,0.0995330810546875
1772709368068002300,4.442002197265625,-0.9882354736328125,0.0671844482421875,0.0996551513671875
1772709368078026200,4.452026123046875,-0.9888458251953125,0.064849853515625,0.0998992919921875
1772709368088051200,4.46205126953125,-0.990875244140625,0.0626983642578125,0.0987548828125
1772709368098076400,4.472076416015625,-0.989837646484375,0.0626678466796875,0.0988922119140625
1772709368108101400,4.482101318359375,-0.989990234375,0.06573486328125,0.0985260009765625
1772709368118126300,4.492126220703125,-0.98919677734375,0.066375732421875,0.10009765625
1772709368128151300,4.5021513671875,-0.9882659912109375,0.06494140625,0.10009765625
1772709368138176300,4.51217626953125,-0.9893035888671875,0.061767578125,0.1010284423828125
1772709368148201200,4.522201171875,-0.9881591796875,0.0600433349609375,0.1002655029296875
1772709368158226200,4.53222607421875,-0.9862213134765625,0.0628509521484375,0.0995330810546875
1772709368168251400,4.54225146484375,-0.9889984130859375,0.064117431640625,0.0998687744140625
1772709368178276400,4.5522763671875,-0.9915924072265625,0.0645751953125,0.0993499755859375
1772709368188300300,4.56230029296875,-0.991424560546875,0.063812255859375,0.0988922119140625
1772709368198325500,4.572325439453125,-0.9896240234375,0.062347412109375,0.0973663330078125
1772709368208350500,4.5823505859375,-0.9886016845703125,0.062286376953125,0.09808349609375
1772709368218375200,4.592375244140625,-0.9896392822265625,0.0655059814453125,0.09954833984375
1772709368228400000,4.602400146484375,-0.9905242919921875,0.066375732421875,0.0994720458984375
1772709368238425300,4.61242529296875,-0.990020751953125,0.066558837890625,0.0966796875
1772709368248450300,4.6224501953125,-0.9894256591796875,0.0653839111328125,0.09613037109375
1772709368258474500,4.632474609375,-0.9879150390625,0.0648651123046875,0.0977020263671875
1772709368268499700,4.642499755859375,-0.98980712890625,0.0634765625,0.098724365234375
1772709368278524700,4.652524658203125,-0.9887542724609375,0.0619964599609375,0.0984954833984375
1772709368288548400,4.66254833984375,-0.988006591796875,0.06182861328125,0.097503662109375
1772709368298573600,4.672573486328125,-0.987518310546875,0.062286376953125,0.0978240966796875
1772709368308598500,4.6825986328125,-0.98687744140625,0.0629425048828125,0.0972747802734375
1772709368318623500,4.69262353515625,-0.9891357421875,0.064208984375,0.0966644287109375
1772709368328648400,4.7026484375,-0.989837646484375,0.0660552978515625,0.0978851318359375
1772709368338673700,4.712673583984375,-0.988861083984375,0.0670928955078125,0.1002655029296875
1772709368348698600,4.72269873046875,-0.9891510009765625,0.0645294189453125,0.0999755859375
1772709368358723600,4.7327236328125,-0.9902801513671875,0.0636444091796875,0.1000213623046875
1772709368368748500,4.74274853515625,-0.987396240234375,0.06365966796875,0.10052490234375
1772709368378773500,4.7527734375,-0.9883575439453125,0.06658935546875,0.099578857421875
1772709368388797400,4.76279736328125,-0.9905548095703125,0.0659637451171875,0.099700927734375
1772709368398822700,4.77282275390625,-0.99139404296875,0.067474365234375,0.10052490234375
1772709368408847600,4.78284765625,-0.99169921875,0.0660858154296875,0.100555419921875
1772709368418872600,4.79287255859375,-0.9883575439453125,0.0628814697265625,0.1004638671875
1772709368428897500,4.8028974609375,-0.986572265625,0.0628509521484375,0.1000823974609375
1772709368438922800,4.8129228515625,-0.9891204833984375,0.0650787353515625,0.100067138671875
1772709368448947500,4.822947509765625,-0.993255615234375,0.0665435791015625,0.098480224609375
1772709368458972400,4.832972412109375,-0.9934539794921875,0.066162109375,0.0980987548828125
1772709368468997400,4.842997314453125,-0.9893035888671875,0.0628204345703125,0.0966949462890625
1772709368479022600,4.853022705078125,-0.9861602783203125,0.0613250732421875,0.09771728515625
1772709368489047600,4.863047607421875,-0.9900360107421875,0.0618743896484375,0.099029541015625
1772709368499071500,4.873071533203125,-0.9903564453125,0.06341552734375,0.10009765625
1772709368509096700,4.8830966796875,-0.9886627197265625,0.064208984375,0.0999603271484375
1772709368519121400,4.893121337890625,-0.98809814453125,0.0632171630859375,0.1007843017578125
1772709368529146400,4.903146484375,-0.9886322021484375,0.061920166015625,0.100189208984375
1772709368539171600,4.913171630859375,-0.989166259765625,0.063201904296875,0.1016082763671875
1772709368549196500,4.923196533203125,-0.990234375,0.0639495849609375,0.099945068359375
1772709368559221500,4.933221435546875,-0.9893035888671875,0.062896728515625,0.0984344482421875
1772709368569246500,4.94324658203125,-0.98846435546875,0.06396484375,0.0982513427734375
1772709368579271700,4.953271728515625,-0.9871063232421875,0.0639495849609375,0.09814453125
1772709368589296600,4.963296630859375,-0.988525390625,0.0655364990234375,0.09814453125
1772709368599321600,4.973321533203125,-0.9888916015625,0.0649566650390625,0.0975494384765625
1772709368609345500,4.983345458984375,-0.990020751953125,0.064178466796875,0.0982208251953125
1772709368619370500,4.99337060546875,-0.98834228515625,0.06365966796875,0.0983734130859375
1772709368629395500,5.0033955078125,-0.988250732421875,0.06390380859375,0.0989227294921875
1772709368639420400,5.01342041015625,-0.9883880615234375,0.064910888671875,0.098480224609375
1772709368649445600,5.023445556640625,-0.9904327392578125,0.0637969970703125,0.0975189208984375
1772709368659470600,5.033470703125,-0.990203857421875,0.06256103515625,0.0983428955078125
1772709368669495600,5.04349560546875,-0.989105224609375,0.0630950927734375,0.0992279052734375
1772709368679520500,5.0535205078125,-0.9892120361328125,0.062286376953125,0.100006103515625
1772709368689545700,5.063545654296875,-0.9881744384765625,0.0630035400390625,0.0990142822265625
1772709368699570400,5.0735703125,-0.99053955078125,0.0647735595703125,0.0972137451171875
1772709368709594400,5.083594482421875,-0.9915008544921875,0.0652008056640625,0.0983123779296875
1772709368719619600,5.09361962890625,-0.9911956787109375,0.0641326904296875,0.098388671875
1772709368729644500,5.10364453125,-0.9900360107421875,0.061676025390625,0.0975189208984375
1772709368739669500,5.11366943359375,-0.9897308349609375,0.0634307861328125,0.098876953125
1772709368749694500,5.123694580078125,-0.988372802734375,0.06512451171875,0.0991058349609375
1772709368759719700,5.1337197265625,-0.98785400390625,0.0660400390625,0.0995941162109375
1772709368769744600,5.14374462890625,-0.989349365234375,0.06365966796875,0.0982208251953125
1772709368779769300,5.153769287109375,-0.9875946044921875,0.06378173828125,0.097991943359375
1772709368789794600,5.163794677734375,-0.9878997802734375,0.063690185546875,0.1002044677734375
1772709368799819500,5.173819580078125,-0.9904632568359375,0.065399169921875,0.1006011962890625
1772709368809844500,5.183844482421875,-0.9898223876953125,0.0650177001953125,0.1011199951171875
1772709368819868700,5.19386865234375,-0.9890899658203125,0.0636749267578125,0.0999908447265625
1772709368829893600,5.2038935546875,-0.9879302978515625,0.0623931884765625,0.099578857421875
1772709368839918600,5.213918701171875,-0.9895782470703125,0.0647430419921875,0.099761962890625
1772709368849943600,5.223943603515625,-0.9903717041015625,0.065673828125,0.0999603271484375
1772709368859968500,5.233968505859375,-0.99005126953125,0.0658416748046875,0.0992431640625
1772709368869993500,5.243993408203125,-0.9882354736328125,0.0639801025390625,0.0988311767578125
1772709368880018400,5.254018310546875,-0.9887542724609375,0.0620880126953125,0.0985260009765625
1772709368890043400,5.26404345703125,-0.9883270263671875,0.0617523193359375,0.09857177734375
1772709368900068600,5.274068603515625,-0.988800048828125,0.063720703125,0.098602294921875
1772709368910093600,5.284093505859375,-0.988250732421875,0.0648651123046875,0.0998687744140625
1772709368920118500,5.294118408203125,-0.98828125,0.0654754638671875,0.0999298095703125
1772709368930142700,5.304142822265625,-0.989471435546875,0.065521240234375,0.0994110107421875
1772709368940167400,5.31416748046875,-0.9904937744140625,0.063934326171875,0.0997314453125
1772709368950818600,5.324818603515625,-0.9879608154296875,0.0615081787109375,0.0990753173828125
1772709368960843500,5.334843505859375,-0.986083984375,0.0619659423828125,0.0985107421875
1772709368970868500,5.344868408203125,-0.988250732421875,0.0648345947265625,0.0976409912109375
1772709368980893700,5.354893798828125,-0.990966796875,0.066375732421875,0.0962982177734375
1772709368990918700,5.364918701171875,-0.9926910400390625,0.06585693359375,0.0968170166015625
1772709369000942600,5.374942626953125,-0.9892730712890625,0.0643157958984375,0.0964508056640625
1772709369010967600,5.384967529296875,-0.9879608154296875,0.0645751953125,0.098602294921875
1772709369020992500,5.394992431640625,-0.9896697998046875,0.0650482177734375,0.100341796875
1772709369031017500,5.405017578125,-0.9903564453125,0.0664215087890625,0.1002960205078125
1772709369041042700,5.415042724609375,-0.9885101318359375,0.0657196044921875,0.0988311767578125
1772709369051067600,5.425067626953125,-0.988525390625,0.0633544921875,0.0990753173828125
1772709369061092600,5.435092529296875,-0.9894561767578125,0.0635528564453125,0.100189208984375
1772709369071117600,5.44511767578125,-0.9904937744140625,0.0630340576171875,0.1000823974609375
1772709369081142500,5.455142578125,-0.9897308349609375,0.0633392333984375,0.1005859375
1772709369091167500,5.46516748046875,-0.9879913330078125,0.0648040771484375,0.0997772216796875
1772709369101192400,5.4751923828125,-0.989227294921875,0.0627288818359375,0.09991455078125
1772709369111216600,5.485216552734375,-0.9882354736328125,0.0634002685546875,0.100738525390625
1772709369121241600,5.49524169921875,-0.990966796875,0.0645599365234375,0.100555419921875
1772709369131266600,5.5052666015625,-0.989501953125,0.0644073486328125,0.0987548828125
1772709369141291500,5.51529150390625,-0.987396240234375,0.0633392333984375,0.0995635986328125
1772709369151316700,5.525316650390625,-0.9876251220703125,0.0643463134765625,0.1003265380859375
1772709369161341400,5.535341552734375,-0.98895263671875,0.0638885498046875,0.0992584228515625
1772709369171366400,5.545366455078125,-0.9916534423828125,0.0644989013671875,0.0978851318359375
1772709369181391400,5.555391357421875,-0.989227294921875,0.064208984375,0.0980682373046875
1772709369191416600,5.56541650390625,-0.9890289306640625,0.06365966796875,0.099029541015625
1772709369201441500,5.575441650390625,-0.9895172119140625,0.064788818359375,0.097900390625
1772709369211465500,5.585465576171875,-0.9891510009765625,0.063873291015625,0.09844970703125
1772709369221490700,5.59549072265625,-0.9900054931640625,0.064300537109375,0.0986785888671875
1772709369231515600,5.605515625,-0.9889068603515625,0.0652923583984375,0.0987091064453125
1772709369241540400,5.615540283203125,-0.989227294921875,0.06451416015625,0.099273681640625
1772709369251565600,5.625565673828125,-0.9880828857421875,0.0641326904296875,0.09796142578125
1772709369261591600,5.635591552734375,-0.9891510009765625,0.0620269775390625,0.0973663330078125
1772709369271616500,5.645616455078125,-0.98919677734375,0.062103271484375,0.0977630615234375
1772709369281641500,5.655641357421875,-0.9896240234375,0.063995361328125,0.0990142822265625
1772709369292293400,5.66629345703125,-0.9890899658203125,0.064300537109375,0.0992279052734375
1772709369302318300,5.676318359375,-0.9897918701171875,0.0627899169921875,0.097747802734375
1772709369312343300,5.68634326171875,-0.988922119140625,0.0637969970703125,0.0981903076171875
1772709369322368300,5.6963681640625,-0.98870849609375,0.0641326904296875,0.100128173828125
1772709369332393500,5.7063935546875,-0.987823486328125,0.064483642578125,0.099761962890625
1772709369342418400,5.71641845703125,-0.98883056640625,0.064117431640625,0.099609375
1772709369352442600,5.726442626953125,-0.98822021484375,0.0634918212890625,0.099822998046875
1772709369362467300,5.73646728515625,-0.988311767578125,0.0629730224609375,0.1006011962890625
1772709369372492300,5.7464921875,-0.98883056640625,0.0636749267578125,0.099700927734375
1772709369382517200,5.756517333984375,-0.989715576171875,0.06494140625,0.0988922119140625
1772709369392542500,5.76654248046875,-0.99041748046875,0.065399169921875,0.09918212890625
1772709369402567400,5.7765673828125,-0.989166259765625,0.0656890869140625,0.0986328125
1772709369412592400,5.78659228515625,-0.9896697998046875,0.065185546875,0.0983428955078125
1772709369422617300,5.796617431640625,-0.98876953125,0.0639801025390625,0.09881591796875
1772709369432642600,5.806642578125,-0.9888458251953125,0.0646820068359375,0.09918212890625
1772709369442667500,5.81666748046875,-0.9878387451171875,0.0652923583984375,0.0992279052734375
1772709369452692500,5.8266923828125,-0.98919677734375,0.0648040771484375,0.0971832275390625
1772709369462717200,5.83671728515625,-0.9871826171875,0.066375732421875,0.099639892578125
1772709369472741400,5.846741455078125,-0.9889373779296875,0.066619873046875,0.10052490234375
1772709369482766300,5.856766357421875,-0.989471435546875,0.0625457763671875,0.0997161865234375
1772709369492791300,5.866791259765625,-0.987152099609375,0.061431884765625,0.0992889404296875
1772709369502816500,5.87681640625,-0.9869232177734375,0.0611724853515625,0.098358154296875
1772709369512841500,5.886841552734375,-0.9888458251953125,0.065032958984375,0.09710693359375
1772709369522866400,5.896866455078125,-0.9914398193359375,0.067413330078125,0.097564697265625
1772709369532891400,5.906891357421875,-0.9923858642578125,0.0644989013671875,0.0966796875
1772709369542916400,5.916916259765625,-0.98773193359375,0.0634613037109375,0.0960693359375
1772709369552941300,5.92694140625,-0.987396240234375,0.0641632080078125,0.0990753173828125
1772709369562966300,5.93696630859375,-0.99005126953125,0.0648651123046875,0.09991455078125
1772709369572991500,5.946991455078125,-0.99005126953125,0.0652313232421875,0.0995025634765625
1772709369583016400,5.957016357421875,-0.9879150390625,0.064605712890625,0.098785400390625
1772709369593040400,5.967040283203125,-0.987152099609375,0.0630950927734375,0.098907470703125
1772709369603065600,5.977065673828125,-0.9888916015625,0.0637054443359375,0.1006927490234375
1772709369613090600,5.987090576171875,-0.9910736083984375,0.0641326904296875,0.099853515625
1772709369623115300,5.997115234375,-0.9903411865234375,0.065216064453125,0.0984039306640625
1772709369633140200,6.00714013671875,-0.987548828125,0.0633087158203125,0.0989990234375
1772709369643165400,6.01716552734375,-0.9891357421875,0.0622100830078125,0.100128173828125
1772709369653190400,6.0271904296875,-0.9888763427734375,0.064208984375,0.0988922119140625
1772709369663215400,6.03721533203125,-0.98944091796875,0.0655059814453125,0.0999603271484375
1772709369673240300,6.047240234375,-0.9892578125,0.065338134765625,0.09893798828125
1772709369683265500,6.057265625,-0.98828125,0.0648651123046875,0.0998382568359375
1772709369693290500,6.06729052734375,-0.9891204833984375,0.06475830078125,0.09832763671875
1772709369703315500,6.0773154296875,-0.988555908203125,0.062896728515625,0.0978240966796875
1772709369713339400,6.08733935546875,-0.989288330078125,0.0644378662109375,0.0987091064453125
1772709369723364400,6.0973642578125,-0.990203857421875,0.0653228759765625,0.0986480712890625
1772709369733389300,6.107389404296875,-0.9888763427734375,0.063720703125,0.0976409912109375
1772709369743414500,6.11741455078125,-0.9888153076171875,0.0627899169921875,0.09869384765625
1772709369753439500,6.127439453125,-0.990020751953125,0.0623626708984375,0.0988616943359375
1772709369763464400,6.13746435546875,-0.9874420166015625,0.06524658203125,0.097564697265625
1772709369773489400,6.147489501953125,-0.9886016845703125,0.0662078857421875,0.0977783203125
1772709369783514600,6.1575146484375,-0.9887542724609375,0.064422607421875,0.0994720458984375
1772709369793539300,6.167539306640625,-0.9891357421875,0.06298828125,0.098358154296875
1772709369803564300,6.177564208984375,-0.98828125,0.062286376953125,0.0982818603515625
1772709369813589200,6.18758935546875,-0.9887237548828125,0.06292724609375,0.098297119140625
1772709369823614500,6.197614501953125,-0.9898529052734375,0.0639495849609375,0.099578857421875
1772709369833638400,6.207638427734375,-0.9911346435546875,0.0651702880859375,0.1002197265625
1772709369843663400,6.217663330078125,-0.988983154296875,0.0648040771484375,0.0999298095703125
1772709369853688600,6.2276884765625,-0.9884796142578125,0.0641632080078125,0.0980072021484375
1772709369863713500,6.237713623046875,-0.988067626953125,0.06451416015625,0.098358154296875
1772709369873738200,6.24773828125,-0.9898223876953125,0.0642852783203125,0.1019134521484375
1772709369883763200,6.25776318359375,-0.989044189453125,0.0652008056640625,0.0997467041015625
1772709369893788400,6.267788330078125,-0.987213134765625,0.063812255859375,0.0977935791015625
1772709369903813400,6.2778134765625,-0.98883056640625,0.061767578125,0.09942626953125
1772709369913838300,6.28783837890625,-0.9901123046875,0.0619049072265625,0.09881591796875
1772709369923863300,6.29786328125,-0.989898681640625,0.0634307861328125,0.0985870361328125
1772709369933888500,6.307888427734375,-0.9904937744140625,0.0646209716796875,0.09942626953125
1772709369943913500,6.31791357421875,-0.9893035888671875,0.0666351318359375,0.0985260009765625
1772709369953937400,6.3279375,-0.989471435546875,0.0643768310546875,0.0990753173828125
1772709369963962400,6.33796240234375,-0.9899444580078125,0.0643310546875,0.0985870361328125
1772709369973987300,6.3479873046875,-0.99017333984375,0.065521240234375,0.0981292724609375
1772709369984012300,6.35801220703125,-0.990997314453125,0.0639190673828125,0.0994110107421875
1772709369994037500,6.36803759765625,-0.988494873046875,0.063751220703125,0.098052978515625
1772709370004062500,6.3780625,-0.9886016845703125,0.065216064453125,0.098785400390625
1772709370014087400,6.38808740234375,-0.98956298828125,0.0642242431640625,0.098388671875
1772709370024112400,6.3981123046875,-0.9895477294921875,0.0644989013671875,0.0982513427734375
1772709370034137600,6.4081376953125,-0.9914703369140625,0.0634918212890625,0.09832763671875
1772709370044162600,6.41816259765625,-0.9897308349609375,0.0618133544921875,0.099761962890625
1772709370054187300,6.428187255859375,-0.9874267578125,0.0626068115234375,0.0988006591796875
1772709370064212200,6.438212158203125,-0.98797607421875,0.0642242431640625,0.098480224609375
1772709370074236400,6.448236328125,-0.9915008544921875,0.0663909912109375,0.0977020263671875
1772709370084261400,6.458261474609375,-0.9930877685546875,0.0646209716796875,0.095733642578125
1772709370094286300,6.468286376953125,-0.98944091796875,0.062408447265625,0.0967864990234375
1772709370104311600,6.4783115234375,-0.98602294921875,0.0636138916015625,0.098175048828125
1772709370114336500,6.48833642578125,-0.98736572265625,0.0652313232421875,0.1007080078125
1772709370124361500,6.498361572265625,-0.989776611328125,0.06683349609375,0.099700927734375
1772709370134386200,6.50838623046875,-0.988555908203125,0.0656280517578125,0.0980224609375
1772709370144411400,6.518411376953125,-0.9866943359375,0.0640106201171875,0.099639892578125
1772709370154436400,6.528436279296875,-0.9866180419921875,0.0630950927734375,0.09954833984375
1772709370164461300,6.53846142578125,-0.9886932373046875,0.0627899169921875,0.0997467041015625
1772709370174486300,6.548486328125,-0.9918670654296875,0.0631103515625,0.0995635986328125
1772709370184510500,6.558510498046875,-0.9896392822265625,0.062744140625,0.097869873046875
1772709370194535400,6.568535400390625,-0.9861907958984375,0.0629425048828125,0.0989532470703125
1772709370204560600,6.578560546875,-0.9886932373046875,0.064361572265625,0.0975341796875
1772709370214585300,6.58858544921875,-0.9911651611328125,0.0650634765625,0.0994720458984375
1772709370224610300,6.5986103515625,-0.9902496337890625,0.0649261474609375,0.09942626953125
1772709370234635300,6.60863525390625,-0.9905548095703125,0.0643768310546875,0.0999298095703125
1772709370244660500,6.618660400390625,-0.9898834228515625,0.06256103515625,0.09820556640625
1772709370254685400,6.628685546875,-0.98919677734375,0.0628509521484375,0.09771728515625
1772709370264709600,6.638709716796875,-0.9914093017578125,0.064361572265625,0.097930908203125
1772709370274734800,6.64873486328125,-0.9897003173828125,0.06378173828125,0.0992431640625
1772709370284759800,6.658759765625,-0.98876953125,0.064971923828125,0.097900390625
1772709370294784800,6.66878466796875,-0.98980712890625,0.0643310546875,0.0977020263671875
1772709370304809000,6.67880908203125,-0.98846435546875,0.0643768310546875,0.100189208984375
1772709370314834000,6.688833984375,-0.98944091796875,0.065032958984375,0.099151611328125
1772709370324858600,6.698858642578125,-0.989166259765625,0.0648956298828125,0.09832763671875
1772709370334883600,6.708883544921875,-0.9905548095703125,0.066131591796875,0.0977783203125
1772709370344908800,6.71890869140625,-0.988983154296875,0.064971923828125,0.098846435546875
1772709370354933800,6.728933837890625,-0.9891510009765625,0.063201904296875,0.098724365234375
1772709370364958700,6.738958740234375,-0.9881591796875,0.062469482421875,0.0970001220703125
1772709370374983700,6.748983642578125,-0.989288330078125,0.0646820068359375,0.097198486328125
1772709370385009000,6.7590087890625,-0.9902801513671875,0.0642852783203125,0.0998687744140625
1772709370395033900,6.769033935546875,-0.9906005859375,0.064849853515625,0.0984954833984375
1772709370405058800,6.779058837890625,-0.98956298828125,0.065216064453125,0.099395751953125
1772709370415082800,6.789082763671875,-0.9866485595703125,0.069488525390625,0.09735107421875
1772709370425107700,6.799107666015625,-0.987060546875,0.0684967041015625,0.0964813232421875
1772709370435132700,6.809132568359375,-0.9891204833984375,0.0631561279296875,0.0997772216796875
1772709370445158000,6.819157958984375,-0.9906005859375,0.062591552734375,0.098602294921875
1772709370455182800,6.829182861328125,-0.9912567138671875,0.0585784912109375,0.10125732421875
1772709370465207800,6.839207763671875,-0.9913177490234375,0.0581512451171875,0.1016845703125
1772709370475232800,6.849232666015625,-0.9871673583984375,0.059478759765625,0.1024322509765625
1772709370485258000,6.859258056640625,-0.986785888671875,0.0566253662109375,0.1029510498046875
1772709370495283000,6.869282958984375,-0.992431640625,0.0528717041015625,0.101531982421875
1772709370505307600,6.8793076171875,-0.9959869384765625,0.0550537109375,0.0951080322265625
1772709370515332600,6.88933251953125,-0.991851806640625,0.0613555908203125,0.09271240234375
1772709370525356800,6.899356689453125,-0.9861297607421875,0.066375732421875,0.0972442626953125
1772709370535381800,6.9093818359375,-0.9882965087890625,0.0704498291015625,0.1036529541015625
1772709370545406700,6.91940673828125,-0.986358642578125,0.070587158203125,0.1092987060546875
