time,seconds_elapsed,z,y,x
1772709363688370700,0.06237060546875,0.10003858333230017,0.006802592686936259,0.01529569574408233
1772709363698395600,0.072395751953125,0.006236848562955856,-0.0013894085317850112,0.006798793294653296
1772709363708420900,0.0824208984375,-0.031977439019083974,-0.005980316518619656,-0.021889321855455637
1772709363718445800,0.09244580078125,0.0028039515048265454,-0.01612213663086295,-0.017220818587765096
1772709363728469800,0.1024697265625,0.07684007857441902,-0.009247793881967663,-0.001360986154899001
1772709363738495000,0.112494873046875,0.08073416340351104,-0.0012893822234123944,-0.002147314226999879
1772709363748519700,0.122519775390625,0.03269640094339847,-0.003155249160528183,-0.011663476721569895
1772709363758544600,0.132544677734375,0.000789104551076889,-0.005681406637281179,-0.021147782773151994
1772709363768569600,0.142569580078125,0.008369184416532517,0.007440159938111901,-0.015544702069088815
1772709363778594800,0.1525947265625,0.03796878838837146,-0.0013541180226951837,0.015965192503482103
1772709363788619800,0.162619873046875,0.06893909619152545,0.0008573474816977977,-0.003959989672154188
1772709363798644700,0.172644775390625,0.060871525070071215,0.011843509463593364,-0.015937719974666833
1772709363808669700,0.182669677734375,0.020479308927059174,0.014777005632221698,-0.0028237521838396784
1772709363818695000,0.19269482421875,0.025875030490756033,0.0030173750597983595,-0.002876359153911471
1772709363828719900,0.202719970703125,0.03753039697110653,-0.014522154088318346,-0.0024146599262952805
1772709363838743800,0.212743896484375,0.0571118802756071,-0.015674319798126817,-0.006303557123616337
1772709363848768800,0.222768798828125,0.04737900629043579,-0.007987637753039598,-0.010194354017078876
1772709363858793700,0.232793701171875,0.03644786243140697,-0.002319090597331524,-0.009658055183291435
1772709363868818700,0.242818603515625,0.029247721794247627,0.006489142823591828,-0.01491305310204625
1772709363878844000,0.252843994140625,0.0346124636977911,-0.0032470190972089764,0.004875131755694747
1772709363888868900,0.262868896484375,0.04565992741286754,-0.010198591800779104,-0.017091931511089203
1772709363898893800,0.272893798828125,0.04863982000648975,-0.002061754835397005,0.0037915743026882406
1772709363908918800,0.282918701171875,0.03173135530352592,0.00005669862329959869,0.010962123519182205
1772709363918944000,0.292944091796875,0.03651858958005905,0.0029615532193332907,0.0016349807906895874
1772709363928968700,0.30296875,0.04009586354494095,-0.0058859162334352726,-0.007622749963402748
1772709363938993700,0.31299365234375,0.06326514220833777,-0.013538257617503404,-0.0032640432972460983
1772709363949018600,0.3230185546875,0.04186111965179443,-0.0032896161299198865,-0.010607245666906236
1772709363959043800,0.3330439453125,0.03917524156868458,-0.007422916542366147,-0.017749957028403877
1772709363969067800,0.34306787109375,0.03066752546429634,-0.00894121215082705,-0.017920052898302674
1772709363979092700,0.3530927734375,0.01719546495079994,-0.008296119180321693,-0.010513649099320172
1772709363989118000,0.363117919921875,0.03139876234829426,-0.004749167288467288,-0.010906155548244714
1772709363999143000,0.373142822265625,0.02660802094042301,0.0024745003547519445,-0.01499729731939733
1772709364009167600,0.383167724609375,0.01823474487066269,0.0008561784379184246,-0.018784049316495657
1772709364019192600,0.393192626953125,0.04276712858080864,-0.009844663796573876,-0.0046996290583163495
1772709364029217800,0.4032177734375,0.04213876754939556,-0.01091375433281064,-0.01790383241586387
1772709364039242800,0.41324267578125,0.030770401316881177,-0.003614244974404573,-0.010659414245560765
1772709364049267700,0.423267822265625,0.03256196090877056,0.009224047680199146,-0.012173618200793861
1772709364059292700,0.433292724609375,0.035548867765069006,0.008625351134687662,-0.0023043314196169373
1772709364069318000,0.44331787109375,0.05111819281876087,0.008651143163070082,-0.0015961831502616405
1772709364079342800,0.4533427734375,0.03331950127780437,-0.0007999912712723016,0.005290946014970541
1772709364089366800,0.46336669921875,0.04035772935152054,-0.020456804834306237,0.003129530197381973
1772709364099391700,0.473391845703125,0.06310849034190177,-0.016785642040893434,-0.00799041423201561
1772709364109416700,0.483416748046875,0.03709492816329002,-0.011336582854762673,-0.014832535211741923
1772709364119441700,0.493441650390625,0.025130934125185012,0.007313976275175809,-0.00464819113202393
1772709364129467000,0.503466796875,0.02931143468022346,0.003495513965561986,-0.007326689626276492
1772709364139491800,0.513491943359375,0.04036415909230709,-0.011162833723053335,-0.02324972348846495
1772709364149516800,0.523516845703125,0.04167641073465347,-0.010290215606987476,-0.005274798597767949
1772709364159541800,0.533541748046875,0.0376098919481039,-0.0078492521956563,-0.006426233655214309
1772709364169567000,0.54356689453125,0.02980535567700863,0.0025722616408020258,0.002807458636164665
1772709364179592000,0.553592041015625,0.040109307548403736,0.0033428806871175763,-0.013583704194426536
1772709364189616600,0.56361669921875,0.04818798458576202,-0.012635390493646263,-0.005390095540508628
1772709364199641600,0.5736416015625,0.048047699332237244,0.002960164979845285,-0.013098185699805616
1772709364209665800,0.583665771484375,0.03474690373241901,0.007696545851975679,0.0018215894039720296
1772709364219690800,0.593690673828125,0.017408815440535543,-0.012332242828607558,0.0035554274592548606
1772709364229715700,0.6037158203125,0.03132628163397312,-0.007895794751122594,-0.01041398811712861
1772709364239741000,0.613740966796875,0.04239654170274734,0.0011135872650891543,-0.0017789923712611198
1772709364249766000,0.623765869140625,0.03910743702948093,0.006835398977994918,-0.0065657151911407705
1772709364259791400,0.633791259765625,0.03419043889343738,0.0046204263422638175,-0.007665346996113658
1772709364269816000,0.643816162109375,0.03226268570125103,-0.006499737282842397,-0.012437822094932197
1772709364279841300,0.65384130859375,0.0435007035523653,-0.012162073893472552,-0.016942074711620805
1772709364289866200,0.6638662109375,0.028830957686901092,-0.005639905583113431,-0.0013937193807214497
1772709364299891200,0.67389111328125,0.02345569438934326,0.0011853373270481824,-0.0014816899251192807
1772709364309916200,0.683916259765625,0.023902269113063812,-0.0018217355344444513,-0.005386588409170508
1772709364319941400,0.69394140625,0.03301964154839516,-0.009093333972617983,-0.003190758865326643
1772709364329965300,0.70396533203125,0.0377975234746933,-0.00861103034839034,-0.01584887264743447
1772709364339990300,0.713990234375,0.02926058127582073,-0.015469006484374404,-0.001985766989737749
1772709364350015200,0.72401513671875,0.03973462901711464,-0.00897774476893246,-0.006117094640806317
1772709364360040200,0.734040283203125,0.036140403917431826,0.003646978200227022,-0.005935965920239687
1772709364370065200,0.744065185546875,0.046617958790063856,0.01721862663067877,-0.009173194275796413
1772709364380090000,0.754090087890625,0.036305823612213135,0.014965660072118043,-0.013321838387846946
1772709364390115300,0.764115234375,0.03288987768888473,0.00522343373671174,0.009793956522643565
1772709364400140300,0.774140380859375,0.038891163930296895,-0.012742942521348595,-0.011183511184901
1772709364410165200,0.784165283203125,0.02948620672523975,-0.00238090378716588,0.006580328238382935
1772709364420190200,0.794190185546875,0.04358019852936268,-0.0035592999167740344,-0.010664455746859312
1772709364430215400,0.80421533203125,0.04420446790754795,0.004128039715439081,-0.018073197633400557
1772709364440240400,0.814240478515625,0.03315525062680244,0.007947305742651223,-0.009301131504401565
1772709364450264300,0.824264404296875,0.03618599662482738,0.0013562369145452976,-0.011804638757929205
1772709364460289300,0.834289306640625,0.04368833507895469,-0.00918890330158174,0.0052566784191876645
1772709364470314200,0.844314208984375,0.034867899763584134,-0.01406783444955945,-0.006520268614217639
1772709364480339200,0.854339111328125,0.026335049217939374,-0.010043182043358682,-0.013280775725096464
1772709364490364400,0.864364501953125,0.01507891118824482,-0.026510186589136717,-0.017700126537308097
1772709364500389400,0.874389404296875,0.03583294540345668,-0.027572774319350717,-0.010527239233255386
1772709364510414300,0.884414306640625,0.0681090751081705,-0.01701002538129687,-0.006368292922899126
1772709364520439300,0.894439208984375,0.03545242165327072,-0.009955284564197062,-0.0002234334923326969
1772709364530464300,0.90446435546875,0.028246435797214507,0.009055047788843511,-0.00505560288913548
1772709364540489200,0.9144892578125,0.02117781258523464,0.013170593348890543,-0.010153729745745658
1772709364550514200,0.92451416015625,0.02758358797430992,0.040864802090823646,-0.013881152771040796
1772709364560539100,0.9345390625,0.03461421726346016,0.021881284679472444,-0.0005449935968965292
1772709364570563300,0.944563232421875,0.043756724140048026,0.019321151867881418,-0.002677037189528346
1772709364580588300,0.95458837890625,0.04018412635028362,0.006944996832311153,-0.013880495183914899
1772709364590613200,0.96461328125,0.04047755633890628,0.0012746230456978083,-0.017279855298623442
1772709364600638500,0.974638427734375,0.03359539560973644,-0.01672923567853868,0.00870586902499199
1772709364610663200,0.9846630859375,0.03870060979425907,-0.005017389770597219,-0.003716244044154882
1772709364620688100,0.994688232421875,0.048288522350788114,-0.009960179935023189,-0.016417977772280573
1772709364630713300,1.00471337890625,0.025981413474678992,-0.004316548024863005,-0.014254589193314312
1772709364640738300,1.01473828125,0.02149286988377571,-0.012807020733505486,0.008169424060732126
1772709364650763300,1.02476318359375,0.042594694623351095,-0.02177344039082527,0.004847293900698423
1772709364660788200,1.034788330078125,0.06998012967705726,-0.03469539274089038,-0.0091285514164716
1772709364670813400,1.0448134765625,0.06818623199760913,-0.003928717751055955,-0.01112936984486878
1772709364680837400,1.05483740234375,0.0316799173772335,-0.0033976796142756935,-0.017019962253421544
1772709364690862000,1.064862060546875,0.007902735948562622,0.010225260611996054,-0.008287059091031551
1772709364700887300,1.07488720703125,0.020623101311922073,-0.006842778566852212,-0.004078574550524354
1772709364710912300,1.084912353515625,0.041401685446500774,-0.010744535245746374,-0.013612711093202232
1772709364720937200,1.094937255859375,0.05395195493996143,0.01658010953143239,-0.018109218794852493
1772709364730962200,1.104962158203125,0.032708675903081894,0.018918124024942515,0.0016929215230047701
1772709364740987400,1.1149873046875,0.02675356689095497,0.003951879430934786,-0.005715747298300266
1772709364751012400,1.125012451171875,0.04293488636314869,-0.010988792330399155,-0.0013830518562346697
1772709364761037300,1.135037353515625,0.05146832143068313,-0.00040112814679741857,-0.007601926371082663
1772709364771062300,1.145062255859375,0.052826165780425066,0.0040641806989908215,0.0023989509005099535
1772709364781087200,1.155087158203125,0.02545651281774044,0.012058686584234236,-0.0007963380094617604
1772709364791112200,1.1651123046875,0.02037877116203308,0.006196151226386427,-0.0006239040520042181
1772709364801136000,1.17513623046875,0.051665889829397196,-0.0021310206793248654,-0.00911160028167069
1772709364811161300,1.185161376953125,0.05751987655460834,-0.012500658198073505,-0.016087284513190386
1772709364821186300,1.195186279296875,0.04871697689592838,0.0049087417643517255,-0.0052409693934023375
1772709364831211300,1.205211181640625,0.02853986578583717,-0.004017199752107263,-0.002140080768615007
1772709364841236500,1.215236572265625,0.039487376257777214,-0.012728840930759907,-0.013943185156583784
1772709364851261400,1.225261474609375,0.04384031077027321,-0.00710983200520277,-0.01242291678674519
1772709364861286100,1.2352861328125,0.03710544955730438,-0.016256357469782233,-0.014923501430824397
1772709364871311000,1.24531103515625,0.036053894677758214,-0.006376987686008214,-0.025850188310444354
1772709364881336300,1.25533642578125,0.034683190846443175,-0.0045656274151057,-0.015285685806721449
1772709364891361300,1.265361328125,0.0331657720208168,-0.00957417629212141,-0.009515066516026854
1772709364901386200,1.27538623046875,0.02714695012271404,-0.002030702110007405,-0.007355258133634924
1772709364911410400,1.285410400390625,0.022044658547639845,0.009261018689721822,-0.008494125970453023
1772709364921435400,1.295435302734375,0.029960838499665257,-0.012049480364471673,-0.000524827591702342
1772709364931460400,1.30546044921875,0.044920507222414016,-0.0005261427659541368,-0.006005743220821023
1772709364941485000,1.315485107421875,0.044319034197926516,-0.005754544938728213,-0.0092352266613394
1772709364951510300,1.32551025390625,0.015436054062843322,0.004652136654779314,-0.004435352098941803
1772709364961535200,1.33553515625,0.02980827828645706,-0.005317468695715069,-0.0069407590486109255
1772709364971560200,1.345560302734375,0.04552314929068088,-0.014740911405533552,-0.004669014724344014
1772709364981585200,1.355585205078125,0.04447743963003158,-0.017537191060557962,-0.002793430110812187
1772709364991610400,1.3656103515625,0.05346446368396282,-0.009868263867869972,-0.002484583357349038
1772709365001635300,1.37563525390625,0.029539982739090916,0.000953866658732295,-0.008479147597029805
1772709365011660300,1.385660400390625,0.03779635443091392,0.008871946306899189,0.005764262615144252
1772709365021684200,1.395684326171875,0.04396306036710739,-0.005583718416467309,-0.002786415848135948
1772709365031709200,1.405709228515625,0.049828737530112265,0.001086480062454939,-0.0029005437470972536
1772709365041734100,1.415734130859375,0.05420914457142353,-0.0023863106146454808,-0.003616509996727109
1772709365051759400,1.42575927734375,0.025371172621846197,-0.005740224152430892,-0.01113229245431721
1772709365061784300,1.435784423828125,0.03215338010787964,-0.0035409605424851177,-0.0021313129402697087
1772709365071809300,1.445809326171875,0.030083003574609756,-0.021354922717809675,-0.0024794687908142802
1772709365081834200,1.455834228515625,0.03518471062779426,-0.004664484679698944,-0.013573767322301864
1772709365091859500,1.465859375,0.03323357656002045,-0.014688962022587656,-0.014341098432987927
1772709365101884400,1.475884521484375,0.026350831308960914,0.007663447299972176,-0.024897125369310377
1772709365111909400,1.485909423828125,0.026194763964414596,0.01196304419003427,-0.015058452922105788
1772709365121934000,1.49593408203125,0.021698621588945387,0.0043042730651795865,-0.0092723438013345
1772709365131958300,1.505958251953125,0.03560673543214798,-0.0014327362168580294,-0.004084931226074695
1772709365141983200,1.515983154296875,0.039784313377737995,-0.007345613522455096,-0.025259894267097113
1772709365152008200,1.52600830078125,0.032146950367093086,-0.013265285895019768,-0.005905351586267352
1772709365162033400,1.536033447265625,0.042317046725749964,-0.002608867324143648,-0.011274112077802418
1772709365172058400,1.546058349609375,0.04411386701464653,0.011286460102722048,-0.009901143224164842
1772709365182083300,1.556083251953125,0.03903612535893917,0.0015774784497916698,-0.009962810283526777
1772709365192108300,1.5661083984375,0.03605097206830978,0.01455788298882544,-0.009563727963343262
1772709365202133200,1.57613330078125,0.02289806050658226,-0.013886413468047976,0.013247311846911906
1772709365212158200,1.586158203125,0.02890285387933254,-0.023341639555618167,-0.0018038345515727996
1772709365222183200,1.59618310546875,0.07127484566271304,-0.021034093265607953,-0.02101093158572912
1772709365232208100,1.6062080078125,0.0503238275706768,-0.008377733049169183,-0.026034604966640472
1772709365242232300,1.616232421875,0.01843815848827362,0.019088219894841312,-0.019139730886369943
1772709365252256800,1.6262568359375,-0.0022457331001758574,0.010707418105751276,-0.030004385380446908
1772709365262282000,1.636281982421875,0.04349894998669624,0.010509265185147523,-0.01056837496124208
1772709365272307000,1.646306884765625,0.05171089801490306,-0.007715469748154282,-0.005338073092326522
1772709365282331600,1.65633154296875,0.03823591489195823,-0.028618045588582754,0.009610928105935454
1772709365292356600,1.666356689453125,0.0355360082834959,-0.0008347703237086534,-0.010324921594187617
1772709365302381800,1.6763818359375,0.027321137645840644,0.0028360271435230967,0.006087357089668512
1772709365312406800,1.68640673828125,0.04230535628795624,-0.004012231316044926,0.005075988090038299
1772709365322431700,1.696431640625,0.04606558560431003,0.006228299930319189,-0.0021055939771234987
1772709365332456700,1.706456787109375,0.04983633631467819,-0.002371039980277419,-0.002009367061033845
1772709365342481000,1.71648095703125,0.0299590849339962,-0.016148951572552323,-0.004845905661210417
1772709365352505900,1.726505859375,0.03444821304678917,-0.00959996832050383,-0.017641601283103228
1772709365362530800,1.73653076171875,0.03761106099188328,-0.011291574669256805,-0.016062296202406286
1772709365372555800,1.7465556640625,0.03567337092757225,-0.0035955402739346024,-0.010689590188115834
1772709365382580700,1.756580810546875,0.04659983861148357,-0.00933634894825518,-0.021104382022842764
1772709365392605700,1.766605712890625,0.04003624231219292,-0.001105403958633542,-0.0039904578756541015
1772709365402631000,1.776630859375,0.031823709762096405,-0.0027291327029466627,0.009432356668636203
1772709365412655900,1.78665576171875,0.043057051438093186,-0.009636793199554084,-0.01818177257440984
1772709365422680800,1.796680908203125,0.04051788834929466,-0.0064978375867009155,-0.016536489585414527
1772709365432705800,1.806705810546875,0.02750467751920223,0.010035071802139282,-0.011196151470765471
1772709365442729700,1.816729736328125,0.03363806570768356,0.00698028734140098,-0.01491926364712417
1772709365452754700,1.826754638671875,0.02675356689095497,0.0007364975810050964,-0.01815232728421688
1772709365462779600,1.836779541015625,0.03126841396689415,-0.01147569906450808,-0.0001258183367550373
1772709365472804900,1.846804931640625,0.0417711032807827,-0.009636574003845452,-0.001522021935507655
1772709365482829800,1.856829833984375,0.04746317744255066,0.005402955022081732,-0.007396101600676774
1772709365492854800,1.866854736328125,0.04403495655953884,0.009110285107418894,-0.01771620088927448
1772709365502879700,1.876879638671875,0.03253858003318309,0.00015358312651515005,-0.009337956383451819
1772709365512905000,1.886905029296875,0.047832595276832576,0.007829524581879377,-0.0064586015548557035
1772709365522930000,1.896929931640625,0.034983050575852395,0.00028393150791525837,-0.018143924782052637
1772709365532955000,1.906954833984375,0.03842529998421669,-0.017332316138222812,-0.0113354138109833
1772709365542979800,1.916979736328125,0.015377017351984977,0.004238222091645002,0.0003787701845169067
1772709365553003800,1.927003662109375,0.022712182545661926,0.009461728893592954,-0.017241861375793813
1772709365563028700,1.93702880859375,0.03393850995898247,-0.005056479671970009,0.013772066373378038
1772709365573054000,1.947053955078125,0.041567689663171765,-0.005730579541251063,-0.0057125324279069896
1772709365583079000,1.957078857421875,0.05307224949598312,-0.00562646157965064,0.0017208324432373045
1772709365593104000,1.967103759765625,0.026437925070524212,-0.008259732692688704,-0.0020948533874005078
1772709365603128800,1.97712890625,0.02719137378633022,0.0015899726051837205,0.003058583853021264
1772709365613154000,1.987154052734375,0.0339022696018219,-0.010900237264111637,0.0015281594153493641
1772709365623178800,1.9971787109375,0.032084991046786304,-0.018399506978318093,-0.008956482785195112
1772709365633203700,2.00720361328125,0.033869536375999446,-0.006403071975335479,-0.009393339832499624
1772709365643228700,2.017228759765625,0.01947685388624668,0.00024031156189739702,-0.011609481512010097
1772709365653252900,2.0272529296875,0.031575872480869294,0.0027872195657342672,-0.026544381119683384
1772709365663277800,2.03727783203125,0.029749826097488403,0.007921732909977436,0.004193506167083978
1772709365673302800,2.047302734375,0.030340777727961538,-0.004032835712656379,-0.009959157021716236
1772709365683328000,2.057327880859375,0.04036415909230709,-0.0055316959682852026,-0.009535451716929674
1772709365693353000,2.06735302734375,0.03827098620533943,-0.012899229061603545,-0.005604176682606339
1772709365703377700,2.077377685546875,0.04621814581751823,-0.005126768429204821,-0.008877572330087423
1772709365713402600,2.087402587890625,0.04517243615686893,0.0074181673020124435,-0.013332505912333726
1772709365723427800,2.097427734375,0.036197687062621116,0.0003807429458945989,-0.0040171266868710516
1772709365733452800,2.107452880859375,0.02557283267378807,0.00970547452159226,0.0019353519767522811
1772709365743477800,2.117477783203125,0.017641455152630804,-0.004379676388949156,0.012017696986719966
1772709365753502700,2.127502685546875,0.05446165802776813,-0.020146642906591294,-0.0077519293010234825
1772709365763527000,2.13752685546875,0.05176233594119548,0.00007715688943862914,-0.013769143763929605
1772709365773551600,2.147551513671875,0.028083938711881636,-0.004180354424566031,-0.02745053617917001
1772709365783576800,2.157576904296875,0.013549801924824714,0.022668562599644063,-0.035312867052108045
1772709365793601800,2.167601806640625,0.014431260934472083,0.014666969386488198,-0.010935600838437675
1772709365803626800,2.177626708984375,0.04642331300079822,0.0011336802050471305,-0.019826032650098205
1772709365813651700,2.187651611328125,0.05611527045369148,-0.006371653923764825,-0.024993133089691397
1772709365823677000,2.197677001953125,0.02706862418949604,-0.007670973019301891,-0.003650704527273774
1772709365833702000,2.207701904296875,0.020929390782117842,0.00248209913931787,0.0036137335177510973
1772709365843726800,2.217726806640625,0.04203472265303135,-0.0036260815426707267,0.011550079474970698
1772709365853751800,2.227751708984375,0.059869070029258724,-0.0046851621415466066,-0.0024327801048755642
1772709365863775700,2.237775634765625,0.06273790346384048,-0.009995470444113015,-0.0019211773209273815
1772709365873800700,2.24780078125,0.0337234059035778,-0.006250073370710015,0.006902911256253719
1772709365883825700,2.25782568359375,0.020100538742542265,-0.002871975239738822,-0.01580342607051134
1772709365893851000,2.267850830078125,0.03999240317046642,-0.014184446566551923,-0.021327304058521984
1772709365903875800,2.277875732421875,0.03788227914869785,-0.022464710590615868,0.0011449322514235972
1772709365913900800,2.28790087890625,0.038756139373779294,-0.0062507309578359125,-0.0000763531718403101
1772709365923925800,2.29792578125,0.030060207220911978,0.00009242752380669117,0.0007660159364342689
1772709365933951000,2.307950927734375,0.03245265531539917,0.01727269490547478,-0.013248919282108544
1772709365943976000,2.317975830078125,0.03394669326543808,0.007640431750565767,-0.020518691089376807
1772709365954000600,2.328000732421875,0.031984453281760215,-0.010346183577924967,-0.014832462146505713
1772709365964024800,2.33802490234375,0.04141279136240482,-0.008696516674757003,-0.006592749328538775
1772709365974049800,2.3480498046875,0.03139116356372833,-0.0017885639172047375,-0.0026747721672058106
1772709365984074800,2.35807470703125,0.03048457011282444,0.0023815613742917776,-0.024540713147073984
1772709365994100000,2.368099853515625,0.033906361255049706,-0.012098945529386401,-0.005761924527585506
1772709366004125000,2.378125,0.02926759553849697,-0.013562880602106451,0.011878215450793504
1772709366014150000,2.38814990234375,0.040058454144001006,-0.003184109928831458,0.012858239464089274
1772709366024174800,2.3981748046875,0.04456161078214645,0.004215644933655858,0.002325081946700811
1772709366034199800,2.40819970703125,0.024074703070521352,-0.00015263327844440935,-0.014022899329289793
1772709366044224800,2.418224853515625,0.016323942813277245,0.0074738430120050905,-0.0032318945933133363
1772709366054249700,2.428249755859375,0.0435790294855833,-0.004751651506498456,-0.00010031856931746005
1772709366064274000,2.43827392578125,0.0482236404210329,-0.01651800408065319,-0.0038172932658344506
1772709366074299000,2.448298828125,0.0425245519965887,-0.01612038306519389,-0.01797660539112985
1772709366084323800,2.45832373046875,0.03143383366167545,-0.007071180495247244,-0.009874766673892735
1772709366094348800,2.468348876953125,0.024680267748236655,-0.0017878332648426293,-0.025867066380009053
1772709366104374000,2.4783740234375,0.044860301467776295,-0.00012793722860515117,-0.010226429655775427
1772709366114398700,2.488398681640625,0.055309799289703365,0.0026989567603915928,0.0016050971090793608
1772709366124423700,2.498423583984375,0.049908232507109636,0.0012751345023512839,-0.008217793247103691
1772709366134448600,2.50844873046875,0.041971594288945195,0.0005370294861495495,0.0003909720789641142
1772709366144473900,2.518473876953125,0.035821254965662956,-0.007827624885737896,-0.009193798672407865
1772709366154498800,2.528498779296875,0.029669162076711653,-0.007418386497721075,-0.011884133734926581
1772709366164523000,2.53852294921875,0.039679099437594414,-0.0040653497427701945,0.0032808483015745876
1772709366174548000,2.5485478515625,0.04625087904334068,-0.006541311402246355,-0.013997399561852216
1772709366184573000,2.558572998046875,0.03247136001586914,-0.0003762129012495279,-0.015491364446654915
1772709366194597600,2.56859765625,0.023922142857313155,0.012460764579102395,-0.00967895184084773
1772709366204622800,2.578622802734375,0.02466565470099449,0.0024232085589319468,-0.013555135687068103
1772709366214647800,2.588647705078125,0.0384206238090992,-0.006660553867742419,-0.0037725773412734267
1772709366224672800,2.5986728515625,0.035874446457624436,-0.016818594462424515,-0.013029796638712286
1772709366234697700,2.60869775390625,0.045616672793030735,-0.020347499240934847,-0.000943564460426569
1772709366244723000,2.618722900390625,0.04277823449671268,-0.008263239824026823,-0.011047975171729922
1772709366254747600,2.62874755859375,0.03141337539553642,-0.004963979082927107,-0.007481149535626172
1772709366264771600,2.638771484375,0.030815409502387044,0.010642170849815011,-0.024116569450870155
1772709366274796800,2.648796875,0.028131869506835935,0.011950769230350851,-0.0026360475920140744
1772709366284821800,2.65882177734375,0.027839608561992645,-0.011597060421854257,-0.007564005513489246
1772709366294846500,2.668846435546875,0.06854220582842827,-0.010292845955491065,-0.006180734461545944
1772709366304871700,2.67887158203125,0.0547767153263092,-0.011469707715138793,-0.024787016058340668
1772709366314896600,2.688896728515625,0.026207038924098012,-0.008989069880545139,-0.015605784606561065
1772709366324921600,2.698921630859375,0.00689852734208107,0.004626052365452051,-0.011862725620716809
1772709366334946600,2.708946533203125,0.027811551511287686,-0.00356426835283637,-0.02287073410823941
1772709366344971800,2.7189716796875,0.04887479780614376,-0.007046922836825251,-0.01846395051665604
1772709366354996700,2.728996826171875,0.04061725707054138,0.0032184505898505446,-0.009031447717547415
1772709366365020700,2.739020751953125,0.014427169281244278,-0.0033821167189627883,0.013092925002798437
1772709366375045600,2.749045654296875,0.03671615797877312,0.007119403551146388,-0.006150850779935717
1772709366385070600,2.759070556640625,0.04734276593327522,0.004242825201526284,0.006668298782780766
1772709366395095600,2.769095458984375,0.047213586595654486,-0.0011245470505207777,-0.016727847439050675
1772709366405120500,2.77912060546875,0.04348725954890251,-0.010292480629310012,-0.008121127939596772
1772709366415145700,2.789145751953125,0.03781213652193546,-0.013185790918022394,-0.01645472958609462
1772709366425170700,2.799170654296875,0.036761166164278984,-0.0025780337944626805,-0.005408142653852701
1772709366435195600,2.809195556640625,0.04782090483903884,-0.00700863665305078,-0.003833586813509464
1772709366445220600,2.819220703125,0.033897008904814716,-0.014372808745503425,0.0000016074351966381072
1772709366455244500,2.82924462890625,0.03420622098445892,0.011540215668082237,-0.0018660861328244208
1772709366465269500,2.83926953125,0.05485387221574783,0.00819382784962654,-0.014519158413633703
1772709366475294500,2.84929443359375,0.03629764030575752,-0.0074817340575158596,-0.011110665144398808
1772709366485319700,2.859319580078125,0.042134091374278065,-0.023160510835051534,-0.014417889996245502
1772709366495344600,2.8693447265625,0.03826514098644256,-0.013049597317725418,-0.0003444295234978199
1772709366505369600,2.87936962890625,0.043806408500671384,0.0012603753246366977,-0.005500497112423181
1772709366515394600,2.88939453125,0.03242868991792202,0.011243424678593874,-0.007019888699427246
1772709366525419800,2.899419677734375,0.031099487140774724,0.0018658669371157883,-0.008564268597215414
1772709366535444700,2.90944482421875,0.026627310162782667,-0.0016663988422602415,0.0013492226518690585
1772709366545469700,2.9194697265625,0.06287234349846839,-0.016381664349883793,0.004751578441262245
1772709366555494700,2.92949462890625,0.057813306543231004,-0.029087708926945923,-0.004598214510455727
1772709366565518600,2.9395185546875,0.037924949246644975,-0.015217077549919486,0.0027848814781755208
1772709366575543600,2.94954345703125,-0.002788753935694694,0.04253850745670497,0.002162584861367941
1772709366585568800,2.95956884765625,-0.012801029384136199,0.03336808965988457,0.02508475689589977
1772709366595593700,2.96959375,0.05847907697558403,0.014500380647927523,0.020742051516473292
1772709366605618700,2.97961865234375,0.0780213973134756,0.01009695805720985,0.0027349779218435286
1772709366615643600,2.9896435546875,0.054027358263731,0.02257942301146686,-0.014466113052144645
1772709366625668900,2.9996689453125,0.0249222598105669,0.024860446620732543,-0.006540726880356669
1772709366635693600,3.009693603515625,0.010467618000507354,0.021179200824722647,-0.019962883837521074
1772709366645718500,3.019718505859375,0.0039344168394804,0.0012064531803131103,-0.018023001816123724
1772709366655742700,3.02974267578125,0.03690905020236969,-0.014966025398299098,-0.025566475998237727
1772709366665767700,3.039767578125,0.08378186053633689,-0.0322024068813771,-0.019771233722940085
1772709366675792600,3.049792724609375,0.07093231583535671,-0.03334931189417839,-0.017347732903063295
1772709366685817600,3.059817626953125,0.02709901932775974,-0.02501797527000308,-0.03410597548037767
1772709366695842800,3.0698427734375,0.005824760630726814,-0.031847090637683866,-0.03628858021646738
1772709366705867800,3.07986767578125,0.019967267751693725,-0.05028510299548507,-0.024684067140519617
1772709366715892500,3.089892578125,0.061762920951843256,-0.08145765537247061,-0.00481689876243472
1772709366725917700,3.099917724609375,0.08423837213218212,-0.025671105416491626,0.006367343074828386
1772709366735942700,3.109942626953125,0.02666296599805355,0.024222075651958584,-0.001247515843063593
1772709366745967600,3.119967529296875,-0.024947394251823424,0.0480075865175575,-0.003307882438972592
1772709366755991800,3.12999169921875,0.013793547552824019,0.035384032592177386,-0.023984467503800986
1772709366766016800,3.140016845703125,0.05498948129415512,0.023789164127409456,-0.025189678575098514
1772709366776041700,3.150041748046875,0.07486439458727837,0.0011886252626776696,-0.02516783206947148
1772709366786066700,3.160066650390625,0.053773091241717336,0.009780658649653195,-0.034954701264202595
1772709366796091600,3.170091552734375,0.03553250115215778,0.016937398536503313,-0.03903809812031686
1772709366806116600,3.18011669921875,0.031847675159573555,0.008439180912822485,-0.018258637202903626
1772709366816141600,3.1901416015625,0.05276011480689048,-0.008637479963898659,0.002966448590159416
1772709366826166500,3.20016650390625,0.04539455447494983,-0.043162922965362664,-0.005246157025173307
1772709366836191700,3.210191650390625,0.05370411765873432,-0.03843947464004159,-0.021441139696538446
1772709366846216700,3.220216796875,0.04791267477571964,-0.004231427024677396,-0.03673515494018793
1772709366856240600,3.23024072265625,0.003539280042052269,0.016917086400836705,-0.0089314214091748
1772709366866265600,3.240265625,-0.007300093880295753,0.01771466651931405,0.0021372312244027853
1772709366876290600,3.25029052734375,0.06964578315615653,0.0056415495509281755,0.007180120762437582
1772709366886315500,3.2603154296875,0.08879764287173747,0.015436054062843322,0.030697701406851408
1772709366896340700,3.2703408203125,0.01067863040268421,-0.04270403674934059,-0.017708163713291286
1772709366906365700,3.28036572265625,0.020083003085851668,-0.10804821372143923,-0.03217866067960858
1772709366916390700,3.290390625,0.07809504707157612,0.003248991858586669,-0.06346219915039837
1772709366926415600,3.30041552734375,0.08492927700579166,0.16505393020883202,0.011503829180449246
1772709366936440800,3.31044091796875,-0.02878478045761585,0.11433262775316834,0.0929360578507185
1772709366946465800,3.3204658203125,-0.0382025971442461,-0.003648293374478817,0.008120251156762242
1772709366956489500,3.330489501953125,0.06449380722045898,-0.034023302165605125,-0.05181647728122771
1772709366966514700,3.3405146484375,0.07939093210101127,-0.09469798948932438,-0.054273003587871786
1772709366976539600,3.35053955078125,0.08097264833450317,-0.1129051887659356,-0.00945705271847546
1772709366986564600,3.360564697265625,0.07589782928824425,-0.07582279129065572,0.04916493985913693
1772709366996589600,3.370589599609375,0.05834229885339737,-0.010606222753599286,0.0909249372240156
1772709367006614800,3.38061474609375,-0.0014256488889455795,-0.00988850293830037,0.018692425510287283
1772709367016639700,3.3906396484375,-0.013434651112556456,-0.03248750743307173,-0.016597279861941934
1772709367026664700,3.400664794921875,0.008633972832560538,-0.0026060543125495314,-0.003975479502230882
1772709367036689700,3.410689697265625,0.05036649766862392,0.03057604778856039,0.0550366083715111
1772709367046714600,3.420714599609375,0.05460018971562385,0.046007389143668115,0.06819200415126979
1772709367056738600,3.430738525390625,0.0457967055350542,0.042148667888902126,0.021862506913766264
1772709367066763500,3.440763427734375,0.014633505508303642,0.04289481008108705,-0.010451908974722026
1772709367076788700,3.450788818359375,0.005925882917642593,0.031204737613536416,-0.0002831277903169393
1772709367086813700,3.460813720703125,0.025376433318853378,0.02727751769982278,0.022368410609290002
1772709367096838700,3.470838623046875,0.06534896274507046,0.024383915150165556,-0.016464228066802023
1772709367106863600,3.480863525390625,0.052183776223659516,0.039970483599603174,-0.04080795733705163
1772709367116888800,3.490888916015625,-0.011578794112801551,0.03166482940595597,-0.0207286075130105
1772709367126913500,3.50091357421875,-0.026719664621353147,-0.012095182669721543,-0.03475822884403169
1772709367136938500,3.5109384765625,0.05524316379427909,-0.023995317691378294,-0.03722432669661939
1772709367146963700,3.520963623046875,0.08124445101320743,-0.037698081688210365,-0.04707790445201099
1772709367156987600,3.530987548828125,0.07702420296967029,-0.03989266912303865,-0.045289048273861404
1772709367167012600,3.5410126953125,0.05005728558897972,-0.038291663667187094,-0.026072160498052836
1772709367177037800,3.551037841796875,0.021921908950805664,-0.06515464574936777,0.005998802023380994
1772709367187062800,3.561062744140625,0.023720482805371285,-0.04907729810830205,-0.009175824624300003
1772709367197087700,3.571087646484375,0.04012859677076339,-0.05212985407933592,-0.06102364689186215
1772709367207112400,3.581112548828125,0.05469546678364277,-0.05095730316862464,-0.084053955475986
1772709367217137700,3.5911376953125,0.05135024800896644,-0.008818243358284234,-0.01932246704213321
1772709367227162600,3.60116259765625,0.030731822872161862,0.022043854830041527,-0.00005143792629241943
1772709367237187600,3.6111875,-0.0005558803170919418,-0.004342486183717847,-0.017590820943936703
1772709367247212500,3.621212646484375,0.01790039834976196,-0.04284417587239295,-0.04198686492331326
1772709367257237500,3.631237548828125,0.030496845072507855,-0.025316921683959662,-0.013947642135992646
1772709367267262200,3.64126220703125,0.060224459338188166,0.033410504029504955,0.007412468213587999
1772709367277287200,3.651287109375,0.038571430456638335,0.07281487817894668,0.03984327702336013
1772709367287312400,3.6613125,0.038618776729702944,0.02756225292533636,0.016338190534338354
1772709367297337300,3.67133740234375,0.042080315360426904,0.0011816110000014304,0.008297580485045909
1772709367307362300,3.6813623046875,0.06332710152864456,-0.025970636352337897,0.018174173789843914
1772709367317387300,3.69138720703125,0.041918402796983716,-0.038741782054863866,0.020066855668649075
1772709367327412500,3.70141259765625,0.031869302469491954,0.01494395969696343,0.003018105712160468
1772709367337437400,3.7114375,0.028715222352743146,0.05950666645765304,0.01100340537764132
1772709367347462400,3.72146240234375,0.02049216840863228,0.022146913345716893,0.0179242906820029
1772709367357486300,3.731486328125,0.04848784431517124,0.019113938857987522,0.017821780155599116
1772709367367511300,3.74151123046875,0.043240591311454774,-0.0023341420359909533,-0.0016775778234004973
1772709367377536300,3.751536376953125,0.02079261265993118,-0.026356676527857777,-0.004231134763732552
1772709367387561200,3.761561279296875,0.03876198459267616,0.002421893384680152,-0.01455700620599091
1772709367397586400,3.77158642578125,0.00983516531586647,-0.07431845114231109,-0.028684900279715656
1772709367407611400,3.781611328125,0.04605564873218536,-0.07220028994455933,-0.03338898631744087
1772709367417636400,3.79163623046875,0.0941863501727581,-0.021346154889464376,0.000770107589662075
1772709367427661300,3.801661376953125,0.06418693322837353,0.04414075502157211,-0.0018047113344073294
1772709367437686300,3.811686279296875,-0.011606851163506507,0.08726502647697926,-0.02848207118399441
1772709367447711200,3.821711181640625,-0.024928105029463767,0.039397871343418954,-0.03796082427762448
1772709367457735400,3.8317353515625,0.05590834970474243,-0.010986088916659354,-0.006312251886725425
1772709367467760400,3.841760498046875,0.11889233688414096,-0.056404170397669075,0.01404036192074418
1772709367477785300,3.851785400390625,0.05149813204705715,-0.09382292368784546,0.003306713395193219
1772709367487810300,3.861810302734375,-0.014750994408130646,-0.08407792087346315,-0.0761128602784127
1772709367497835500,3.87183544921875,-0.00983516531586647,-0.018305325888842344,-0.015889789179712534
1772709367507860500,3.881860595703125,0.02814531351029873,0.028502967841550705,0.018587138504907487
1772709367517885200,3.89188525390625,0.06406944432854653,0.04231573155149817,-0.01207498013190925
1772709367527910100,3.90191015625,0.05886135429143905,0.01095649749599397,-0.002096095496416092
1772709367537935400,3.911935302734375,0.05961889466047287,-0.028639745963737365,-0.026825097757205367
1772709367547960300,3.921960205078125,0.04101590099930763,-0.0166794051874429,-0.02117167510539293
1772709367557985300,3.9319853515625,0.01151040505170822,0.002330561839416623,-0.0013622282639145851
1772709367568009500,3.942009521484375,0.005665186154842377,0.014792203201353549,-0.011833791787177323
1772709367578034400,3.952034423828125,0.020425532913208005,0.03014050591550767,-0.002814399833604693
1772709367588059400,3.962059326171875,0.039537645140290255,0.019241949151828884,-0.004207534692436456
1772709367598084000,3.972083984375,0.06824936036169528,0.03350450245589018,-0.014608005740866065
1772709367608109300,3.982109375,0.031148586979508397,0.011857976380363107,-0.010560630046203731
1772709367618134300,3.99213427734375,0.03756254567503929,0.01234575989730656,-0.015533303892239928
1772709367628159200,4.0021591796875,0.02109597952067852,0.023673428793251513,-0.0020061521906405686
1772709367638184200,4.01218408203125,0.0230400993257761,-0.01393741300292313,0.004750409397482872
1772709367648209400,4.02220947265625,0.04921791215538978,0.004050079108402133,-0.01540931218639016
1772709367658234400,4.032234375,0.05685702873170376,-0.02195719945989549,-0.009163403534144163
1772709367668259300,4.04225927734375,0.03963642933964729,-0.01661941862851381,-0.0006712503250688314
1772709367678283300,4.052283203125,0.04681611171066761,-0.02910860558450222,-0.02040982388742268
1772709367688308200,4.06230810546875,0.04724982695281505,-0.03813194306083023,-0.008068301773816346
1772709367698333200,4.072333251953125,0.03497428274750709,-0.02373516891784966,0.001279299220815301
1772709367708358400,4.0823583984375,0.032415830436348915,-0.0055544192567467685,-0.008602847041934729
1772709367718383400,4.09238330078125,0.03688742289245128,-0.004004778661951422,-0.016743264203891158
1772709367728408300,4.102408203125,0.03477437626123428,0.005666866655275225,-0.014738427187502384
1772709367738433300,4.112433349609375,0.030115152278542518,0.00041479134596884246,0.006411109151318669
1772709367748458500,4.12245849609375,0.006019406419992447,0.01459163912795484,0.003946399538218975
1772709367758483500,4.1324833984375,0.02246843691766262,0.03677219901494681,-0.005759294179081917
1772709367768508400,4.14250830078125,0.03772504276037216,0.020326018061488867,-0.011210106930881737
1772709367778532400,4.152532470703125,0.052253334328532214,0.018972119234502316,-0.008019128869846463
1772709367788557300,4.162557373046875,0.047943069913983345,0.02113536168299615,-0.0034211335550993678
1772709367798582300,4.172582275390625,0.02355973928570747,0.02721723887994885,-0.015064663467183709
1772709367808607200,4.182607177734375,-0.004443535405397415,0.02066927854120731,-0.02277487251833081
1772709367818632400,4.192632568359375,0.026236265018582342,0.026532033094763756,-0.009064984660968185
1772709367828657400,4.202657470703125,0.05113982012867927,-0.02423413141593337,0.01460669056661427
1772709367838682400,4.212682373046875,0.07485211962759494,-0.047668929147720335,-0.02467734513878822
1772709367848707300,4.222707275390625,0.05975976443588733,-0.04220934856757522,-0.02880070867910981
1772709367858732300,4.232732177734375,0.03194645935893058,-0.016427183992043137,-0.006287921163067221
1772709367868757200,4.24275732421875,0.0034171149671077725,0.017183482252061365,0.018218085996806622
1772709367878781400,4.252781494140625,0.02203063002228737,0.02033602799884975,-0.00044277533143758773
1772709367888806400,4.262806396484375,0.03779927704036236,-0.033381752859055994,-0.029086905209347605
1772709367898831400,4.272831298828125,0.07120119590461253,-0.04935812434367835,-0.04403378751575947
1772709367908856300,4.282856201171875,0.08511398592293262,-0.04266286448873579,-0.06428418305777013
1772709367918881500,4.292881591796875,0.036789223214983936,-0.0029484745420515534,-0.028408786752074956
1772709367928906200,4.30290625,-0.0008902268379926681,0.01632072794288397,-0.008900807075202464
1772709367938931200,4.31293115234375,0.044880759733915324,0.01769062805660069,-0.01404664553105831
1772709367948956200,4.3229560546875,0.07381576231718064,0.08392579905167222,0.060428676673397415
1772709367958981400,4.3329814453125,0.006667056673765182,0.03152516520693898,0.05824300319738686
1772709367969006300,4.34300634765625,-0.0021639000356197357,0.03505472757257521,-0.015921207231283187
1772709367979030300,4.3530302734375,-0.015732991182804107,-0.06016856443248689,-0.03292765241600573
1772709367989055500,4.363055419921875,0.05758768109381199,-0.06275346635915338,-0.034984292684867975
1772709367999080400,4.37308056640625,0.11274959634542464,-0.0024289807125926015,0.034177944738045335
1772709368009105200,4.383105224609375,0.07014554937183856,-0.0016482055984437464,0.0413701212644577
1772709368019130000,4.393130126953125,0.03543020982146263,0.018511296789720653,0.039362653899565336
1772709368029155300,4.4031552734375,0.01009878468811512,-0.017102745166048407,0.0016630378413945435
1772709368039180300,4.41318017578125,0.018094459617137907,-0.04759608310721814,-0.00756795103624463
1772709368049205200,4.423205322265625,0.03640226972401142,-0.01620396969541907,0.0017144027024507521
1772709368059230200,4.433230224609375,0.024505495703220366,0.002368117370828986,-0.002274447738006711
1772709368069255400,4.44325537109375,0.03882335939109325,0.028231968880444762,-0.002738996509835124
1772709368079279400,4.453279296875,0.040135026511549945,0.022214754417538642,-0.0009886457111686468
1772709368089304300,4.46330419921875,0.021669980016350746,-0.0026858050178736447,-0.01019106608144939
1772709368099329300,4.473329345703125,0.021282442003488538,-0.016067556899413464,-0.01430500420629978
1772709368109354200,4.483354248046875,0.024642273825407027,0.0011616641905158758,-0.006132876731827855
1772709368119379200,4.493379150390625,0.03984627269804478,0.019290610599145292,0.0022189181584864855
1772709368129404400,4.503404296875,0.037564883762598034,0.008517068454623222,0.004034297017380595
1772709368139429400,4.513429443359375,0.042915012618899344,-0.002135696854442358,0.007716054270043969
1772709368149454300,4.523454345703125,0.04392740453183651,-0.04332907331250608,0.007232143210619687
1772709368159479300,4.533479248046875,0.058413026002049444,-0.02311908284612,-0.006045417644083499
1772709368169504500,4.54350439453125,0.05090250424146652,-0.007755071106180548,-0.0026776217114180324
1772709368179529500,4.553529541015625,0.02258651033937931,-0.0037912089765071866,0.0008585895907133817
1772709368189553200,4.56355322265625,0.016557751569151877,-0.003893134981021285,-0.006597060177475213
1772709368199578400,4.573578369140625,0.02037877116203308,-0.013396437994018197,-0.014892010314017533
1772709368209603300,4.583603271484375,0.04154606235325336,-0.023181699753552675,-0.018026874273642895
1772709368219628300,4.593628173828125,0.04281330581009388,-0.007788315788656473,-0.013739625408500431
1772709368229653200,4.6036533203125,0.025843466308712957,0.014240487602725624,0.005919014785438776
1772709368239678500,4.613678466796875,0.028792963764071464,0.016890490654855966,-0.018033961601555345
1772709368249703400,4.623703369140625,0.03068915277421474,0.013537015508487819,-0.039383623622357845
1772709368259727400,4.633727294921875,0.05022036719620228,-0.0035304391484707594,-0.029418182990327477
1772709368269752600,4.643752685546875,0.0474830511868,-0.013905994951352476,-0.012366364293918013
1772709368279777500,4.653777587890625,0.032059272083640095,-0.029523616126179694,-0.007051160620525479
1772709368289801500,4.663801513671875,0.05045943664908409,-0.03888955649510026,-0.022854586691036818
1772709368299826700,4.67382666015625,0.0516746576577425,-0.029600334624201058,-0.018595541007071732
1772709368309851400,4.683851318359375,0.05497603729069232,-0.02133760625682771,-0.03034275048933923
1772709368319876400,4.69387646484375,0.040028643527626986,-0.015060937140136956,-0.03536021332517266
1772709368329901600,4.703901611328125,0.028510055169463155,-0.004254369508847594,-0.029907281681522725
1772709368339926500,4.713926513671875,0.0331657720208168,0.013278876028954983,-0.005507219114154577
1772709368349951500,4.723951416015625,0.04351648564338684,0.0007731763295829296,0.0020978490620851514
1772709368359976400,4.7339765625,0.026795652467012404,-0.017687705447152254,0.000685059654712677
1772709368370001700,4.744001708984375,0.04212123189270496,-0.010123261542245745,0.008795300874114035
1772709368380026600,4.754026611328125,0.048182723888754844,0.015956205479428172,0.002544862177222967
1772709368390050300,4.76405029296875,0.039870238095521926,0.013728884818777442,-0.003916223595663905
1772709368400075500,4.774075439453125,0.013598317241668701,0.019618088987842203,0.002134381680190563
1772709368410100500,4.7841005859375,0.008875964894890785,0.03394055578559637,0.0051790100730955595
1772709368420125400,4.79412548828125,0.03528291030526161,-0.009184957778826355,0.004817921675741672
1772709368430150400,4.804150390625,0.05732815337479114,-0.019222513798996806,-0.0007167699672281742
1772709368440175600,4.814175537109375,0.05886486142277717,-0.005041282102838158,0.004094648902490735
1772709368450200600,4.82420068359375,0.01281973408460617,0.01732405976653099,-0.009228504659608006
1772709368460225500,4.8342255859375,-0.0067442135632038115,0.025323095696419474,-0.012473916321620345
1772709368470250500,4.84425048828125,0.012120645904541014,-0.0015221680659800766,-0.01800926555171609
1772709368480275700,4.854275634765625,0.056115854975581164,-0.02974595363996923,-0.023918562660738826
1772709368490300400,4.864300537109375,0.04489069660604,-0.025928441178426145,-0.010235124418884516
1772709368500324600,4.87432470703125,0.0214104522973299,-0.01689019839391112,0.00471738391071558
1772709368510349600,4.884349609375,0.03952244757115841,-0.007595569695532322,0.005758490461483598
1772709368520374500,4.89437451171875,0.049989481049776074,-0.0003773088797926903,0.01123867543824017
1772709368530399500,4.9043994140625,0.049240123987197876,-0.027279709656909106,0.005511091571673751
1772709368540424700,4.9144248046875,0.03337152372598648,-0.019338979785516856,0.01306114162504673
1772709368550449700,4.92444970703125,0.025298107385635375,-0.0067320116687566035,0.00746492905318737
1772709368560474600,4.934474609375,0.027825580036640166,-0.012018939095735549,-0.009775397952646016
1772709368570499300,4.944499267578125,0.04082710042893886,-0.00530241725705564,-0.011089841552078723
1772709368580524500,4.954524658203125,0.0497837293446064,-0.007278393505141138,-0.00989113328680396
1772709368590549500,4.964549560546875,0.055015200257301326,-0.005719838951528072,-0.012637509385496378
1772709368600574500,4.974574462890625,0.0366080214291811,0.0034101737696677443,-0.008468407007306814
1772709368610598700,4.9845986328125,0.02852642178237438,0.0010838497139513492,-0.011163929701596497
1772709368620623600,4.99462353515625,0.043051790741086005,-0.008299918572604656,-0.017021642753854392
1772709368630648600,5.004648681640625,0.047858898761868475,-0.009509586623311042,-0.004502133724838495
1772709368640673500,5.014673583984375,0.042653146812319756,-0.0000025572832673788067,-0.004935995097458362
1772709368650698500,5.024698486328125,0.029058336701989172,0.0012250117503106593,-0.021589973582699894
1772709368660723500,5.034723388671875,0.0209966107994318,-0.015970745461434125,-0.009937821972742676
1772709368670748400,5.04474853515625,0.033144144710898396,-0.015858809519559144,-0.012079656307026744
1772709368680773400,5.0547734375,0.034520109239220616,-0.013248627021163702,0.0004380260910838842
1772709368690798600,5.064798583984375,0.05010989255905151,-0.02934738277643919,0.004659077852219343
1772709368700823600,5.074823486328125,0.03216214793622493,0.0009572276595979928,-0.013261486502736806
1772709368710847700,5.08484765625,0.010618424648046493,0.0043470162283629175,-0.02056099586114287
1772709368720872700,5.094872802734375,0.017938976794481275,-0.004578194635733962,-0.009788549695163965
1772709368730897400,5.1048974609375,0.022703999239206313,-0.025198446403443812,-0.020420710607618093
1772709368740922400,5.11492236328125,0.028335867646336554,-0.02516162152439356,-0.01345890877097845
1772709368750947600,5.124947509765625,0.04400865307450294,-0.009574468553066253,-0.00873706788085401
1772709368760972500,5.13497265625,0.05146247621178627,0.01639306252673268,-0.004033420234546065
1772709368770997500,5.14499755859375,0.03691664898693561,-0.004486132438108325,-0.011921762331575155
1772709368781022500,5.1550224609375,0.04285246877670288,-0.008862813152372837,-0.018778277162835002
1772709368791047700,5.165047607421875,0.04954465989172458,-0.0061596916735172265,-0.0008056903596967459
1772709368801072600,5.17507275390625,0.031575872480869294,0.0029451866064220665,0.010710194584727287
1772709368811097600,5.18509765625,0.023648002091050148,0.005635521668940782,0.012886004253849387
1772709368821121500,5.19512158203125,0.03186345725059509,-0.004255538552626967,0.008559007900208235
1772709368831146500,5.205146484375,0.06042202773690224,-0.01837517625465989,0.00542494765818119
1772709368841171500,5.21517138671875,0.03569850536882877,-0.006238309867680073,-0.004105827883630991
1772709368851196400,5.225196533203125,0.027286066332459447,0.009764657362923026,0.003550312892720103
1772709368861221600,5.2352216796875,0.02249415588080883,0.0040640345685184,-0.0018622136753052472
1772709368871246600,5.24524658203125,0.03895546133816242,-0.0075306147005409,-0.011776143315806984
1772709368881271600,5.255271484375,0.03835632640123367,-0.020427213413640854,-0.007276566874235868
1772709368891296500,5.265296630859375,0.04657528869211673,-0.02729359205178916,-0.017472966717928647
1772709368901321500,5.275321533203125,0.03731470839381218,-0.019156462825462222,-0.00671747168675065
1772709368911346400,5.285346435546875,0.04662731114029884,-0.012928235960379243,0.0011061346109956503
1772709368921371400,5.295371337890625,0.04352759155929088,0.0031162323243916035,0.0016139380026608705
1772709368931395600,5.3053955078125,0.035626609176397324,0.01079305056259036,-0.0024074995331466197
1772709368941420500,5.315420654296875,0.027587095105648038,-0.0012980039212852716,-0.003762567403912544
1772709368959590400,5.33359033203125,0.06761749219894408,-0.029981735157221554,-0.007853416914120316
1772709368969615400,5.343615478515625,0.05135901583731174,0.0042865912780165666,-0.016315467245876788
1772709368979639600,5.3536396484375,0.024326047483086585,0.01533032866604626,-0.03264079829864204
1772709368989664500,5.36366455078125,0.0040057285100221635,0.008585676711425185,-0.024639716542139648
1772709368999689500,5.373689453125,0.02883271125257015,-0.004195698124170303,-0.034703576047345995
1772709369009714700,5.383714599609375,0.05527531249821186,-0.006692921767383814,-0.0034975597921758886
1772709369019739600,5.39373974609375,0.04073182336091995,0.00004939209967851639,0.011421119333058595
1772709369029764400,5.403764404296875,0.02697276259958744,0.006642433689162135,0.01364076814390719
1772709369039789300,5.413789306640625,0.040599136891961096,0.008018252087011932,0.0034907647252082822
1772709369049814500,5.423814453125,0.04958090024888515,-0.014356515197828412,-0.0018497925851494073
1772709369059839500,5.433839599609375,0.03896422916650772,-0.009481018115952611,-0.00048500703796744345
1772709369069864400,5.443864501953125,0.018175123637914656,-0.010880801911279558,0.012427739092335105
1772709369079889400,5.453889404296875,0.03166939598321915,-0.014438567458093165,0.010085852141305803
1772709369089913600,5.46391357421875,0.04469371272921562,-0.006449760661274194,-0.004206292583420873
1772709369099938600,5.4739384765625,0.04080079694390297,-0.018699512838199733,0.005633475842326879
1772709369109963500,5.483963623046875,0.04798164835870266,-0.015613237260654568,0.010383446848392486
1772709369119988500,5.493988525390625,0.02073474499285221,-0.005332520134374499,0.01367109021693468
1772709369130013400,5.504013427734375,0.024008067575097082,-0.0005106529358774423,-0.004838672202825546
1772709369140038400,5.514038330078125,0.04479658858180046,-0.009749021402373909,0.004996858439221978
1772709369150063600,5.524063720703125,0.0603536386758089,-0.005090966463461518,0.0015850041691213845
1772709369160088600,5.534088623046875,0.04284253190457821,-0.009843860078975558,-0.0001714841093868017
1772709369170113500,5.544113525390625,0.014106266763806342,-0.009910203313454985,-0.009616115737706422
1772709369180138500,5.554138427734375,0.032194296640157695,-0.0007492109321057797,-0.021638635030016302
1772709369190163700,5.564163818359375,0.04354804982542992,-0.007090908109024166,-0.007273717330023646
1772709369200187400,5.5741875,0.03904313962161541,-0.007155790038779378,-0.018009703943133355
1772709369210212400,5.58421240234375,0.03245499340295791,-0.004194602145627141,-0.010847411098331212
1772709369220237600,5.594237548828125,0.031250293788313864,-0.008110752676054834,-0.009409560314938425
1772709369230262500,5.604262451171875,0.04306581926643848,0.011778846729546785,-0.006771320765838027
1772709369240287500,5.61428759765625,0.035437224084138866,-0.003839139771461487,0.00008541326113045214
1772709369250312400,5.6243125,0.04174538431763649,-0.002479176529869437,-0.014007263368740678
1772709369260338400,5.63433837890625,0.03353811246454715,-0.02717785671763122,-0.016712284543737767
1772709369270363400,5.64436328125,0.029196868389844893,-0.030196473886445162,-0.019408172564208508
1772709369280388400,5.654388427734375,0.034732875207066534,-0.008981105769798159,0.00066314008384943
1772709369299812400,5.673812255859375,0.029070027139782902,-0.010285320236161351,-0.01873904113098979
1772709369309837300,5.68383740234375,0.037598201510310174,-0.005544117058441042,-0.007945552176982163
1772709369319862300,5.6938623046875,0.04283317955434322,-0.002450315761566162,0.004036269778758287
1772709369329887500,5.703887451171875,0.048538113197684286,-0.0003026362083852291,0.003090294165536761
1772709369339912400,5.713912353515625,0.040023967352509494,-0.004917728788405656,0.004723009933903813
1772709369349936400,5.723936279296875,0.04900105453431606,-0.010590367597341537,0.0011088380247354507
1772709369359961600,5.733961669921875,0.05124269598126411,-0.015337781320139765,0.013423910522833466
1772709369369986300,5.743986328125,0.04075929588973522,-0.013446195419877767,0.00219181095585227
1772709369380011300,5.75401123046875,0.025790274816751477,0.005793634840101003,-0.0076001728054136035
1772709369390036200,5.7640361328125,0.028183891955018043,0.0017985738545656202,0.0005417056612670422
1772709369400061400,5.7740615234375,0.03192483204901218,0.01316058341152966,-0.012465879145637154
1772709369410086400,5.78408642578125,0.03955050462186336,-0.002364391043782234,-0.009259776580706237
1772709369420111400,5.794111328125,0.038515316355228424,-0.008819047075882554,-0.0056313569504767656
1772709369430136300,5.80413623046875,0.040329087778925896,-0.007173544891178608,-0.005991787760704755
1772709369440161500,5.81416162109375,0.04409808492362499,0.0033444881223142144,-0.0025465426776558157
1772709369450186500,5.8241865234375,0.040536008527874944,0.008101692586764693,-0.01789287263043225
1772709369460211500,5.83421142578125,0.05538403356969356,0.014199132679030299,-0.007304039403051138
1772709369470235400,5.8442353515625,0.03326864787340164,0.024305881477892397,0.011860460598394275
1772709369480260400,5.85426025390625,0.037792847299575806,-0.017225933154299853,0.007728840686380863
1772709369490285300,5.864285400390625,0.051748307415843006,-0.0324056013032794,-0.0034026480503380296
1772709369500310500,5.874310546875,0.059545829424262044,-0.03342822234928608,-0.012734759214892982
1772709369510335500,5.88433544921875,0.04415069189369678,-0.006700301356241107,-0.016915698161348698
1772709369520360400,5.8943603515625,0.01783551642000675,0.029132497916743157,-0.018746639915555714
1772709369530385400,5.904385498046875,0.008553893333673476,0.0033497488193213938,-0.021993366751819846
1772709369540410600,5.91441064453125,0.04054536087810993,-0.014126213573291897,-0.029064108855649827
1772709369550435300,5.924435302734375,0.05664250919818878,-0.003058949179202318,-0.0040630116552114485
1772709369560460300,5.934460205078125,0.03325929552316666,0.004254588704556227,0.008768558997660875
1772709369570485200,5.9444853515625,0.018735095608234404,0.006304580036923289,0.002618000478670001
1772709369580510500,5.954510498046875,0.03863105168938637,0.003204275934025645,-0.005594239810481667
1772709369590534400,5.964534423828125,0.05240823262929916,-0.008954510023817419,-0.00895187967531383
1772709369600559400,5.974559326171875,0.042996261161565776,-0.008108122327551245,0.0069505497902631755
1772709369610584600,5.98458447265625,0.018630466189980505,-0.0057168432768434285,0.012041004797071217
1772709369620609300,5.994609375,0.019379238730669022,0.0012353139486163853,-0.009342267232388258
1772709369630634200,6.00463427734375,0.04600070367455482,-0.006255553263425827,-0.004092895336821675
1772709369640659500,6.014659423828125,0.042400633355975145,-0.023324030833691358,0.006998042193800211
1772709369650684400,6.024684326171875,0.037440380600094796,-0.008135375660657883,-0.00614931640997529
1772709369660709400,6.03470947265625,0.038321255087852474,0.01258271045833826,0.005654810891300439
1772709369670734300,6.044734375,0.03534603866934776,0.01113134260624647,-0.006323211672157049
1772709369680759600,6.054759521484375,0.04732055410146713,0.009789864869415759,0.0007462152574211359
1772709369690784500,6.064784423828125,0.03983516678214073,0.00042918519750237465,-0.00506985061019659
1772709369700809500,6.0748095703125,0.045370589077472684,-0.014712196767702699,-0.016936594818904995
1772709369710833400,6.08483349609375,0.03428513143956661,-0.005700257468223571,-0.003071735595539212
1772709369720858400,6.0948583984375,0.02514671621620655,-0.0010266396339982746,-0.005141089215502143
1772709369730883300,6.10488330078125,0.039510757133364674,-0.006335121305659413,-0.017772899512574075
1772709369740908300,6.114908203125,0.045344870114326474,-0.01794365296959877,-0.005563333215564489
1772709369750933500,6.12493359375,0.034282793352007866,-0.03135828420743346,-0.003545928978547454
1772709369760958500,6.13495849609375,0.05118716640174389,0.006671659783646464,-0.018619068013131616
1772709369770983400,6.1449833984375,0.03861526959836483,0.014060600991174578,-0.02451397127062082
1772709369781008400,6.15500830078125,0.043563247394561765,-0.002655629075318575,-0.004639861695095896
1772709369791033600,6.16503369140625,0.037892216020822524,-0.009663023619353771,-0.009937748907506466
1772709369801058300,6.175058349609375,0.04104220448434353,-0.017476400784030555,-0.009937529711797833
1772709369811083300,6.185083251953125,0.04403378751575947,-0.014924305148422717,-0.016240429248288273
1772709369821108200,6.195108154296875,0.02921089691519737,-0.005829217610135674,-0.003284793824329972
1772709369831132400,6.20513232421875,0.017099018839001653,0.0039312019690871235,0.010750818856060504
1772709369841157400,6.215157470703125,0.04404197082221508,0.00411824897378683,0.010260697251558303
1772709369851182300,6.225182373046875,0.040000001955032345,-0.0026125936511904,-0.010110913517326115
1772709369861207600,6.23520751953125,0.04567629402577877,-0.0012075491588562726,-0.00835617880448699
1772709369871232500,6.245232421875,0.03760521577298641,0.0023873335279524324,0.02211005193404853
1772709369881257200,6.25525732421875,0.03342997591495514,-0.000621054507791996,0.005408727175742387
1772709369891282400,6.265282470703125,0.048857262149453164,-0.005110986338183283,-0.008602920107170939
1772709369901307400,6.275307373046875,0.04617313763201236,-0.026203166466578838,-0.0008317015837877988
1772709369911332400,6.285332275390625,0.03614975626766682,-0.02311214164867997,-0.0019719576600939035
1772709369921357300,6.295357421875,0.032409985217452045,-0.007225348143652081,-0.006966404946520924
1772709369931382500,6.305382568359375,0.02223871981501579,0.0036306846525520084,0.0029930443361401555
1772709369941407500,6.315407470703125,0.030178865164518353,0.019443463073298334,-0.007301993576437234
1772709369951431400,6.325431396484375,0.0381067355543375,0.00012939853332936762,-0.010416180074214935
1772709369961456400,6.335456298828125,0.03317863150238991,-0.0006142594408243894,-0.005777852749079465
1772709369971481300,6.3454814453125,0.02914601498544216,0.008760302625969052,-0.01040237074457109
1772709369981506300,6.35550634765625,0.024673838007450103,-0.004257292118296027,-0.0031464082669466734
1772709369991531300,6.36553125,0.042649055159091946,-0.002624503284692764,-0.00873524124994874
1772709370001556500,6.375556396484375,0.04971124863028526,0.007395663209259509,-0.0038045068494975565
1772709370011581400,6.38558154296875,0.03297112623155117,-0.004462020910158753,-0.002632905786857009
1772709370021606400,6.3956064453125,0.03539280042052269,0.0032148703932762144,-0.011464593148604034
1772709370031631400,6.40563134765625,0.024347674793004988,-0.008857625520601868,-0.008023512784019112
1772709370041656600,6.415656494140625,0.029757424882054326,-0.027454408636689184,-0.0012248656198382377
1772709370051681500,6.425681640625,0.06132277596890926,-0.018909283131361008,-0.0067618222851306194
1772709370061706200,6.435706298828125,0.052635027122497555,0.0007204232290387153,-0.008817731901630758
1772709370071730400,6.44573046875,0.026443185767531394,0.016431129514798522,-0.018397022760286926
1772709370081755400,6.45575537109375,0.006082534784078598,0.006198197053000331,-0.027888562270253894
1772709370091780400,6.4657802734375,0.024165303963422775,-0.009167349056899548,-0.029147987746819853
1772709370101805600,6.4758056640625,0.057926703789830204,-0.019327070152014493,-0.016462036109715698
1772709370111830500,6.48583056640625,0.05085281988084316,0.0005390022475272417,0.010580211529508233
1772709370121855500,6.49585546875,0.02928279310762882,0.022707725566253063,0.007595861956477165
1772709370131880200,6.505880126953125,0.03720540280044079,0.01602006449587643,-0.01909771837554872
1772709370141905400,6.515905517578125,0.057712768778204915,0.004276727471128106,-0.0026605244461447
1772709370151930400,6.525930419921875,0.06686053635179996,-0.012358692444115877,-0.0010489975962787866
1772709370161955300,6.535955322265625,0.039210897403955454,-0.014394289924949406,0.003736994571238756
1772709370171980300,6.545980224609375,0.010956862822175025,-0.004920359136909246,0.004480214153975248
1772709370182004500,6.55600439453125,0.026376550272107124,-0.019106997660547492,-0.01112418221309781
1772709370192029400,6.566029541015625,0.06244681156277656,-0.018919220003485678,-0.0017018354818224906
1772709370202054400,6.576054443359375,0.047778234741091725,-0.007675649194419384,-0.019515651526674626
1772709370212079400,6.586079345703125,0.01050093574821949,0.001914309188723564,-0.010173018968105315
1772709370222104300,6.596104248046875,0.023360417321324347,0.005083952200785279,0.006919716260582208
1772709370232129300,6.60612939453125,0.02350537874996662,0.0029538083042949435,0.004655643786117434
1772709370242154200,6.616154296875,0.031741292175650596,-0.01655972433052957,-0.009914294966682792
1772709370252179500,6.626179443359375,0.036680502143502235,-0.02038490864187479,-0.014932853781059383
1772709370262203600,6.63620361328125,0.016775193712115288,0.00037599370554089543,-0.014498115625604987
1772709370272228600,6.646228515625,0.024257658421993254,-0.007053498708084225,-0.007193272504955529
1772709370282253800,6.65625390625,0.04222060061395168,-0.0015441607020795344,-0.008157879753410816
1772709370292278800,6.66627880859375,0.03397358127236366,-0.001625701505690813,-0.013511515741050242
1772709370302302700,6.676302734375,0.04264847063720226,-0.001770224542915821,0.00035831191837787623
1772709370312328000,6.686327880859375,0.03548457035720348,0.004557371043413877,-0.0024703356362879274
1772709370322353000,6.696352783203125,0.04358195209503173,0.004949804427102208,-0.006404825541004538
1772709370332377600,6.706377685546875,0.028342881909012792,0.019859058136865497,-0.017395371437072753
1772709370342402800,6.71640283203125,0.036900866895914076,0.005620762491226196,-0.0038251843113452193
1772709370352427800,6.726427734375,0.04561433470547199,-0.012954174119234085,-0.003807867850363254
1772709370362452700,6.73645263671875,0.04458732974529266,-0.019053879233822225,-0.015747896490991113
1772709370372477700,6.746477783203125,0.04128887272179126,-0.003043240153416991,-0.023647198373451826
1772709370382503000,6.7565029296875,0.029320202508568764,0.0011418635115027426,0.008949979979172348
1772709370392528000,6.76652783203125,0.025574586239457128,-0.00046184535808861253,-0.009583601707592607
1772709370402552800,6.776552734375,0.03037351095378399,0.010114712909609079,-0.0007587094128131866
1772709370412576800,6.78657666015625,0.06365560283064842,0.04731872747056186,-0.015466595331579446
1772709370422601700,6.796601806640625,0.06236614754199981,0.0472244733158499,-0.032495983000472184
1772709370432626700,6.806626708984375,0.03682663261592388,0.002782762586325407,-0.002060951117798686
1772709370442651600,6.816651611328125,0.02250233918726444,0.0022327274881303307,-0.01376958215534687
1772709370452676900,6.8266767578125,0.02041442699730396,-0.034131036856397984,0.0029125264458358287
1772709370462701800,6.836701904296875,0.013989946907758712,-0.03552402558475733,0.006870689487084746
1772709370472726800,6.846726806640625,0.05235445661544799,-0.01825494740847498,0.013446633811295032
1772709370482751700,6.856751708984375,0.05859072065651416,-0.04769172550141811,0.017529519210755823
1772709370492777000,6.86677685546875,0.015619009414315222,-0.07994728734213859,0.01652311864718795
1772709370502802000,6.876802001953125,-0.02689502118825912,-0.0724593062069267,-0.039512510699033734
1772709370512826600,6.88682666015625,0.0012847791135311127,-0.01592434903644025,-0.07259191961064934
1772709370522850800,6.896850830078125,0.0627063392817974,0.021232026990503073,-0.03100589057318866
1772709370532875800,6.906875732421875,0.05159516268074512,0.058041343145444985,0.030806568608805537
1772709370542900700,6.916900634765625,0.04486497764289379,0.06624474254101514,0.08521678871028125
