time,seconds_elapsed,z,y,x
1772725470238327000,0.1023271484375,9.291330337524414,3.682554006576538,-0.6245267391204834
1772725470247843800,0.11184375,9.343972206115723,3.6705899238586426,-0.605384111404419
1772725470257360400,0.1213603515625,9.312865257263184,3.665804386138916,-0.5790630578994751
1772725470266877200,0.130877197265625,9.34157943725586,3.6634113788604736,-0.5359922647476196
1772725470276394000,0.14039404296875,9.391828536987305,3.6442689895629883,-0.5359922647476196
1772725470285910800,0.149910888671875,9.346364974975586,3.658625841140747,-0.5910272002220154
1772725470295427600,0.159427490234375,9.272188186645508,3.6538400650024414,-0.5934200286865234
1772725470304944400,0.1689443359375,9.205188751220703,3.6681971549987793,-0.576670229434967
1772725470314461200,0.178461181640625,9.176474571228027,3.656233072280884,-0.5551348328590393
1772725470323978000,0.18797802734375,9.186046600341797,3.6610186100006104,-0.5790630578994751
1772725470333494800,0.197494873046875,9.241081237792969,3.658625841140747,-0.6149554252624512
1772725470343011600,0.207011474609375,9.298508644104004,3.641875982284546,-0.6508477330207825
1772725470352528400,0.2165283203125,9.336793899536133,3.6227335929870605,-0.638883650302887
1772725470362045200,0.226045166015625,9.336793899536133,3.6131622791290283,-0.6269195079803467
1772725470371562000,0.23556201171875,9.317651748657227,3.5820555686950684,-0.6245267391204834
1772725470381078500,0.24507861328125,9.284152030944824,3.5916268825531006,-0.6149554252624512
1772725470390595600,0.254595703125,9.183652877807617,3.603590965270996,-0.6556333899497986
1772725470400112000,0.264112060546875,9.145368576049805,3.5988051891326904,-0.6771687865257263
1772725470409629000,0.27362890625,9.109476089477539,3.586841106414795,-0.6556333899497986
1772725470419145700,0.283145751953125,9.126225471496582,3.548556089401245,-0.6269195079803467
1772725470428662500,0.29266259765625,9.133403778076172,3.5198421478271484,-0.5862415432929993
1772725470438179300,0.302179443359375,9.20997428894043,3.5270206928253174,-0.5575276613235474
1772725470447696100,0.311696044921875,9.339186668395996,3.541377544403076,-0.5862415432929993
1772725470457213000,0.321212890625,9.44447135925293,3.548556089401245,-0.6604190468788147
1772725470466729700,0.330729736328125,9.418149948120117,3.5772697925567627,-0.6699903607368469
1772725470476246500,0.34024658203125,9.343972206115723,3.5916268825531006,-0.6173482537269592
1772725470485763300,0.349763427734375,9.21715259552002,3.589233875274658,-0.5455635786056519
1772725470495280000,0.359280029296875,9.133403778076172,3.5772697925567627,-0.5455635786056519
1772725470504797000,0.368796875,9.159725189208984,3.5844483375549316,-0.5694918036460876
1772725470514313700,0.378313720703125,9.286544799804688,3.562912940979004,-0.5694918036460876
1772725470523830500,0.38783056640625,9.384650230407715,3.5748770236968994,-0.5862415432929993
1772725470533347300,0.397347412109375,9.437292098999023,3.5748770236968994,-0.5886343717575073
1772725470542864100,0.406864013671875,9.42054271697998,3.562912940979004,-0.5359922647476196
1772725470552381000,0.416380859375,9.379864692687988,3.572484254837036,-0.5407779216766357
1772725470561897500,0.4258974609375,9.298508644104004,3.579662561416626,-0.5335994362831116
1772725470571414300,0.435414306640625,9.267401695251465,3.570091485977173,-0.5575276613235474
1772725470580931000,0.44493115234375,9.19561767578125,3.627519130706787,-0.6125625967979431
1772725470590448000,0.4544482421875,9.200403213500977,3.5844483375549316,-0.6364908218383789
1772725470599964700,0.463964599609375,9.207581520080566,3.617947816848755,-0.641276478767395
1772725470609481500,0.4734814453125,9.174081802368164,3.601198196411133,-0.6149554252624512
1772725470618998300,0.482998291015625,9.241081237792969,3.5509488582611084,-0.6245267391204834
1772725470628515000,0.49251513671875,9.32722282409668,3.5844483375549316,-0.6293123364448547
1772725470638032000,0.502031982421875,9.33440113067627,3.5772697925567627,-0.5958128571510315
1772725470647548700,0.511548583984375,9.377471923828125,3.5294134616851807,-0.5359922647476196
1772725470657065500,0.5210654296875,9.403793334960938,3.4959139823913574,-0.5312066078186035
1772725470666582300,0.530582275390625,9.363115310668945,3.4959139823913574,-0.5024927258491516
1772725470676099000,0.54009912109375,9.293723106384277,3.452843189239502,-0.44027936458587646
1772725470685615900,0.549615966796875,9.272188186645508,3.4337005615234375,-0.3756731450557709
1772725470695132700,0.559132568359375,9.253045082092285,3.5054850578308105,-0.43549370765686035
1772725470704649500,0.5686494140625,9.260223388671875,3.5844483375549316,-0.6819544434547424
1772725470714166300,0.578166259765625,9.262616157531738,3.665804386138916,-0.8207381963729858
1772725470723683000,0.58768310546875,9.190832138061523,3.7328033447265625,-0.7657032608985901
1772725470733200000,0.597199951171875,9.186046600341797,3.706482172012329,-0.7393822073936462
1772725470742716700,0.606716552734375,9.138189315795898,3.617947816848755,-0.698704183101654
1772725470752233200,0.616233154296875,9.142974853515625,3.555734395980835,-0.6269195079803467
1772725470761750300,0.625750244140625,9.286544799804688,3.5676984786987305,-0.6221339106559753
1772725470771267000,0.63526708984375,9.360722541809082,3.5820555686950684,-0.7034898400306702
1772725470780783600,0.64478369140625,9.4061861038208,3.594019651412964,-0.7537391185760498
1772725470790300400,0.654300537109375,9.33440113067627,3.570091485977173,-0.6795616149902344
1772725470799817200,0.663817138671875,9.34157943725586,3.4983067512512207,-0.576670229434967
1772725470809334000,0.673333984375,9.372686386108398,3.4743785858154297,-0.5359922647476196
1772725470818850800,0.682850830078125,9.363115310668945,3.493520975112915,-0.5551348328590393
1772725470828367600,0.69236767578125,9.269794464111328,3.6299118995666504,-0.6293123364448547
1772725470837884400,0.701884521484375,9.253045082092285,3.7088751792907715,-0.7082754969596863
1772725470847401200,0.711401123046875,9.245866775512695,3.6323046684265137,-0.6819544434547424
1772725470856918000,0.72091796875,9.276973724365234,3.594019651412964,-0.5718846321105957
1772725470866434800,0.730434814453125,9.21715259552002,3.6227335929870605,-0.5168496966362
1772725470875951600,0.73995166015625,9.135796546936035,3.601198196411133,-0.5144568681716919
1772725470885468400,0.749468505859375,9.09272575378418,3.620340585708618,-0.5407779216766357
1772725470894985200,0.758985107421875,9.06401252746582,3.6059837341308594,-0.5312066078186035
1772725470904502000,0.768501953125,9.059226989746094,3.594019651412964,-0.5072783827781677
1772725470914018800,0.778018798828125,9.145368576049805,3.5844483375549316,-0.5048855543136597
1772725470923535600,0.78753564453125,9.250652313232422,3.6059837341308594,-0.5599204897880554
1772725470933052400,0.797052490234375,9.308079719543457,3.6155550479888916,-0.5910272002220154
1772725470942569200,0.8065693359375,9.30329418182373,3.620340585708618,-0.6173482537269592
1772725470952086000,0.8160859375,9.29611587524414,3.641875982284546,-0.5599204897880554
1772725470961602800,0.825602783203125,9.281759262084961,3.6323046684265137,-0.5359922647476196
1772725470971119400,0.835119384765625,9.250652313232422,3.625126361846924,-0.46420758962631226
1772725470980636400,0.844636474609375,9.243474006652832,3.6299118995666504,-0.4666004180908203
1772725470990153200,0.8541533203125,9.312865257263184,3.6466617584228516,-0.4905286431312561
1772725470999669800,0.863669677734375,9.317651748657227,3.672982692718506,-0.5240281820297241
1772725471009186600,0.8731865234375,9.317651748657227,3.6777684688568115,-0.5120640397071838
1772725471018703400,0.882703369140625,9.291330337524414,3.6777684688568115,-0.5240281820297241
1772725471028220400,0.892220458984375,9.226723670959473,3.6538400650024414,-0.5048855543136597
1772725471037737000,0.901737060546875,9.162117958068848,3.672982692718506,-0.5264210104942322
1772725471047253800,0.911253662109375,9.128618240356445,3.634697675704956,-0.5072783827781677
1772725471056770600,0.9207705078125,9.138189315795898,3.6323046684265137,-0.5096712112426758
1772725471066287400,0.930287353515625,9.107083320617676,3.649054527282715,-0.5312066078186035
1772725471075804200,0.93980419921875,9.116654396057129,3.6323046684265137,-0.5072783827781677
1772725471085321000,0.949321044921875,9.126225471496582,3.586841106414795,-0.4666004180908203
1772725471094837800,0.958837646484375,9.147761344909668,3.596412420272827,-0.4378865361213684
1772725471104354600,0.9683544921875,9.214759826660156,3.6059837341308594,-0.43549370765686035
1772725471113871400,0.977871337890625,9.298508644104004,3.6131622791290283,-0.4953143000602722
1772725471123388200,0.98738818359375,9.305686950683594,3.6323046684265137,-0.48095735907554626
1772725471132905000,0.996905029296875,9.34157943725586,3.6323046684265137,-0.4905286431312561
1772725471142421800,1.006421875,9.34875774383545,3.634697675704956,-0.5335994362831116
1772725471151938600,1.0159384765625,9.358329772949219,3.6323046684265137,-0.5168496966362
1772725471161455400,1.025455322265625,9.315258979797363,3.6155550479888916,-0.4570291340351105
1772725471170972200,1.03497216796875,9.279366493225098,3.6131622791290283,-0.45942193269729614
1772725471180489000,1.044489013671875,9.305686950683594,3.579662561416626,-0.4905286431312561
1772725471190005800,1.054005859375,9.308079719543457,3.6227335929870605,-0.48574298620224
1772725471199522600,1.0635224609375,9.33440113067627,3.634697675704956,-0.5096712112426758
1772725471209039400,1.073039306640625,9.31047248840332,3.6299118995666504,-0.5288137793540955
1772725471218556200,1.08255615234375,9.276973724365234,3.627519130706787,-0.5000999569892883
1772725471228073000,1.092072998046875,9.22433090209961,3.625126361846924,-0.5000999569892883
1772725471237589800,1.10158984375,9.166903495788574,3.6323046684265137,-0.5000999569892883
1772725471247106600,1.1111064453125,9.147761344909668,3.649054527282715,-0.48095735907554626
1772725471256623000,1.120623046875,9.166903495788574,3.6442689895629883,-0.4570291340351105
1772725471266140200,1.13014013671875,9.183652877807617,3.625126361846924,-0.4666004180908203
1772725471275657000,1.139656982421875,9.190832138061523,3.6394832134246826,-0.44745782017707825
1772725471285173800,1.149173828125,9.198010444641113,3.6394832134246826,-0.4378865361213684
1772725471294690300,1.158690185546875,9.253045082092285,3.6299118995666504,-0.4426721930503845
1772725471304207400,1.168207275390625,9.29611587524414,3.617947816848755,-0.48095735907554626
1772725471313724200,1.17772412109375,9.32004451751709,3.5844483375549316,-0.47617170214653015
1772725471323240700,1.18724072265625,9.308079719543457,3.565305709838867,-0.4570291340351105
1772725471332757500,1.196757568359375,9.243474006652832,3.5605201721191406,-0.4498506486415863
1772725471342274300,1.2062744140625,9.20279598236084,3.5916268825531006,-0.44745782017707825
1772725471351791400,1.215791259765625,9.205188751220703,3.6227335929870605,-0.48813581466674805
1772725471361308000,1.225307861328125,9.164510726928711,3.620340585708618,-0.5096712112426758
1772725471370824700,1.23482470703125,9.109476089477539,3.6227335929870605,-0.5359922647476196
1772725471380341500,1.244341552734375,9.083154678344727,3.6442689895629883,-0.5240281820297241
1772725471389858300,1.2538583984375,9.090332984924316,3.610769271850586,-0.519242525100708
1772725471399375000,1.263375,9.138189315795898,3.601198196411133,-0.4905286431312561
1772725471408892000,1.272891845703125,9.269794464111328,3.6155550479888916,-0.48813581466674805
1772725471418408700,1.28240869140625,9.322437286376953,3.6323046684265137,-0.4546363055706024
1772725471427925500,1.291925537109375,9.32004451751709,3.6323046684265137,-0.4450650215148926
1772725471437442300,1.3014423828125,9.293723106384277,3.617947816848755,-0.4450650215148926
1772725471446959000,1.310958984375,9.272188186645508,3.596412420272827,-0.44027936458587646
1772725471456476000,1.320475830078125,9.272188186645508,3.6227335929870605,-0.45224347710609436
1772725471465992700,1.32999267578125,9.255437850952148,3.6394832134246826,-0.45224347710609436
1772725471475509500,1.339509521484375,9.274580955505371,3.6466617584228516,-0.46899324655532837
1772725471485026300,1.3490263671875,9.34157943725586,3.625126361846924,-0.49292147159576416
1772725471494543000,1.358543212890625,9.42772102355957,3.603590965270996,-0.5000999569892883
1772725471504060000,1.368059814453125,9.430113792419434,3.570091485977173,-0.4833501875400543
1772725471513576700,1.37757666015625,9.317651748657227,3.5437703132629395,-0.4450650215148926
1772725471523093500,1.387093505859375,9.257830619812012,3.5820555686950684,-0.4307080805301666
1772725471532610300,1.3966103515625,9.229117393493652,3.5748770236968994,-0.45942193269729614
1772725471542127000,1.406127197265625,9.169296264648438,3.603590965270996,-0.46899324655532837
1772725471551644000,1.415643798828125,9.157332420349121,3.6083765029907227,-0.5216353535652161
1772725471561160700,1.42516064453125,9.159725189208984,3.5988051891326904,-0.5407779216766357
1772725471570677500,1.434677490234375,9.169296264648438,3.5916268825531006,-0.5455635786056519
1772725471580194300,1.4441943359375,9.17886734008789,3.625126361846924,-0.519242525100708
1772725471589711000,1.453711181640625,9.207581520080566,3.620340585708618,-0.5168496966362
1772725471599228000,1.463227783203125,9.284152030944824,3.5988051891326904,-0.5024927258491516
1772725471608744700,1.47274462890625,9.360722541809082,3.5581271648406982,-0.5120640397071838
1772725471618261500,1.482261474609375,9.394221305847168,3.5676984786987305,-0.519242525100708
1772725471627778300,1.4917783203125,9.343972206115723,3.603590965270996,-0.5048855543136597
1772725471637295000,1.501295166015625,9.257830619812012,3.6370904445648193,-0.4666004180908203
1772725471646812000,1.51081201171875,9.169296264648438,3.610769271850586,-0.4259224236011505
1772725471656328700,1.52032861328125,9.104690551757812,3.6131622791290283,-0.4259224236011505
1772725471665845500,1.529845458984375,9.121439933776855,3.620340585708618,-0.42831525206565857
1772725471675362300,1.5393623046875,9.205188751220703,3.617947816848755,-0.4546363055706024
1772725471684879000,1.548879150390625,9.233902931213379,3.572484254837036,-0.4618147611618042
1772725471694396000,1.55839599609375,9.332008361816406,3.570091485977173,-0.4546363055706024
1772725471703912700,1.56791259765625,9.454042434692383,3.579662561416626,-0.45224347710609436
1772725471713429500,1.577429443359375,9.485149383544922,3.572484254837036,-0.45942193269729614
1772725471722946300,1.5869462890625,9.432506561279297,3.5772697925567627,-0.4378865361213684
1772725471732463000,1.596463134765625,9.324830055236816,3.5916268825531006,-0.41874396800994873
1772725471741980000,1.60597998046875,9.22433090209961,3.5748770236968994,-0.39960137009620667
1772725471751496400,1.615496337890625,9.157332420349121,3.610769271850586,-0.4426721930503845
1772725471761013500,1.625013427734375,9.126225471496582,3.617947816848755,-0.4163511395454407
1772725471770530300,1.6345302734375,9.087940216064453,3.6131622791290283,-0.4259224236011505
1772725471780046800,1.644046875,9.083154678344727,3.6131622791290283,-0.42831525206565857
1772725471789564000,1.65356396484375,9.097511291503906,3.617947816848755,-0.4211367964744568
1772725471799080700,1.663080810546875,9.164510726928711,3.579662561416626,-0.41874396800994873
1772725471808597500,1.672597412109375,9.253045082092285,3.5844483375549316,-0.4139583110809326
1772725471818114000,1.682114013671875,9.375079154968262,3.589233875274658,-0.46420758962631226
1772725471827631000,1.691631103515625,9.399007797241211,3.627519130706787,-0.5048855543136597
1772725471837148000,1.70114794921875,9.360722541809082,3.6083765029907227,-0.4977070987224579
1772725471846664400,1.71066455078125,9.315258979797363,3.6131622791290283,-0.45224347710609436
1772725471856181200,1.72018115234375,9.329615592956543,3.586841106414795,-0.4378865361213684
1772725471865698300,1.7296982421875,9.375079154968262,3.5844483375549316,-0.45224347710609436
1772725471875215000,1.739215087890625,9.382257461547852,3.594019651412964,-0.4666004180908203
1772725471884731600,1.748731689453125,9.305686950683594,3.6059837341308594,-0.44745782017707825
1772725471894248400,1.75824853515625,9.255437850952148,3.6131622791290283,-0.4450650215148926
1772725471903765500,1.767765625,9.200403213500977,3.610769271850586,-0.40677985548973083
1772725471913282300,1.7772822265625,9.123832702636719,3.6155550479888916,-0.43549370765686035
1772725471922798800,1.786798828125,9.109476089477539,3.6059837341308594,-0.4043870270252228
1772725471932315600,1.796315673828125,9.090332984924316,3.596412420272827,-0.3924229145050049
1772725471941832400,1.80583251953125,9.116654396057129,3.594019651412964,-0.4019941985607147
1772725471951349200,1.815349365234375,9.131011009216309,3.6131622791290283,-0.4378865361213684
1772725471960866000,1.824865966796875,9.190832138061523,3.596412420272827,-0.4785645306110382
1772725471970382800,1.8343828125,9.231510162353516,3.589233875274658,-0.4307080805301666
1772725471979900000,1.84389990234375,9.265008926391602,3.562912940979004,-0.4139583110809326
1772725471989416400,1.85341650390625,9.343972206115723,3.572484254837036,-0.4307080805301666
1772725471998933200,1.862933349609375,9.365508079528809,3.570091485977173,-0.4163511395454407
1772725472008450300,1.8724501953125,9.389435768127441,3.5820555686950684,-0.3852444589138031
1772725472017966800,1.881966796875,9.365508079528809,3.589233875274658,-0.349352091550827
1772725472027483600,1.891483642578125,9.34157943725586,3.5916268825531006,-0.3613162338733673
1772725472037000400,1.90100048828125,9.336793899536133,3.596412420272827,-0.3900300860404968
1772725472046517500,1.910517578125,9.291330337524414,3.6083765029907227,-0.39960137009620667
1772725472056034000,1.920033935546875,9.262616157531738,3.601198196411133,-0.39960137009620667
1772725472065550800,1.92955078125,9.267401695251465,3.6059837341308594,-0.39960137009620667
1772725472075068000,1.93906787109375,9.255437850952148,3.562912940979004,-0.39481574296951294
1772725472084584400,1.94858447265625,9.274580955505371,3.5844483375549316,-0.4307080805301666
1772725472094101200,1.958101318359375,9.284152030944824,3.570091485977173,-0.4498506486415863
1772725472103618000,1.9676181640625,9.198010444641113,3.586841106414795,-0.45942193269729614
1772725472113135000,1.977135009765625,9.116654396057129,3.5748770236968994,-0.46420758962631226
1772725472122651600,1.986651611328125,9.107083320617676,3.5748770236968994,-0.48574298620224
1772725472132168400,1.99616845703125,9.121439933776855,3.538984775543213,-0.4905286431312561
1772725472141685200,2.005685302734375,9.164510726928711,3.5150563716888428,-0.4713860750198364
1772725472151202300,2.015202392578125,9.183652877807617,3.517449378967285,-0.44745782017707825
1772725472160718800,2.02471875,9.22433090209961,3.5533416271209717,-0.3900300860404968
1772725472170235600,2.034235595703125,9.22433090209961,3.562912940979004,-0.36610186100006104
1772725472179752400,2.04375244140625,9.260223388671875,3.5676984786987305,-0.3517449200153351
1772725472189269200,2.053269287109375,9.279366493225098,3.5820555686950684,-0.3445664644241333
1772725472198786000,2.0627861328125,9.308079719543457,3.594019651412964,-0.3900300860404968
1772725472208302800,2.072302734375,9.30329418182373,3.5916268825531006,-0.4043870270252228
1772725472217820000,2.08181982421875,9.281759262084961,3.620340585708618,-0.4259224236011505
1772725472227336400,2.09133642578125,9.308079719543457,3.6131622791290283,-0.41156548261642456
1772725472236853200,2.100853271484375,9.322437286376953,3.5988051891326904,-0.43549370765686035
1772725472246370300,2.110370361328125,9.346364974975586,3.610769271850586,-0.4618147611618042
1772725472255886800,2.119886962890625,9.317651748657227,3.6227335929870605,-0.44745782017707825
1772725472265403600,2.129403564453125,9.30329418182373,3.603590965270996,-0.44745782017707825
1772725472274920400,2.13892041015625,9.28893756866455,3.6227335929870605,-0.4331009089946747
1772725472293954000,2.1579541015625,9.267401695251465,3.596412420272827,-0.4833501875400543
1772725472303470800,2.167470947265625,9.276973724365234,3.6083765029907227,-0.4546363055706024
1772725472312988000,2.17698779296875,9.351150512695312,3.5820555686950684,-0.46899324655532837
1772725472322504400,2.18650439453125,9.33440113067627,3.572484254837036,-0.4426721930503845
1772725472332021200,2.196021240234375,9.284152030944824,3.5533416271209717,-0.42352959513664246
1772725472341538000,2.2055380859375,9.226723670959473,3.5365917682647705,-0.4498506486415863
1772725472351055000,2.21505517578125,9.190832138061523,3.5054850578308105,-0.4546363055706024
1772725472360571600,2.224571533203125,9.193224906921387,3.524627685546875,-0.4498506486415863
1772725472370088400,2.23408837890625,9.207581520080566,3.5294134616851807,-0.48095735907554626
1772725472379605500,2.24360546875,9.164510726928711,3.524627685546875,-0.5048855543136597
1772725472389122300,2.253122314453125,9.116654396057129,3.548556089401245,-0.48813581466674805
1772725472398638800,2.262638916015625,9.090332984924316,3.531806230545044,-0.4163511395454407
1772725472408156000,2.272156005859375,9.166903495788574,3.531806230545044,-0.4091726839542389
1772725472417672700,2.281672607421875,9.293723106384277,3.5341989994049072,-0.42831525206565857
1772725472427189200,2.291189208984375,9.372686386108398,3.531806230545044,-0.41156548261642456
1772725472436706000,2.3007060546875,9.449256896972656,3.5198421478271484,-0.3900300860404968
1772725472446223000,2.31022314453125,9.454042434692383,3.5030922889709473,-0.42831525206565857
1772725472455740000,2.319739990234375,9.45164966583252,3.5270206928253174,-0.40677985548973083
1772725472465256400,2.32925634765625,9.432506561279297,3.541377544403076,-0.4378865361213684
1772725472474773500,2.3387734375,9.387042999267578,3.541377544403076,-0.41874396800994873
1772725472484290300,2.348290283203125,9.317651748657227,3.5748770236968994,-0.42352959513664246
1772725472493806800,2.357806884765625,9.212367057800293,3.572484254837036,-0.4570291340351105
1772725472503324000,2.367323974609375,9.18843936920166,3.555734395980835,-0.46899324655532837
1772725472512840700,2.3768408203125,9.248259544372559,3.538984775543213,-0.4737788736820221
1772725472522357500,2.386357421875,9.370293617248535,3.562912940979004,-0.5144568681716919
1772725472531874300,2.395874267578125,9.422935485839844,3.5341989994049072,-0.5120640397071838
1772725472541391000,2.40539111328125,9.432506561279297,3.5126636028289795,-0.5072783827781677
1772725472550908000,2.414907958984375,9.408578872680664,3.500699520111084,-0.4666004180908203
1772725472560424400,2.424424560546875,9.372686386108398,3.483949661254883,-0.44745782017707825
1772725472569941500,2.43394140625,9.305686950683594,3.5198421478271484,-0.45942193269729614
1772725472579458300,2.443458251953125,9.248259544372559,3.541377544403076,-0.5000999569892883
1772725472588975000,2.45297509765625,9.20279598236084,3.5605201721191406,-0.46899324655532837
1772725472598492000,2.462491943359375,9.150154113769531,3.548556089401245,-0.4666004180908203
1772725472608008700,2.4720087890625,9.114261627197266,3.5437703132629395,-0.4331009089946747
1772725472617525500,2.481525390625,9.126225471496582,3.5461630821228027,-0.41874396800994873
1772725472627042300,2.491042236328125,9.193224906921387,3.5605201721191406,-0.4307080805301666
1772725472636559000,2.50055908203125,9.250652313232422,3.5605201721191406,-0.44745782017707825
1772725472646076000,2.510075927734375,9.355937004089355,3.5461630821228027,-0.48095735907554626
1772725472655592700,2.5195927734375,9.446864128112793,3.5222349166870117,-0.48813581466674805
1772725472665109500,2.529109619140625,9.391828536987305,3.5198421478271484,-0.5024927258491516
1772725472674626300,2.538626220703125,9.336793899536133,3.5270206928253174,-0.48574298620224
1772725472684143000,2.54814306640625,9.32004451751709,3.531806230545044,-0.47617170214653015
1772725472693660000,2.557659912109375,9.308079719543457,3.517449378967285,-0.4426721930503845
1772725472703176700,2.5671767578125,9.286544799804688,3.541377544403076,-0.4139583110809326
1772725472712693500,2.576693603515625,9.284152030944824,3.5341989994049072,-0.38763725757598877
1772725472722210300,2.586210205078125,9.233902931213379,3.538984775543213,-0.39960137009620667
1772725472731727000,2.59572705078125,9.169296264648438,3.5270206928253174,-0.43549370765686035
1772725472741244000,2.605243896484375,9.142974853515625,3.538984775543213,-0.4211367964744568
1772725472750760700,2.6147607421875,9.164510726928711,3.5270206928253174,-0.41874396800994873
1772725472760277500,2.624277587890625,9.219545364379883,3.5198421478271484,-0.4139583110809326
1772725472769794300,2.633794189453125,9.248259544372559,3.548556089401245,-0.40677985548973083
1772725472779311000,2.64331103515625,9.250652313232422,3.5509488582611084,-0.4139583110809326
1772725472788828000,2.652827880859375,9.219545364379883,3.531806230545044,-0.4498506486415863
1772725472798344700,2.6623447265625,9.198010444641113,3.5341989994049072,-0.46420758962631226
1772725472807861500,2.671861572265625,9.198010444641113,3.5030922889709473,-0.4785645306110382
1772725472817378300,2.68137841796875,9.226723670959473,3.5054850578308105,-0.4666004180908203
1772725472826895000,2.69089501953125,9.284152030944824,3.4815568923950195,-0.45942193269729614
1772725472836412000,2.700411865234375,9.343972206115723,3.493520975112915,-0.4666004180908203
1772725472845928700,2.7099287109375,9.332008361816406,3.531806230545044,-0.5072783827781677
1772725472855445500,2.719445556640625,9.276973724365234,3.570091485977173,-0.5312066078186035
1772725472864962300,2.72896240234375,9.236295700073242,3.572484254837036,-0.5048855543136597
1772725472874479000,2.73847900390625,9.243474006652832,3.517449378967285,-0.5120640397071838
1772725472883996000,2.747995849609375,9.245866775512695,3.5222349166870117,-0.5335994362831116
1772725472893512700,2.7575126953125,9.30329418182373,3.5150563716888428,-0.5240281820297241
1772725472903029500,2.767029541015625,9.30329418182373,3.4983067512512207,-0.4977070987224579
1772725472912546300,2.77654638671875,9.274580955505371,3.5054850578308105,-0.4618147611618042
1772725472922063000,2.78606298828125,9.229117393493652,3.5341989994049072,-0.38763725757598877
1772725472931580000,2.795579833984375,9.133403778076172,3.524627685546875,-0.38285163044929504
1772725472941096700,2.8050966796875,9.087940216064453,3.5294134616851807,-0.3756731450557709
1772725472950613800,2.81461376953125,9.157332420349121,3.5222349166870117,-0.3924229145050049
1772725472960130300,2.82413037109375,9.28893756866455,3.500699520111084,-0.4163511395454407
1772725472969647000,2.833647216796875,9.439684867858887,3.4791641235351562,-0.4666004180908203
1772725472979164200,2.8431640625,9.487542152404785,3.4504501819610596,-0.4977070987224579
1772725472988680700,2.8526806640625,9.504291534423828,3.460021495819092,-0.4977070987224579
1772725472998197500,2.862197509765625,9.501898765563965,3.436093330383301,-0.49292147159576416
1772725473007714600,2.871714599609375,9.454042434692383,3.438486099243164,-0.45942193269729614
1772725473017231400,2.8812314453125,9.399007797241211,3.4576287269592285,-0.44745782017707825
1772725473026748000,2.890747802734375,9.284152030944824,3.5030922889709473,-0.4666004180908203
1772725473036265000,2.900264892578125,9.17886734008789,3.5533416271209717,-0.48095735907554626
1772725473045781800,2.90978173828125,9.080761909484863,3.5533416271209717,-0.4713860750198364
1772725473055298300,2.91929833984375,9.049654960632324,3.548556089401245,-0.4211367964744568
1772725473064815000,2.928815185546875,9.150154113769531,3.517449378967285,-0.44027936458587646
1772725473074332200,2.938332275390625,9.214759826660156,3.5198421478271484,-0.4737788736820221
1772725473083849000,2.947848876953125,9.284152030944824,3.5222349166870117,-0.5288137793540955
1772725473093365800,2.95736572265625,9.336793899536133,3.538984775543213,-0.5479564070701599
1772725473102882600,2.966882568359375,9.396614074707031,3.555734395980835,-0.5934200286865234
1772725473112399400,2.9763994140625,9.42772102355957,3.5222349166870117,-0.5455635786056519
1772725473121916200,2.985916259765625,9.480362892150879,3.524627685546875,-0.5144568681716919
1772725473131433000,2.995432861328125,9.482755661010742,3.507878065109253,-0.48095735907554626
1772725473140949800,3.00494970703125,9.372686386108398,3.5150563716888428,-0.4570291340351105
1772725473150466600,3.014466552734375,9.255437850952148,3.5198421478271484,-0.3900300860404968
1772725473159983400,3.0239833984375,9.186046600341797,3.5198421478271484,-0.3756731450557709
1772725473169500200,3.033500244140625,9.183652877807617,3.4815568923950195,-0.39481574296951294
1772725473179017000,3.043016845703125,9.236295700073242,3.4648072719573975,-0.39481574296951294
1772725473188533800,3.05253369140625,9.284152030944824,3.462414264678955,-0.41156548261642456
1772725473198050600,3.062050537109375,9.317651748657227,3.4815568923950195,-0.44745782017707825
1772725473207567400,3.0715673828125,9.29611587524414,3.517449378967285,-0.4905286431312561
1772725473217084200,3.081084228515625,9.276973724365234,3.5054850578308105,-0.4737788736820221
1772725473226601000,3.09060107421875,9.265008926391602,3.524627685546875,-0.47617170214653015
1772725473236117800,3.10011767578125,9.255437850952148,3.548556089401245,-0.4546363055706024
1772725473245634600,3.109634521484375,9.255437850952148,3.510270833969116,-0.4450650215148926
1772725473255151400,3.1191513671875,9.298508644104004,3.510270833969116,-0.4043870270252228
1772725473264668200,3.128668212890625,9.365508079528809,3.4719855785369873,-0.4259224236011505
1772725473274185200,3.138185302734375,9.370293617248535,3.4552359580993652,-0.42352959513664246
1772725473283701800,3.14770166015625,9.377471923828125,3.4552359580993652,-0.4450650215148926
1772725473293218600,3.157218505859375,9.389435768127441,3.4887354373931885,-0.4713860750198364
1772725473302735600,3.166735595703125,9.315258979797363,3.4911282062530518,-0.4905286431312561
1772725473312252200,3.176252197265625,9.269794464111328,3.4743785858154297,-0.4833501875400543
1772725473321769000,3.18576904296875,9.300901412963867,3.4959139823913574,-0.45224347710609436
1772725473331286000,3.1952861328125,9.343972206115723,3.507878065109253,-0.46420758962631226
1772725473340802800,3.204802734375,9.389435768127441,3.507878065109253,-0.5048855543136597
1772725473350319400,3.2143193359375,9.403793334960938,3.486342668533325,-0.47617170214653015
1772725473359836400,3.22383642578125,9.365508079528809,3.500699520111084,-0.47617170214653015
1772725473369353200,3.233353271484375,9.336793899536133,3.476771354675293,-0.4450650215148926
1772725473378870000,3.2428701171875,9.32004451751709,3.4815568923950195,-0.41874396800994873
1772725473388386800,3.25238671875,9.260223388671875,3.486342668533325,-0.4043870270252228
1772725473397903600,3.261903564453125,9.298508644104004,3.4887354373931885,-0.3852444589138031
1772725473407420400,3.27142041015625,9.339186668395996,3.4791641235351562,-0.4091726839542389
1772725473416937200,3.280937255859375,9.336793899536133,3.5126636028289795,-0.45224347710609436
1772725473426454000,3.2904541015625,9.312865257263184,3.510270833969116,-0.4498506486415863
1772725473435970800,3.299970703125,9.291330337524414,3.4959139823913574,-0.4450650215148926
1772725473445487600,3.309487548828125,9.305686950683594,3.500699520111084,-0.42831525206565857
1772725473455004400,3.31900439453125,9.343972206115723,3.5054850578308105,-0.4139583110809326
1772725473464521200,3.328521240234375,9.363115310668945,3.517449378967285,-0.4331009089946747
1772725473474038000,3.3380380859375,9.375079154968262,3.5198421478271484,-0.43549370765686035
1772725473483554800,3.347554931640625,9.394221305847168,3.476771354675293,-0.4043870270252228
1772725473493071600,3.357071533203125,9.4061861038208,3.4815568923950195,-0.44745782017707825
1772725473502588400,3.36658837890625,9.377471923828125,3.4959139823913574,-0.46420758962631226
1772725473512105200,3.376105224609375,9.339186668395996,3.483949661254883,-0.47617170214653015
1772725473521622000,3.3856220703125,9.241081237792969,3.500699520111084,-0.41874396800994873
1772725473531138800,3.395138916015625,9.10229778289795,3.5294134616851807,-0.41156548261642456
1772725473540655600,3.404655517578125,9.025727272033691,3.5437703132629395,-0.4378865361213684
1772725473550172400,3.41417236328125,9.08554744720459,3.5270206928253174,-0.42831525206565857
1772725473559689500,3.423689453125,9.176474571228027,3.5270206928253174,-0.4498506486415863
1772725473569206000,3.4332060546875,9.245866775512695,3.5150563716888428,-0.47617170214653015
1772725473578722800,3.442722900390625,9.279366493225098,3.5198421478271484,-0.4977070987224579
1772725473588240000,3.452239990234375,9.324830055236816,3.5030922889709473,-0.4785645306110382
1772725473597756700,3.461756591796875,9.370293617248535,3.5126636028289795,-0.45224347710609436
1772725473607273200,3.471273193359375,9.415757179260254,3.5341989994049072,-0.4450650215148926
1772725473616790300,3.480790283203125,9.45164966583252,3.5270206928253174,-0.3924229145050049
1772725473626307000,3.49030712890625,9.473184585571289,3.510270833969116,-0.397208571434021
1772725473635823900,3.499823974609375,9.415757179260254,3.5126636028289795,-0.3924229145050049
1772725473645340700,3.509340576171875,9.346364974975586,3.517449378967285,-0.397208571434021
1772725473654857500,3.518857421875,9.267401695251465,3.5341989994049072,-0.3613162338733673
1772725473664374300,3.528374267578125,9.226723670959473,3.5150563716888428,-0.3756731450557709
1772725473673891000,3.53789111328125,9.214759826660156,3.493520975112915,-0.35892340540885925
1772725473683408000,3.547407958984375,9.243474006652832,3.4815568923950195,-0.4019941985607147
1772725473692924700,3.556924560546875,9.257830619812012,3.5054850578308105,-0.4570291340351105
1772725473702441500,3.56644140625,9.253045082092285,3.524627685546875,-0.5383850932121277
1772725473711958300,3.575958251953125,9.248259544372559,3.5270206928253174,-0.5527420043945312
1772725473721475000,3.58547509765625,9.260223388671875,3.541377544403076,-0.5407779216766357
1772725473730991900,3.594991943359375,9.29611587524414,3.5150563716888428,-0.5240281820297241
1772725473740508700,3.6045087890625,9.317651748657227,3.517449378967285,-0.550349235534668
1772725473750025500,3.614025390625,9.31047248840332,3.5030922889709473,-0.519242525100708
1772725473759542300,3.623542236328125,9.31047248840332,3.4815568923950195,-0.4905286431312561
1772725473769059000,3.63305908203125,9.30329418182373,3.507878065109253,-0.4666004180908203
1772725473778576000,3.642575927734375,9.29611587524414,3.5198421478271484,-0.48095735907554626
1772725473788093000,3.652093017578125,9.286544799804688,3.4959139823913574,-0.4737788736820221
1772725473797609500,3.661609375,9.233902931213379,3.538984775543213,-0.4785645306110382
1772725473807126300,3.671126220703125,9.21715259552002,3.5294134616851807,-0.48095735907554626
1772725473816643300,3.680643310546875,9.243474006652832,3.5150563716888428,-0.46420758962631226
1772725473826159900,3.690159912109375,9.32004451751709,3.524627685546875,-0.44745782017707825
1772725473835677000,3.699677001953125,9.343972206115723,3.5270206928253174,-0.4450650215148926
1772725473845193700,3.70919384765625,9.351150512695312,3.5294134616851807,-0.44745782017707825
1772725473854710500,3.71871044921875,9.329615592956543,3.5270206928253174,-0.4426721930503845
1772725473864227300,3.728227294921875,9.300901412963867,3.5222349166870117,-0.44745782017707825
1772725473873744100,3.737744140625,9.286544799804688,3.5365917682647705,-0.4378865361213684
1772725473883261000,3.747260986328125,9.276973724365234,3.5270206928253174,-0.4833501875400543
1772725473892777700,3.75677783203125,9.255437850952148,3.5509488582611084,-0.4953143000602722
1772725473902294500,3.76629443359375,9.243474006652832,3.5365917682647705,-0.4977070987224579
1772725473911811300,3.775811279296875,9.229117393493652,3.565305709838867,-0.5407779216766357
1772725473921328000,3.785328125,9.21715259552002,3.5748770236968994,-0.5312066078186035
1772725473930845000,3.794844970703125,9.236295700073242,3.548556089401245,-0.519242525100708
1772725473940361700,3.80436181640625,9.281759262084961,3.517449378967285,-0.4570291340351105
1772725473949878500,3.81387841796875,9.34157943725586,3.531806230545044,-0.4785645306110382
1772725473959395300,3.823395263671875,9.399007797241211,3.5054850578308105,-0.48574298620224
1772725473968912100,3.832912109375,9.389435768127441,3.5341989994049072,-0.4953143000602722
1772725473978429000,3.842428955078125,9.365508079528809,3.5365917682647705,-0.49292147159576416
1772725473987945700,3.85194580078125,9.298508644104004,3.541377544403076,-0.5120640397071838
1772725473997462500,3.861462646484375,9.243474006652832,3.541377544403076,-0.4570291340351105
1772725474006979600,3.8709794921875,9.262616157531738,3.548556089401245,-0.48574298620224
1772725474016496000,3.88049609375,9.29611587524414,3.5437703132629395,-0.4833501875400543
1772725474026013200,3.89001318359375,9.291330337524414,3.510270833969116,-0.48095735907554626
1772725474035530000,3.899530029296875,9.243474006652832,3.5126636028289795,-0.5216353535652161
1772725474045046800,3.909046875,9.190832138061523,3.5222349166870117,-0.47617170214653015
1772725474054563600,3.9185634765625,9.174081802368164,3.5222349166870117,-0.4785645306110382
1772725474064080400,3.928080322265625,9.142974853515625,3.5270206928253174,-0.48095735907554626
1772725474073597200,3.93759716796875,9.157332420349121,3.541377544403076,-0.4570291340351105
1772725474083114000,3.947114013671875,9.159725189208984,3.538984775543213,-0.4450650215148926
1772725474092630800,3.956630859375,9.214759826660156,3.562912940979004,-0.4666004180908203
1772725474102147600,3.966147705078125,9.229117393493652,3.5605201721191406,-0.47617170214653015
1772725474111664400,3.975664306640625,9.238688468933105,3.5844483375549316,-0.5024927258491516
1772725474121181200,3.98518115234375,9.248259544372559,3.5772697925567627,-0.5144568681716919
1772725474130698000,3.994697998046875,9.351150512695312,3.5533416271209717,-0.4953143000602722
1772725474140214800,4.00421484375,9.399007797241211,3.5676984786987305,-0.5024927258491516
1772725474149731600,4.013731689453125,9.401400566101074,3.5581271648406982,-0.5048855543136597
1772725474159248400,4.023248291015625,9.32004451751709,3.579662561416626,-0.48095735907554626
1772725474168765200,4.03276513671875,9.17886734008789,3.6059837341308594,-0.48574298620224
1772725474178282000,4.042281982421875,9.109476089477539,3.589233875274658,-0.5120640397071838
1772725474187798800,4.051798828125,9.09990406036377,3.5916268825531006,-0.5168496966362
1772725474197315800,4.06131591796875,9.140582084655762,3.5820555686950684,-0.550349235534668
1772725474206832400,4.070832275390625,9.20997428894043,3.589233875274658,-0.5551348328590393
1772725474216349400,4.080349365234375,9.276973724365234,3.5533416271209717,-0.5312066078186035
1772725474225866200,4.0898662109375,9.29611587524414,3.5341989994049072,-0.5455635786056519
1772725474235383000,4.099383056640625,9.286544799804688,3.565305709838867,-0.5048855543136597
1772725474244899800,4.10889990234375,9.267401695251465,3.565305709838867,-0.46899324655532837
1772725474254416600,4.118416748046875,9.274580955505371,3.5509488582611084,-0.44745782017707825
1772725474263933400,4.127933349609375,9.336793899536133,3.548556089401245,-0.4307080805301666
1772725474273450200,4.1374501953125,9.32722282409668,3.555734395980835,-0.4905286431312561
1772725474282967000,4.146967041015625,9.231510162353516,3.589233875274658,-0.5000999569892883
1772725474292483800,4.15648388671875,9.142974853515625,3.6059837341308594,-0.4833501875400543
1772725474302000600,4.166000732421875,9.095118522644043,3.5988051891326904,-0.4618147611618042
1772725474311517400,4.175517333984375,9.109476089477539,3.586841106414795,-0.4426721930503845
1772725474321034200,4.1850341796875,9.176474571228027,3.589233875274658,-0.4498506486415863
1772725474330551000,4.194551025390625,9.241081237792969,3.5820555686950684,-0.47617170214653015
1772725474340067800,4.20406787109375,9.293723106384277,3.572484254837036,-0.5288137793540955
1772725474359101400,4.223101318359375,9.415757179260254,3.5533416271209717,-0.5455635786056519
1772725474368618200,4.2326181640625,9.473184585571289,3.5533416271209717,-0.550349235534668
1772725474378135300,4.24213525390625,9.45164966583252,3.531806230545044,-0.4953143000602722
1772725474387652000,4.251652099609375,9.34875774383545,3.5150563716888428,-0.5024927258491516
1772725474397168600,4.261168701171875,9.229117393493652,3.5270206928253174,-0.5216353535652161
1772725474406685700,4.270685791015625,9.128618240356445,3.5533416271209717,-0.5120640397071838
1772725474416202500,4.280202392578125,9.066405296325684,3.5533416271209717,-0.5216353535652161
1772725474425719300,4.28971923828125,9.078369140625,3.5533416271209717,-0.5024927258491516
1772725474435236000,4.299236083984375,9.095118522644043,3.5341989994049072,-0.4977070987224579
1772725474444753000,4.3087529296875,9.138189315795898,3.562912940979004,-0.5072783827781677
1772725474454269700,4.318269775390625,9.190832138061523,3.5676984786987305,-0.5048855543136597
1772725474463786500,4.327786376953125,9.265008926391602,3.5533416271209717,-0.4833501875400543
1772725474473303300,4.33730322265625,9.329615592956543,3.5437703132629395,-0.4546363055706024
1772725474482820000,4.346820068359375,9.396614074707031,3.5581271648406982,-0.4737788736820221
1772725474492337000,4.3563369140625,9.391828536987305,3.572484254837036,-0.4570291340351105
1772725474501853700,4.365853759765625,9.4061861038208,3.5820555686950684,-0.46420758962631226
1772725474511370500,4.37537060546875,9.351150512695312,3.5676984786987305,-0.4666004180908203
1772725474520887300,4.38488720703125,9.315258979797363,3.594019651412964,-0.45942193269729614
1772725474530404400,4.394404296875,9.284152030944824,3.596412420272827,-0.4785645306110382
1772725474539921200,4.403921142578125,9.245866775512695,3.620340585708618,-0.5072783827781677
1772725474549437700,4.413437744140625,9.260223388671875,3.620340585708618,-0.5168496966362
1772725474558954800,4.422954833984375,9.312865257263184,3.5748770236968994,-0.4977070987224579
1772725474568471600,4.432471435546875,9.34875774383545,3.541377544403076,-0.5048855543136597
1772725474577988400,4.44198828125,9.322437286376953,3.5605201721191406,-0.4785645306110382
1772725474587505200,4.451505126953125,9.274580955505371,3.5605201721191406,-0.44745782017707825
1772725474597022000,4.46102197265625,9.193224906921387,3.5676984786987305,-0.4546363055706024
1772725474606538800,4.470538818359375,9.183652877807617,3.5365917682647705,-0.4378865361213684
1772725474616055600,4.4800556640625,9.214759826660156,3.524627685546875,-0.4091726839542389
1772725474625572400,4.489572265625,9.253045082092285,3.493520975112915,-0.4450650215148926
1772725474635089200,4.499089111328125,9.226723670959473,3.5198421478271484,-0.44745782017707825
1772725474644606000,4.50860595703125,9.200403213500977,3.517449378967285,-0.4331009089946747
1772725474654122800,4.518122802734375,9.176474571228027,3.5365917682647705,-0.4618147611618042
1772725474663639600,4.5276396484375,9.198010444641113,3.5222349166870117,-0.4570291340351105
1772725474673156400,4.53715625,9.281759262084961,3.5294134616851807,-0.4378865361213684
1772725474682673200,4.546673095703125,9.351150512695312,3.541377544403076,-0.4546363055706024
1772725474692190200,4.556190185546875,9.377471923828125,3.524627685546875,-0.4713860750198364
1772725474701706800,4.565706787109375,9.365508079528809,3.5222349166870117,-0.4498506486415863
1772725474711223800,4.575223876953125,9.370293617248535,3.555734395980835,-0.45224347710609436
1772725474720740600,4.58474072265625,9.34875774383545,3.5844483375549316,-0.4666004180908203
1772725474730257400,4.59425732421875,9.346364974975586,3.572484254837036,-0.4307080805301666
1772725474739774200,4.603774169921875,9.358329772949219,3.565305709838867,-0.39960137009620667
1772725474749291000,4.613291015625,9.353543281555176,3.586841106414795,-0.4163511395454407
1772725474758807800,4.622807861328125,9.305686950683594,3.586841106414795,-0.44745782017707825
1772725474768324600,4.63232470703125,9.281759262084961,3.565305709838867,-0.4785645306110382
1772725474777841400,4.64184130859375,9.28893756866455,3.572484254837036,-0.45224347710609436
1772725474787358200,4.651358154296875,9.276973724365234,3.548556089401245,-0.4737788736820221
1772725474796875000,4.660875,9.291330337524414,3.517449378967285,-0.4737788736820221
1772725474806391800,4.670391845703125,9.269794464111328,3.531806230545044,-0.5000999569892883
1772725474815908900,4.679908935546875,9.212367057800293,3.548556089401245,-0.4905286431312561
1772725474825425400,4.68942529296875,9.095118522644043,3.5533416271209717,-0.5288137793540955
1772725474834942200,4.698942138671875,9.044869422912598,3.5820555686950684,-0.5455635786056519
1772725474844459300,4.708459228515625,9.083154678344727,3.555734395980835,-0.5359922647476196
1772725474853975800,4.717975830078125,9.174081802368164,3.538984775543213,-0.5048855543136597
1772725474863492900,4.727492919921875,9.281759262084961,3.4791641235351562,-0.5024927258491516
1772725474873009700,4.737009765625,9.336793899536133,3.4815568923950195,-0.5024927258491516
1772725474882526500,4.7465263671875,9.41336441040039,3.5030922889709473,-0.5120640397071838
1772725474892043300,4.756043212890625,9.442078590393066,3.5150563716888428,-0.48813581466674805
1772725474901560000,4.76556005859375,9.410971641540527,3.500699520111084,-0.4307080805301666
1772725474911076900,4.775076904296875,9.382257461547852,3.500699520111084,-0.38285163044929504
1772725474920593700,4.78459375,9.32722282409668,3.5365917682647705,-0.37088751792907715
1772725474930110500,4.7941103515625,9.274580955505371,3.5509488582611084,-0.4043870270252228
1772725474939627300,4.803627197265625,9.279366493225098,3.565305709838867,-0.42352959513664246
1772725474949144000,4.81314404296875,9.262616157531738,3.565305709838867,-0.4211367964744568
1772725474958660900,4.822660888671875,9.200403213500977,3.5581271648406982,-0.41874396800994873
1772725474968178000,4.832177978515625,9.174081802368164,3.5461630821228027,-0.4378865361213684
1772725474977694500,4.841694580078125,9.236295700073242,3.555734395980835,-0.45942193269729614
1772725474987211500,4.85121142578125,9.34157943725586,3.541377544403076,-0.46899324655532837
1772725474996728300,4.860728271484375,9.41336441040039,3.5126636028289795,-0.5096712112426758
1772725475006244900,4.870244873046875,9.410971641540527,3.538984775543213,-0.5383850932121277
1772725475015762000,4.879761962890625,9.422935485839844,3.5461630821228027,-0.5312066078186035
1772725475025278700,4.88927880859375,9.370293617248535,3.5150563716888428,-0.4785645306110382
1772725475034795500,4.89879541015625,9.30329418182373,3.510270833969116,-0.44745782017707825
1772725475044312300,4.908312255859375,9.281759262084961,3.5294134616851807,-0.43549370765686035
1772725475053829000,4.9178291015625,9.219545364379883,3.524627685546875,-0.4163511395454407
1772725475063346000,4.927345947265625,9.200403213500977,3.541377544403076,-0.45224347710609436
1772725475072862700,4.93686279296875,9.214759826660156,3.524627685546875,-0.4570291340351105
1772725475082379500,4.946379638671875,9.229117393493652,3.5509488582611084,-0.4785645306110382
1772725475091896600,4.955896484375,9.221938133239746,3.548556089401245,-0.49292147159576416
1772725475101413000,4.9654130859375,9.205188751220703,3.5605201721191406,-0.5144568681716919
1772725475110930000,4.974929931640625,9.126225471496582,3.5676984786987305,-0.4833501875400543
1772725475120447000,4.984447021484375,9.140582084655762,3.570091485977173,-0.4666004180908203
1772725475129963500,4.993963623046875,9.190832138061523,3.5676984786987305,-0.4450650215148926
1772725475139480600,5.00348046875,9.257830619812012,3.5126636028289795,-0.4259224236011505
1772725475148997400,5.012997314453125,9.355937004089355,3.5222349166870117,-0.4378865361213684
1772725475158514200,5.02251416015625,9.41336441040039,3.524627685546875,-0.43549370765686035
1772725475168031000,5.032031005859375,9.42054271697998,3.531806230545044,-0.4163511395454407
1772725475177547800,5.0415478515625,9.403793334960938,3.5198421478271484,-0.4211367964744568
1772725475187064600,5.051064697265625,9.382257461547852,3.5222349166870117,-0.4139583110809326
1772725475196581400,5.060581298828125,9.377471923828125,3.5150563716888428,-0.4450650215148926
1772725475206098200,5.07009814453125,9.353543281555176,3.5437703132629395,-0.47617170214653015
1772725475215615000,5.079614990234375,9.300901412963867,3.5294134616851807,-0.4905286431312561
1772725475225131800,5.0891318359375,9.229117393493652,3.5365917682647705,-0.48813581466674805
1772725475234648600,5.098648681640625,9.198010444641113,3.5581271648406982,-0.49292147159576416
1772725475244165600,5.10816552734375,9.18843936920166,3.5533416271209717,-0.4953143000602722
1772725475253682200,5.11768212890625,9.174081802368164,3.517449378967285,-0.4498506486415863
1772725475263199200,5.12719921875,9.186046600341797,3.5222349166870117,-0.4163511395454407
1772725475272716000,5.136716064453125,9.236295700073242,3.5126636028289795,-0.4331009089946747
1772725475282232800,5.14623291015625,9.284152030944824,3.4911282062530518,-0.4259224236011505
1772725475291749600,5.15574951171875,9.317651748657227,3.4983067512512207,-0.4713860750198364
1772725475301266400,5.165266357421875,9.358329772949219,3.524627685546875,-0.48813581466674805
1772725475310783200,5.174783203125,9.343972206115723,3.5270206928253174,-0.4905286431312561
1772725475320300000,5.184300048828125,9.329615592956543,3.5030922889709473,-0.48813581466674805
1772725475329816800,5.19381689453125,9.34875774383545,3.5150563716888428,-0.46420758962631226
1772725475339333600,5.203333740234375,9.425328254699707,3.510270833969116,-0.45942193269729614
1772725475348850400,5.212850341796875,9.437292098999023,3.5030922889709473,-0.4713860750198364
1772725475358367200,5.2223671875,9.394221305847168,3.5365917682647705,-0.4450650215148926
1772725475367884000,5.231884033203125,9.339186668395996,3.5126636028289795,-0.4019941985607147
1772725475377400800,5.24140087890625,9.29611587524414,3.524627685546875,-0.39960137009620667
1772725475386918000,5.25091796875,9.236295700073242,3.5461630821228027,-0.3924229145050049
1772725475396434700,5.2604345703125,9.205188751220703,3.538984775543213,-0.4019941985607147
1772725475405951500,5.269951416015625,9.212367057800293,3.5341989994049072,-0.4019941985607147
1772725475415468300,5.27946826171875,9.212367057800293,3.510270833969116,-0.4091726839542389
1772725475424985000,5.288985107421875,9.21715259552002,3.5198421478271484,-0.4331009089946747
1772725475434502000,5.298501953125,9.265008926391602,3.507878065109253,-0.4666004180908203
1772725475444018700,5.308018798828125,9.329615592956543,3.507878065109253,-0.48574298620224
1772725475453535500,5.317535400390625,9.339186668395996,3.517449378967285,-0.4905286431312561
1772725475463052300,5.32705224609375,9.384650230407715,3.4719855785369873,-0.48574298620224
1772725475472569000,5.336569091796875,9.375079154968262,3.4887354373931885,-0.4737788736820221
1772725475482086000,5.3460859375,9.28893756866455,3.500699520111084,-0.4737788736820221
1772725475491602700,5.355602783203125,9.162117958068848,3.541377544403076,-0.4953143000602722
1772725475501119500,5.365119384765625,9.107083320617676,3.5533416271209717,-0.5072783827781677
1772725475510636500,5.374636474609375,9.126225471496582,3.5509488582611084,-0.5120640397071838
1772725475520153300,5.3841533203125,9.18843936920166,3.524627685546875,-0.4953143000602722
1772725475529670100,5.393670166015625,9.245866775512695,3.5365917682647705,-0.47617170214653015
1772725475539187000,5.40318701171875,9.30329418182373,3.517449378967285,-0.46420758962631226
1772725475548703700,5.412703857421875,9.317651748657227,3.548556089401245,-0.4666004180908203
1772725475558220500,5.422220458984375,9.305686950683594,3.5581271648406982,-0.4331009089946747
1772725475567737300,5.4317373046875,9.34157943725586,3.5222349166870117,-0.3924229145050049
1772725475577254100,5.441254150390625,9.4061861038208,3.5341989994049072,-0.37806597352027893
1772725475586771000,5.45077099609375,9.494720458984375,3.5294134616851807,-0.4043870270252228
1772725475596287700,5.460287841796875,9.521040916442871,3.5461630821228027,-0.42831525206565857
1772725475605804800,5.4698046875,9.449256896972656,3.5509488582611084,-0.44027936458587646
1772725475615321300,5.4793212890625,9.276973724365234,3.5341989994049072,-0.44027936458587646
1772725475624838400,5.48883837890625,9.1716890335083,3.5341989994049072,-0.42831525206565857
1772725475634355200,5.498355224609375,9.09990406036377,3.548556089401245,-0.41874396800994873
1772725475643872000,5.5078720703125,9.131011009216309,3.5533416271209717,-0.40677985548973083
1772725475653388800,5.517388916015625,9.152546882629395,3.5437703132629395,-0.4307080805301666
1772725475662905600,5.526905517578125,9.20279598236084,3.5341989994049072,-0.4546363055706024
1772725475672422400,5.53642236328125,9.226723670959473,3.5126636028289795,-0.4713860750198364
1772725475681939200,5.545939208984375,9.248259544372559,3.5270206928253174,-0.45224347710609436
1772725475691456000,5.5554560546875,9.265008926391602,3.5222349166870117,-0.45942193269729614
1772725475700972800,5.564972900390625,9.293723106384277,3.5270206928253174,-0.5000999569892883
1772725475710489600,5.574489501953125,9.346364974975586,3.5341989994049072,-0.49292147159576416
1772725475720006400,5.58400634765625,9.34875774383545,3.5222349166870117,-0.5048855543136597
1772725475729523200,5.593523193359375,9.329615592956543,3.5533416271209717,-0.519242525100708
1772725475739040000,5.6030400390625,9.293723106384277,3.555734395980835,-0.5335994362831116
1772725475748557000,5.61255712890625,9.315258979797363,3.5605201721191406,-0.5144568681716919
1772725475758073900,5.622073974609375,9.305686950683594,3.5748770236968994,-0.5455635786056519
1772725475767590700,5.631590576171875,9.272188186645508,3.572484254837036,-0.5048855543136597
1772725475777107500,5.641107421875,9.231510162353516,3.596412420272827,-0.4953143000602722
1772725475786624300,5.650624267578125,9.212367057800293,3.6059837341308594,-0.46899324655532837
1772725475796141000,5.66014111328125,9.255437850952148,3.6155550479888916,-0.4546363055706024
1772725475805657900,5.669657958984375,9.248259544372559,3.6059837341308594,-0.4331009089946747
1772725475815174700,5.679174560546875,9.274580955505371,3.601198196411133,-0.4307080805301666
1772725475824691500,5.68869140625,9.28893756866455,3.589233875274658,-0.4259224236011505
1772725475834208300,5.698208251953125,9.31047248840332,3.5676984786987305,-0.397208571434021
1772725475843725300,5.707725341796875,9.317651748657227,3.570091485977173,-0.42831525206565857
1772725475853241900,5.717241943359375,9.286544799804688,3.548556089401245,-0.4426721930503845
1772725475862759000,5.726759033203125,9.272188186645508,3.5341989994049072,-0.4713860750198364
1772725475872275700,5.736275634765625,9.269794464111328,3.5341989994049072,-0.5000999569892883
1772725475881792500,5.74579248046875,9.250652313232422,3.5294134616851807,-0.5096712112426758
1772725475891309300,5.755309326171875,9.221938133239746,3.5533416271209717,-0.5120640397071838
1772725475900826000,5.764826171875,9.21715259552002,3.548556089401245,-0.4905286431312561
1772725475910343000,5.774343017578125,9.245866775512695,3.541377544403076,-0.48574298620224
1772725475919859700,5.783859619140625,9.267401695251465,3.5437703132629395,-0.48095735907554626
1772725475929376500,5.79337646484375,9.274580955505371,3.5581271648406982,-0.4618147611618042
1772725475938893300,5.802893310546875,9.29611587524414,3.541377544403076,-0.43549370765686035
1772725475948410000,5.81241015625,9.28893756866455,3.5676984786987305,-0.45224347710609436
1772725475957927000,5.821927001953125,9.250652313232422,3.586841106414795,-0.46420758962631226
1772725475967444000,5.83144384765625,9.231510162353516,3.579662561416626,-0.46420758962631226
1772725475976960500,5.84096044921875,9.233902931213379,3.5605201721191406,-0.4977070987224579
1772725475986477600,5.8504775390625,9.221938133239746,3.572484254837036,-0.4905286431312561
1772725475995994400,5.859994384765625,9.243474006652832,3.570091485977173,-0.5144568681716919
1772725476005511200,5.86951123046875,9.305686950683594,3.5772697925567627,-0.5264210104942322
1772725476015028000,5.879028076171875,9.351150512695312,3.5533416271209717,-0.5168496966362
1772725476024544800,5.888544677734375,9.379864692687988,3.5533416271209717,-0.5168496966362
1772725476034061600,5.8980615234375,9.403793334960938,3.531806230545044,-0.5551348328590393
1772725476043578400,5.907578369140625,9.377471923828125,3.5270206928253174,-0.5527420043945312
1772725476053095200,5.91709521484375,9.293723106384277,3.5437703132629395,-0.5024927258491516
1772725476062612000,5.926612060546875,9.233902931213379,3.541377544403076,-0.4618147611618042
1772725476072128800,5.936128662109375,9.181260108947754,3.5341989994049072,-0.44027936458587646
1772725476081645800,5.945645751953125,9.159725189208984,3.5509488582611084,-0.4378865361213684
1772725476091162400,5.955162353515625,9.154939651489258,3.5365917682647705,-0.45942193269729614
1772725476100679400,5.964679443359375,9.133403778076172,3.531806230545044,-0.45942193269729614
1772725476110196200,5.9741962890625,9.150154113769531,3.5437703132629395,-0.4905286431312561
1772725476119713000,5.983713134765625,9.253045082092285,3.5294134616851807,-0.48095735907554626
1772725476129229800,5.993229736328125,9.332008361816406,3.510270833969116,-0.48574298620224
1772725476138746600,6.00274658203125,9.343972206115723,3.486342668533325,-0.4833501875400543
1772725476148263400,6.012263427734375,9.329615592956543,3.4648072719573975,-0.4713860750198364
1772725476157780200,6.0217802734375,9.28893756866455,3.4648072719573975,-0.45942193269729614
1772725476167297000,6.031297119140625,9.238688468933105,3.5030922889709473,-0.48095735907554626
1772725476176813800,6.040813720703125,9.20997428894043,3.517449378967285,-0.5144568681716919
1772725476186330600,6.05033056640625,9.1716890335083,3.5437703132629395,-0.5312066078186035
1772725476195847700,6.05984765625,9.157332420349121,3.507878065109253,-0.5455635786056519
1772725476205364500,6.069364501953125,9.157332420349121,3.4983067512512207,-0.5024927258491516
1772725476214881300,6.07888134765625,9.221938133239746,3.5150563716888428,-0.5000999569892883
1772725476224398000,6.088398193359375,9.32004451751709,3.541377544403076,-0.5000999569892883
1772725476233915000,6.097914794921875,9.382257461547852,3.5150563716888428,-0.5120640397071838
1772725476243431700,6.107431640625,9.430113792419434,3.5150563716888428,-0.4737788736820221
1772725476252948500,6.116948486328125,9.430113792419434,3.507878065109253,-0.4498506486415863
1772725476262465300,6.12646533203125,9.477970123291016,3.531806230545044,-0.48095735907554626
1772725476271982000,6.135982177734375,9.4660062789917,3.5461630821228027,-0.5000999569892883
1772725476281499000,6.145498779296875,9.403793334960938,3.5605201721191406,-0.5120640397071838
1772725476291016000,6.155015869140625,9.360722541809082,3.5820555686950684,-0.4953143000602722
1772725476300532500,6.164532470703125,9.291330337524414,3.570091485977173,-0.4785645306110382
1772725476310049500,6.174049560546875,9.241081237792969,3.5365917682647705,-0.4426721930503845
1772725476319566300,6.18356640625,9.219545364379883,3.548556089401245,-0.4378865361213684
1772725476329083100,6.193083251953125,9.226723670959473,3.5509488582611084,-0.48574298620224
1772725476338600000,6.202599853515625,9.248259544372559,3.5461630821228027,-0.5264210104942322
1772725476348116700,6.21211669921875,9.241081237792969,3.5365917682647705,-0.5288137793540955
1772725476357633500,6.221633544921875,9.241081237792969,3.4911282062530518,-0.5096712112426758
1772725476367150300,6.231150390625,9.298508644104004,3.507878065109253,-0.5240281820297241
1772725476376667100,6.240667236328125,9.379864692687988,3.4959139823913574,-0.5168496966362
1772725476386184000,6.250183837890625,9.437292098999023,3.4815568923950195,-0.5383850932121277
1772725476395700700,6.25970068359375,9.399007797241211,3.4911282062530518,-0.5886343717575073
1772725476405217800,6.2692177734375,9.293723106384277,3.5150563716888428,-0.5479564070701599
1772725476414734600,6.278734619140625,9.229117393493652,3.5054850578308105,-0.5455635786056519
1772725476424251400,6.28825146484375,9.219545364379883,3.4743785858154297,-0.5144568681716919
1772725476433768200,6.297768310546875,9.190832138061523,3.483949661254883,-0.4905286431312561
1772725476443285000,6.307284912109375,9.166903495788574,3.483949661254883,-0.4666004180908203
1772725476452801800,6.3168017578125,9.133403778076172,3.548556089401245,-0.44745782017707825
1772725476462318600,6.326318603515625,9.150154113769531,3.524627685546875,-0.4618147611618042
1772725476471835400,6.33583544921875,9.186046600341797,3.5509488582611084,-0.4546363055706024
1772725476481352200,6.345352294921875,9.20279598236084,3.538984775543213,-0.4570291340351105
1772725476490869000,6.354868896484375,9.236295700073242,3.555734395980835,-0.48574298620224
1772725476500386000,6.364385986328125,9.298508644104004,3.5341989994049072,-0.4713860750198364
1772725476509902600,6.373902587890625,9.363115310668945,3.5198421478271484,-0.48813581466674805
1772725476519419600,6.383419677734375,9.408578872680664,3.5294134616851807,-0.48574298620224
1772725476528936400,6.3929365234375,9.442078590393066,3.5270206928253174,-0.5000999569892883
1772725476538453200,6.402453369140625,9.42054271697998,3.500699520111084,-0.4905286431312561
1772725476547970000,6.411969970703125,9.42772102355957,3.493520975112915,-0.4570291340351105
1772725476557486800,6.42148681640625,9.422935485839844,3.507878065109253,-0.46899324655532837
1772725476567003600,6.431003662109375,9.360722541809082,3.5294134616851807,-0.4785645306110382
1772725476576520400,6.4405205078125,9.274580955505371,3.5437703132629395,-0.519242525100708
1772725476586037200,6.450037353515625,9.159725189208984,3.5509488582611084,-0.5312066078186035
1772725476595554000,6.459553955078125,9.145368576049805,3.565305709838867,-0.4977070987224579
1772725476605070800,6.46907080078125,9.18843936920166,3.517449378967285,-0.49292147159576416
1772725476614588000,6.478587890625,9.255437850952148,3.493520975112915,-0.4737788736820221
1772725476624104400,6.4881044921875,9.29611587524414,3.4743785858154297,-0.49292147159576416
1772725476633621500,6.49762158203125,9.32004451751709,3.4959139823913574,-0.5168496966362
1772725476643138300,6.50713818359375,9.291330337524414,3.4911282062530518,-0.49292147159576416
1772725476652655000,6.516655029296875,9.279366493225098,3.500699520111084,-0.48574298620224
1772725476662172000,6.526171875,9.276973724365234,3.507878065109253,-0.46420758962631226
1772725476671688700,6.535688720703125,9.284152030944824,3.4959139823913574,-0.49292147159576416
1772725476681205500,6.54520556640625,9.274580955505371,3.4672000408172607,-0.4737788736820221
1772725476690722300,6.554722412109375,9.241081237792969,3.4959139823913574,-0.4570291340351105
1772725476700239000,6.564239013671875,9.21715259552002,3.5198421478271484,-0.48813581466674805
1772725476709756200,6.573756103515625,9.169296264648438,3.541377544403076,-0.4546363055706024
1772725476719272700,6.583272705078125,9.181260108947754,3.524627685546875,-0.4546363055706024
1772725476728789800,6.592789794921875,9.245866775512695,3.5365917682647705,-0.4546363055706024
1772725476738306600,6.602306640625,9.33440113067627,3.5341989994049072,-0.4905286431312561
1772725476747823400,6.6118232421875,9.399007797241211,3.5150563716888428,-0.4953143000602722
1772725476757340200,6.621340087890625,9.425328254699707,3.5509488582611084,-0.5000999569892883
1772725476766857000,6.63085693359375,9.379864692687988,3.5198421478271484,-0.4833501875400543
1772725476776373800,6.640373779296875,9.34157943725586,3.5126636028289795,-0.5000999569892883
1772725476785890600,6.649890625,9.305686950683594,3.5437703132629395,-0.4977070987224579
1772725476795407600,6.65940771484375,9.276973724365234,3.5341989994049072,-0.5048855543136597
1772725476804924200,6.668924072265625,9.17886734008789,3.5294134616851807,-0.48813581466674805
1772725476814441200,6.678441162109375,9.138189315795898,3.5198421478271484,-0.48095735907554626
1772725476823958000,6.6879580078125,9.128618240356445,3.5198421478271484,-0.4498506486415863
1772725476833474800,6.697474853515625,9.135796546936035,3.5461630821228027,-0.47617170214653015
1772725476842991600,6.70699169921875,9.162117958068848,3.562912940979004,-0.5024927258491516
1772725476852508400,6.71650830078125,9.233902931213379,3.5270206928253174,-0.5455635786056519
1772725476862025200,6.726025146484375,9.272188186645508,3.507878065109253,-0.5623133182525635
1772725476871542000,6.7355419921875,9.339186668395996,3.524627685546875,-0.5814558863639832
1772725476881058800,6.745058837890625,9.365508079528809,3.4959139823913574,-0.5886343717575073
1772725476890575600,6.75457568359375,9.34875774383545,3.5270206928253174,-0.576670229434967
1772725476900092400,6.764092529296875,9.324830055236816,3.5294134616851807,-0.5407779216766357
1772725476909609500,6.773609375,9.315258979797363,3.5222349166870117,-0.48813581466674805
1772725476919126000,6.7831259765625,9.33440113067627,3.5365917682647705,-0.48574298620224
1772725476928643000,6.79264306640625,9.32004451751709,3.524627685546875,-0.4546363055706024
1772725476938159900,6.802159912109375,9.355937004089355,3.5461630821228027,-0.4426721930503845
1772725476947676700,6.8116767578125,9.346364974975586,3.531806230545044,-0.4498506486415863
1772725476957193500,6.821193359375,9.269794464111328,3.531806230545044,-0.4450650215148926
1772725476966710300,6.830710205078125,9.214759826660156,3.541377544403076,-0.4570291340351105
1772725476976227000,6.84022705078125,9.20279598236084,3.541377544403076,-0.4785645306110382
1772725476985744000,6.849743896484375,9.22433090209961,3.5126636028289795,-0.5024927258491516
1772725476995260700,6.8592607421875,9.257830619812012,3.5222349166870117,-0.4977070987224579
1772725477004777500,6.868777587890625,9.28893756866455,3.5054850578308105,-0.5168496966362
1772725477014294300,6.878294189453125,9.32004451751709,3.4791641235351562,-0.5335994362831116
1772725477023811300,6.887811279296875,9.351150512695312,3.500699520111084,-0.519242525100708
1772725477033328000,6.897328125,9.363115310668945,3.4887354373931885,-0.5096712112426758
1772725477042845000,6.906844970703125,9.377471923828125,3.4648072719573975,-0.5096712112426758
1772725477052361700,6.91636181640625,9.355937004089355,3.469592809677124,-0.5024927258491516
1772725477061878500,6.92587841796875,9.31047248840332,3.483949661254883,-0.48574298620224
1772725477071395300,6.935395263671875,9.262616157531738,3.4791641235351562,-0.4785645306110382
1772725477080912100,6.944912109375,9.293723106384277,3.5198421478271484,-0.4905286431312561
1772725477090429000,6.954428955078125,9.272188186645508,3.5341989994049072,-0.5479564070701599
1772725477099945700,6.96394580078125,9.233902931213379,3.4959139823913574,-0.5288137793540955
1772725477109462800,6.973462890625,9.21715259552002,3.517449378967285,-0.5120640397071838
1772725477118979600,6.9829794921875,9.221938133239746,3.548556089401245,-0.5072783827781677
1772725477128496400,6.992496337890625,9.214759826660156,3.5222349166870117,-0.47617170214653015
1772725477138013200,7.00201318359375,9.255437850952148,3.524627685546875,-0.46899324655532837
1772725477147530000,7.011530029296875,9.298508644104004,3.5150563716888428,-0.4713860750198364
1772725477157046800,7.021046875,9.41336441040039,3.4911282062530518,-0.45224347710609436
1772725477166563600,7.0305634765625,9.42772102355957,3.4983067512512207,-0.4091726839542389
1772725477176080400,7.040080322265625,9.382257461547852,3.493520975112915,-0.4163511395454407
1772725477185597200,7.04959716796875,9.32004451751709,3.5150563716888428,-0.4618147611618042
1772725477195114000,7.059114013671875,9.284152030944824,3.5437703132629395,-0.45224347710609436
1772725477204631000,7.068631103515625,9.257830619812012,3.5150563716888428,-0.4713860750198364
1772725477214147600,7.078147705078125,9.272188186645508,3.493520975112915,-0.47617170214653015
1772725477223664600,7.08766455078125,9.298508644104004,3.5150563716888428,-0.47617170214653015
1772725477233181400,7.097181396484375,9.315258979797363,3.510270833969116,-0.519242525100708
1772725477242698200,7.1066982421875,9.286544799804688,3.5054850578308105,-0.5240281820297241
1772725477252215000,7.116215087890625,9.274580955505371,3.510270833969116,-0.5120640397071838
1772725477261731800,7.12573193359375,9.250652313232422,3.5126636028289795,-0.5000999569892883
1772725477271248600,7.13524853515625,9.243474006652832,3.483949661254883,-0.4785645306110382
1772725477280765400,7.144765380859375,9.19561767578125,3.483949661254883,-0.4833501875400543
1772725477290282500,7.154282470703125,9.176474571228027,3.4911282062530518,-0.44027936458587646
1772725477299799000,7.163799072265625,9.20997428894043,3.486342668533325,-0.44027936458587646
1772725477309316000,7.173316162109375,9.255437850952148,3.4719855785369873,-0.4450650215148926
1772725477318833000,7.1828330078125,9.332008361816406,3.4911282062530518,-0.4546363055706024
1772725477328349700,7.192349609375,9.41336441040039,3.486342668533325,-0.46899324655532837
1772725477337866500,7.201866455078125,9.511469841003418,3.4983067512512207,-0.5072783827781677
1772725477347383300,7.21138330078125,9.456435203552246,3.5150563716888428,-0.519242525100708
1772725477356900000,7.220900146484375,9.360722541809082,3.4719855785369873,-0.4905286431312561
1772725477366417000,7.2304169921875,9.276973724365234,3.500699520111084,-0.4666004180908203
1772725477375933700,7.23993359375,9.245866775512695,3.524627685546875,-0.46899324655532837
1772725477385450500,7.249450439453125,9.245866775512695,3.5054850578308105,-0.4977070987224579
1772725477394967300,7.25896728515625,9.253045082092285,3.4887354373931885,-0.4905286431312561
1772725477404484400,7.268484375,9.214759826660156,3.517449378967285,-0.45942193269729614
1772725477414001200,7.278001220703125,9.241081237792969,3.5198421478271484,-0.4618147611618042
1772725477423518000,7.28751806640625,9.312865257263184,3.524627685546875,-0.4546363055706024
1772725477433034800,7.29703466796875,9.367900848388672,3.510270833969116,-0.4426721930503845
1772725477442551600,7.306551513671875,9.401400566101074,3.5054850578308105,-0.4307080805301666
1772725477452068400,7.316068359375,9.34157943725586,3.5270206928253174,-0.4546363055706024
1772725477461585200,7.325585205078125,9.274580955505371,3.5365917682647705,-0.4905286431312561
1772725477471102000,7.33510205078125,9.305686950683594,3.5461630821228027,-0.45942193269729614
1772725477480618800,7.34461865234375,9.329615592956543,3.517449378967285,-0.46899324655532837
1772725477490135800,7.3541357421875,9.367900848388672,3.4743785858154297,-0.4666004180908203
1772725477499652600,7.363652587890625,9.372686386108398,3.4648072719573975,-0.4546363055706024
1772725477509169400,7.37316943359375,9.317651748657227,3.4719855785369873,-0.4833501875400543
1772725477518686200,7.382686279296875,9.265008926391602,3.486342668533325,-0.4905286431312561
1772725477528203000,7.392203125,9.20279598236084,3.5222349166870117,-0.5288137793540955
1772725477537719800,7.4017197265625,9.174081802368164,3.5341989994049072,-0.5431707501411438
1772725477547236600,7.411236572265625,9.174081802368164,3.5533416271209717,-0.5670989751815796
1772725477556753400,7.42075341796875,9.186046600341797,3.500699520111084,-0.5670989751815796
1772725477566270200,7.430270263671875,9.20997428894043,3.483949661254883,-0.5312066078186035
1772725477575787300,7.439787353515625,9.219545364379883,3.4959139823913574,-0.4953143000602722
1772725477585304000,7.449303955078125,9.238688468933105,3.517449378967285,-0.5072783827781677
1772725477594820900,7.45882080078125,9.241081237792969,3.5030922889709473,-0.46899324655532837
1772725477604337700,7.468337646484375,9.262616157531738,3.5126636028289795,-0.4498506486415863
1772725477613854500,7.4778544921875,9.329615592956543,3.500699520111084,-0.4259224236011505
1772725477623371300,7.487371337890625,9.389435768127441,3.493520975112915,-0.4139583110809326
1772725477632888000,7.49688818359375,9.394221305847168,3.500699520111084,-0.4378865361213684
1772725477642404900,7.50640478515625,9.396614074707031,3.500699520111084,-0.4331009089946747
1772725477651921700,7.515921630859375,9.408578872680664,3.531806230545044,-0.45224347710609436
1772725477661438500,7.5254384765625,9.403793334960938,3.517449378967285,-0.4833501875400543
1772725477670955500,7.53495556640625,9.382257461547852,3.5126636028289795,-0.46899324655532837
1772725477680472000,7.54447216796875,9.370293617248535,3.5150563716888428,-0.4378865361213684
1772725477689989000,7.553989013671875,9.351150512695312,3.5150563716888428,-0.4713860750198364
1772725477699506000,7.563505859375,9.336793899536133,3.517449378967285,-0.4737788736820221
1772725477709022700,7.573022705078125,9.300901412963867,3.5533416271209717,-0.5048855543136597
1772725477718539500,7.58253955078125,9.276973724365234,3.5581271648406982,-0.48813581466674805
1772725477728056300,7.592056396484375,9.284152030944824,3.517449378967285,-0.4737788736820221
1772725477737573000,7.601572998046875,9.250652313232422,3.510270833969116,-0.45224347710609436
1772725477747090000,7.61108984375,9.22433090209961,3.4983067512512207,-0.4618147611618042
1772725477756607000,7.62060693359375,9.198010444641113,3.5030922889709473,-0.49292147159576416
1772725477766123500,7.63012353515625,9.276973724365234,3.5198421478271484,-0.4905286431312561
1772725477775640600,7.639640625,9.34157943725586,3.507878065109253,-0.5359922647476196
1772725477785157400,7.649157470703125,9.305686950683594,3.5126636028289795,-0.5694918036460876
1772725477794674200,7.658674072265625,9.1716890335083,3.524627685546875,-0.5216353535652161
1772725477804191000,7.66819091796875,9.114261627197266,3.5294134616851807,-0.4833501875400543
1772725477813707800,7.677707763671875,9.10229778289795,3.541377544403076,-0.4713860750198364
1772725477823224600,7.687224609375,9.174081802368164,3.5341989994049072,-0.4570291340351105
1772725477832741400,7.696741455078125,9.255437850952148,3.5437703132629395,-0.46420758962631226
1772725477842258400,7.706258544921875,9.332008361816406,3.531806230545044,-0.45942193269729614
1772725477851775000,7.71577490234375,9.351150512695312,3.5341989994049072,-0.4570291340351105
1772725477861292000,7.7252919921875,9.346364974975586,3.5294134616851807,-0.44745782017707825
1772725477870808800,7.734808837890625,9.346364974975586,3.517449378967285,-0.4450650215148926
1772725477880325600,7.74432568359375,9.358329772949219,3.5437703132629395,-0.4618147611618042
1772725477889842400,7.753842529296875,9.372686386108398,3.5461630821228027,-0.4546363055706024
1772725477899359200,7.763359130859375,9.399007797241211,3.517449378967285,-0.48813581466674805
1772725477908876000,7.7728759765625,9.418149948120117,3.5054850578308105,-0.4977070987224579
1772725477918392800,7.782392822265625,9.363115310668945,3.5222349166870117,-0.5120640397071838
1772725477927909600,7.79190966796875,9.262616157531738,3.5030922889709473,-0.5383850932121277
1772725477937426400,7.801426513671875,9.183652877807617,3.5222349166870117,-0.5383850932121277
1772725477946943200,7.810943115234375,9.152546882629395,3.5437703132629395,-0.5264210104942322
1772725477956460300,7.820460205078125,9.131011009216309,3.538984775543213,-0.5168496966362
1772725477965977000,7.82997705078125,9.150154113769531,3.5365917682647705,-0.4905286431312561
1772725477975494000,7.839493896484375,9.169296264648438,3.5270206928253174,-0.46420758962631226
1772725477985010700,7.8490107421875,9.20997428894043,3.4887354373931885,-0.4378865361213684
1772725477994527500,7.858527587890625,9.229117393493652,3.4911282062530518,-0.4450650215148926
1772725478004044300,7.868044189453125,9.262616157531738,3.4983067512512207,-0.45942193269729614
1772725478013561000,7.87756103515625,9.324830055236816,3.493520975112915,-0.5000999569892883
1772725478023078000,7.887077880859375,9.358329772949219,3.4887354373931885,-0.5096712112426758
1772725478032594700,7.8965947265625,9.375079154968262,3.4672000408172607,-0.4905286431312561
1772725478042111700,7.90611181640625,9.375079154968262,3.486342668533325,-0.4953143000602722
1772725478051628500,7.915628662109375,9.389435768127441,3.476771354675293,-0.5120640397071838
1772725478061145300,7.925145263671875,9.34875774383545,3.4791641235351562,-0.4977070987224579
1772725478070662100,7.934662109375,9.30329418182373,3.483949661254883,-0.49292147159576416
1772725478080179000,7.944178955078125,9.286544799804688,3.5054850578308105,-0.4833501875400543
1772725478089695700,7.95369580078125,9.265008926391602,3.500699520111084,-0.46899324655532837
1772725478099212500,7.963212646484375,9.279366493225098,3.500699520111084,-0.4498506486415863
1772725478108729300,7.972729248046875,9.274580955505371,3.500699520111084,-0.4498506486415863
1772725478118246100,7.98224609375,9.276973724365234,3.483949661254883,-0.48813581466674805
1772725478127763200,7.99176318359375,9.257830619812012,3.483949661254883,-0.4905286431312561
1772725478137280000,8.001280029296876,9.231510162353516,3.5030922889709473,-0.4450650215148926
1772725478146796800,8.010796875,9.243474006652832,3.483949661254883,-0.4666004180908203
1772725478156313600,8.020313720703125,9.28893756866455,3.4408788681030273,-0.47617170214653015
1772725478165830400,8.029830322265624,9.384650230407715,3.4408788681030273,-0.4905286431312561
1772725478175347200,8.03934716796875,9.475577354431152,3.4121651649475098,-0.5072783827781677
1772725478184864000,8.048864013671874,9.509077072143555,3.414557933807373,-0.5096712112426758
1772725478194381000,8.058381103515625,9.439684867858887,3.404986619949341,-0.5072783827781677
1772725478203897600,8.067897705078124,9.384650230407715,3.4193434715270996,-0.47617170214653015
1772725478213414700,8.07741455078125,9.312865257263184,3.436093330383301,-0.44027936458587646
1772725478222931500,8.086931396484376,9.193224906921387,3.438486099243164,-0.4618147611618042
1772725478232448300,8.0964482421875,9.138189315795898,3.4911282062530518,-0.48574298620224
1772725478241965000,8.105965087890626,9.111868858337402,3.483949661254883,-0.49292147159576416
1772725478251481900,8.11548193359375,9.150154113769531,3.4648072719573975,-0.5335994362831116
1772725478260998700,8.12499853515625,9.200403213500977,3.4791641235351562,-0.5407779216766357
1772725478270515500,8.134515380859375,9.274580955505371,3.469592809677124,-0.5694918036460876
1772725478280032300,8.1440322265625,9.300901412963867,3.4743785858154297,-0.5431707501411438
1772725478289549000,8.153549072265625,9.351150512695312,3.452843189239502,-0.4785645306110382
1772725478299065900,8.16306591796875,9.382257461547852,3.445664644241333,-0.4426721930503845
1772725478308583000,8.1725830078125,9.45164966583252,3.452843189239502,-0.39481574296951294
1772725478318099700,8.182099609375,9.487542152404785,3.4480574131011963,-0.397208571434021
1772725478327616500,8.191616455078124,9.540184020996094,3.431307554244995,-0.4331009089946747
1772725478337133300,8.20113330078125,9.549755096435547,3.4408788681030273,-0.4426721930503845
1772725478346650000,8.210650146484374,9.492327690124512,3.4408788681030273,-0.45942193269729614
1772725478356167000,8.2201669921875,9.403793334960938,3.4337005615234375,-0.46899324655532837
1772725478365683700,8.22968359375,9.31047248840332,3.4480574131011963,-0.46899324655532837
1772725478375200500,8.239200439453125,9.233902931213379,3.4193434715270996,-0.45942193269729614
1772725478384717300,8.24871728515625,9.190832138061523,3.3954153060913086,-0.47617170214653015
1772725478394234400,8.258234375,9.174081802368164,3.414557933807373,-0.47617170214653015
1772725478403751000,8.2677509765625,9.229117393493652,3.414557933807373,-0.5096712112426758
1772725478413268000,8.27726806640625,9.257830619812012,3.436093330383301,-0.5168496966362
1772725478422784800,8.28678466796875,9.281759262084961,3.4121651649475098,-0.5359922647476196
1772725478432301600,8.296301513671875,9.312865257263184,3.4121651649475098,-0.5024927258491516
1772725478441818400,8.305818359375,9.332008361816406,3.4241292476654053,-0.4953143000602722
1772725478451335200,8.315335205078124,9.42772102355957,3.438486099243164,-0.5000999569892883
1772725478460852000,8.32485205078125,9.518648147583008,3.421736478805542,-0.48813581466674805
1772725478470368800,8.33436865234375,9.556933403015137,3.4480574131011963,-0.5000999569892883
1772725478479885800,8.3438857421875,9.497113227844238,3.4408788681030273,-0.5000999569892883
1772725478489402400,8.35340234375,9.396614074707031,3.4672000408172607,-0.4977070987224579
1772725478498919400,8.36291943359375,9.291330337524414,3.476771354675293,-0.47617170214653015
1772725478508436200,8.372436279296876,9.243474006652832,3.460021495819092,-0.4785645306110382
1772725478517953000,8.381953125,9.159725189208984,3.460021495819092,-0.4426721930503845
1772725478527469800,8.3914697265625,9.133403778076172,3.452843189239502,-0.4378865361213684
1772725478536986600,8.400986572265625,9.190832138061523,3.4815568923950195,-0.4378865361213684
1772725478546503400,8.41050341796875,9.308079719543457,3.4432718753814697,-0.42831525206565857
1772725478556020200,8.420020263671875,9.355937004089355,3.4432718753814697,-0.4378865361213684
1772725478565537300,8.429537353515625,9.363115310668945,3.438486099243164,-0.4737788736820221
1772725478575053800,8.4390537109375,9.346364974975586,3.4408788681030273,-0.4546363055706024
1772725478584571000,8.44857080078125,9.315258979797363,3.428914785385132,-0.4618147611618042
1772725478594087700,8.458087646484374,9.29611587524414,3.428914785385132,-0.44027936458587646
1772725478603604500,8.4676044921875,9.305686950683594,3.4241292476654053,-0.45224347710609436
1772725478613121300,8.477121337890624,9.33440113067627,3.4193434715270996,-0.4713860750198364
1772725478622638000,8.48663818359375,9.355937004089355,3.428914785385132,-0.4570291340351105
1772725478632155000,8.49615478515625,9.305686950683594,3.4480574131011963,-0.4713860750198364
1772725478641671700,8.505671630859375,9.269794464111328,3.4552359580993652,-0.49292147159576416
1772725478651188500,8.5151884765625,9.260223388671875,3.4672000408172607,-0.48095735907554626
1772725478660705300,8.524705322265625,9.245866775512695,3.4815568923950195,-0.48813581466674805
1772725478670222300,8.534222412109376,9.233902931213379,3.486342668533325,-0.4570291340351105
1772725478679739100,8.5437392578125,9.253045082092285,3.469592809677124,-0.45224347710609436
1772725478689256000,8.553255859375,9.293723106384277,3.4408788681030273,-0.4331009089946747
1772725478698772700,8.562772705078125,9.315258979797363,3.421736478805542,-0.43549370765686035
1772725478708289500,8.57228955078125,9.351150512695312,3.4408788681030273,-0.47617170214653015
1772725478717806300,8.581806396484374,9.34875774383545,3.460021495819092,-0.47617170214653015
1772725478727323100,8.5913232421875,9.346364974975586,3.460021495819092,-0.4737788736820221
1772725478736840200,8.600840087890624,9.34875774383545,3.4504501819610596,-0.47617170214653015
1772725478746357000,8.61035693359375,9.31047248840332,3.4719855785369873,-0.46420758962631226
1772725478755873800,8.619873779296874,9.267401695251465,3.4552359580993652,-0.47617170214653015
1772725478765390600,8.629390625,9.305686950683594,3.4432718753814697,-0.5072783827781677
1772725478774907400,8.638907470703124,9.336793899536133,3.462414264678955,-0.4737788736820221
1772725478784424200,8.648424072265625,9.367900848388672,3.4408788681030273,-0.5000999569892883
1772725478793941000,8.65794091796875,9.346364974975586,3.438486099243164,-0.5144568681716919
1772725478803457800,8.667457763671875,9.339186668395996,3.4480574131011963,-0.5048855543136597
1772725478812974600,8.676974609375,9.355937004089355,3.4432718753814697,-0.49292147159576416
1772725478822491600,8.68649169921875,9.332008361816406,3.438486099243164,-0.45942193269729614
1772725478832008400,8.696008544921876,9.300901412963867,3.4672000408172607,-0.46899324655532837
1772725478841525200,8.705525146484375,9.276973724365234,3.445664644241333,-0.4905286431312561
1772725478851042000,8.7150419921875,9.245866775512695,3.445664644241333,-0.4833501875400543
1772725478860558800,8.724558837890624,9.22433090209961,3.438486099243164,-0.4570291340351105
1772725478870075600,8.73407568359375,9.253045082092285,3.436093330383301,-0.46899324655532837
1772725478879592400,8.743592529296874,9.267401695251465,3.4432718753814697,-0.5144568681716919
1772725478889109200,8.753109130859375,9.317651748657227,3.452843189239502,-0.5455635786056519
1772725478898626000,8.7626259765625,9.41336441040039,3.4408788681030273,-0.5647061467170715
1772725478908143000,8.77214306640625,9.501898765563965,3.431307554244995,-0.5312066078186035
1772725478917660000,8.781659912109374,9.418149948120117,3.3236305713653564,-0.3900300860404968
1772725478927176700,8.7911767578125,9.494720458984375,3.3236305713653564,-0.48095735907554626
1772725478936693500,8.800693603515626,9.449256896972656,3.4002010822296143,-0.5479564070701599
1772725478946210300,8.810210205078125,9.42772102355957,3.452843189239502,-0.6197410821914673
1772725478955727000,8.81972705078125,9.379864692687988,3.500699520111084,-0.698704183101654
1772725478965244000,8.829243896484375,9.305686950683594,3.5533416271209717,-0.6317051649093628
1772725478974760700,8.8387607421875,9.20997428894043,3.5054850578308105,-0.5814558863639832
1772725478984277500,8.848277587890625,9.212367057800293,3.436093330383301,-0.5670989751815796
1772725478993794600,8.857794677734375,9.312865257263184,3.4265220165252686,-0.6029912829399109
1772725479003311400,8.867311279296874,9.365508079528809,3.452843189239502,-0.5742774605751038
1772725479012828200,8.876828125,9.365508079528809,3.4576287269592285,-0.5000999569892883
1772725479022345000,8.886344970703124,9.34157943725586,3.460021495819092,-0.4737788736820221
1772725479031861800,8.89586181640625,9.34157943725586,3.4648072719573975,-0.4618147611618042
1772725479041378600,8.905378662109374,9.29611587524414,3.431307554244995,-0.4450650215148926
1772725479050895400,8.914895263671875,9.346364974975586,3.3571300506591797,-0.41156548261642456
1772725479060412200,8.924412109375,9.33440113067627,3.352344512939453,-0.3206382393836975
1772725479069929000,8.933928955078125,9.20279598236084,3.3882367610931396,-0.31345975399017334
1772725479079446000,8.943446044921876,9.181260108947754,3.3954153060913086,-0.4139583110809326
1772725479088962800,8.952962890625,9.229117393493652,3.4408788681030273,-0.4043870270252228
1772725479098479600,8.962479736328126,9.298508644104004,3.4480574131011963,-0.37088751792907715
1772725479107996400,8.971996337890625,9.324830055236816,3.3786656856536865,-0.3732803463935852
1772725479117513200,8.98151318359375,9.336793899536133,3.321237802505493,-0.32303106784820557
1772725479127030000,8.991030029296875,9.358329772949219,3.3020951747894287,-0.31106695532798767
1772725479136546800,9.000546875,9.377471923828125,3.328416347503662,-0.38285163044929504
1772725479146063600,9.010063720703124,9.410971641540527,3.3690943717956543,-0.46420758962631226
1772725479155580400,9.019580322265625,9.482755661010742,3.445664644241333,-0.4977070987224579
1772725479165097500,9.029097412109374,9.430113792419434,3.4552359580993652,-0.4666004180908203
1772725479174614300,9.0386142578125,9.298508644104004,3.4504501819610596,-0.4163511395454407
1772725479184131000,9.048131103515624,9.214759826660156,3.4480574131011963,-0.4091726839542389
1772725479193647900,9.05764794921875,9.152546882629395,3.445664644241333,-0.3924229145050049
1772725479203164700,9.06716455078125,9.140582084655762,3.421736478805542,-0.38763725757598877
1772725479212681500,9.076681396484375,9.157332420349121,3.407379388809204,-0.3900300860404968
1772725479222198300,9.0861982421875,9.21715259552002,3.3954153060913086,-0.4163511395454407
1772725479231715000,9.095715087890625,9.31047248840332,3.376272678375244,-0.4570291340351105
1772725479241232000,9.10523193359375,9.370293617248535,3.373879909515381,-0.4785645306110382
1772725479250749000,9.1147490234375,9.42772102355957,3.397808074951172,-0.48574298620224
1772725479260265700,9.124265625,9.499505996704102,3.373879909515381,-0.4833501875400543
1772725479269782500,9.133782470703125,9.525827407836914,3.366701364517212,-0.45224347710609436
1772725479279299300,9.14329931640625,9.564111709594727,3.3690943717956543,-0.45224347710609436
1772725479288816000,9.152816162109374,9.561718940734863,3.383451223373413,-0.4259224236011505
1772725479298333000,9.1623330078125,9.528220176696777,3.4337005615234375,-0.4163511395454407
1772725479307849700,9.171849609375,9.449256896972656,3.4791641235351562,-0.4331009089946747
1772725479317366500,9.181366455078125,9.375079154968262,3.4959139823913574,-0.39960137009620667
1772725479326883300,9.19088330078125,9.31047248840332,3.4648072719573975,-0.35413774847984314
1772725479336400400,9.200400390625,9.21715259552002,3.4265220165252686,-0.3613162338733673
1772725479345917200,9.209917236328126,9.150154113769531,3.4097721576690674,-0.3613162338733673
1772725479355434000,9.21943408203125,9.164510726928711,3.397808074951172,-0.380458801984787
1772725479364950800,9.22895068359375,9.200403213500977,3.3930225372314453,-0.4546363055706024
1772725479374467600,9.238467529296875,9.241081237792969,3.4337005615234375,-0.5048855543136597
1772725479383984400,9.247984375,9.312865257263184,3.4193434715270996,-0.5312066078186035
1772725479393501200,9.257501220703125,9.363115310668945,3.4002010822296143,-0.4953143000602722
1772725479403018000,9.26701806640625,9.394221305847168,3.3403804302215576,-0.48574298620224
1772725479412534800,9.27653466796875,9.403793334960938,3.34995174407959,-0.4378865361213684
1772725479422051800,9.2860517578125,9.358329772949219,3.34995174407959,-0.4019941985607147
1772725479431568600,9.295568603515624,9.33440113067627,3.366701364517212,-0.38285163044929504
1772725479441085400,9.30508544921875,9.298508644104004,3.383451223373413,-0.41874396800994873
1772725479450602200,9.314602294921874,9.31047248840332,3.3930225372314453,-0.4737788736820221
1772725479460119000,9.324119140625,9.322437286376953,3.4002010822296143,-0.45942193269729614
1772725479469635800,9.3336357421875,9.355937004089355,3.4169507026672363,-0.4713860750198364
1772725479479152600,9.343152587890625,9.403793334960938,3.421736478805542,-0.4666004180908203
1772725479488669700,9.352669677734376,9.415757179260254,3.4097721576690674,-0.45224347710609436
1772725479498186200,9.362186279296875,9.4061861038208,3.390629768371582,-0.4450650215148926
1772725479507703300,9.371703369140626,9.365508079528809,3.407379388809204,-0.4426721930503845
1772725479517220000,9.38122021484375,9.332008361816406,3.421736478805542,-0.4450650215148926
1772725479526737000,9.39073681640625,9.312865257263184,3.445664644241333,-0.4666004180908203
1772725479536253700,9.400253662109375,9.291330337524414,3.4337005615234375,-0.44745782017707825
1772725479545770500,9.4097705078125,9.253045082092285,3.4265220165252686,-0.4091726839542389
1772725479555287300,9.419287353515625,9.243474006652832,3.3882367610931396,-0.4019941985607147
1772725479564804000,9.42880419921875,9.293723106384277,3.373879909515381,-0.4211367964744568
1772725479574321200,9.438321044921874,9.343972206115723,3.407379388809204,-0.43549370765686035
1772725479583837700,9.447837646484375,9.442078590393066,3.3882367610931396,-0.4713860750198364
1772725479593354800,9.457354736328124,9.564111709594727,3.3690943717956543,-0.5024927258491516
1772725479602871600,9.46687158203125,9.623932838439941,3.326023578643799,-0.46899324655532837
1772725479612388400,9.476388427734374,9.571290969848633,3.3379876613616943,-0.44745782017707825
1772725479621905200,9.4859052734375,9.487542152404785,3.38105845451355,-0.45224347710609436
1772725479631422000,9.495421875,9.353543281555176,3.4097721576690674,-0.5024927258491516
1772725479640938800,9.504938720703125,9.226723670959473,3.4719855785369873,-0.519242525100708
1772725479650455600,9.51445556640625,9.104690551757812,3.4791641235351562,-0.48813581466674805
1772725479659972600,9.52397265625,9.090332984924316,3.4097721576690674,-0.4618147611618042
1772725479669489200,9.5334892578125,9.138189315795898,3.4408788681030273,-0.4713860750198364
1772725479679006200,9.543006103515625,9.238688468933105,3.4241292476654053,-0.5120640397071838
1772725479688523000,9.55252294921875,9.358329772949219,3.428914785385132,-0.5647061467170715
1772725479698039800,9.562039794921875,9.446864128112793,3.4337005615234375,-0.5623133182525635
1772725479707556600,9.571556640625,9.499505996704102,3.414557933807373,-0.5264210104942322
1772725479717073400,9.581073486328124,9.554540634155273,3.4025938510894775,-0.4666004180908203
1772725479726590200,9.590590087890625,9.595218658447266,3.342773199081421,-0.4426721930503845
1772725479736107000,9.60010693359375,9.53061294555664,3.311666488647461,-0.4211367964744568
1772725479745624000,9.6096240234375,9.367900848388672,3.328416347503662,-0.37806597352027893
1772725479755140600,9.619140625,9.238688468933105,3.38105845451355,-0.3756731450557709
1772725479764657700,9.62865771484375,9.128618240356445,3.4241292476654053,-0.43549370765686035
1772725479774174500,9.638174560546876,9.142974853515625,3.428914785385132,-0.4307080805301666
1772725479783691300,9.647691162109375,9.169296264648438,3.428914785385132,-0.41156548261642456
1772725479793208000,9.6572080078125,9.18843936920166,3.3714871406555176,-0.35892340540885925
1772725479802724900,9.666724853515625,9.219545364379883,3.31884503364563,-0.38285163044929504
1772725479812241700,9.67624169921875,9.305686950683594,3.3571300506591797,-0.44745782017707825
1772725479821758500,9.685758544921875,9.399007797241211,3.373879909515381,-0.4833501875400543
1772725479831275500,9.695275634765625,9.525827407836914,3.366701364517212,-0.5407779216766357
1772725479840792000,9.7047919921875,9.590433120727539,3.397808074951172,-0.5312066078186035
1772725479850309000,9.71430908203125,9.57607650756836,3.3786656856536865,-0.5120640397071838
1772725479859826000,9.723825927734374,9.461220741271973,3.3308091163635254,-0.4666004180908203
1772725479869342700,9.7333427734375,9.358329772949219,3.3690943717956543,-0.42352959513664246
1772725479878859500,9.742859619140624,9.257830619812012,3.3954153060913086,-0.4259224236011505
1772725479888376300,9.752376220703125,9.147761344909668,3.4169507026672363,-0.41874396800994873
1772725479897893000,9.76189306640625,9.159725189208984,3.4337005615234375,-0.4546363055706024
1772725479907410000,9.771409912109375,9.183652877807617,3.431307554244995,-0.4307080805301666
1772725479916927000,9.780927001953126,9.214759826660156,3.4121651649475098,-0.3924229145050049
1772725479926443500,9.790443603515625,9.279366493225098,3.3619158267974854,-0.3924229145050049
1772725479935960600,9.799960693359376,9.44447135925293,3.34995174407959,-0.44027936458587646
1772725479945477400,9.809477294921875,9.501898765563965,3.326023578643799,-0.4450650215148926
1772725479954994200,9.818994140625,9.461220741271973,3.3092737197875977,-0.46420758962631226
1772725479964511000,9.828510986328125,9.379864692687988,3.335594654083252,-0.4785645306110382
1772725479974027800,9.83802783203125,9.293723106384277,3.4193434715270996,-0.5096712112426758
1772725479983544600,9.847544677734374,9.207581520080566,3.476771354675293,-0.576670229434967
1772725479993061400,9.857061279296875,9.176474571228027,3.4791641235351562,-0.5455635786056519
1772725480002578400,9.866578369140624,9.241081237792969,3.436093330383301,-0.5168496966362
1772725480012095000,9.876094970703125,9.29611587524414,3.3882367610931396,-0.4307080805301666
1772725480021612000,9.885612060546874,9.286544799804688,3.366701364517212,-0.4043870270252228
1772725480031128800,9.89512890625,9.300901412963867,3.3571300506591797,-0.4211367964744568
1772725480040645600,9.904645751953124,9.253045082092285,3.4432718753814697,-0.45224347710609436
1772725480050162400,9.914162353515625,9.298508644104004,3.445664644241333,-0.5431707501411438
1772725480059679200,9.92367919921875,9.370293617248535,3.4480574131011963,-0.5407779216766357
1772725480069196000,9.933196044921875,9.389435768127441,3.4169507026672363,-0.4977070987224579
1772725480078712800,9.942712890625,9.399007797241211,3.3954153060913086,-0.4426721930503845
1772725480088230000,9.95222998046875,9.339186668395996,3.3690943717956543,-0.41874396800994873
1772725480097746400,9.961746337890625,9.28893756866455,3.4169507026672363,-0.4211367964744568
1772725480107263500,9.971263427734375,9.267401695251465,3.4552359580993652,-0.4666004180908203
1772725480116780300,9.9807802734375,9.284152030944824,3.462414264678955,-0.4737788736820221
1772725480126297000,9.990297119140624,9.293723106384277,3.4265220165252686,-0.45224347710609436
1772725480135814000,9.99981396484375,9.293723106384277,3.436093330383301,-0.41156548261642456
1772725480145330700,10.00933056640625,9.332008361816406,3.452843189239502,-0.41874396800994873
1772725480154847500,10.018847412109375,9.358329772949219,3.4169507026672363,-0.43549370765686035
1772725480164364300,10.0283642578125,9.33440113067627,3.3475589752197266,-0.37088751792907715
1772725480173881300,10.03788134765625,9.611968994140625,3.187239646911621,-0.2392822653055191
1772725480183398000,10.04739794921875,9.56650447845459,3.2829527854919434,-0.4785645306110382
1772725480192915000,10.0569150390625,9.17886734008789,3.5222349166870117,-0.6508477330207825
1772725480202431700,10.066431640625,9.049654960632324,3.7328033447265625,-0.9643075466156006
1772725480211948500,10.075948486328125,8.898907661437988,3.783052682876587,-0.882951557636261
1772725480221465300,10.08546533203125,9.10229778289795,3.627519130706787,-0.6436693072319031
1772725480230982100,10.094982177734375,9.489934921264648,3.421736478805542,-0.4498506486415863
