time,seconds_elapsed,z,y,x
1772708648157636400,0.05263623046875,-0.592437744140625,-0.792572021484375,0.0889129638671875
1772708648167661300,0.062661376953125,-0.5955657958984375,-0.787353515625,0.1047515869140625
1772708648177686500,0.0726865234375,-0.5936737060546875,-0.7703704833984375,0.1196441650390625
1772708648187711500,0.08271142578125,-0.5816192626953125,-0.754180908203125,0.1348876953125
1772708648197736200,0.092736083984375,-0.5547637939453125,-0.743377685546875,0.1530914306640625
1772708648207761400,0.102761474609375,-0.523773193359375,-0.742401123046875,0.1729888916015625
1772708648217787400,0.112787353515625,-0.5123291015625,-0.7586669921875,0.1890869140625
1772708648227812400,0.122812255859375,-0.5132293701171875,-0.781707763671875,0.1772918701171875
1772708648237837300,0.13283740234375,-0.502532958984375,-0.7944183349609375,0.157257080078125
1772708648247862300,0.1428623046875,-0.4853363037109375,-0.8093109130859375,0.137115478515625
1772708648257887500,0.152887451171875,-0.471893310546875,-0.82940673828125,0.1234130859375
1772708648267913200,0.162913330078125,-0.46234130859375,-0.8403167724609375,0.1198272705078125
1772708648277938400,0.1729384765625,-0.451904296875,-0.8417510986328125,0.12200927734375
1772708648287963400,0.18296337890625,-0.4607391357421875,-0.8384246826171875,0.1382904052734375
1772708648297988400,0.19298828125,-0.48675537109375,-0.8386383056640625,0.1432647705078125
1772708648308013300,0.203013427734375,-0.50274658203125,-0.8342437744140625,0.13226318359375
1772708648318038500,0.21303857421875,-0.500762939453125,-0.8261871337890625,0.1240386962890625
1772708648328064500,0.223064453125,-0.4915008544921875,-0.816986083984375,0.1182403564453125
1772708648338089500,0.23308935546875,-0.4718780517578125,-0.810302734375,0.1193695068359375
1772708648348114400,0.243114501953125,-0.4465179443359375,-0.8213653564453125,0.119415283203125
1772708648358139400,0.253139404296875,-0.4045257568359375,-0.847900390625,0.1079254150390625
1772708648368164400,0.263164306640625,-0.357818603515625,-0.850006103515625,0.0965118408203125
1772708648378190300,0.2731904296875,-0.32440185546875,-0.83233642578125,0.104339599609375
1772708648388215300,0.28321533203125,-0.324737548828125,-0.860137939453125,0.0954132080078125
1772708648398240300,0.293240234375,-0.329345703125,-0.8719940185546875,0.0778961181640625
1772708648408265500,0.303265380859375,-0.3532562255859375,-0.845916748046875,0.0731658935546875
1772708648418290400,0.31329052734375,-0.400115966796875,-0.8209228515625,0.071197509765625
1772708648428315400,0.3233154296875,-0.439483642578125,-0.80804443359375,0.077606201171875
1772708648438341400,0.33334130859375,-0.4382171630859375,-0.789520263671875,0.098052978515625
1772708648448366300,0.343366455078125,-0.4239959716796875,-0.78582763671875,0.1119842529296875
1772708648458391600,0.3533916015625,-0.4191741943359375,-0.8026885986328125,0.1119232177734375
1772708648468416500,0.36341650390625,-0.400299072265625,-0.8075714111328125,0.0982818603515625
1772708648478441500,0.37344140625,-0.3722686767578125,-0.7949066162109375,0.096923828125
1772708648488466200,0.383466064453125,-0.358612060546875,-0.785675048828125,0.1322784423828125
1772708648498492400,0.393492431640625,-0.3851776123046875,-0.778106689453125,0.1804656982421875
1772708648508517400,0.403517333984375,-0.4337615966796875,-0.756988525390625,0.2055511474609375
1772708648518542300,0.413542236328125,-0.487274169921875,-0.7092132568359375,0.206939697265625
1772708648528567300,0.4235673828125,-0.5258026123046875,-0.6356658935546875,0.1751708984375
1772708648538592300,0.43359228515625,-0.5453643798828125,-0.5848846435546875,0.1351318359375
1772708648548618000,0.443617919921875,-0.542388916015625,-0.5735931396484375,0.105010986328125
1772708648558643200,0.453643310546875,-0.518768310546875,-0.5920867919921875,0.09942626953125
1772708648568668200,0.463668212890625,-0.50018310546875,-0.644287109375,0.1220703125
1772708648578693000,0.473693115234375,-0.516998291015625,-0.7338409423828125,0.137664794921875
1772708648588718000,0.483718017578125,-0.5610504150390625,-0.834228515625,0.1274871826171875
1772708648598743300,0.493743408203125,-0.60638427734375,-0.929931640625,0.10150146484375
1772708648608769300,0.503769287109375,-0.6302032470703125,-1.027618408203125,0.0791015625
1772708648618794200,0.513794189453125,-0.640411376953125,-1.1247100830078125,0.067718505859375
1772708648628819200,0.523819091796875,-0.6236724853515625,-1.1920013427734375,0.070404052734375
1772708648638844200,0.53384423828125,-0.619354248046875,-1.241119384765625,0.051239013671875
1772708648648869400,0.543869384765625,-0.641082763671875,-1.280517578125,0.0062408447265625
1772708648658895400,0.553895263671875,-0.6037750244140625,-1.3269805908203125,-0.001739501953125
1772708648668920300,0.56392041015625,-0.5559234619140625,-1.4374847412109375,0.0562591552734375
1772708648678945000,0.573945068359375,-0.5569915771484375,-1.567779541015625,0.1234893798828125
1772708648688970000,0.583969970703125,-0.6157073974609375,-1.6579132080078125,0.1152801513671875
1772708648698995200,0.5939951171875,-0.708038330078125,-1.69921875,0.050048828125
1772708648709020200,0.604020263671875,-0.8189239501953125,-1.7614898681640625,-0.0186309814453125
1772708648719046100,0.614046142578125,-0.89068603515625,-1.772247314453125,-0.1040191650390625
1772708648729071000,0.624071044921875,-0.850616455078125,-1.7299346923828125,-0.158203125
1772708648739096000,0.634095947265625,-0.7061309814453125,-1.7020416259765625,-0.129852294921875
1772708648749121300,0.644121337890625,-0.5261688232421875,-1.63336181640625,-0.0315093994140625
1772708648759146200,0.654146240234375,-0.357147216796875,-1.48590087890625,0.0677490234375
1772708648769172200,0.664172119140625,-0.2106475830078125,-1.333587646484375,0.114776611328125
1772708648779197200,0.674197265625,-0.1212005615234375,-1.26727294921875,0.1436309814453125
1772708648789222100,0.68422216796875,-0.0389251708984375,-1.1864166259765625,0.0962982177734375
1772708648799247400,0.694247314453125,0.0529327392578125,-1.0305938720703125,-0.0047149658203125
1772708648809272000,0.70427197265625,0.098236083984375,-0.873321533203125,-0.0654144287109375
1772708648819298300,0.71429833984375,0.10174560546875,-0.75811767578125,-0.066375732421875
1772708648829323000,0.724322998046875,0.0872955322265625,-0.7491455078125,0.0018310546875
1772708648839348000,0.734347900390625,0.0865631103515625,-0.8477630615234375,0.14715576171875
1772708648849373200,0.744373291015625,0.0654449462890625,-0.979339599609375,0.3081817626953125
1772708648859398100,0.754398193359375,-0.000030517578125,-0.9800567626953125,0.3451385498046875
1772708648869423000,0.764423095703125,-0.03509521484375,-0.8343658447265625,0.2201995849609375
1772708648879449000,0.774448974609375,0.0492401123046875,-0.64605712890625,0.034423828125
1772708648889474000,0.78447412109375,-0.0029144287109375,-0.515777587890625,-0.0503692626953125
1772708648899499300,0.794499267578125,-0.0231475830078125,-0.4438934326171875,-0.0879669189453125
1772708648909524200,0.804524169921875,-0.038787841796875,-0.399688720703125,-0.1091156005859375
1772708648919549200,0.814549072265625,-0.072509765625,-0.342376708984375,-0.108367919921875
1772708648929575200,0.8245751953125,-0.0861968994140625,-0.2717437744140625,-0.09979248046875
1772708648939600100,0.83460009765625,-0.1148681640625,-0.2205047607421875,-0.0625457763671875
1772708648949625300,0.844625244140625,-0.1753387451171875,-0.2589111328125,0.0403594970703125
1772708648959650300,0.854650390625,-0.2480926513671875,-0.3338165283203125,0.168212890625
1772708648969675000,0.864675048828125,-0.3173675537109375,-0.3569488525390625,0.265228271484375
1772708648979700000,0.874699951171875,-0.3891754150390625,-0.3379669189453125,0.3045196533203125
1772708648989726000,0.884725830078125,-0.4463653564453125,-0.3155975341796875,0.2780609130859375
1772708648999751200,0.894751220703125,-0.525177001953125,-0.3184051513671875,0.207733154296875
1772708649009776000,0.904776123046875,-0.5109100341796875,-0.3443603515625,0.1203155517578125
1772708649019801000,0.914801025390625,-0.474517822265625,-0.3738555908203125,0.0707855224609375
1772708649029826000,0.924825927734375,-0.421112060546875,-0.412078857421875,0.00799560546875
1772708649039852000,0.93485205078125,-0.36627197265625,-0.4543914794921875,-0.0529937744140625
1772708649049877200,0.944877197265625,-0.3161773681640625,-0.506195068359375,-0.088958740234375
1772708649059902200,0.954902099609375,-0.2611083984375,-0.5265045166015625,-0.09490966796875
1772708649069927200,0.96492724609375,-0.1959991455078125,-0.516021728515625,-0.0589447021484375
1772708649079952100,0.9749521484375,-0.1251220703125,-0.542266845703125,-0.008148193359375
1772708649089977300,0.984977294921875,-0.04278564453125,-0.529022216796875,0.06182861328125
1772708649100003300,0.99500341796875,0.053009033203125,-0.4701080322265625,0.17510986328125
1772708649110028300,1.0050283203125,0.1397552490234375,-0.4316558837890625,0.274139404296875
1772708649120053000,1.015052978515625,0.18756103515625,-0.4206085205078125,0.319732666015625
1772708649130078000,1.025077880859375,0.159912109375,-0.4227142333984375,0.314239501953125
1772708649140103200,1.035103271484375,0.05487060546875,-0.4376220703125,0.2759552001953125
1772708649150129200,1.045129150390625,-0.0669097900390625,-0.45416259765625,0.2003936767578125
1772708649160154000,1.055154052734375,-0.164398193359375,-0.4806060791015625,0.1039276123046875
1772708649170179000,1.065178955078125,-0.3091278076171875,-0.4959716796875,0.030426025390625
1772708649180204000,1.0752041015625,-0.45098876953125,-0.548309326171875,0.039886474609375
1772708649190229200,1.085229248046875,-0.5830230712890625,-0.5996246337890625,0.09307861328125
1772708649200255200,1.095255126953125,-0.7051239013671875,-0.6716461181640625,0.1976318359375
1772708649210280200,1.1052802734375,-0.804443359375,-0.8041534423828125,0.342864990234375
1772708649220305200,1.11530517578125,-0.871490478515625,-1.001708984375,0.4785003662109375
1772708649230330000,1.125330078125,-0.904632568359375,-1.2021942138671875,0.5566864013671875
1772708649240355300,1.135355224609375,-0.9043731689453125,-1.3712615966796875,0.5311279296875
1772708649250380300,1.14538037109375,-0.8426361083984375,-1.487335205078125,0.383575439453125
1772708649260406300,1.15540625,-0.7698211669921875,-1.5889892578125,0.214630126953125
1772708649270431200,1.16543115234375,-0.7685089111328125,-1.8135833740234375,0.160919189453125
1772708649280456200,1.175456298828125,-0.855926513671875,-2.013397216796875,0.1413116455078125
1772708649370683100,1.26568310546875,-0.83819580078125,-1.7622222900390625,0.1691436767578125
1772708649380708000,1.2757080078125,-1.0989990234375,-1.3830108642578125,-0.0010528564453125
1772708649390733300,1.2857333984375,-1.1827392578125,-1.018218994140625,-0.0937042236328125
1772708649400758300,1.29575830078125,-1.1109771728515625,-0.7086334228515625,-0.073516845703125
1772708649410783000,1.305782958984375,-0.9784088134765625,-0.5838470458984375,0.0914154052734375
1772708649420809200,1.315809326171875,-0.8303375244140625,-0.6287841796875,0.3145294189453125
1772708649430834200,1.325834228515625,-0.7200469970703125,-0.6408843994140625,0.39068603515625
1772708649440859100,1.335859130859375,-0.6647796630859375,-0.545623779296875,0.270172119140625
1772708649450884000,1.345884033203125,-0.6593017578125,-0.4588623046875,0.08514404296875
1772708649460909000,1.355908935546875,-0.6704254150390625,-0.4408416748046875,-0.03814697265625
1772708649470935000,1.36593505859375,-0.6364288330078125,-0.424957275390625,-0.10986328125
1772708649480960300,1.375960205078125,-0.5327301025390625,-0.3834381103515625,-0.1689605712890625
1772708649490985200,1.385985107421875,-0.3710174560546875,-0.3199920654296875,-0.1980133056640625
1772708649501010200,1.39601025390625,-0.203369140625,-0.2582550048828125,-0.18603515625
1772708649511035100,1.40603515625,-0.0999298095703125,-0.251922607421875,-0.1202545166015625
1772708649521060400,1.416060302734375,-0.0704345703125,-0.2816619873046875,-0.026397705078125
1772708649531086000,1.426086181640625,-0.096588134765625,-0.2794342041015625,0.0308380126953125
1772708649541111300,1.436111328125,-0.179046630859375,-0.2577056884765625,0.0665740966796875
1772708649551135700,1.4461357421875,-0.2865142822265625,-0.2295074462890625,0.0905609130859375
1772708649561160400,1.456160400390625,-0.37255859375,-0.2056427001953125,0.1084442138671875
1772708649571185700,1.466185546875,-0.4214935302734375,-0.2068023681640625,0.1266021728515625
1772708649581211600,1.476211669921875,-0.4238739013671875,-0.2242431640625,0.1135101318359375
1772708649591236600,1.486236572265625,-0.362213134765625,-0.2307586669921875,0.073455810546875
1772708649601261600,1.496261474609375,-0.2500152587890625,-0.2724151611328125,0.027587890625
1772708649611286500,1.50628662109375,-0.134246826171875,-0.346343994140625,-0.013824462890625
1772708649621311700,1.516311767578125,-0.03948974609375,-0.41827392578125,-0.0657958984375
1772708649631336700,1.526336669921875,0.024322509765625,-0.453460693359375,-0.1082611083984375
1772708649641362700,1.53636279296875,0.044036865234375,-0.4319000244140625,-0.1356658935546875
1772708649651387600,1.5463876953125,0.0288543701171875,-0.347930908203125,-0.1615142822265625
1772708649661412600,1.55641259765625,-0.021820068359375,-0.3000335693359375,-0.0961456298828125
1772708649671437800,1.566437744140625,-0.095428466796875,-0.318267822265625,-0.0169219970703125
1772708649681462800,1.576462890625,-0.170379638671875,-0.3284759521484375,0.0269775390625
1772708649691488800,1.58648876953125,-0.229827880859375,-0.310791015625,0.0374908447265625
1772708649701513700,1.596513671875,-0.258575439453125,-0.282440185546875,0.0258331298828125
1772708649711538400,1.606538330078125,-0.2697601318359375,-0.26153564453125,-0.005340576171875
1772708649721563600,1.616563720703125,-0.2710113525390625,-0.270660400390625,-0.0406646728515625
1772708649731588600,1.626588623046875,-0.2823638916015625,-0.3153533935546875,-0.0476531982421875
1772708649741614600,1.636614501953125,-0.277008056640625,-0.3543853759765625,-0.0350189208984375
1772708649751639600,1.6466396484375,-0.2392730712890625,-0.373626708984375,0.006378173828125
1772708649761664500,1.65666455078125,-0.1742401123046875,-0.394683837890625,0.0844573974609375
1772708649771689700,1.666689697265625,-0.12103271484375,-0.4486236572265625,0.1961822509765625
1772708649781714700,1.676714599609375,-0.1298675537109375,-0.5811309814453125,0.36102294921875
1772708649791739600,1.68673974609375,-0.2509613037109375,-0.7929229736328125,0.5107421875
1772708649801765600,1.696765625,-0.501190185546875,-1.0026092529296875,0.561798095703125
1772708649811790600,1.70679052734375,-0.7499542236328125,-1.164703369140625,0.54180908203125
1772708649821815800,1.71681591796875,-0.9929656982421875,-1.3016204833984375,0.476806640625
1772708649831840800,1.7268408203125,-1.1385498046875,-1.408203125,0.346588134765625
1772708649841865700,1.73686572265625,-1.0620880126953125,-1.5310821533203125,0.128143310546875
1772708649851890700,1.746890625,-0.836334228515625,-1.708984375,-0.1482086181640625
1772708649861916700,1.756916748046875,-0.54718017578125,-2.149322509765625,-0.2339630126953125
1772708649871941600,1.766941650390625,-0.4754180908203125,-2.661163330078125,-0.0489959716796875
1772708649912042500,1.80704248046875,-0.9752655029296875,-1.824981689453125,0.11688232421875
1772708649922067700,1.817067626953125,-1.1361846923828125,-1.7002105712890625,0.166900634765625
1772708649932092700,1.8270927734375,-1.365234375,-1.5642547607421875,0.3159637451171875
1772708649942117600,1.83711767578125,-1.558563232421875,-1.508270263671875,0.538421630859375
1772708649952142600,1.847142578125,-1.655487060546875,-1.4593658447265625,0.6669921875
1772708649962167800,1.857167724609375,-1.5921630859375,-1.3253021240234375,0.5763397216796875
1772708649972193800,1.86719384765625,-1.38409423828125,-1.10772705078125,0.294769287109375
1772708649982218800,1.87721875,-1.122894287109375,-0.9177398681640625,-0.002685546875
1772708649992243700,1.88724365234375,-0.87091064453125,-0.7966156005859375,-0.2020721435546875
1772708650002268700,1.8972685546875,-0.6741485595703125,-0.6954345703125,-0.2918548583984375
1772708650012293600,1.907293701171875,-0.5539703369140625,-0.642974853515625,-0.2407684326171875
1772708650022319600,1.917319580078125,-0.508697509765625,-0.653717041015625,-0.0931549072265625
1772708650032344600,1.927344482421875,-0.4980316162109375,-0.649505615234375,0.040985107421875
1772708650042369500,1.93736962890625,-0.5018157958984375,-0.5866546630859375,0.1239013671875
1772708650052394800,1.947394775390625,-0.5161895751953125,-0.4767303466796875,0.1453094482421875
1772708650062419700,1.957419677734375,-0.5588226318359375,-0.35919189453125,0.09814453125
1772708650072444700,1.967444580078125,-0.579376220703125,-0.27313232421875,0.0011749267578125
1772708650082470700,1.977470703125,-0.51727294921875,-0.2152862548828125,-0.0973052978515625
1772708650092495600,1.98749560546875,-0.4075775146484375,-0.1820526123046875,-0.1663970947265625
1772708650102520800,1.997520751953125,-0.2926025390625,-0.174530029296875,-0.1871490478515625
1772708650112545800,2.0075458984375,-0.186279296875,-0.185028076171875,-0.1959381103515625
1772708650122570800,2.01757080078125,-0.105926513671875,-0.23004150390625,-0.174713134765625
1772708650132596700,2.0275966796875,-0.0539398193359375,-0.2779693603515625,-0.0829925537109375
1772708650142621700,2.03762158203125,-0.0166015625,-0.3608856201171875,-0.0178985595703125
1772708650152646700,2.047646728515625,-0.007171630859375,-0.44024658203125,0.04302978515625
1772708650162671600,2.057671630859375,-0.0225677490234375,-0.4625701904296875,0.08111572265625
1772708650172696600,2.067696533203125,-0.0771484375,-0.453765869140625,0.1389617919921875
1772708650182721500,2.077721435546875,-0.174041748046875,-0.420440673828125,0.180023193359375
1772708650192747500,2.08774755859375,-0.30718994140625,-0.3656005859375,0.170989990234375
1772708650202772700,2.097772705078125,-0.2768402099609375,-0.291168212890625,0.0739898681640625
1772708650212797700,2.107797607421875,-0.251922607421875,-0.205352783203125,-0.0229644775390625
1772708650222822700,2.11782275390625,-0.2909393310546875,-0.160491943359375,-0.0628814697265625
1772708650232847600,2.12784765625,-0.3304290771484375,-0.16217041015625,-0.1088409423828125
1772708650242872800,2.137872802734375,-0.3747406005859375,-0.18060302734375,-0.1460113525390625
1772708650252898800,2.14789892578125,-0.404327392578125,-0.2243499755859375,-0.16937255859375
1772708650262923800,2.157923828125,-0.415924072265625,-0.2795257568359375,-0.174560546875
1772708650272948700,2.16794873046875,-0.4066619873046875,-0.30804443359375,-0.165802001953125
1772708650282973700,2.1779736328125,-0.376007080078125,-0.317230224609375,-0.147064208984375
1772708650292998700,2.18799853515625,-0.3331756591796875,-0.3168182373046875,-0.1018829345703125
1772708650303025000,2.19802490234375,-0.2895355224609375,-0.3254547119140625,-0.0431060791015625
1772708650313049600,2.208049560546875,-0.248046875,-0.3527374267578125,-0.00146484375
1772708650323074600,2.218074462890625,-0.2131805419921875,-0.39794921875,0.007965087890625
1772708650333099500,2.228099609375,-0.184539794921875,-0.4273834228515625,0.0000457763671875
1772708650343124700,2.238124755859375,-0.145416259765625,-0.437469482421875,-0.0190277099609375
1772708650353149700,2.248149658203125,-0.1060791015625,-0.454315185546875,-0.0285491943359375
1772708650363175700,2.25817578125,-0.10003662109375,-0.50567626953125,-0.0285491943359375
1772708650373200600,2.26820068359375,-0.150421142578125,-0.6051483154296875,-0.0210723876953125
1772708650383225600,2.2782255859375,-0.2574462890625,-0.7573394775390625,-0.0022735595703125
1772708650393250800,2.288250732421875,-0.4136505126953125,-0.9388580322265625,0.0504608154296875
1772708650403275800,2.29827587890625,-0.571990966796875,-1.15667724609375,0.115570068359375
1772708650413300700,2.30830078125,-0.73663330078125,-1.4136505126953125,0.140533447265625
1772708650423326700,2.31832666015625,-0.8830108642578125,-1.654266357421875,0.1610107421875
1772708650433351700,2.3283515625,-0.9713134765625,-1.868316650390625,0.0901031494140625
1772708650443377000,2.338376953125,-1.0384368896484375,-1.942230224609375,-0.02362060546875
1772708650553654000,2.448654052734375,-1.4588775634765625,-1.8214263916015625,-0.16796875
1772708650563679000,2.458678955078125,-1.24102783203125,-1.545867919921875,-0.3411712646484375
1772708650573704000,2.468703857421875,-0.994049072265625,-1.2895355224609375,-0.4688568115234375
1772708650583730000,2.47872998046875,-0.747314453125,-1.0747833251953125,-0.501983642578125
1772708650593755000,2.4887548828125,-0.5832061767578125,-0.975128173828125,-0.373382568359375
1772708650603780000,2.498780029296875,-0.52392578125,-1.0036468505859375,-0.158538818359375
1772708650613805000,2.50880517578125,-0.500946044921875,-1.00494384765625,0.0320281982421875
1772708650623830000,2.518830078125,-0.4887237548828125,-0.9233551025390625,0.144805908203125
1772708650633855200,2.528855224609375,-0.487060546875,-0.7866363525390625,0.1551666259765625
1772708650643881000,2.538880859375,-0.4965057373046875,-0.5949859619140625,0.0952301025390625
1772708650653906200,2.54890625,-0.5005950927734375,-0.402679443359375,0.0146331787109375
1772708650663931100,2.55893115234375,-0.4811553955078125,-0.267608642578125,-0.0561370849609375
1772708650673956000,2.5689560546875,-0.4244232177734375,-0.2034149169921875,-0.1011199951171875
1772708650683981000,2.57898095703125,-0.3583221435546875,-0.1985015869140625,-0.1145782470703125
1772708650694006000,2.589006103515625,-0.298309326171875,-0.2304534912109375,-0.1247711181640625
1772708650704032000,2.599031982421875,-0.2474517822265625,-0.3009490966796875,-0.1525726318359375
1772708650714057000,2.609056884765625,-0.21026611328125,-0.3777008056640625,-0.185211181640625
1772708650724082000,2.61908203125,-0.2038726806640625,-0.4202880859375,-0.178192138671875
1772708650734107100,2.629107177734375,-0.2065887451171875,-0.412689208984375,-0.1946258544921875
1772708650744132000,2.639132080078125,-0.2158966064453125,-0.37579345703125,-0.2075958251953125
1772708650754157000,2.649156982421875,-0.2369232177734375,-0.3403472900390625,-0.1823577880859375
1772708650764183000,2.65918310546875,-0.25177001953125,-0.312835693359375,-0.1220550537109375
1772708650774208000,2.6692080078125,-0.251251220703125,-0.298736572265625,-0.0479278564453125
1772708650784233200,2.679233154296875,-0.251312255859375,-0.293548583984375,0.000030517578125
1772708650794258200,2.689258056640625,-0.2386474609375,-0.294586181640625,0.0029296875
1772708650804283100,2.699283203125,-0.2079925537109375,-0.2994384765625,-0.0177764892578125
1772708650814309000,2.70930908203125,-0.159332275390625,-0.2986602783203125,-0.0477142333984375
1772708650824334000,2.719333984375,-0.1131744384765625,-0.3053741455078125,-0.032440185546875
1772708650834359000,2.729359130859375,-0.06390380859375,-0.309417724609375,-0.029693603515625
1772708650844384000,2.739384033203125,-0.030059814453125,-0.2931365966796875,-0.062530517578125
1772708650854409000,2.749408935546875,-0.0172576904296875,-0.2681427001953125,-0.0829010009765625
1772708650864434000,2.759433837890625,-0.021240234375,-0.222442626953125,-0.1050872802734375
1772708650874460000,2.7694599609375,-0.064056396484375,-0.1878662109375,-0.10638427734375
1772708650884485000,2.779485107421875,-0.1469879150390625,-0.21417236328125,-0.0823822021484375
1772708650894510000,2.789510009765625,-0.213775634765625,-0.2609100341796875,-0.035125732421875
1772708650904535000,2.79953515625,-0.259613037109375,-0.2849273681640625,0.004364013671875
1772708650914560000,2.80956005859375,-0.28778076171875,-0.2987518310546875,0.01824951171875
1772708650924585200,2.819585205078125,-0.34490966796875,-0.3064727783203125,0.0402984619140625
1772708650934611200,2.829611083984375,-0.3329010009765625,-0.3090972900390625,-0.013763427734375
1772708650944636200,2.83963623046875,-0.3326873779296875,-0.290069580078125,-0.0573272705078125
1772708650954661000,2.8496611328125,-0.3167877197265625,-0.2686767578125,-0.0652313232421875
1772708650964686000,2.85968603515625,-0.302825927734375,-0.282745361328125,-0.0584869384765625
1772708650974711000,2.8697109375,-0.300323486328125,-0.3602447509765625,-0.0112152099609375
1772708650984736000,2.879736083984375,-0.322845458984375,-0.493194580078125,0.077056884765625
1772708650994762000,2.889761962890625,-0.3721466064453125,-0.6900634765625,0.2010040283203125
1772708651004787000,2.899786865234375,-0.4823455810546875,-0.956207275390625,0.317779541015625
1772708651014812000,2.90981201171875,-0.6365814208984375,-1.233917236328125,0.3617706298828125
1772708651024837000,2.919837158203125,-0.764495849609375,-1.551483154296875,0.3598480224609375
1772708651034862000,2.929862060546875,-0.804443359375,-1.8899078369140625,0.200775146484375
1772708651044888000,2.93988818359375,-0.741424560546875,-2.139984130859375,-0.1073455810546875
1772708651095013000,2.99001318359375,-1.2232513427734375,-1.9316864013671875,0.4205169677734375
1772708651105039000,3.0000390625,-1.16162109375,-1.7092132568359375,0.4750213623046875
1772708651115064000,3.01006396484375,-1.074951171875,-1.55419921875,0.44219970703125
1772708651125089000,3.020089111328125,-1.13330078125,-1.3279571533203125,0.30419921875
1772708651135114000,3.030114013671875,-1.224945068359375,-0.9994354248046875,0.167022705078125
1772708651145139000,3.040138916015625,-1.2130889892578125,-0.740631103515625,0.0289459228515625
1772708651155164000,3.050163818359375,-1.04071044921875,-0.72900390625,-0.074676513671875
1772708651165190000,3.06018994140625,-0.908538818359375,-0.9480438232421875,-0.1449737548828125
1772708651175215000,3.070215087890625,-0.905364990234375,-1.1422576904296875,-0.2628326416015625
1772708651185240000,3.080239990234375,-0.937347412109375,-1.134185791015625,-0.3812103271484375
1772708651195265000,3.09026513671875,-0.939178466796875,-0.933837890625,-0.45513916015625
1772708651205290000,3.1002900390625,-0.9241485595703125,-0.7522430419921875,-0.4646759033203125
1772708651215315200,3.110315185546875,-0.8812255859375,-0.6192626953125,-0.419708251953125
1772708651225341200,3.120341064453125,-0.7987823486328125,-0.5035247802734375,-0.3411407470703125
1772708651235366100,3.1303662109375,-0.678009033203125,-0.418060302734375,-0.2289886474609375
1772708651245391000,3.14039111328125,-0.51715087890625,-0.3874969482421875,-0.087493896484375
1772708651255416000,3.150416015625,-0.3541107177734375,-0.3805084228515625,0.0462493896484375
1772708651265441000,3.16044091796875,-0.2143096923828125,-0.36517333984375,0.1680908203125
1772708651275467300,3.17046728515625,-0.1283416748046875,-0.3975067138671875,0.2774200439453125
1772708651285492000,3.180491943359375,-0.0752105712890625,-0.4073028564453125,0.3264007568359375
1772708651295517000,3.190516845703125,-0.0672149658203125,-0.357086181640625,0.3599853515625
1772708651305542000,3.2005419921875,-0.14312744140625,-0.3000946044921875,0.3342132568359375
1772708651315567000,3.210567138671875,-0.316650390625,-0.2472076416015625,0.2774505615234375
1772708651325592000,3.220592041015625,-0.4485321044921875,-0.2029571533203125,0.1825408935546875
1772708651335618000,3.2306181640625,-0.5425262451171875,-0.1744384765625,0.1141357421875
1772708651345643000,3.24064306640625,-0.5633697509765625,-0.1443939208984375,0.0450897216796875
1772708651355668000,3.25066796875,-0.5359344482421875,-0.1167144775390625,0.0093994140625
1772708651365693200,3.260693115234375,-0.4787445068359375,-0.1082611083984375,0.00244140625
1772708651375718100,3.27071826171875,-0.399932861328125,-0.110748291015625,0.01446533203125
1772708651385743000,3.2807431640625,-0.3102874755859375,-0.1072998046875,0.0229034423828125
1772708651395769000,3.29076904296875,-0.231231689453125,-0.109649658203125,0.03338623046875
1772708651405794000,3.3007939453125,-0.17529296875,-0.1220703125,0.046630859375
1772708651415819000,3.310819091796875,-0.1298370361328125,-0.12548828125,0.0513458251953125
1772708651425844000,3.320843994140625,-0.0902862548828125,-0.1175537109375,0.0462799072265625
1772708651435869000,3.330868896484375,-0.06463623046875,-0.101959228515625,0.033599853515625
1772708651445894000,3.340893798828125,-0.0420989990234375,-0.0803680419921875,0.0128631591796875
1772708651455919900,3.350919921875,-0.027130126953125,-0.0679779052734375,-0.029693603515625
1772708651465945000,3.360945068359375,-0.0269622802734375,-0.07635498046875,-0.08697509765625
1772708651475970000,3.370969970703125,-0.0528717041015625,-0.1414794921875,-0.144622802734375
1772708651485995000,3.3809951171875,-0.11376953125,-0.226104736328125,-0.2419891357421875
1772708651496020000,3.39102001953125,-0.1590576171875,-0.2783203125,-0.3095550537109375
1772708651506045200,3.401045166015625,-0.1958465576171875,-0.3094482421875,-0.36383056640625
1772708651516071200,3.4110712890625,-0.282958984375,-0.3192291259765625,-0.4254913330078125
1772708651526096100,3.42109619140625,-0.439178466796875,-0.2574615478515625,-0.459014892578125
1772708651536121000,3.43112109375,-0.6234130859375,-0.237030029296875,-0.456817626953125
1772708651546146000,3.44114599609375,-0.8002166748046875,-0.330322265625,-0.3712310791015625
1772708651556170800,3.451170654296875,-0.985443115234375,-0.559478759765625,-0.1881103515625
1772708651566196700,3.46119677734375,-1.14447021484375,-0.85577392578125,0.0600738525390625
1772708651576221700,3.4712216796875,-1.217926025390625,-1.24432373046875,0.3221435546875
1772708651586246700,3.48124658203125,-1.2152099609375,-1.7599334716796875,0.462158203125
1772708651596271900,3.49127197265625,-1.211639404296875,-2.364898681640625,0.4626007080078125
1772708651696524000,3.59152392578125,-0.99566650390625,-1.8397369384765625,0.0747528076171875
1772708651706548700,3.601548828125,-0.896728515625,-1.6060943603515625,-0.1802825927734375
1772708651716573700,3.61157373046875,-0.6901702880859375,-1.464691162109375,-0.376861572265625
1772708651726598700,3.6215986328125,-0.5077972412109375,-1.40960693359375,-0.45806884765625
1772708651736624600,3.631624755859375,-0.4464569091796875,-1.3741302490234375,-0.499420166015625
1772708651746649900,3.64164990234375,-0.4691162109375,-1.2440032958984375,-0.5276641845703125
1772708651756674800,3.6516748046875,-0.5286865234375,-1.0176544189453125,-0.4938812255859375
1772708651766699800,3.66169970703125,-0.5931854248046875,-0.748687744140625,-0.386810302734375
1772708651776724700,3.671724853515625,-0.6580963134765625,-0.519989013671875,-0.23504638671875
1772708651786750000,3.68175,-0.776092529296875,-0.4123992919921875,-0.0216064453125
1772708651796775000,3.69177490234375,-0.8919219970703125,-0.397552490234375,0.1859130859375
1772708651806801000,3.70180078125,-0.952056884765625,-0.376129150390625,0.300506591796875
1772708651816825900,3.711825927734375,-0.9312896728515625,-0.29296875,0.287933349609375
1772708651826850800,3.721850830078125,-0.8589630126953125,-0.20166015625,0.2023468017578125
1772708651836875800,3.731875732421875,-0.78021240234375,-0.1316986083984375,0.097991943359375
1772708651846900700,3.741900634765625,-0.7067718505859375,-0.1107940673828125,0.0084686279296875
1772708651856926700,3.7519267578125,-0.6584014892578125,-0.155792236328125,-0.0421295166015625
1772708651866951700,3.76195166015625,-0.625091552734375,-0.2314910888671875,-0.049407958984375
1772708651876976600,3.7719765625,-0.5821075439453125,-0.2974090576171875,-0.0173492431640625
1772708651887001900,3.782001953125,-0.5322723388671875,-0.3392181396484375,0.02734375
1772708651897026800,3.79202685546875,-0.492218017578125,-0.36981201171875,0.0521240234375
1772708651907051800,3.8020517578125,-0.4583587646484375,-0.394866943359375,0.04425048828125
1772708651917077800,3.812077880859375,-0.4434814453125,-0.4212188720703125,0.0108795166015625
1772708651927102700,3.822102783203125,-0.4520263671875,-0.443359375,-0.038909912109375
1772708651937128000,3.8321279296875,-0.4387664794921875,-0.4313507080078125,-0.09210205078125
1772708651947153000,3.84215283203125,-0.4056549072265625,-0.39013671875,-0.1418914794921875
1772708651957177900,3.852177734375,-0.3718414306640625,-0.332733154296875,-0.1815643310546875
1772708651967202800,3.862202880859375,-0.3450927734375,-0.281097412109375,-0.1963958740234375
1772708651977228800,3.872228759765625,-0.3256683349609375,-0.2413787841796875,-0.1883544921875
1772708651987254000,3.88225390625,-0.31866455078125,-0.2081146240234375,-0.1640167236328125
1772708651997278700,3.89227880859375,-0.3137359619140625,-0.1838836669921875,-0.138702392578125
1772708652007303700,3.9023037109375,-0.3242340087890625,-0.170440673828125,-0.1130523681640625
1772708652017328600,3.91232861328125,-0.3446502685546875,-0.1556243896484375,-0.091094970703125
1772708652027353900,3.922353759765625,-0.35931396484375,-0.1295166015625,-0.0841827392578125
1772708652037379800,3.9323798828125,-0.36334228515625,-0.1074981689453125,-0.0813751220703125
1772708652047404800,3.94240478515625,-0.3742828369140625,-0.1044158935546875,-0.0604095458984375
1772708652057429800,3.9524296875,-0.3961639404296875,-0.116668701171875,-0.0159759521484375
1772708652067454700,3.962454833984375,-0.43243408203125,-0.139068603515625,0.0487823486328125
1772708652077480000,3.97247998046875,-0.4801177978515625,-0.182830810546875,0.12445068359375
1772708652087505000,3.9825048828125,-0.5395355224609375,-0.2536468505859375,0.1989593505859375
1772708652097531000,3.99253076171875,-0.5856475830078125,-0.344696044921875,0.28131103515625
1772708652107555800,4.002555908203125,-0.6215057373046875,-0.48443603515625,0.401275634765625
1772708652117580800,4.012580810546875,-0.66754150390625,-0.697235107421875,0.552886962890625
1772708652127605800,4.022605712890625,-0.723785400390625,-0.9379425048828125,0.6840667724609375
1772708652137630700,4.032630615234375,-0.81866455078125,-1.1237030029296875,0.7838287353515625
1772708652147655700,4.04265576171875,-0.92779541015625,-1.227294921875,0.77386474609375
1772708652157681700,4.052681640625,-0.9515838623046875,-1.302398681640625,0.59588623046875
1772708652167706600,4.06270654296875,-0.9874420166015625,-1.478363037109375,0.3662261962890625
1772708652177731800,4.07273193359375,-1.101898193359375,-1.710723876953125,0.142974853515625
1772708652187756800,4.0827568359375,-1.3014678955078125,-1.83856201171875,-0.0186309814453125
1772708652197781800,4.09278173828125,-1.4463043212890625,-1.8083038330078125,-0.1581268310546875
1772708652207806700,4.102806640625,-1.4960479736328125,-1.7288055419921875,-0.2288818359375
1772708652217832700,4.112832763671875,-1.4319915771484375,-1.78411865234375,-0.18316650390625
1772708652227858000,4.12285791015625,-1.1709442138671875,-1.932952880859375,-0.053924560546875
1772708652237883000,4.1328828125,-0.8347320556640625,-2.0633087158203125,0.1083221435546875
1772708652257932800,4.152932861328125,-0.473968505859375,-1.765594482421875,0.0616607666015625
1772708652267957800,4.162957763671875,-0.499542236328125,-1.390869140625,-0.06231689453125
1772708652277984000,4.17298388671875,-0.547088623046875,-1.0435028076171875,-0.128753662109375
1772708652288008700,4.1830087890625,-0.5692291259765625,-0.80169677734375,-0.1495513916015625
1772708652298033700,4.19303369140625,-0.657958984375,-0.70867919921875,-0.1214141845703125
1772708652308058600,4.20305859375,-0.856964111328125,-0.733612060546875,-0.06719970703125
1772708652318083800,4.213083740234375,-1.064605712890625,-0.771728515625,-0.074920654296875
1772708652328109800,4.22310986328125,-1.18109130859375,-0.75640869140625,-0.18109130859375
1772708652338134800,4.233134765625,-1.1785430908203125,-0.67547607421875,-0.3233642578125
1772708652348159700,4.24315966796875,-1.0531768798828125,-0.5693359375,-0.457763671875
1772708652358184700,4.253184814453125,-0.8395233154296875,-0.5064544677734375,-0.5031280517578125
1772708652368210000,4.2632099609375,-0.6102142333984375,-0.4320526123046875,-0.4983062744140625
1772708652378235000,4.27323486328125,-0.418212890625,-0.3282012939453125,-0.4581756591796875
1772708652388260900,4.2832607421875,-0.271942138671875,-0.2357940673828125,-0.390655517578125
1772708652398285800,4.293285888671875,-0.1784515380859375,-0.176971435546875,-0.2994384765625
1772708652408310800,4.303310791015625,-0.108917236328125,-0.182281494140625,-0.149627685546875
1772708652418335700,4.313335693359375,-0.0445098876953125,-0.2681121826171875,0.052001953125
1772708652428360700,4.323360595703125,-0.052032470703125,-0.3524169921875,0.1971893310546875
1772708652438385700,4.3333857421875,-0.1177215576171875,-0.38092041015625,0.2466278076171875
1772708652448411600,4.34341162109375,-0.205413818359375,-0.35906982421875,0.2639617919921875
1772708652458436600,4.3534365234375,-0.2527618408203125,-0.290863037109375,0.2088775634765625
1772708652468461800,4.3634619140625,-0.2556915283203125,-0.2069854736328125,0.134552001953125
1772708652478486800,4.37348681640625,-0.2398529052734375,-0.1540985107421875,0.09661865234375
1772708652488511700,4.38351171875,-0.2203216552734375,-0.131591796875,0.069671630859375
1772708652498536700,4.39353662109375,-0.207061767578125,-0.130828857421875,0.054534912109375
1772708652508562700,4.403562744140625,-0.200225830078125,-0.1427764892578125,0.0426788330078125
1772708652518588000,4.413587890625,-0.1907806396484375,-0.154632568359375,0.033721923828125
1772708652528612900,4.42361279296875,-0.1892547607421875,-0.158355712890625,0.0419769287109375
1772708652538637800,4.433637939453125,-0.2042236328125,-0.160003662109375,0.059417724609375
1772708652548662800,4.443662841796875,-0.224334716796875,-0.160736083984375,0.0818634033203125
1772708652558688000,4.45368798828125,-0.2353057861328125,-0.162872314453125,0.104827880859375
1772708652568714000,4.4637138671875,-0.2375946044921875,-0.1659393310546875,0.1209564208984375
1772708652578739000,4.473739013671875,-0.23974609375,-0.178985595703125,0.124176025390625
1772708652588764000,4.483763916015625,-0.2476043701171875,-0.2092132568359375,0.0894775390625
1772708652598788900,4.493788818359375,-0.2529449462890625,-0.253173828125,0.0122528076171875
1772708652608813800,4.503813720703125,-0.2599334716796875,-0.2942352294921875,-0.0726318359375
1772708652618838800,4.5138388671875,-0.2821197509765625,-0.324920654296875,-0.1473388671875
1772708652628864800,4.52386474609375,-0.30419921875,-0.3365020751953125,-0.207733154296875
1772708652638889700,4.5338896484375,-0.3287353515625,-0.32916259765625,-0.234527587890625
1772708652648914700,4.543914794921875,-0.3943023681640625,-0.330474853515625,-0.1869659423828125
1772708652658940000,4.55393994140625,-0.49749755859375,-0.3977203369140625,-0.012237548828125
1772708652668964900,4.56396484375,-0.6210174560546875,-0.670257568359375,0.2985076904296875
1772708652678989800,4.57398974609375,-0.7835540771484375,-1.168792724609375,0.70599365234375
1772708652689015800,4.584015869140625,-0.8267974853515625,-1.639892578125,0.8238983154296875
1772708652699040800,4.594040771484375,-0.7414703369140625,-2.0147247314453125,0.7758331298828125
1772708652709066000,4.60406591796875,-0.59320068359375,-2.4057769775390625,0.713714599609375
1772708652749166800,4.644166748046875,-1.70831298828125,-1.91455078125,0.296142578125
1772708652759192000,4.654192138671875,-1.939666748046875,-1.8346710205078125,0.5054473876953125
1772708652769216800,4.664216796875,-1.88427734375,-1.9870452880859375,0.76239013671875
1772708652829367800,4.724367919921875,-0.67352294921875,-1.6859588623046875,-0.52886962890625
1772708652839393000,4.73439306640625,-0.5269317626953125,-1.25653076171875,-0.5926055908203125
1772708652849418000,4.74441796875,-0.430511474609375,-0.870819091796875,-0.5815582275390625
1772708652859443000,4.75444287109375,-0.45703125,-0.53436279296875,-0.484588623046875
1772708652869469000,4.764468994140625,-0.651824951171875,-0.2823486328125,-0.3183746337890625
1772708652879494000,4.774493896484375,-0.8596038818359375,-0.131866455078125,-0.1618804931640625
1772708652889519000,4.78451904296875,-1.0638885498046875,-0.1283416748046875,-0.0569915771484375
1772708652899543800,4.794543701171875,-1.2015838623046875,-0.2322845458984375,-0.0517120361328125
1772708652909568800,4.80456884765625,-1.18328857421875,-0.34027099609375,-0.1655120849609375
1772708652919593700,4.81459375,-1.0311431884765625,-0.419830322265625,-0.343505859375
1772708652929619700,4.82461962890625,-0.7936553955078125,-0.4292755126953125,-0.513214111328125
1772708652939645000,4.83464501953125,-0.5429534912109375,-0.381988525390625,-0.6212158203125
1772708652949670000,4.844669921875,-0.3505401611328125,-0.3408966064453125,-0.6329345703125
1772708652959694800,4.85469482421875,-0.2172698974609375,-0.3294219970703125,-0.5722198486328125
1772708652969719800,4.8647197265625,-0.124359130859375,-0.3115997314453125,-0.489471435546875
1772708652979745000,4.8747451171875,-0.0345611572265625,-0.276275634765625,-0.395233154296875
1772708652989771000,4.88477099609375,-0.032745361328125,-0.30328369140625,-0.2314910888671875
1772708652999796000,4.8947958984375,-0.1895599365234375,-0.36053466796875,-0.0342559814453125
1772708653009821000,4.904821044921875,-0.33355712890625,-0.3612213134765625,0.0517120361328125
1772708653019846000,4.914845947265625,-0.405059814453125,-0.346221923828125,0.0608673095703125
1772708653029871000,4.92487109375,-0.402099609375,-0.326171875,0.0703582763671875
1772708653039895800,4.934895751953125,-0.3474884033203125,-0.273284912109375,0.05615234375
1772708653049922000,4.944922119140625,-0.2764739990234375,-0.195404052734375,0.0213623046875
1772708653059946800,4.95494677734375,-0.1917877197265625,-0.1225433349609375,-0.03173828125
1772708653069971700,4.9649716796875,-0.1142425537109375,-0.087493896484375,-0.074920654296875
1772708653079997000,4.974996826171875,-0.059051513671875,-0.080596923828125,-0.10357666015625
1772708653090022000,4.98502197265625,-0.0313262939453125,-0.104156494140625,-0.1030731201171875
1772708653100046800,4.995046875,0.00152587890625,-0.1437835693359375,-0.0974578857421875
1772708653110072800,5.00507275390625,0.0204925537109375,-0.1762542724609375,-0.09271240234375
1772708653120097800,5.015097900390625,0.037628173828125,-0.1860504150390625,-0.0838470458984375
1772708653130123000,5.025123046875,0.0396881103515625,-0.1862335205078125,-0.0597686767578125
1772708653140148000,5.03514794921875,0.000152587890625,-0.212921142578125,-0.0212249755859375
1772708653150173000,5.0451728515625,-0.052734375,-0.24884033203125,0.000946044921875
1772708653160198000,5.055197998046875,-0.0869598388671875,-0.2763671875,0.0036773681640625
1772708653170223900,5.065223876953125,-0.1037750244140625,-0.31365966796875,0.0032806396484375
1772708653180249000,5.0752490234375,-0.119598388671875,-0.3489837646484375,0.00579833984375
1772708653190273800,5.085273681640625,-0.138153076171875,-0.3744659423828125,0.0127105712890625
1772708653200298800,5.095298828125,-0.15606689453125,-0.4159393310546875,0.01544189453125
1772708653210323700,5.10532373046875,-0.180999755859375,-0.487091064453125,0.0187225341796875
1772708653220349000,5.115348876953125,-0.3168792724609375,-0.5582122802734375,0.0751953125
1772708653230375000,5.125375,-0.4851226806640625,-0.6513214111328125,0.1708526611328125
1772708653240400000,5.13539990234375,-0.699310302734375,-0.7925262451171875,0.3538665771484375
1772708653250424800,5.1454248046875,-0.892120361328125,-1.0412750244140625,0.53631591796875
1772708653260449800,5.15544970703125,-1.0736541748046875,-1.3587493896484375,0.6282806396484375
1772708653270475000,5.16547509765625,-1.1927032470703125,-1.718536376953125,0.6330718994140625
1772708653280500000,5.1755,-1.2439117431640625,-2.021270751953125,0.5718536376953125
1772708653290526000,5.18552587890625,-1.209808349609375,-2.1450653076171875,0.4587249755859375
1772708653380752000,5.275751953125,-1.0543975830078125,-1.54229736328125,0.332427978515625
1772708653390776800,5.28577685546875,-1.3511810302734375,-1.0709991455078125,0.27655029296875
1772708653400801800,5.2958017578125,-1.405792236328125,-0.7288055419921875,0.21246337890625
1772708653410827800,5.305827880859375,-1.29144287109375,-0.5923004150390625,0.1448974609375
1772708653421478000,5.316477783203125,-1.120941162109375,-0.6431732177734375,0.055450439453125
1772708653431502800,5.3265029296875,-0.9669952392578125,-0.7153167724609375,-0.0656585693359375
1772708653441528800,5.33652880859375,-0.8379058837890625,-0.7384033203125,-0.1912384033203125
1772708653451553800,5.3465537109375,-0.7299041748046875,-0.6960296630859375,-0.2805938720703125
1772708653461578800,5.356578857421875,-0.631988525390625,-0.6101226806640625,-0.304046630859375
1772708653471604000,5.36660400390625,-0.5731658935546875,-0.492767333984375,-0.2638397216796875
1772708653481629000,5.37662890625,-0.5490570068359375,-0.3462066650390625,-0.1941986083984375
1772708653491654000,5.38665380859375,-0.5313262939453125,-0.2412567138671875,-0.0944061279296875
1772708653501679900,5.396679931640625,-0.5040740966796875,-0.203765869140625,0.014617919921875
1772708653511704800,5.406704833984375,-0.46697998046875,-0.19244384765625,0.1086578369140625
1772708653521730000,5.41672998046875,-0.4019775390625,-0.1639862060546875,0.1603240966796875
1772708653531755000,5.426755126953125,-0.3266143798828125,-0.1364288330078125,0.1821136474609375
1772708653541779700,5.43677978515625,-0.264984130859375,-0.133636474609375,0.1947784423828125
1772708653551804700,5.4468046875,-0.2142181396484375,-0.1405792236328125,0.20635986328125
1772708653561831200,5.4568310546875,-0.1760406494140625,-0.165496826171875,0.2324981689453125
1772708653571856100,5.466856201171875,-0.172027587890625,-0.202239990234375,0.2420806884765625
1772708653581881000,5.476881103515625,-0.192840576171875,-0.225616455078125,0.202484130859375
1772708653591906000,5.486906005859375,-0.209930419921875,-0.231201171875,0.1229248046875
1772708653601931000,5.496930908203125,-0.231231689453125,-0.2276458740234375,0.0372467041015625
1772708653611956200,5.506956298828125,-0.267578125,-0.2210540771484375,-0.0259246826171875
1772708653621982200,5.516982177734375,-0.30841064453125,-0.208740234375,-0.066009521484375
1772708653632007200,5.527007080078125,-0.3414154052734375,-0.193206787109375,-0.0858612060546875
1772708653642032000,5.5370322265625,-0.3585052490234375,-0.18231201171875,-0.09759521484375
1772708653652057000,5.54705712890625,-0.3672637939453125,-0.17816162109375,-0.10321044921875
1772708653662082300,5.557082275390625,-0.378662109375,-0.17681884765625,-0.0893402099609375
1772708653672107300,5.567107177734375,-0.39453125,-0.1720123291015625,-0.0511627197265625
1772708653682133200,5.57713330078125,-0.393768310546875,-0.145965576171875,-0.026031494140625
1772708653692158200,5.587158203125,-0.357513427734375,-0.10009765625,0.0000457763671875
1772708653702183000,5.597182861328125,-0.3017730712890625,-0.0594329833984375,0.0469818115234375
1772708653712208100,5.6072080078125,-0.2387847900390625,-0.04296875,0.0843658447265625
1772708653722233000,5.617233154296875,-0.17193603515625,-0.063720703125,0.0994110107421875
1772708653732258000,5.627258056640625,-0.1175384521484375,-0.1353912353515625,0.1252288818359375
1772708653742911000,5.637910888671875,-0.06207275390625,-0.2317657470703125,0.152252197265625
1772708653752936200,5.647936279296875,-0.032470703125,-0.3084259033203125,0.1407012939453125
1772708653762961200,5.657961181640625,-0.03387451171875,-0.34979248046875,0.104949951171875
1772708653772987100,5.667987060546875,-0.035491943359375,-0.3555755615234375,0.12158203125
1772708653783012000,5.67801220703125,-0.052490234375,-0.3654327392578125,0.1418914794921875
1772708653793037000,5.688037109375,-0.0796356201171875,-0.412933349609375,0.1649169921875
1772708653803062300,5.698062255859375,-0.136688232421875,-0.4994964599609375,0.2103118896484375
1772708653813087200,5.708087158203125,-0.267547607421875,-0.6086883544921875,0.2852020263671875
1772708653823112000,5.71811181640625,-0.409698486328125,-0.7536773681640625,0.3648681640625
1772708653833138200,5.72813818359375,-0.49224853515625,-0.9672393798828125,0.44354248046875
1772708653843163100,5.7381630859375,-0.504852294921875,-1.1986541748046875,0.430145263671875
1772708653853188000,5.74818798828125,-0.4954071044921875,-1.4239654541015625,0.34381103515625
1772708653863213000,5.758213134765625,-0.5212249755859375,-1.58349609375,0.21405029296875
1772708653873238000,5.768238037109375,-0.6548919677734375,-1.546478271484375,0.0260009765625
1772708653883264000,5.778263916015625,-0.830352783203125,-1.3855133056640625,-0.1201629638671875
1772708653893289200,5.788289306640625,-0.991912841796875,-1.292572021484375,-0.0439453125
1772708653903314200,5.798314208984375,-1.0989837646484375,-1.4341583251953125,0.22882080078125
1772708653913339100,5.808339111328125,-1.0712738037109375,-1.7148284912109375,0.5287933349609375
1772708653923364000,5.818364013671875,-0.93780517578125,-1.9378662109375,0.7598724365234375
1772708653933389300,5.828389404296875,-0.820404052734375,-2.0495758056640625,0.8125152587890625
1772708653983515100,5.87851513671875,-1.705657958984375,-1.8941650390625,0.260345458984375
1772708653993540000,5.8885400390625,-1.960052490234375,-1.7052459716796875,0.138671875
1772708654003566000,5.898566162109375,-2.013519287109375,-1.606964111328125,0.043426513671875
1772708654013591000,5.908591064453125,-1.829833984375,-1.553863525390625,-0.005615234375
1772708654023616000,5.918615966796875,-1.456085205078125,-1.4803619384765625,-0.0447998046875
1772708654033641200,5.92864111328125,-1.0099334716796875,-1.37213134765625,-0.09161376953125
1772708654043666200,5.938666259765625,-0.6460113525390625,-1.204132080078125,-0.093994140625
1772708654053691100,5.948691162109375,-0.4200897216796875,-0.9854583740234375,-0.0483551025390625
1772708654063717000,5.958717041015625,-0.307861328125,-0.799957275390625,0.0570526123046875
1772708654073742000,5.9687421875,-0.300262451171875,-0.7016143798828125,0.1829071044921875
1772708654083767300,5.978767333984375,-0.3485565185546875,-0.6370391845703125,0.25335693359375
1772708654093792300,5.988792236328125,-0.42919921875,-0.5519561767578125,0.2285308837890625
1772708654103817200,5.998817138671875,-0.533660888671875,-0.455078125,0.118804931640625
1772708654113843200,6.00884326171875,-0.61474609375,-0.38226318359375,-0.026092529296875
1772708654123868200,6.0188681640625,-0.648406982421875,-0.3580169677734375,-0.1599578857421875
1772708654133893000,6.02889306640625,-0.666717529296875,-0.3058319091796875,-0.2923583984375
1772708654143918000,6.03891796875,-0.6806793212890625,-0.2500152587890625,-0.3904266357421875
1772708654153943000,6.048943115234375,-0.6829986572265625,-0.2210693359375,-0.3921051025390625
1772708654163968000,6.058968017578125,-0.6561737060546875,-0.1764373779296875,-0.3226318359375
1772708654173994000,6.068993896484375,-0.5640869140625,-0.093994140625,-0.2223052978515625
1772708654184019200,6.079019287109375,-0.4503936767578125,-0.0540008544921875,-0.080047607421875
1772708654194044200,6.089044189453125,-0.3638763427734375,-0.0959930419921875,0.0766143798828125
1772708654204069000,6.099069091796875,-0.317138671875,-0.1874847412109375,0.197540283203125
1772708654214094000,6.109093994140625,-0.314422607421875,-0.2811279296875,0.279693603515625
1772708654224120000,6.1191201171875,-0.3540191650390625,-0.3348236083984375,0.309417724609375
1772708654234145300,6.129145263671875,-0.3941650390625,-0.334320068359375,0.2477874755859375
1772708654244170200,6.139170166015625,-0.41363525390625,-0.311981201171875,0.111785888671875
1772708654254195200,6.1491953125,-0.4150390625,-0.29510498046875,-0.019927978515625
1772708654264220200,6.15922021484375,-0.399932861328125,-0.29571533203125,-0.1272430419921875
1772708654274245000,6.1692451171875,-0.37091064453125,-0.29827880859375,-0.2005157470703125
1772708654284271400,6.179271240234375,-0.3218994140625,-0.29205322265625,-0.2287445068359375
1772708654294296000,6.189296142578125,-0.271820068359375,-0.2935791015625,-0.2205657958984375
1772708654304321000,6.199321044921875,-0.23382568359375,-0.2867279052734375,-0.180328369140625
1772708654314346000,6.209345947265625,-0.2042236328125,-0.265045166015625,-0.1166839599609375
1772708654324371200,6.21937109375,-0.1698760986328125,-0.24798583984375,-0.0535888671875
1772708654334396200,6.229396240234375,-0.153411865234375,-0.238250732421875,0.004547119140625
1772708654344422100,6.239422119140625,-0.158355712890625,-0.2265625,0.05499267578125
1772708654354447000,6.249447021484375,-0.18267822265625,-0.21875,0.102447509765625
1772708654364472000,6.25947216796875,-0.219390869140625,-0.22393798828125,0.120330810546875
1772708654374497300,6.269497314453125,-0.257843017578125,-0.227020263671875,0.095458984375
1772708654384522200,6.279522216796875,-0.3045196533203125,-0.2129669189453125,0.0472564697265625
1772708654394548200,6.28954833984375,-0.3427886962890625,-0.1996307373046875,-0.0045623779296875
1772708654404573200,6.2995732421875,-0.3465118408203125,-0.2125396728515625,-0.0565032958984375
1772708654414598100,6.30959814453125,-0.333160400390625,-0.2588958740234375,-0.091522216796875
1772708654424623000,6.319623046875,-0.321746826171875,-0.310089111328125,-0.095001220703125
1772708654434648000,6.32964794921875,-0.329803466796875,-0.34808349609375,-0.04144287109375
1772708654444673000,6.339673095703125,-0.3748931884765625,-0.4256134033203125,0.0791778564453125
1772708654454699000,6.349698974609375,-0.47601318359375,-0.577484130859375,0.2685089111328125
1772708654464724000,6.359723876953125,-0.638031005859375,-0.8333892822265625,0.460479736328125
1772708654474749200,6.369749267578125,-0.8717193603515625,-1.186248779296875,0.61529541015625
1772708654484774100,6.379774169921875,-1.01220703125,-1.615020751953125,0.7154693603515625
1772708654494799000,6.389799072265625,-0.91583251953125,-1.9502105712890625,0.596710205078125
1772708654504824000,6.399823974609375,-0.743682861328125,-2.0796966552734375,0.2421875
1772708654605076200,6.500076171875,-1.10546875,-1.837554931640625,-0.00347900390625
1772708654615101400,6.510101318359375,-1.087799072265625,-1.61004638671875,-0.2021331787109375
1772708654625127400,6.52012744140625,-0.951171875,-1.35797119140625,-0.3111724853515625
1772708654635152400,6.53015234375,-0.7683563232421875,-1.110107421875,-0.334686279296875
1772708654645177300,6.54017724609375,-0.6146697998046875,-0.9086761474609375,-0.266571044921875
1772708654655202300,6.550202392578125,-0.489715576171875,-0.78045654296875,-0.1286163330078125
1772708654665227500,6.5602275390625,-0.389373779296875,-0.7205963134765625,0.015411376953125
1772708654675253500,6.57025341796875,-0.292724609375,-0.687774658203125,0.1092376708984375
1772708654685278500,6.580278564453125,-0.2296600341796875,-0.65814208984375,0.1189117431640625
1772708654695303400,6.590303466796875,-0.2024078369140625,-0.587738037109375,0.0680999755859375
1772708654705328400,6.600328369140625,-0.2019500732421875,-0.511322021484375,-0.0156097412109375
1772708654715353600,6.610353515625,-0.2280426025390625,-0.466094970703125,-0.0872955322265625
1772708654725378600,6.620378662109375,-0.2631072998046875,-0.442230224609375,-0.131011962890625
1772708654735404500,6.630404541015625,-0.2483978271484375,-0.4325103759765625,-0.1519012451171875
1772708654745429500,6.640429443359375,-0.209136962890625,-0.4208831787109375,-0.150909423828125
1772708654755454200,6.6504541015625,-0.1779022216796875,-0.4083709716796875,-0.1441802978515625
1772708654765479400,6.6604794921875,-0.1583404541015625,-0.3929290771484375,-0.13238525390625
1772708654775504400,6.67050439453125,-0.1778411865234375,-0.342529296875,-0.089996337890625
1772708654785529300,6.680529296875,-0.2278900146484375,-0.2664642333984375,-0.020782470703125
1772708654795555300,6.690555419921875,-0.3215484619140625,-0.20135498046875,0.054473876953125
1772708654805580300,6.700580322265625,-0.4378509521484375,-0.1684112548828125,0.1172637939453125
1772708654815605500,6.71060546875,-0.5372467041015625,-0.16265869140625,0.1494293212890625
1772708654825630500,6.72063037109375,-0.58477783203125,-0.1370391845703125,0.1340789794921875
1772708654835655400,6.730655517578125,-0.5728302001953125,-0.0886383056640625,0.0797576904296875
1772708654845680400,6.740680419921875,-0.5383758544921875,-0.0576171875,0.007049560546875
1772708654855706400,6.750706298828125,-0.49713134765625,-0.0631256103515625,-0.0479583740234375
1772708654865731600,6.760731689453125,-0.4458465576171875,-0.0839080810546875,-0.0775604248046875
1772708654875756500,6.770756591796875,-0.381805419921875,-0.09393310546875,-0.095611572265625
1772708654885781500,6.780781494140625,-0.311767578125,-0.1073760986328125,-0.0955352783203125
1772708654895806200,6.79080615234375,-0.237518310546875,-0.121185302734375,-0.078826904296875
1772708654905831400,6.80083154296875,-0.1686248779296875,-0.140716552734375,-0.0466156005859375
1772708654915857400,6.810857421875,-0.120697021484375,-0.1571502685546875,-0.0040740966796875
1772708654925882400,6.82088232421875,-0.0989532470703125,-0.1745758056640625,0.04437255859375
1772708654935907300,6.8309072265625,-0.105621337890625,-0.194793701171875,0.1055755615234375
1772708654945932300,6.840932373046875,-0.134979248046875,-0.2235107421875,0.1607513427734375
1772708654955957500,6.85095751953125,-0.1798095703125,-0.2559814453125,0.1716766357421875
1772708654965983500,6.8609833984375,-0.2348480224609375,-0.27996826171875,0.1567230224609375
1772708654976008400,6.871008544921875,-0.2963714599609375,-0.3056488037109375,0.14642333984375
1772708654986033400,6.881033447265625,-0.360015869140625,-0.3616485595703125,0.1425323486328125
1772708654996058400,6.891058349609375,-0.4507293701171875,-0.44000244140625,0.12579345703125
1772708655006083600,6.90108349609375,-0.5994720458984375,-0.5205535888671875,0.115264892578125
1772708655016108500,6.911108642578125,-0.7976837158203125,-0.6480865478515625,0.1016998291015625
1772708655026134500,6.921134521484375,-0.985870361328125,-0.85650634765625,0.1109771728515625
1772708655036159500,6.931159423828125,-1.1570281982421875,-1.1640472412109375,0.16400146484375
1772708655046184200,6.94118408203125,-1.274871826171875,-1.5622406005859375,0.2391815185546875
1772708655056209400,6.95120947265625,-1.2156982421875,-1.880889892578125,0.2709808349609375
1772708655066234400,6.961234375,-0.9643096923828125,-1.9285430908203125,0.154449462890625
1772708655176511500,7.071511474609375,-0.5999603271484375,-1.8898468017578125,0.0077362060546875
1772708655186536200,7.0815361328125,-0.530548095703125,-1.4941558837890625,-0.0648040771484375
1772708655196562400,7.0915625,-0.40899658203125,-1.098602294921875,-0.003387451171875
1772708655206587400,7.10158740234375,-0.3708953857421875,-0.76373291015625,0.077423095703125
1772708655216612400,7.1116123046875,-0.4532928466796875,-0.56182861328125,0.13458251953125
1772708655226637300,7.12163720703125,-0.6125640869140625,-0.4946136474609375,0.112396240234375
1772708655236662300,7.131662353515625,-0.7657012939453125,-0.48956298828125,0.010528564453125
1772708655246687500,7.1416875,-0.8335113525390625,-0.438873291015625,-0.09234619140625
1772708655256713500,7.15171337890625,-0.7837066650390625,-0.336395263671875,-0.1406707763671875
1772708655266738400,7.161738525390625,-0.6602020263671875,-0.2683868408203125,-0.1614532470703125
1772708655276763400,7.171763427734375,-0.5016326904296875,-0.291351318359375,-0.144195556640625
1772708655286788400,7.181788330078125,-0.3343505859375,-0.3385162353515625,-0.12017822265625
1772708655296813600,7.1918134765625,-0.1885223388671875,-0.3528594970703125,-0.1156768798828125
1772708655306838500,7.201838623046875,-0.106475830078125,-0.330535888671875,-0.10968017578125
1772708655316864500,7.211864501953125,-0.0792083740234375,-0.30364990234375,-0.0476226806640625
1772708655326889500,7.221889404296875,-0.0827789306640625,-0.2988739013671875,0.0595703125
1772708655336914200,7.2319140625,-0.1481475830078125,-0.3302001953125,0.1256561279296875
1772708655346939400,7.241939453125,-0.2830810546875,-0.3287811279296875,0.161865234375
1772708655356964400,7.25196435546875,-0.4036407470703125,-0.3221588134765625,0.11602783203125
1772708655366989300,7.2619892578125,-0.4723968505859375,-0.2813262939453125,0.0244598388671875
1772708655377015300,7.272015380859375,-0.4862823486328125,-0.2388458251953125,-0.0701904296875
1772708655387040300,7.282040283203125,-0.4721527099609375,-0.2353668212890625,-0.1455535888671875
1772708655397065500,7.2920654296875,-0.4434967041015625,-0.2521209716796875,-0.191741943359375
1772708655407090400,7.30209033203125,-0.39227294921875,-0.257965087890625,-0.2005157470703125
1772708655417115400,7.312115478515625,-0.3289031982421875,-0.2531890869140625,-0.1874847412109375
1772708655427140400,7.322140380859375,-0.274261474609375,-0.24639892578125,-0.1529693603515625
1772708655437166300,7.332166259765625,-0.2357635498046875,-0.233245849609375,-0.086151123046875
1772708655447191600,7.342191650390625,-0.220428466796875,-0.219970703125,-0.0107421875
1772708655457216500,7.352216552734375,-0.2293701171875,-0.211822509765625,0.0521087646484375
1772708655467241500,7.362241455078125,-0.2664337158203125,-0.20550537109375,0.0957489013671875
1772708655477266400,7.372266357421875,-0.3072357177734375,-0.2094573974609375,0.1099853515625
1772708655487291400,7.38229150390625,-0.3411712646484375,-0.20489501953125,0.097412109375
1772708655497317400,7.3923173828125,-0.348724365234375,-0.1699981689453125,0.069732666015625
1772708655507342300,7.40234228515625,-0.34429931640625,-0.14422607421875,0.0400238037109375
1772708655517367300,7.4123671875,-0.33197021484375,-0.1494598388671875,0.0141754150390625
1772708655527392500,7.422392578125,-0.29949951171875,-0.17730712890625,0.0009918212890625
1772708655537417500,7.43241748046875,-0.2747650146484375,-0.20538330078125,0.002777099609375
1772708655547442400,7.4424423828125,-0.2568206787109375,-0.233673095703125,0.024688720703125
1772708655557467600,7.452467529296875,-0.2812652587890625,-0.2769317626953125,0.07904052734375
1772708655567492600,7.46249267578125,-0.3809356689453125,-0.3238525390625,0.161529541015625
1772708655577517800,7.472517822265625,-0.493743896484375,-0.41925048828125,0.24853515625
1772708655587542800,7.482542724609375,-0.602264404296875,-0.6241455078125,0.32501220703125
1772708655597567700,7.492567626953125,-0.6745758056640625,-0.937744140625,0.3605499267578125
1772708655607592700,7.5025927734375,-0.6614532470703125,-1.302215576171875,0.343017578125
1772708655617618700,7.51261865234375,-0.60137939453125,-1.5340576171875,0.2507171630859375
1772708655627644000,7.522643798828125,-0.6284942626953125,-1.6223602294921875,0.1316375732421875
1772708655637668900,7.5326689453125,-0.8343963623046875,-1.716552734375,0.1170806884765625
1772708655647693600,7.542693603515625,-1.096832275390625,-1.861480712890625,0.2407989501953125
1772708655657718800,7.55271875,-1.282684326171875,-2.042572021484375,0.3553314208984375
1772708655737920800,7.632920654296875,-1.4688873291015625,-1.805694580078125,0.1386871337890625
1772708655747945700,7.64294580078125,-1.25,-1.673095703125,0.0113677978515625
1772708655757970700,7.652970703125,-0.9598846435546875,-1.5603790283203125,-0.014312744140625
1772708655767996000,7.662995849609375,-0.76123046875,-1.489349365234375,0.0119781494140625
1772708655778020900,7.673020751953125,-0.6932525634765625,-1.374237060546875,0.0081787109375
1772708655788045600,7.683045654296875,-0.6746063232421875,-1.19976806640625,-0.0443572998046875
1772708655798071800,7.69307177734375,-0.6380767822265625,-1.018829345703125,-0.0857391357421875
1772708655808096800,7.7030966796875,-0.5738372802734375,-0.83404541015625,-0.1007080078125
1772708655818121700,7.713121826171875,-0.5296173095703125,-0.6298065185546875,-0.110198974609375
1772708655828146700,7.723146728515625,-0.5274200439453125,-0.419769287109375,-0.103057861328125
1772708655838171600,7.733171630859375,-0.5550994873046875,-0.251953125,-0.080322265625
1772708655848196900,7.74319677734375,-0.5794677734375,-0.14794921875,-0.0590057373046875
1772708655858222800,7.753222900390625,-0.5685272216796875,-0.1065521240234375,-0.0317840576171875
1772708655868247800,7.763247802734375,-0.509246826171875,-0.1002197265625,-0.0063934326171875
1772708655878272800,7.773272705078125,-0.42315673828125,-0.115753173828125,0.01336669921875
1772708655888297700,7.783297607421875,-0.33941650390625,-0.1576080322265625,0.0365447998046875
1772708655898323000,7.793322998046875,-0.2684478759765625,-0.1995697021484375,0.061065673828125
1772708655908348000,7.803347900390625,-0.2158355712890625,-0.2203216552734375,0.073150634765625
1772708655918374000,7.813373779296875,-0.1915740966796875,-0.242462158203125,0.0696868896484375
1772708655928398800,7.82339892578125,-0.19525146484375,-0.2383880615234375,0.064544677734375
1772708655938423600,7.833423583984375,-0.2142486572265625,-0.1958160400390625,0.0676422119140625
1772708655948448800,7.84344873046875,-0.2198486328125,-0.15924072265625,0.0646514892578125
1772708655958473700,7.8534736328125,-0.22088623046875,-0.1557769775390625,0.0603485107421875
1772708655968498700,7.863498779296875,-0.214141845703125,-0.1602325439453125,0.0467681884765625
1772708655978524700,7.873524658203125,-0.2009735107421875,-0.159698486328125,0.02142333984375
1772708655988549600,7.883549560546875,-0.182952880859375,-0.1515350341796875,-0.0032196044921875
1772708655998574800,7.893574951171875,-0.1646270751953125,-0.142425537109375,-0.0131072998046875
1772708656008599800,7.903599853515625,-0.1544189453125,-0.1317596435546875,0.002532958984375
1772708656018624800,7.913624755859375,-0.1519775390625,-0.1265869140625,0.02764892578125
1772708656028649700,7.923649658203125,-0.1435699462890625,-0.131378173828125,0.056854248046875
1772708656038675700,7.93367578125,-0.1226348876953125,-0.1549835205078125,0.0848236083984375
1772708656048701000,7.943700927734375,-0.0955352783203125,-0.1917877197265625,0.100341796875
1772708656058726000,7.953725830078125,-0.0789031982421875,-0.2330322265625,0.103240966796875
1772708656068750800,7.963750732421875,-0.0789031982421875,-0.25579833984375,0.0959014892578125
1772708656078775600,7.973775634765625,-0.089996337890625,-0.267913818359375,0.061492919921875
1772708656088800800,7.98380078125,-0.135101318359375,-0.2631072998046875,0.0244598388671875
1772708656098826800,7.99382666015625,-0.2183380126953125,-0.2309722900390625,-0.0017242431640625
1772708656108851700,8.003851806640625,-0.3092803955078125,-0.2164764404296875,0.0097808837890625
1772708656118876700,8.013876708984375,-0.385589599609375,-0.266510009765625,0.0720062255859375
1772708656128901600,8.023901611328125,-0.4311981201171875,-0.361358642578125,0.1598663330078125
1772708656138926800,8.0339267578125,-0.43072509765625,-0.482086181640625,0.2254791259765625
1772708656148951800,8.043951904296875,-0.459014892578125,-0.62066650390625,0.25439453125
1772708656158977800,8.053977783203125,-0.5786590576171875,-0.762847900390625,0.26287841796875
1772708656169002800,8.064002685546875,-0.8156890869140625,-0.94683837890625,0.2948150634765625
1772708656179027700,8.07402783203125,-1.09979248046875,-1.23321533203125,0.3620758056640625
1772708656189053000,8.084052978515626,-1.166015625,-1.5892486572265625,0.3302154541015625
1772708656199078000,8.094077880859375,-0.990020751953125,-1.93365478515625,0.0455780029296875
1772708656209102600,8.1041025390625,-0.7240447998046875,-2.1636962890625,-0.3056488037109375
1772708656249203700,8.14420361328125,-1.609130859375,-1.7523193359375,0.778411865234375
1772708656259228700,8.154228759765624,-1.4874114990234375,-1.516387939453125,0.8708953857421875
1772708656269253600,8.164253662109376,-1.26373291015625,-1.543548583984375,0.829833984375
1772708656279279600,8.174279541015625,-1.0750732421875,-1.8269805908203125,0.7188262939453125
1772708656289304800,8.184304931640625,-0.954132080078125,-2.071075439453125,0.514556884765625
1772708656339431000,8.234430908203125,-0.917449951171875,-1.7853851318359375,-0.5435028076171875
1772708656349456000,8.244455810546874,-0.853729248046875,-1.41180419921875,-0.417205810546875
1772708656359480800,8.254480712890626,-0.7678375244140625,-1.0787200927734375,-0.1829376220703125
1772708656369505500,8.264505615234375,-0.7023773193359375,-0.9373931884765625,0.06842041015625
1772708656379530800,8.27453076171875,-0.6110076904296875,-0.92059326171875,0.2354888916015625
1772708656389555700,8.2845556640625,-0.50274658203125,-0.8924102783203125,0.24420166015625
1772708656399581700,8.294581787109376,-0.4310302734375,-0.813995361328125,0.119873046875
1772708656409606700,8.304606689453125,-0.3901214599609375,-0.696533203125,-0.0117950439453125
1772708656419631600,8.314631591796875,-0.3992462158203125,-0.568634033203125,-0.097747802734375
1772708656429656800,8.32465673828125,-0.4140167236328125,-0.45758056640625,-0.14105224609375
1772708656439681800,8.334681884765626,-0.41448974609375,-0.363311767578125,-0.126434326171875
1772708656449706800,8.344706787109375,-0.385284423828125,-0.289947509765625,-0.0786285400390625
1772708656459732700,8.354732666015625,-0.32098388671875,-0.2478790283203125,-0.017974853515625
1772708656469757700,8.3647578125,-0.2411041259765625,-0.2328338623046875,0.078369140625
1772708656479783000,8.374782958984374,-0.1774444580078125,-0.237701416015625,0.1951751708984375
1772708656489808000,8.384807861328126,-0.149200439453125,-0.260711669921875,0.301666259765625
1772708656499832600,8.39483251953125,-0.15380859375,-0.2869873046875,0.362945556640625
1772708656509857500,8.404857421875,-0.1752166748046875,-0.2913360595703125,0.365509033203125
1772708656519882800,8.4148828125,-0.2007598876953125,-0.2686614990234375,0.3155364990234375
1772708656529908700,8.42490869140625,-0.2337799072265625,-0.2326507568359375,0.23846435546875
1772708656539933700,8.43493359375,-0.2574615478515625,-0.19512939453125,0.1612396240234375
1772708656549958700,8.444958740234375,-0.2757415771484375,-0.1474761962890625,0.08892822265625
1772708656559983600,8.454983642578124,-0.2780914306640625,-0.0883941650390625,0.0308074951171875
1772708656570008600,8.465008544921876,-0.25732421875,-0.0485992431640625,-0.0061187744140625
1772708656580033500,8.475033447265625,-0.22088623046875,-0.0419769287109375,-0.024566650390625
1772708656590059500,8.4850595703125,-0.1766204833984375,-0.0540771484375,-0.027618408203125
1772708656600084500,8.49508447265625,-0.1443939208984375,-0.0576629638671875,-0.018524169921875
1772708656610109400,8.505109375,-0.1174468994140625,-0.0579376220703125,0.002227783203125
1772708656620134700,8.515134765625,-0.103118896484375,-0.066253662109375,0.03466796875
1772708656630159600,8.52515966796875,-0.10076904296875,-0.0842437744140625,0.0746307373046875
1772708656640184300,8.535184326171875,-0.1014404296875,-0.0950164794921875,0.1131439208984375
1772708656650210300,8.545210205078124,-0.0874481201171875,-0.1019744873046875,0.127471923828125
1772708656660235500,8.555235595703126,-0.0529632568359375,-0.12371826171875,0.1027679443359375
1772708656670260500,8.565260498046875,-0.0222625732421875,-0.14959716796875,0.06280517578125
1772708656680285400,8.575285400390625,-0.0175323486328125,-0.1656494140625,0.021820068359375
1772708656690310400,8.585310302734374,-0.0276947021484375,-0.1779632568359375,-0.01263427734375
1772708656700335600,8.595335693359376,-0.0588836669921875,-0.188720703125,-0.039459228515625
1772708656710360600,8.605360595703125,-0.1128692626953125,-0.206268310546875,-0.0506134033203125
1772708656720386600,8.615386474609375,-0.1890716552734375,-0.25341796875,-0.0317230224609375
1772708656730411500,8.62541162109375,-0.264373779296875,-0.3664398193359375,-0.004180908203125
1772708656740436500,8.6354365234375,-0.3351593017578125,-0.526763916015625,-0.0080108642578125
1772708656750461700,8.645461669921875,-0.4497833251953125,-0.6970672607421875,-0.0316619873046875
1772708656760486700,8.655486572265625,-0.6209259033203125,-0.9109954833984375,-0.004730224609375
1772708656770511400,8.665511474609374,-0.778594970703125,-1.2332916259765625,0.0784912109375
1772708656780537600,8.67553759765625,-0.7989654541015625,-1.628326416015625,0.1668701171875
1772708656790562300,8.685562255859375,-0.6155242919921875,-1.9345550537109375,0.1515045166015625
1772708656800587500,8.69558740234375,-0.366424560546875,-2.04620361328125,0.0392913818359375
1772708656920889600,8.8158896484375,-0.7138214111328125,-1.8724365234375,-0.2673187255859375
1772708656930914300,8.825914306640625,-0.752899169921875,-1.45428466796875,-0.3349609375
1772708656940939500,8.835939453125,-0.9299163818359375,-1.05584716796875,-0.219757080078125
1772708656950964500,8.845964599609376,-1.115814208984375,-0.8251800537109375,0.0343475341796875
1772708656960990500,8.855990478515626,-1.18731689453125,-0.7944488525390625,0.2592315673828125
1772708656971015400,8.866015380859375,-1.1025238037109375,-0.8350982666015625,0.3069610595703125
1772708656981040400,8.876040283203125,-0.847747802734375,-0.83209228515625,0.13885498046875
1772708656991065600,8.886065673828124,-0.5665740966796875,-0.815460205078125,-0.0659637451171875
1772708657001090600,8.896090576171876,-0.34674072265625,-0.7816009521484375,-0.1912994384765625
1772708657011115500,8.906115478515625,-0.2081146240234375,-0.73193359375,-0.275970458984375
1772708657021140500,8.916140380859375,-0.150909423828125,-0.64849853515625,-0.31036376953125
1772708657031166500,8.92616650390625,-0.136199951171875,-0.5312652587890625,-0.2755889892578125
1772708657041191700,8.936191650390626,-0.131988525390625,-0.407623291015625,-0.2137451171875
1772708657051216600,8.946216552734375,-0.1527252197265625,-0.2560577392578125,-0.1452484130859375
1772708657061241300,8.956241455078125,-0.1979827880859375,-0.128753662109375,-0.0717010498046875
1772708657071266300,8.966266357421874,-0.2410125732421875,-0.078277587890625,0.011505126953125
1772708657081291500,8.97629150390625,-0.2559661865234375,-0.118438720703125,0.1132049560546875
1772708657091317500,8.9863173828125,-0.260986328125,-0.227691650390625,0.1864776611328125
1772708657101342500,8.996342529296875,-0.2885589599609375,-0.34320068359375,0.2064971923828125
1772708657111367400,9.006367431640625,-0.32086181640625,-0.413848876953125,0.1697998046875
1772708657121392400,9.016392333984374,-0.348052978515625,-0.40924072265625,0.082977294921875
1772708657131417600,9.02641748046875,-0.34246826171875,-0.37713623046875,-0.0194091796875
1772708657141442600,9.036442626953125,-0.3072052001953125,-0.369232177734375,-0.089630126953125
1772708657151468500,9.046468505859375,-0.26361083984375,-0.3620147705078125,-0.1225433349609375
1772708657161493500,9.056493408203124,-0.2298431396484375,-0.3266143798828125,-0.13641357421875
1772708657171518500,9.0665185546875,-0.2108306884765625,-0.2694091796875,-0.1365966796875
1772708657181543700,9.076543701171875,-0.1967315673828125,-0.228759765625,-0.12030029296875
1772708657191568600,9.086568603515625,-0.1882781982421875,-0.222076416015625,-0.087127685546875
1772708657201593300,9.09659326171875,-0.1853179931640625,-0.2357025146484375,-0.044647216796875
1772708657211618300,9.106618408203126,-0.186614990234375,-0.256500244140625,0.0056915283203125
1772708657221644300,9.116644287109375,-0.1938323974609375,-0.281646728515625,0.0500335693359375
1772708657231669500,9.12666943359375,-0.200592041015625,-0.3114471435546875,0.08599853515625
1772708657241694500,9.136694580078125,-0.1998138427734375,-0.3287353515625,0.0901336669921875
1772708657251719400,9.146719482421876,-0.201416015625,-0.32733154296875,0.0747222900390625
1772708657261744400,9.156744384765625,-0.2301483154296875,-0.3150177001953125,0.05462646484375
1772708657271769600,9.16676953125,-0.27496337890625,-0.316131591796875,0.0385894775390625
1772708657281795600,9.176795654296875,-0.3117523193359375,-0.335052490234375,0.0273895263671875
1772708657291820500,9.186820556640624,-0.341217041015625,-0.36102294921875,0.0174102783203125
1772708657301845500,9.196845458984376,-0.3932037353515625,-0.3958740234375,0.01641845703125
1772708657311870500,9.206870361328125,-0.427398681640625,-0.3956451416015625,0.0354766845703125
1772708657321895700,9.216895751953125,-0.5012359619140625,-0.442962646484375,0.0517578125
1772708657331920400,9.22692041015625,-0.538238525390625,-0.5667572021484375,0.0800018310546875
1772708657341945300,9.2369453125,-0.56134033203125,-0.650054931640625,0.1008758544921875
