time,seconds_elapsed,z,y,x
1772708648163901400,0.0589013671875,-0.07229600540399551,0.15766951904594897,0.26872001985590904
1772708648173926400,0.068926513671875,-0.13975801478028296,0.23508126002848148,0.42073947725091126
1772708648183952400,0.078952392578125,-0.16204115825891494,0.43051323123574253,0.563940252896212
1772708648193977300,0.088977294921875,-0.0881254426985979,0.6202689103722572,0.7104844572179019
1772708648204002300,0.099002197265625,0.12979893082380295,0.7577478743046522,0.8876398171741515
1772708648214027500,0.109027587890625,0.38937458063960073,0.7980863144338131,1.0861143709477037
1772708648224052500,0.119052490234375,0.45830140187144275,0.6687292821586132,1.2534557545065879
1772708648234077400,0.129077392578125,0.4055155681014061,0.4732271683245897,1.1501589000307022
1772708648244103400,0.139103515625,0.4650707498759031,0.3795739021152258,0.9660253716249019
1772708648254128400,0.14912841796875,0.5878600941985845,0.2644552385509014,0.7806510493777692
1772708648264153600,0.159153564453125,0.674445906239748,0.09748831432759761,0.6577876899708062
1772708648274178300,0.16917822265625,0.7240168696165085,0.01943067665696144,0.6330655558422208
1772708648284203300,0.179203369140625,0.7837626055270432,0.03301671893894672,0.6650202715728432
1772708648294229200,0.189229248046875,0.6546160011321306,0.09296645298898219,0.8362640693977474
1772708648304254200,0.199254150390625,0.3540367252767086,0.11959259410798549,0.8950781504813581
1772708648314279400,0.209279541015625,0.1479997734248638,0.1931780548006296,0.7945520028278231
1772708648324304400,0.219304443359375,0.11618249340355395,0.30341420702040195,0.7198026859875768
1772708648334329300,0.229329345703125,0.15491116024851798,0.42488896161317824,0.6680901074722408
1772708648344354300,0.239354248046875,0.2957733368784189,0.5207634110033512,0.6814855956181883
1772708648354380300,0.24938037109375,0.49575785682350393,0.44012744727730746,0.676980393153429
1772708648364405500,0.259405517578125,0.8659025440752506,0.2028121445864439,0.5496156672066077
1772708648374430500,0.269430419921875,1.2933937971413134,0.1980629042327404,0.4153671000301838
1772708648384455400,0.279455322265625,1.6013199286282063,0.3808241944372654,0.4666632797643542
1772708648394480400,0.28948046875,1.5845213540405034,0.1141150394797325,0.3548285697741434
1772708648404505600,0.299505615234375,1.5284054990649223,0.0024099837511777876,0.1610451694915071
1772708648414531600,0.309531494140625,1.2818693635642529,0.26259704346358775,0.08368081131465732
1772708648424556300,0.319556396484375,0.8030442291021347,0.5147732306778431,0.017475231740251184
1772708648434581200,0.329581298828125,0.38404958622455593,0.6547738220423459,0.027145488817989824
1772708648444606200,0.339606201171875,0.35063042396456,0.8565677294969558,0.17353249328397213
1772708648454631400,0.34963134765625,0.43428281290233134,0.9176765704542398,0.2568192637797445
1772708648464657400,0.359657470703125,0.41843730125576256,0.7805541648745536,0.20535021169669926
1772708648474682400,0.369682373046875,0.538209051322937,0.7612988447844982,0.021806538942828774
1772708648484707300,0.379707275390625,0.753165807211399,0.910894947490096,-0.03804207282029092
1772708648494732300,0.389732177734375,0.8367150280356407,1.0223387219339608,0.2706593538880348
1772708648504757500,0.399757568359375,0.5330699348688125,1.1144856752336025,0.7142018703058362
1772708648514782500,0.409782470703125,0.016246201401948927,1.338591367739439,0.9373815340079367
1772708648524808400,0.419808349609375,-0.5509440297335386,1.8255343422055244,0.9339253291394561
1772708648534833400,0.42983349609375,-0.9773778827011584,2.5686592323958872,0.6114886609368025
1772708648544858400,0.4398583984375,-1.2280232070863246,3.093554628637433,0.2126414646834135
1772708648554883300,0.44988330078125,-1.2690072516426443,3.236460293793678,-0.08457279171831905
1772708648564908300,0.459908203125,-1.1172732601255178,3.0921640510618684,-0.1314931675210595
1772708648574934300,0.469934326171875,-1.0224684857934714,2.621930219334364,0.11648805222138761
1772708648584959200,0.479959228515625,-1.283140698674321,1.7899901506155729,0.31440343774221835
1772708648594984000,0.48998388671875,-1.8226938580825924,0.8563169696062802,0.27040369862653313
1772708648605009200,0.500009033203125,-2.38755243140012,-0.028594226321578025,0.06869914995580911
1772708648615034000,0.5100341796875,-2.750037251548469,-0.9334832113951445,-0.1139732198562473
1772708648625059000,0.52005908203125,-2.9792680319830773,-1.8370207818597555,-0.2130777372088283
1772708648635085000,0.5300849609375,-2.9346438773587344,-2.4555548312634228,-0.19387831202447414
1772708648645110000,0.540110107421875,-2.999483429276943,-2.902894694137573,-0.40145935151316225
1772708648655135200,0.55013525390625,-3.3100229581326244,-3.2598020064145325,-0.8661245893280952
1772708648665160200,0.56016015625,-3.0298820746719834,-3.6899727078229185,-0.9596947072986513
1772708648675185200,0.57018505859375,-2.6328599018886685,-4.7515381092518565,-0.39077896754480895
1772708648685211100,0.580211181640625,-2.7064731273710727,-6.008923019900918,0.2841286379225552
1772708648695236000,0.590236083984375,-3.3441222116112708,-6.8724377920567985,0.22845636199600994
1772708648705261300,0.60026123046875,-4.316878279730678,-7.256475687843561,-0.3903950097285211
1772708648715286300,0.610286376953125,-5.484209994488954,-7.845387336921691,-1.0659325836624949
1772708648725311200,0.620311279296875,-6.286684899270534,-7.928754771438241,-1.9449825594067573
1772708648735336200,0.630336181640625,-6.0089218508571385,-7.4931713973313565,-2.559203714047372
1772708648745362200,0.640362060546875,-4.7172512242466205,-7.201499066030979,-2.38714209703356
1772708648755387100,0.65038720703125,-3.087798549328744,-6.5102896565169095,-1.5270546689778566
1772708648765412000,0.660412109375,-1.577548884679377,-5.044350258237123,-0.6374091380044817
1772708648775437000,0.67043701171875,-0.30472119796574115,-3.5274832212746143,-0.23688231810107827
1772708648785462000,0.6804619140625,0.3888656082041561,-2.851549122303724,0.0016406068138778208
1772708648795488000,0.690488037109375,1.0078636218577623,-2.0348644903838635,-0.4982729083843529
1772708648805513200,0.70051318359375,1.7376549832224846,-0.4894961660802364,-1.5279258988544344
1772708648815538200,0.7105380859375,2.039898977419734,1.0630401501566171,-2.1661806939028203
1772708648825563100,0.720563232421875,1.9635662638455629,2.1988895159363744,-2.2109343201257285
1772708648835588000,0.730588134765625,1.7459598702311514,2.2905209209293127,-1.5645233988896012
1772708648845613300,0.74061328125,1.7102660410374402,1.3250935882627963,-0.14490546067133545
1772708648855639300,0.750639404296875,1.5178940419226883,0.0375619611531496,1.4594313315600156
1772708648865664300,0.760664306640625,0.9324772492229938,0.034089316606521605,1.877619772621244
1772708648875689200,0.770689208984375,0.6961603829849511,1.4637187996208667,0.730512515246123
1772708648885714200,0.780714111328125,1.683300292700529,3.3039526983082292,-1.006782548622787
1772708648895739100,0.7907392578125,1.3838489979617297,4.563275883543491,-1.7610392198108136
1772708648905765000,0.80076513671875,1.4429090896956622,5.235125928071141,-2.065807617919147
1772708648915790000,0.8107900390625,1.5742906135357915,5.620360924687981,-2.2270620097145435
1772708648925815000,0.82081494140625,1.5396151676043868,6.119865859085321,-2.195427392783761
1772708648935840300,0.83084033203125,1.7056483181089162,6.735232384368777,-2.119077435813844
1772708648945865200,0.840865234375,1.7293281766429542,7.14425975998342,-1.7968465923815964
1772708648955891200,0.85089111328125,1.4456737321034072,6.659044047701358,-0.8480715576998888
1772708648965916200,0.860916259765625,1.0444581992834805,5.804051020175218,0.35584392082914706
1772708648975941000,0.870941162109375,0.671183981834352,5.451280369311571,1.288876758108288
1772708648985966000,0.880966064453125,0.25320436121821405,5.51461682319045,1.6988183259584009
1772708648995991300,0.8909912109375,-0.062004328492283815,5.625066325899958,1.4982558599948883
1772708649006016300,0.901016357421875,-0.6524652528390288,5.513645932331681,0.8719528570901602
1772708649016042200,0.911042236328125,-0.3970078519970178,5.2047360505044455,0.06579568359926342
1772708649026067200,0.921067138671875,0.01922200234234333,4.888370007452369,-0.38046032956093545
1772708649036092200,0.931092041015625,0.5591507170647383,4.508649974864721,-0.964010816932097
1772708649046117000,0.9411171875,1.0800105741798878,4.10573494465053,-1.5391696157939732
1772708649056142000,0.95114208984375,1.5275784005910158,3.6221909649729724,-1.8852882614225148
1772708649066168000,0.96116796875,2.001854201185703,3.4554227781921623,-1.9665864884495734
1772708649076193000,0.971193115234375,2.558813837946951,3.5934213820844887,-1.674610351897031
1772708649086218200,0.98121826171875,3.17121888307631,3.36631709228456,-1.267998220730573
1772708649096243200,0.9912431640625,3.909845292803645,3.5153427016258236,-0.68957654761523
1772708649106268200,1.00126806640625,4.805431027480959,4.098791993644833,0.31801454091146586
1772708649116293000,1.011293212890625,5.6526651114434,4.4648137557476755,1.2118917181052267
1772708649126319000,1.021319091796875,6.167096396815777,4.544222223505377,1.622333198301494
1772708649136344300,1.03134423828125,5.982650514525175,4.4802246753692625,1.571185194866359
1772708649146369300,1.041369384765625,5.063625452071428,4.280986882138252,1.2227493583366273
1772708649156394200,1.051394287109375,3.992919881853461,4.05901703261733,0.5201474710620939
1772708649166419200,1.061419189453125,3.1657483427107334,3.735347388553619,-0.3825245686143636
1772708649176445200,1.071445068359375,1.8666911129802464,3.521239358448982,-1.0686658810839056
1772708649186470100,1.08147021484375,0.5717161841273307,2.953426611500978,-0.9612480011552572
1772708649196495000,1.0914951171875,-0.6610124241709708,2.4116958157926796,-0.4455025644443929
1772708649206520000,1.10152001953125,-1.8302344827204942,1.685581097114086,0.5642131150208414
1772708649216545000,1.111544921875,-2.8046833262324333,0.3842442320138216,1.9754928484827279
1772708649226570200,1.1215703125,-3.4883494807600974,-1.5365554877728222,3.308811244255304
1772708649236596200,1.13159619140625,-3.868666310197115,-3.4647190143257376,4.102410768663883
1772708649246621200,1.14162109375,-3.9527918696045874,-5.063333775648474,3.9014527275115247
1772708649256646100,1.151646240234375,-3.4507752446472644,-6.1321741365164515,2.5184932257354258
1772708649266671000,1.161671142578125,-2.8323715436249968,-7.065981173038482,0.927308541348204
1772708649276696300,1.1716962890625,-2.8873662856161593,-9.223810948833822,0.4560377677883953
1772708649286722300,1.181722412109375,-3.786125974154472,-11.156879198563098,0.2950827973309904
1772708649296747300,1.191747314453125,-3.8235394667476412,-11.138476111388206,0.282813682866469
1772708649306772200,1.201772216796875,-3.86776147031188,-11.123538069975375,0.2189644571598619
1772708649316797200,1.211797119140625,-3.906307181805372,-11.117896264696121,0.1162974980853498
1772708649326822400,1.221822509765625,-3.9182998174160715,-11.13076743670702,-0.007409253343194723
1772708649336848400,1.231848388671875,-3.878277895890176,-11.174770244562625,-0.14303542901575564
1772708649346873300,1.241873291015625,-3.769298173472285,-11.257423977851866,-0.272843858320266
1772708649356898000,1.25189794921875,-3.5899227263137696,-11.377038199269771,-0.36805341406092046
1772708649366923000,1.261923095703125,-3.3644992292076346,-11.520919431459903,-0.4160173806324601
1772708649376948200,1.2719482421875,-2.9631074630379675,-9.203218242660164,-0.1517958047069609
1772708649386974200,1.28197412109375,-5.327309121727943,-5.610895177206396,-1.8088167238995432
1772708649396999200,1.291999267578125,-6.000882336786389,-2.1325702468544243,-2.6991104896485805
1772708649407024000,1.302024169921875,-5.189355526021123,0.830171890002489,-2.4804776755958793
1772708649417049000,1.312049072265625,-3.803882580119371,1.9993676450669764,-0.8238352343268692
1772708649427074300,1.32207421875,-2.26788472622931,1.5142624074220656,1.452030407653749
1772708649437099300,1.332099365234375,-1.0976970375180244,1.3567992246031761,2.3445712216772137
1772708649447125200,1.342125244140625,-0.46570086447298525,2.2538199605196714,1.3473920754410327
1772708649457150200,1.352150146484375,-0.3310480638772249,3.0689672998696564,-0.2833220707800239
1772708649467175200,1.362175048828125,-0.38149054939150806,3.2173592874825,-1.3516986865937708
1772708649477200400,1.372200439453125,-0.019003975677490233,3.3586884971022606,-1.9785672874920068
1772708649487225000,1.38222509765625,0.9987158542841672,3.7672751432120797,-2.5406460208326576
1772708649497251300,1.392251220703125,2.5652239972501993,4.404247351104021,-2.8355492968782783
1772708649507276000,1.402276123046875,4.182800064152479,5.032037304630875,-2.7126222976505754
1772708649517301000,1.412301025390625,5.174503993847966,5.117356457737088,-2.0260139521911738
1772708649527326200,1.422326171875,5.451685442981123,4.843044426560402,-1.0347705526795237
1772708649537351200,1.43235107421875,5.195453842896223,4.872708327940106,-0.3904072116229683
1772708649547376000,1.442376220703125,4.394137460500001,5.0867532296806575,0.040220841631479556
1772708649557401600,1.452401611328125,3.3457477669864892,5.364205896970629,0.3463252375839278
1772708649567426600,1.462426513671875,2.496069797003269,5.606993493592738,0.5814320339124649
1772708649577451800,1.47245166015625,1.9904057554543018,5.619160316726565,0.8064980228178202
1772708649587476700,1.482476806640625,1.9149217676639556,5.491562110817432,0.7145274489983916
1772708649597501700,1.492501708984375,2.439732408231497,5.491670247367024,0.3543932836294174
1772708649607527700,1.502527587890625,3.4408331118255853,5.160346873679757,-0.0605021437684074
1772708649617552600,1.512552734375,4.471588948971033,4.514391733387113,-0.429650075067766
1772708649627577900,1.522577880859375,5.304168484637141,3.8798756864756343,-0.9094098234988749
1772708649637602600,1.5326025390625,5.8486167226105925,3.5926328620553014,-1.3119791090153157
1772708649647627500,1.54262744140625,5.97989975451231,3.846932617294788,-1.5833866509221493
1772708649657652700,1.55265283203125,5.790043537610769,4.697803011932969,-1.8540389905475079
1772708649667678700,1.5626787109375,5.270594716337323,5.181700627353787,-1.2429238390982151
1772708649677703700,1.57270361328125,4.539066155916452,5.007770878380537,-0.507506673740968
1772708649687728600,1.582728759765625,3.7981677096039053,4.909265495964885,-0.1290614103294909
1772708649697753600,1.592753662109375,3.202864313662052,5.087763283506035,-0.08736881564501672
1772708649707778800,1.60277880859375,2.8951825123250483,5.378923573631048,-0.2698203092480078
1772708649717804500,1.612804443359375,2.744307475724816,5.606540489128232,-0.6442785853825509
1772708649727829800,1.622829833984375,2.6763106288194654,5.548416216939687,-1.0579425347566604
1772708649737854700,1.632854736328125,2.4936539680331946,5.149751829907298,-1.2012775312408803
1772708649747879700,1.642879638671875,2.4564228462696076,4.815065117266774,-1.168243276645243
1772708649757904600,1.652904541015625,2.719874460735917,4.681175702258944,-0.8649116333417594
1772708649767929600,1.6629296875,3.242962515294552,4.532036111149192,-0.1955941760316491
1772708649777955800,1.672955810546875,3.658444766137004,4.056530476498604,0.8337517943158745
1772708649787980500,1.68298046875,3.488144898098707,2.8023551755458116,2.4339266445621845
1772708649798005500,1.693005615234375,2.240808795516193,0.7632423800677061,3.9384906647905704
1772708649808030700,1.70303076171875,-0.259953835478425,-1.2585960400044918,4.5125557501316065
1772708649818055700,1.7130556640625,-2.7472645719647404,-2.811940165492892,4.411628109005093
1772708649828081700,1.72308154296875,-5.195734997925162,-4.10911055856347,3.8854084784224625
1772708649838106600,1.733106689453125,-6.721167034137249,-5.093494520634413,2.7307833927631378
1772708649848131600,1.743131591796875,-6.085826811361312,-6.2339692081272595,0.6897875600174069
1772708649858156800,1.75315673828125,-3.9490947686523197,-7.938278971108794,-1.9767690058983862
1772708649868181800,1.763181640625,-1.1147820278316736,-12.25599779331684,-2.819634811648726
1772708649878206700,1.773206787109375,-0.36222470790743827,-17.30033753015995,-1.0255829645521939
1772708649888232700,1.783232666015625,-0.2961851325497031,-17.333409778678416,-1.0332590521380305
1772708649898257700,1.793257568359375,-0.22290099289119242,-17.369743659341335,-1.0243540072791277
1772708649908283000,1.803282958984375,-0.12655045042186974,-17.419259677660463,-1.0216624301075934
1772708649918307800,1.813307861328125,-4.880864454127848,-9.299670199677347,0.5766007778311147
1772708649928332500,1.82333251953125,-6.249290695899725,-8.199191422486305,0.9898492417395114
1772708649938358800,1.83335888671875,-8.23853500635922,-7.030301956892013,2.3260212733775374
1772708649948383500,1.843383544921875,-9.865132584106922,-6.670633947730064,4.351901662316918
1772708649958408700,1.85340869140625,-10.571003556179999,-6.37895401764512,5.460747285836935
1772708649968433700,1.86343359375,-9.752910811027883,-5.2259501034468405,4.454124603950977
1772708649978458600,1.873458740234375,-7.56811996307075,-3.214222158500552,1.6247341219633817
1772708649988483600,1.883483642578125,-4.906552729874849,-1.4324100536435842,-1.3023627010166645
1772708649998509600,1.893509521484375,-2.364325577330589,-0.29508827722370623,-3.2131822940587997
1772708650008534800,1.90353466796875,-0.37688159429132934,0.6627613136649131,-4.008609618416428
1772708650018559700,1.913559814453125,0.8592916015028953,1.1451795041829347,-3.3960260018497705
1772708650028584700,1.923584716796875,1.3690209927946329,0.9997966352581977,-1.8269149829089641
1772708650038609700,1.933609619140625,1.5518623624980448,0.9867413388520478,-0.3954900678452104
1772708650048635600,1.9436357421875,1.6058908898055553,1.532930283012986,0.5208792924679816
1772708650058660900,1.953660888671875,1.5637410163402556,2.5288871939778326,0.8159690309964119
1772708650068685800,1.963685791015625,1.241135202115774,3.5968215459167956,0.4056616985738277
1772708650078710500,1.97371044921875,1.119579783502221,4.3648447305202485,-0.5394287658436223
1772708650088735500,1.983735595703125,1.7851327737122773,4.873911273989081,-1.5441703466907142
1772708650098760700,1.9937607421875,2.8904525611937046,5.16472494263351,-2.2879937405392528
1772708650108786700,2.00378662109375,4.020195426791906,5.228588050734997,-2.568497319832444
1772708650118811600,2.013811767578125,5.041717571645975,5.137807125091553,-2.733613940013945
1772708650128836600,2.023836669921875,5.7943853662073606,4.722295648154616,-2.5979180601060388
1772708650138861600,2.033861572265625,6.26843495683074,4.2809260918617245,-1.746298016144335
1772708650148886800,2.04388671875,6.613043344026804,3.4888597683697937,-1.1062950622543692
1772708650158911700,2.053911865234375,6.706423053991794,2.7191806332528587,-0.43437027199007566
1772708650168937700,2.063937744140625,6.575721036848425,2.4974568674474953,0.09015563335195183
1772708650178962700,2.073962646484375,6.065031276091933,2.5772382601708173,0.8575972186751664
1772708650188987600,2.083987548828125,5.1292257592290635,2.901618682852387,1.460913386811316
1772708650199012900,2.094012939453125,3.822325414782762,3.446234094086289,1.563794792354107
1772708650209037800,2.104037841796875,4.101848458606004,4.194059709313511,0.8150336498424411
1772708650219063800,2.114063720703125,4.309049778062105,5.0654526674985885,0.07765753243714571
1772708650229088800,2.1240888671875,3.866778304493427,5.548850516703725,-0.08781560956444591
1772708650239113500,2.134113525390625,3.3928836121708152,5.591930949017406,-0.30266156202219424
1772708650249138700,2.144138671875,2.842789477264881,5.488300478672981,-0.4366901663050055
1772708650259163600,2.15416357421875,2.41137842040658,5.153245517241954,-0.461416465152055
1772708650269188600,2.164188720703125,2.136442704373598,4.721265720584988,-0.35085356519594785
1772708650279214600,2.174214599609375,2.0521149003922936,4.5631846981287,-0.1530715237312019
1772708650289239600,2.184239501953125,2.1698434541940688,4.6028521071285,0.09416735321134329
1772708650299264800,2.1942646484375,2.404227964130044,4.739440844222903,0.5623683639369904
1772708650309289700,2.204289794921875,2.6478280461788177,4.784671148046851,1.139253913526237
1772708650319314700,2.214314697265625,2.876428712016344,4.639190663966536,1.5354964802391826
1772708650329339600,2.224339599609375,3.051067486041784,4.306620505088567,1.6089001546241342
1772708650339365600,2.23436572265625,3.180862325212359,4.116041819131374,1.5018641136199236
1772708650349390800,2.244390869140625,3.4366441357031463,4.101160476341843,1.2664002840146422
1772708650359415800,2.254415771484375,3.7247131818145514,4.004128673610091,1.0995685304783285
1772708650369440500,2.2644404296875,3.719170745256543,3.550973402455449,1.0080782875217498
1772708650379465500,2.274465576171875,3.191202517440915,2.6073160030484197,0.9906392230734229
1772708650389491500,2.284491455078125,2.134394831933081,1.1281073733508586,1.1064754603225737
1772708650399516700,2.2945166015625,0.618562690976262,-0.6559943037480116,1.5872538477443157
1772708650409541600,2.304541748046875,-0.8952642476379871,-2.8121768968582153,2.2154642186403275
1772708650419566600,2.314566650390625,-2.4526228694647547,-5.363908375328779,2.458771162961423
1772708650429591600,2.324591552734375,-3.824622293548286,-7.757673982155323,2.645266671258211
1772708650439616800,2.33461669921875,-4.6287505184948445,-9.886855755615233,1.9050988773077726
1772708650449642800,2.344642822265625,-5.22865527075231,-10.636844101834297,0.7128931988600641
1772708650459667700,2.354667724609375,-5.177727632069588,-10.656661731982231,0.6155887897320091
1772708650469692700,2.364692626953125,-5.140350379833579,-10.668917986965178,0.5084480462443083
1772708650479717600,2.374717529296875,-5.112811800044775,-10.676869822752476,0.40267530317418276
1772708650489742800,2.384742919921875,-5.0926925566017625,-10.682834284114836,0.3139979622138664
1772708650499768800,2.394768798828125,-5.080498845461011,-10.685679736673832,0.23849654836468398
1772708650509793800,2.404793701171875,-5.062369899052381,-10.693473751550913,0.17569606452602893
1772708650519818800,2.41481884765625,-5.024796247461438,-10.71505780684948,0.1422782174402848
1772708650529843500,2.424843505859375,-4.964207046464085,-10.752535012328623,0.13454309314358978
1772708650539868700,2.43486865234375,-4.889693949532509,-10.799719957351684,0.13057590654566884
1772708650549894100,2.44489404296875,-4.8108542215734715,-10.850178224956988,0.11474774789270013
1772708650559920000,2.454920166015625,-8.85528801756501,-9.71649392825663,-1.328262573687732
1772708650569945000,2.464945068359375,-6.649757163918018,-7.059540326336026,-3.0633555974677202
1772708650579970000,2.474969970703125,-4.181746755707263,-4.575747242581844,-4.364221045663952
1772708650589995300,2.484995361328125,-1.7442974899768828,-2.4806308203309775,-4.745090832808613
1772708650600020000,2.49502001953125,-0.13760229805111884,-1.5008143123060464,-3.5188138848677277
1772708650610045000,2.505044921875,0.43028351413309573,-1.771593493181467,-1.3905983260914683
1772708650620071000,2.51507080078125,0.6363192969411611,-1.7733172482341526,0.5672967602498828
1772708650630096000,2.525095947265625,0.7382388717144728,-0.9665297409504652,1.8137059572458265
1772708650640121000,2.53512109375,0.7476379837006331,0.36935353687405587,2.0785241838902233
1772708650650146000,2.54514599609375,0.6649982789367437,2.229146707034111,1.6529671137571333
1772708650660171000,2.5551708984375,0.6529577125310897,4.08197529887855,1.0023920585788786
1772708650670197000,2.565197021484375,0.8848305319070815,5.366227758187056,0.41051169588826597
1772708650680222000,2.575221923828125,1.4875462499320506,5.95554214284718,0.02955620322152972
1772708650690247200,2.5852470703125,2.1806442496716976,5.968686871102452,-0.07970745070427655
1772708650700272000,2.595272216796875,2.809137383031845,5.62739389206469,-0.18691687551401553
1772708650710297000,2.605297119140625,3.344209889894724,4.913702601629495,-0.4917395610928535
1772708650720322000,2.615322021484375,3.743946874594688,4.14206648722589,-0.8671612388994544
1772708650730348000,2.62534814453125,3.840900935915112,3.7080414484769104,-0.8763883553195744
1772708650740373200,2.635373291015625,3.845998551315069,3.7691204788178205,-1.1357038928944616
1772708650750398200,2.645398193359375,3.7785476478546856,4.123354772493243,-1.3758264350257814
1772708650760423000,2.6554228515625,3.5829683771312233,4.472417801010608,-1.252120121988654
1772708650770448000,2.66544775390625,3.431133555588126,4.7549125541210175,-0.7936492818344384
1772708650780473000,2.67547314453125,3.4093495938032863,4.919279524978995,-0.2055058406498283
1772708650790499000,2.6854990234375,3.357652724313736,5.011595405104756,0.1241999874387402
1772708650800524000,2.69552392578125,3.4069507159680126,5.057103941348195,0.018848519112652864
1772708650810549000,2.705549072265625,3.614469430810213,5.07499790995717,-0.30364520276468243
1772708650820574000,2.715573974609375,3.988436014437675,5.152015098664164,-0.706314185795933
1772708650830599200,2.72559912109375,4.335287796646356,5.1538066582560536,-0.668281099999696
1772708650840624000,2.7356240234375,4.71881949647665,5.174138083145022,-0.7567088866457342
1772708650850650000,2.745650146484375,4.965265615606308,5.381614127889275,-1.192625219034031
1772708650860675000,2.755675048828125,5.030025380286574,5.657909441837668,-1.4879007624581455
1772708650870700000,2.765699951171875,4.96315373801887,6.11884236125648,-1.760068621212989
1772708650880725200,2.775725341796875,4.536922129625082,6.460030126354098,-1.793473901078105
1772708650890750000,2.78575,3.719077221754193,6.204475987139344,-1.562696621853858
1772708650900776200,2.795776123046875,3.0474083790123463,5.756739233902096,-1.0965513746142386
1772708650910801000,2.80580078125,2.561949505624175,5.54365645519197,-0.705770434308052
1772708650920825900,2.815825927734375,2.2283342216074464,5.443098816421628,-0.5681449015118182
1772708650930851000,2.82585107421875,1.5884043329536914,5.4141597221851345,-0.3606053630772978
1772708650940876000,2.8358759765625,1.607342257657647,5.4440521716237065,-0.9122061762191355
1772708650950901000,2.84590087890625,1.4969029840812087,5.6912698596477505,-1.3725906679749489
1772708650960927000,2.855927001953125,1.537443668784201,5.960027763828635,-1.4950436199501156
1772708650970952000,2.865951904296875,1.5683613696172833,5.872876134598255,-1.4839786205783485
1772708650980977200,2.87597705078125,1.5073720633864403,5.151044792327284,-1.077573556291312
1772708650991002000,2.886002197265625,1.228002164298296,3.8724148490756747,-0.2523648416541517
1772708651001027000,2.896027099609375,0.7108478837028145,1.9583792165964842,0.9603688802331686
1772708651011052000,2.906052001953125,-0.3931494230031967,-0.6347668068021536,2.1517478255331515
1772708651021078000,2.916078125,-1.9363631996214388,-3.332851460534334,2.680427416488528
1772708651031103200,2.926103271484375,-3.2345763797432183,-6.4138149031460285,2.792246453985572
1772708651041128200,2.936128173828125,-3.663578621894121,-9.705492641770839,1.352102152828127
1772708651051153000,2.94615283203125,-3.047178661909699,-12.153379130363463,-1.6131582504600286
1772708651061177900,2.956177734375,-3.007785978198051,-12.174480370581149,-1.6460887524202465
1772708651071203000,2.966203125,-2.9361785395801068,-12.215666951972246,-1.731374587778747
1772708651081229000,2.97622900390625,-2.847000957480073,-12.266077288782595,-1.8018521455839276
1772708651091254000,2.98625390625,-2.758821154245734,-12.315562911963463,-1.8488292930752037
1772708651101279000,2.996279052734375,-7.393335058572888,-10.323308898293972,3.2989968294665215
1772708651111304000,3.006303955078125,-6.671441172459721,-8.204439260011911,3.8432507139116523
1772708651121329200,3.0163291015625,-5.654051012843847,-6.776773770546913,3.542650395268202
1772708651131355100,3.026355224609375,-6.021240649682283,-4.680071540409326,2.1868884047582746
1772708651141380000,3.036380126953125,-6.704784639135003,-1.597040059351921,0.8069287423852831
1772708651151405000,3.046405029296875,-6.381443496373295,0.7984300133049488,-0.5924328820068389
1772708651161430000,3.056429931640625,-4.482846840566396,0.7640852606326342,-1.626174237769097
1772708651171455200,3.066455322265625,-2.967766687020659,-1.543264630022645,-2.2825546182252467
1772708651181480000,3.07647998046875,-2.717317177468538,-3.612059447059035,-3.3559973583221434
1772708651191506200,3.086506103515625,-2.8337784878134724,-3.685477734491229,-4.394247935137153
1772708651201531000,3.09653076171875,-2.699309227091074,-1.8432915326923132,-4.989145672887563
1772708651211555800,3.106555908203125,-2.4520383475750682,-0.14643793093562124,-4.989817288538814
1772708651221581000,3.1165810546875,-1.9786048430234193,1.111051024609804,-4.518716903109849
1772708651231606000,3.12660595703125,-1.1563327663600445,2.2307868754565714,-3.7898461637213825
1772708651241631000,3.136630859375,0.01133095683157444,3.077009736549854,-2.797189463345706
1772708651251657000,3.146656982421875,1.5521014319509268,3.398094624817371,-1.554307855954021
1772708651261682000,3.156681884765625,3.1068226910114287,3.4912826116025446,-0.39042029030025005
1772708651271707100,3.16670703125,4.4400329502344125,3.6604958534479137,0.6811755798209458
1772708651281732000,3.176732177734375,5.266017909941077,3.347506593352556,1.6720751343309879
1772708651291757000,3.186757080078125,5.8042480040520426,3.2315748598396774,2.1228597308315336
1772708651301782000,3.196781982421875,5.935513500297069,3.679740652143955,2.4786066210269926
1772708651311808000,3.20680810546875,5.267490320581198,4.178841097393632,2.304164538617432
1772708651321833200,3.216833251953125,3.6420150248616934,4.639088372635841,1.8529612783133982
1772708651331858200,3.226858154296875,2.404761632615328,5.031097393432259,1.0257472152031957
1772708651341883000,3.2368828125,1.5101502959281206,5.293134464925528,0.4400524823449552
1772708651351908000,3.246908203125,1.3042536293298006,5.594568896305561,-0.17948022270724176
1772708651361933800,3.256933837890625,1.5468179385900496,5.8942485929727555,-0.5000748797724023
1772708651371959000,3.266958984375,2.0606027427524327,6.022860359838605,-0.5618452899109572
1772708651381984000,3.27698388671875,2.7690578860998154,6.058567048513889,-0.45335148784648627
1772708651392009000,3.287009033203125,3.5697955918252466,6.163727212643623,-0.38576574249267576
1772708651402034000,3.297033935546875,4.25635454518497,6.220316530349851,-0.29093393402323126
1772708651412059100,3.30705908203125,4.710933711662888,6.182561092451214,-0.14806816248595714
1772708651422085000,3.317085205078125,5.063782103937864,6.232510241490602,-0.05673062587305903
1772708651432110000,3.327110107421875,5.36633004951775,6.3874652408808466,-0.02620674666315317
1772708651442135000,3.337135009765625,5.5446986577212805,6.60665276620686,-0.039866804029420014
1772708651452160000,3.347159912109375,5.708109935289621,6.870212517222762,-0.10591730263996868
1772708651462185200,3.357185302734375,5.815259227409959,7.02644820407331,-0.3580280234025791
1772708651472210000,3.3672099609375,5.796356374019384,6.959767700463533,-0.7276502576828002
1772708651482236200,3.377236083984375,5.53996286137104,6.316575595143437,-1.081169242695719
1772708651492260900,3.3872607421875,4.956809337428212,5.463328534501791,-1.8230764276593923
1772708651502286000,3.3972861328125,4.544125777393579,4.909909639087319,-2.291857430230081
1772708651512311000,3.40731103515625,4.236759033355116,4.545128232434392,-2.67113585653007
1772708651522336000,3.4173359375,3.457613566234708,4.375850693181157,-3.182645116975903
1772708651532361000,3.42736083984375,2.0115455741167065,4.905266781717539,-3.480811486470699
1772708651542387000,3.437386962890625,0.28574703290462494,5.039783973234892,-3.4865830556094646
1772708651552412000,3.447411865234375,-1.385005912911892,4.079114648750424,-2.7200542012169957
1772708651562436900,3.457436767578125,-3.171444508525729,1.8161118493437767,-1.0148588145073503
1772708651572461800,3.4674619140625,-4.744396420803666,-1.0689572652459145,1.3385676946029066
1772708651582486800,3.47748681640625,-5.510901017537713,-4.8331022937387225,3.85077058802247
1772708651592512000,3.487511962890625,-5.528357763773203,-9.848430455631018,5.192949751120805
1772708651602538000,3.4975380859375,-5.4984056931018825,-15.777508369922637,5.205736751979589
1772708651612563000,3.50756298828125,-5.465373192071914,-15.804742413806915,5.190820337876677
1772708651622587600,3.517587646484375,-5.422482144850492,-15.833804842162131,5.088209273707866
1772708651632612600,3.527612548828125,-5.39514580963552,-15.847304959726333,4.9224125623077155
1772708651642637800,3.537637939453125,-5.398938772177696,-15.836414147877692,4.731465919820964
1772708651652663800,3.547663818359375,-5.419513942694664,-15.81584832971096,4.573780326423049
1772708651662688800,3.557688720703125,-5.422637627673149,-15.813063667428493,4.510679434865713
1772708651672713700,3.567713623046875,-5.394559534180164,-15.837695419859886,4.5393505258157845
1772708651682738700,3.57773876953125,-5.341590160536766,-15.885051045274734,4.6013592382222415
1772708651692764000,3.587763916015625,-5.272849217265844,-15.94757384468317,4.636667867490649
1772708651702788900,3.597788818359375,-3.0758599819928407,-10.869967798054217,0.7964525026869028
1772708651712814800,3.60781494140625,-2.012552120810747,-8.66660844322741,-1.8269906784936785
1772708651722839800,3.61783984375,0.129791332039237,-7.397354815608263,-3.9348023316666483
1772708651732864800,3.62786474609375,2.060792712366581,-7.010619935822486,-4.92217992259562
1772708651742890000,3.637889892578125,2.8190736706346273,-6.841431243896484,-5.494785164517164
1772708651752915000,3.6479150390625,2.750751829558611,-5.749641384595632,-5.902187569278478
1772708651762939600,3.657939697265625,2.3053157544791696,-3.702295598301291,-5.658228590789437
1772708651772966000,3.6679658203125,1.7907032673209904,-1.2133072839915753,-4.646807568711042
1772708651782990600,3.677990478515625,1.2497475476384161,0.9102718471556901,-3.148471629217267
1772708651793015800,3.688015869140625,0.16346972975730895,1.8794956494957207,-1.011408235662058
1772708651803040800,3.698040771484375,-0.9292425050854682,1.9758646044045685,1.0838071899838746
1772708651813065700,3.708065673828125,-1.5057266342669724,2.1750176419615745,2.262913221427053
1772708651823090700,3.718090576171875,-1.3166554302632807,3.014735943466425,2.1819088627800345
1772708651833116700,3.72811669921875,-0.6459568938583136,3.964158482271433,1.3721176436357199
1772708651843142000,3.738141845703125,0.06747779146730899,4.72820107280612,0.36577644557226446
1772708651853166800,3.748166748046875,0.7121762096971272,5.02952970572412,-0.504501865901798
1772708651863191800,3.75819189453125,1.09604517865777,4.699979771450161,-0.997093806040287
1772708651873216800,3.768216796875,1.3175544249296187,4.083349509841203,-1.0646439320914447
1772708651883242000,3.778241943359375,1.6202876639485357,3.5744448789358136,-0.7405750595770776
1772708651893268000,3.78826806640625,1.979246648058295,3.309850524175167,-0.2810359691368416
1772708651903293000,3.79829296875,2.2358915051192043,3.15756678982079,0.0006005962416529655
1772708651913317600,3.808317626953125,2.4293407780766487,3.0573534344434736,-0.017711415116302667
1772708651923342600,3.818342529296875,2.434472295746207,2.941144053032994,-0.2706162453986704
1772708651933367800,3.828367919921875,2.206484793370962,2.863282230195403,-0.6794135385844856
1772708651943392800,3.838392822265625,2.1900492068767545,3.1158518006414173,-1.12644499309659
1772708651953418800,3.848418701171875,2.36960205642879,3.6474095773816106,-1.5527400221154093
1772708651963443700,3.858443603515625,2.5620599802613255,4.327102736625075,-1.9001640512540936
1772708651973468700,3.86846875,2.6959096477806566,4.936979432320594,-2.0311947158299386
1772708651983494000,3.878493896484375,2.7719705586761236,5.41528726491034,-1.970248956479877
1772708651993518800,3.888518798828125,2.7409423832058906,5.8159647453308105,-1.7825082704275845
1772708652003543800,3.898543701171875,2.7018764472305774,6.115924427983164,-1.61438633095026
1772708652013569800,3.90856982421875,2.519924719843268,6.30092268345952,-1.4643115048170088
1772708652023594800,3.9185947265625,2.24550513663888,6.493021126329898,-1.3607035385653377
1772708652033620000,3.928619873046875,2.0311825870007274,6.790840289822221,-1.4042548032611608
1772708652043645000,3.93864501953125,1.9245412444025276,7.044255078920721,-1.4839391653507947
1772708652053669600,3.948669677734375,1.752579580631852,7.108167286860942,-1.3857432872757314
1772708652063696000,3.95869580078125,1.4726970558464527,7.018991458326577,-1.066881847211346
1772708652073720600,3.968720458984375,1.045563530176878,6.829848942652344,-0.5654757553678006
1772708652083745800,3.978745849609375,0.496546669113636,6.43238750166893,0.02747903162129223
1772708652093770800,3.988770751953125,-0.17641688961386678,5.770930256339907,0.6055366206645966
1772708652103795700,3.998795654296875,-0.7186521277129649,4.910167997762561,1.2782431358911097
1772708652113820700,4.008820556640625,-1.1442588822066784,3.5663714625954626,2.357812396044284
1772708652123846000,4.018845947265625,-1.642645041707158,1.4984253713428972,3.7984599705487487
1772708652133871900,4.028871826171875,-2.2133377280056474,-0.8485200321197509,5.09709926712811
1772708652143896800,4.038896728515625,-3.1474697586983442,-2.6544179459631443,6.147790807843208
1772708652153921800,4.048921875,-4.219357816699147,-3.646428165128827,6.180241125071048
1772708652163946800,4.05894677734375,-4.448759277525544,-4.356199067249894,4.620017176941037
1772708652173972000,4.068971923828125,-4.777991816413402,-6.0646139274626965,2.597491066865623
1772708652183998000,4.078998046875,-5.857401502090692,-8.343240412458776,0.6517065434262156
1772708652194023000,4.08902294921875,-7.767548310437798,-9.608297172909975,-0.7194732348375023
1772708652204047600,4.099047607421875,-9.157900260552763,-9.321360637959838,-1.9409381063215434
1772708652214072800,4.10907275390625,-9.646832947531342,-8.538513978233933,-2.5747815146684645
1772708652224097800,4.119097900390625,-9.044880030572413,-9.066011081406474,-2.142997386714071
1772708652234122800,4.129122802734375,-6.497303918215632,-10.520168856477737,-0.9200585702199489
1772708652244148700,4.139148681640625,-3.1564187888294457,-11.826258469063044,0.6358082056138664
1772708652254173700,4.149173583984375,-3.041789370086789,-11.897290738141535,0.6093990317137912
1772708652264198700,4.15919873046875,0.6694517512142658,-9.088904465737938,0.12186992792282253
1772708652274223900,4.169223876953125,0.6292880831301212,-5.55622601390779,-1.1274588463142514
1772708652284248800,4.179248779296875,0.3969453081548214,-2.3165204545825717,-1.8051054482914506
1772708652294273800,4.189273681640625,0.4288590342879295,-0.13114157760441303,-1.9877927964769302
1772708652304299800,4.1992998046875,-0.18982932889461515,0.5857195750385522,-1.5997447882659732
1772708652314324700,4.20932470703125,-1.914193453389406,0.15498422548472882,-0.8635652602341025
1772708652324350000,4.219349853515625,-3.7736516925066708,-0.3761427586227655,-0.675808645960316
1772708652334375000,4.229375,-4.802433599230647,-0.34010113890469074,-1.4501602298676968
1772708652344399600,4.239399658203125,-4.724531444382667,0.3891963014632463,-2.629841138589382
1772708652354424800,4.2494248046875,-3.4925972013324498,1.4167495431751012,-3.821749660721421
1772708652364450800,4.259450927734375,-1.4332406592488287,2.0661492709636686,-4.2448014700353145
1772708652374475800,4.269475830078125,0.7503659473598003,2.865184264424443,-4.273750208882987
1772708652384500700,4.279500732421875,2.545498721560836,3.977570921552181,-4.038580101527273
1772708652394525700,4.289525634765625,3.8758886626660822,4.988746444436908,-3.59215063149631
1772708652404551000,4.299551025390625,4.68338402595818,5.665971752262116,-2.928064791229367
1772708652414575900,4.309575927734375,5.270723895674943,5.692772080904245,-1.6517457552686332
1772708652424601900,4.319601806640625,5.838679265964031,4.900253337469697,0.19581117978319523
1772708652434626800,4.329626708984375,5.734693990832567,4.094865760111809,1.540248789332807
1772708652444651800,4.33965185546875,5.090191971957683,3.8125674063563344,1.970641901320219
1772708652454677000,4.349677001953125,4.249570584133267,4.007847986394166,2.093467778261006
1772708652464702000,4.359701904296875,3.812620013326406,4.650473690003157,1.5042453096680342
1772708652474726700,4.3697265625,3.8114737659007307,5.446289721417426,0.7288916360460221
1772708652484753000,4.3797529296875,3.9912960800439117,5.94149841992557,0.3242282277945429
1772708652494777600,4.389777587890625,4.204216361668705,6.143083068543672,0.04960084705837071
1772708652504802800,4.399802734375,4.3535278022140265,6.134926650094986,-0.08809044445045291
1772708652514827800,4.409827880859375,4.43858450499177,6.0041439689308405,-0.1809805077349767
1772708652524852700,4.419852783203125,4.548685048133135,5.874809148487448,-0.2426277664178982
1772708652534877700,4.429877685546875,4.580070366477966,5.825781790468096,-0.13829141282644122
1772708652544903700,4.439903564453125,4.447117940059304,5.798989060610532,0.052718796415813264
1772708652554929000,4.449928955078125,4.2587341337978835,5.785493034699559,0.293142878776975
1772708652564953900,4.459953857421875,4.151863658618927,5.765636241585016,0.5438731049666181
1772708652574978800,4.469978759765625,4.118506163418293,5.747346551656722,0.7372702458780258
1772708652585003800,4.480003662109375,4.072845651483536,5.643534879526496,0.8162246131926775
1772708652595029000,4.490029052734375,3.9578772100448605,5.382819412025809,0.5354150366902352
1772708652605055000,4.500054931640625,3.85422102073729,4.998240833491087,-0.15440688225449994
1772708652615080000,4.510079833984375,3.7204789052456615,4.652442359727621,-0.919794512456283
1772708652625105000,4.52010498046875,3.4249878924399613,4.416970054554939,-1.5966687418214975
1772708652635129900,4.5301298828125,3.1200977676481005,4.375119456297159,-2.1539364216186105
1772708652645155000,4.540155029296875,2.7844132761418816,4.5218478946119545,-2.4094220256417986
1772708652655180000,4.550179931640625,2.0412463003754615,4.585178503271937,-1.9706551991932093
1772708652665206000,4.5602060546875,0.9226023364186287,4.003639428788423,-0.3248975784234702
1772708652675231000,4.57023095703125,-0.4077881892085075,1.414150174331665,2.6316677694946526
1772708652685255700,4.580255615234375,-2.1430238363295793,-3.380045173385739,6.535514114144444
1772708652695281000,4.590281005859375,-2.71606396253705,-7.903866998419165,7.614117744135856
1772708652705305900,4.600305908203125,-1.9957120451688766,-11.507395933020113,7.088115847957134
1772708652715330800,4.610330810546875,-0.5682967310726642,-15.326683003020285,6.458204079970717
1772708652725356800,4.620356689453125,-0.47389118519127366,-15.386062243705988,6.4787839266628025
1772708652735381800,4.6303818359375,-0.29092238971590995,-15.505513968038558,6.521393234333396
1772708652745407000,4.640406982421875,-0.09897241540551185,-15.638751056617497,6.544094895485043
1772708652755432000,4.650431884765625,-10.899273387515544,-10.922308226144313,2.4180011995472013
1772708652765457000,4.660456787109375,-13.107494210898876,-10.18891913254857,4.403896345709264
1772708652775483000,4.67048291015625,-12.549119154381751,-11.697668329507112,6.8837699179321525
1772708652785507800,4.6805078125,-12.53087973333597,-11.709315512681007,6.91437899120748
1772708652795533000,4.690532958984375,-12.47742871365547,-11.744094565117358,7.010588371640443
1772708652805558000,4.70055810546875,-12.389240727114677,-11.807174998408556,7.124899225953221
1772708652815583000,4.7105830078125,-12.280194661462307,-11.891323938691615,7.213773441192507
1772708652825607700,4.720607666015625,-12.164427763122319,-11.985775661802291,7.261309099349379
1772708652835633000,4.7306328125,-0.1768313156336546,-9.130437668609618,-5.39150716087222
1772708652845659000,4.740658935546875,1.3752864829301834,-5.020408826157451,-6.022950960731506
1772708652855683800,4.750683837890625,2.4438737458199262,-1.349464059409499,-5.895464983025193
1772708652865708800,4.760708740234375,2.313245378434658,1.8296745107501744,-4.857525079594552
1772708652875733800,4.770733642578125,0.5197089335143565,4.187547550940513,-3.062477645589411
1772708652885759000,4.780759033203125,-1.436274912378192,5.575865949401259,-1.3102343111746013
1772708652895785000,4.790784912109375,-3.408487424015999,5.565267398497462,-0.05012636876981705
1772708652905810000,4.800809814453125,-4.7801048630446195,4.548846960696578,0.21242468012757598
1772708652915835000,4.8108349609375,-4.666881803968549,3.537798279061913,-0.7378472420483827
1772708652925859800,4.82085986328125,-3.275004836243391,2.842683678802848,-2.375631107459962
1772708652935885000,4.830885009765625,-1.0676379993408918,2.8606027818530797,-3.9922403751567
1772708652945910000,4.840909912109375,1.259832303801179,3.447833930498361,-5.060258021464944
1772708652955934700,4.850934814453125,3.0178415082663297,3.9751030701339243,-5.236436426147819
1772708652965961000,4.8609609375,4.209420360052586,4.200891601160168,-4.747023262175917
1772708652975985700,4.870985595703125,5.031419464993476,4.464533185240626,-4.064437304100394
1772708652986011000,4.881010986328125,5.857514899337291,4.866447513979673,-3.2579075709700582
1772708652996035800,4.891035888671875,5.841202062439918,4.636850238320231,-1.7523637459240853
1772708653006060800,4.901060791015625,4.268042060369253,4.1099136916399,0.08349259526617825
1772708653016086800,4.911086669921875,2.8024633120954037,4.150577125939726,0.8249858656667173
1772708653026111700,4.92111181640625,2.0193863507449628,4.365005474039912,0.8167576971560716
1772708653036137000,4.931136962890625,1.9358640179276465,4.649177804973721,0.8239538192052394
1772708653046162000,4.941161865234375,2.3318717529714106,5.271327122265101,0.6138238989513367
1772708653056187000,4.951186767578125,2.8682220246851444,6.148446641403436,0.21492718273410572
1772708653066211800,4.9612119140625,3.5246365996718403,6.980536932247877,-0.3565573297955096
1772708653076237000,4.971237060546875,4.104123417800665,7.440539292818308,-0.8311258297264575
1772708653086263000,4.981262939453125,4.465241625770926,7.617967989823222,-1.1726336936239152
1772708653096288000,4.9912880859375,4.566446914795041,7.485150587961077,-1.2475247570224106
1772708653106313000,5.00131298828125,4.735807748417556,7.1788441666305065,-1.2951100995399056
1772708653116337700,5.011337646484375,4.794672609840333,6.923530850434303,-1.3687687715992332
1772708653126363000,5.02136279296875,4.869951722708344,6.868978591513633,-1.400848794209957
1772708653136387800,5.031387939453125,4.832440614959597,6.8895806500375265,-1.2651191581629215
1772708653146413800,5.041413818359375,4.410302413359284,6.63835898706913,-0.9715155665390193
1772708653156438800,5.051438720703125,3.8686774161130186,6.290407134664059,-0.8332542931225151
1772708653166463700,5.061463623046875,3.51703752284497,6.020657296836376,-0.8840143201533704
1772708653176489000,5.071489013671875,3.3443738482847807,5.650233500382304,-0.9660993136439472
1772708653186514000,5.081513916015625,3.1934169786199926,5.292070635086298,-1.022342959717661
1772708653196539000,5.091538818359375,3.031859512224793,5.021241769850254,-1.0374713360708205
1772708653206564900,5.10156494140625,2.899383471146226,4.580731460735201,-1.096018144520372
1772708653216589800,5.11158984375,2.7295067969560622,3.8317765492171048,-1.148081801495701
1772708653226615000,5.121614990234375,1.4987731618672608,3.0672774470865725,-0.6752800189763307
1772708653236640000,5.131639892578125,-0.041088966235518457,2.0821832909196614,0.19403774036988614
1772708653246664700,5.141664794921875,-2.0466899527341127,0.6362082377821207,1.9456831088915467
1772708653256689700,5.151689697265625,-3.874887376669049,-1.8411124350875614,3.72512585426867
1772708653266715600,5.161715576171875,-5.6333612760365,-4.9616889261633155,4.657233101135492
1772708653276740900,5.171740966796875,-6.814287216383218,-8.471381639203429,4.765335163936019
1772708653286765800,5.181765869140625,-7.34234195343852,-11.41415533926487,4.230649026042223
1772708653296790800,5.191790771484375,-7.019298332318663,-12.615698535704611,3.157743899953365
1772708653306815700,5.201815673828125,-7.014152786123752,-12.62064359089136,3.1453596346765753
1772708653316841000,5.211841064453125,-7.002461763808131,-12.633874828386306,3.105672936454415
1772708653326867000,5.221866943359375,-6.984824984830618,-12.648085724568366,3.0818995544180274
1772708653336892000,5.231891845703125,-6.956735785421729,-12.663043639725446,3.0904671840161084
1772708653346916900,5.241916748046875,-6.902496245712041,-12.691660662400722,3.1108216975197194
1772708653356941800,5.25194189453125,-6.771513073539733,-12.768956668049096,3.122756757724285
1772708653366967000,5.261967041015625,-6.524830223044753,-12.92600133319497,3.123298024994135
1772708653376992000,5.271991943359375,-6.190082135605811,-13.15867845469117,3.1113086042538285
1772708653387018000,5.28201806640625,-4.31381363146305,-7.518638431543112,1.8454656618610024
1772708653397043000,5.29204296875,-6.916808848702908,-3.1577953378796577,1.2617825610861182
1772708653407067600,5.302067626953125,-7.215162265202403,-0.017733809611201284,0.612309475800395
1772708653420225000,5.31522509765625,-5.8785676242381335,1.126823763281107,-0.00028407763838768005
1772708653430250000,5.32525,-4.091864240208268,0.5386047726422548,-0.753031659437716
1772708653440275000,5.33527490234375,-2.4943454574286936,-0.22679683128595352,-1.7625956554725766
1772708653450301000,5.345301025390625,-1.158051260715723,-0.4979711489588022,-2.8075825548052786
1772708653460326000,5.355325927734375,-0.03469429676234722,-0.12972177393436432,-3.522225446876883
1772708653470351000,5.36535107421875,0.9915279886066913,0.6546902354121208,-3.632181613111496
1772708653480375800,5.375375732421875,1.6348410899579524,1.7389643122553824,-3.1728219343587756
1772708653490400800,5.38540087890625,1.929938135010004,3.1111160042911767,-2.48709738599658
1772708653500425700,5.39542578125,2.144400969901681,4.088603777107596,-1.569617214897275
1772708653510451700,5.40545166015625,2.42491770093739,4.428069540718197,-0.6197752816364169
1772708653520477000,5.415476806640625,2.769429057499766,4.53985350690186,0.1403091458570212
1772708653530502000,5.425501953125,3.357534066370129,4.846565001901984,0.4663479302048683
1772708653540526800,5.43552685546875,4.029071391686797,5.162144278490543,0.5143402460880577
1772708653550551800,5.4455517578125,4.564673475381731,5.242727635246515,0.5271307540781796
1772708653560577300,5.455577392578125,5.0043753907233475,5.230982252395153,0.6092417587928474
1772708653570603000,5.46560302734375,5.334014172324538,5.043673966410756,0.9099016986690461
1772708653580628200,5.475628173828125,5.338893176537752,4.737966680017113,1.0966486975088714
1772708653590653200,5.485653076171875,5.107630598014593,4.557169383361935,0.8199793626163154
1772708653600678100,5.49567822265625,4.920381933262944,4.540499988111853,0.14890534396246075
1772708653610703000,5.505703125,4.699406355476379,4.601363914397359,-0.5991916355520487
1772708653620728000,5.51572802734375,4.335473674607277,4.682492630076408,-1.1536672004126012
1772708653630754300,5.52575439453125,3.9264743560433386,4.815832594507932,-1.5166110163748263
1772708653640779000,5.535779052734375,3.586650865036249,4.983129773598909,-1.7219797135762869
1772708653650804000,5.545803955078125,3.390198903131485,5.112129662999511,-1.888993837942183
1772708653660829200,5.5558291015625,3.2589941971629854,5.185935488444566,-2.029165255828947
1772708653670854100,5.565854248046875,3.0808605667591094,5.247885456401109,-1.9993276053175328
1772708653680879000,5.575879150390625,2.8314509216487407,5.365966476902365,-1.7392808308586478
1772708653690905000,5.585905029296875,2.7120050425350666,5.7196086499035355,-1.6048688532814384
1772708653700930000,5.595929931640625,2.906141128712892,6.294019479942321,-1.4554863933265207
1772708653710955300,5.605955322265625,3.2640164092391726,6.834739052781463,-1.0946546010822058
1772708653720980200,5.615980224609375,3.6805589827895164,7.141971941307187,-0.8154401848167181
1772708653731005200,5.626005126953125,4.137242428070307,7.077794360429048,-0.7361297706060111
1772708653741658000,5.636658203125,5.018063724336028,5.563222156405448,-0.269206232470274
1772708653751683300,5.646683349609375,5.145407078701258,4.918429045629501,-0.41595834392160175
1772708653761708000,5.6567080078125,4.992770877647399,4.599789796948433,-0.7964154586121439
1772708653771734300,5.666734375,4.860730305376649,4.610566627028584,-0.6700117231845856
1772708653781759000,5.676759033203125,4.598998938831687,4.564716145479679,-0.5121272462137043
1772708653791784000,5.686783935546875,4.260519263648987,4.135760080558061,-0.32063451415151356
1772708653801809200,5.69680908203125,3.6554829937219617,3.311471403375268,0.11072905030325055
1772708653811834000,5.706834228515625,2.3521540780216452,2.256580657404661,0.861042390692979
1772708653821859000,5.716859130859375,0.9447375958591699,0.8517074299842119,1.6805425184249876
1772708653831885000,5.726885009765625,0.10761574058830738,-1.2133026078164577,2.508557814915478
1772708653841910000,5.736909912109375,-0.06047521922886371,-3.4391765767902136,2.4562547962263226
1772708653851935200,5.746935302734375,-0.011232172632217407,-5.6022688031584025,1.712596968203038
1772708653861960200,5.756960205078125,-0.27852000426053997,-7.136652792111039,0.5547806852869689
1772708653871985200,5.766985107421875,-1.5634613226160405,-6.770248168170451,-1.1863047107756137
1772708653882011100,5.77701123046875,-3.229677501785755,-5.212097519183159,-2.5519927597552536
1772708653892036000,5.7870361328125,-4.757796585124731,-4.332125533223152,-1.793700549440831
1772708653902061300,5.797061279296875,-5.775668390777707,-5.749814987596869,0.8216051371872425
1772708653912086000,5.8070859375,-5.4938990293323995,-8.52584037462175,3.6643607121825217
1772708653922111000,5.817111083984375,-4.169663519203662,-10.738029517114162,5.847693762546777
1772708653932136000,5.827135986328125,-2.9737708958715197,-11.867906822746992,6.32789135440588
1772708653942162000,5.837161865234375,-2.882228922727704,-11.92050093333721,6.35055092998147
1772708653952187100,5.847187255859375,-2.7295769395828247,-12.003817514449358,6.427720678901672
1772708653962212000,5.857212158203125,-2.5165187107920644,-12.125889065891503,6.545501839673519
1772708653972237000,5.867237060546875,-2.2624977724939583,-12.283227161026,6.68955258321166
1772708653982262000,5.877261962890625,-10.687653082573414,-10.93137883682847,1.42708871249035
1772708653992287200,5.887287353515625,-12.968478538918495,-9.233567203694582,0.3691246234890073
1772708654002313200,5.897313232421875,-13.348835115844011,-8.379550327724218,-0.46458004374951123
1772708654012338200,5.907338134765625,-11.480329062396287,-7.910037796008586,-0.8811723016604781
1772708654022363100,5.917363037109375,-7.813917262902855,-7.185968903943896,-1.226243045671284
1772708654032388000,5.92738818359375,-3.476419388991594,-6.088108784818649,-1.653261566659063
1772708654042413300,5.937413330078125,0.04651332937180996,-4.397223151555657,-1.6407817320533096
1772708654052438000,5.94743798828125,2.231123560065031,-2.222659683102369,-1.1550445531804114
1772708654062464300,5.95746435546875,3.33179581400156,-0.39964755285084247,-0.07678929823525249
1772708654072489000,5.967489013671875,3.4449224269658325,0.5365834959477186,1.2176303348224609
1772708654082514000,5.977513916015625,3.0453432631760835,1.111422196009755,1.990874103618413
1772708654092539100,5.9875390625,2.3553449830174444,1.8625947835773229,1.8567901889517902
1772708654102564000,5.997564208984375,1.4471277303040027,2.712186828842759,0.9195666219845413
1772708654112590000,6.007590087890625,0.7713397618055343,3.3169775995761155,-0.34019922898430377
1772708654122615000,6.017614990234375,0.5545300715267658,3.4439041898339986,-1.4810131949014962
1772708654132640000,6.027639892578125,0.4747101003587246,3.850955296939611,-2.6138474506437777
1772708654142665200,6.037665283203125,0.4172907615691423,4.310026514139771,-3.448354739502072
1772708654152690200,6.047690185546875,0.44696050816774363,4.534931248068809,-3.4066879733785984
1772708654162715100,6.057715087890625,0.7306792501151561,4.95226234164834,-2.7525369594097135
1772708654172741000,6.0677412109375,1.6176690058827399,5.7833472548425195,-1.868831339879334
1772708654182766000,6.07776611328125,2.681131180843711,6.23507044736743,-0.6156234226539731
1772708654192791300,6.087791259765625,3.4538591821372506,5.9038961267620325,0.7733794509395957
1772708654202816000,6.09781591796875,3.8283436521589755,5.0910184859097,1.840997576536238
1772708654212841000,6.107841064453125,3.7775218119382856,4.248213324305415,2.5823899438455697
1772708654222867000,6.117866943359375,3.3233857130527493,3.785329855340719,2.8661162845775485
1772708654232892200,6.12789208984375,2.8709260229468345,3.846918004247546,2.2909039288975297
1772708654242917000,6.137917236328125,2.624204009485245,4.118965597623586,0.9962325130358338
1772708654252942000,6.147942138671875,2.5568361081331967,4.3342812499523165,-0.27038079267498105
1772708654262967000,6.157967041015625,2.653873171561956,4.374769912207126,-1.3273280693165956
1772708654272992300,6.1679921875,2.888952093502879,4.393553523132205,-2.0860088405571875
1772708654283018200,6.178018310546875,3.3187247355043885,4.4980806500554085,-2.436560646327585
1772708654293043200,6.188043212890625,3.754987908568978,4.527622386360168,-2.458665656760335
1772708654303068200,6.198068115234375,4.067281587615609,4.640826740735769,-2.1859807883940636
1772708654313093000,6.208093017578125,4.291470866751671,4.901218383109569,-1.6890895436264572
1772708654323118300,6.218118408203125,4.558087667250633,5.117392698094249,-1.1890064440149812
1772708654333143300,6.228143310546875,4.65016740053296,5.260224713492393,-0.7180735971726476
1772708654343169300,6.238169189453125,4.539276583796739,5.417348873615264,-0.29641558030471205
1772708654353194200,6.2481943359375,4.248014002341032,5.530735598820447,0.12429171170964837
1772708654363219000,6.258218994140625,3.842682558634877,5.5129877606838935,0.2797389515962452
1772708654373244200,6.268244140625,3.4234757343113422,5.514794517844915,0.03125840402953327
1772708654383269000,6.27826904296875,2.9220091444522143,5.6855824616611,-0.4453272809427231
1772708654393295000,6.288295166015625,2.4961919620782136,5.8521402205616235,-0.9736238639298825
1772708654403320000,6.298320068359375,2.3990046765238047,5.7648827928692095,-1.530847046998143
1772708654413345000,6.308344970703125,2.4589397975265976,5.35208174393475,-1.9531021529763937
1772708654423370200,6.318370361328125,2.4930869818001984,4.89138847849071,-2.091307969878614
1772708654433395200,6.328395263671875,2.3339719401210544,4.558248995292186,-1.6775567806124687
1772708654443420200,6.338420166015625,1.8150433433294295,3.835323428043723,-0.5899861464418471
1772708654453446100,6.348446044921875,0.7551496745049953,2.38265676831305,1.2107660750761629
1772708654463471000,6.35847119140625,-0.8924269783854484,-0.08723930751383305,3.0956533544823523
1772708654473496300,6.368496337890625,-3.247715847301483,-3.4944998200833797,4.680001982304454
1772708654483521300,6.378521240234375,-4.713609068351984,-7.624135280281305,5.779029976165294
1772708654493546000,6.3885458984375,-3.8576404737919567,-10.834482643175125,4.762775834842026
1772708654503571000,6.398571044921875,-2.2019705308169124,-12.06556289974451,1.4400208209082483
1772708654513597000,6.408596923828125,-2.1422937684893606,-12.090131523811817,1.5554513269007204
1772708654523622100,6.4186220703125,-2.016972275340557,-12.1654319717288,1.5939736575186252
1772708654533647000,6.428647216796875,-1.890640143844485,-12.253154678845405,1.5400759169839322
1772708654543672000,6.438672119140625,-1.8179086696326732,-12.316111193495988,1.4121291898980737
1772708654553697300,6.448697265625,-1.811433920660615,-12.338969506514072,1.2682222387447952
1772708654563723300,6.45872314453125,-1.8323989672780037,-12.338050638103484,1.1751819898672402
1772708654573748200,6.468748291015625,-1.834317368119955,-12.338539298403262,1.1632308553107082
1772708654583773400,6.4787734375,-1.795764057841897,-12.354785499805212,1.2315322381205855
1772708654593798400,6.48879833984375,-1.720236815431714,-12.389497916746139,1.3609016914859413
1772708654603823400,6.4988232421875,-5.176681922408938,-10.061471148765087,-0.8968058510567992
1772708654613848300,6.508848388671875,-4.916505968612432,-7.880067605158686,-2.7176407103344795
1772708654623874300,6.518874267578125,-3.50145563057065,-5.4569812113016845,-3.71621072640717
1772708654633899500,6.5288994140625,-1.640380603906512,-3.076801062235236,-3.940520417052507
1772708654643924500,6.538924560546875,-0.06980126597881317,-1.153345859503746,-3.313991861763596
1772708654653949400,6.548949462890625,1.2128390819579362,0.05483750560283661,-2.0132650913856924
1772708654663974400,6.558974365234375,2.2454005072206256,0.6018126317054033,-0.6202180569678545
1772708654674000400,6.56900048828125,3.2283412847459316,0.9000807080090045,0.34389271320737896
1772708654684025600,6.579025634765625,3.8683103363662954,1.1833072825253008,0.5506980190832168
1772708654694050300,6.58905029296875,4.1501019096434115,1.8731360513359308,0.2098858458323404
1772708654704075300,6.5990751953125,4.170094311836362,2.61848680088222,-0.4374445648688823
1772708654714100500,6.6091005859375,3.9348815343827006,3.049678077509999,-0.9757998927947134
1772708654724125400,6.61912548828125,3.6142800457179542,3.2657401642918584,-1.270169573420286
1772708654734151400,6.6291513671875,3.7827521138072013,3.3405513673871754,-1.3849451226353644
1772708654744176400,6.63917626953125,4.19561044588685,3.4309196205765007,-1.3313674078352749
1772708654754201300,6.649201416015625,4.53617978682518,3.5251585777193304,-1.264456310340017
1772708654764226600,6.6592265625,4.771723403668403,3.640532677349448,-1.1836799882952123
1772708654774251500,6.66925146484375,4.633547105121612,4.090338053554296,-0.8247841325495392
1772708654784276500,6.6792763671875,4.200897446379066,4.786317746210098,-0.20275009393459184
1772708654794302500,6.689302490234375,3.3393332237690685,5.374859392932057,0.5009564118472859
1772708654804327400,6.699327392578125,2.2446569953769444,5.657148978859186,1.115202152939886
1772708654814352600,6.7093525390625,1.2945184172570705,5.691551599198579,1.4530156192988157
1772708654824377300,6.71937744140625,0.8268868769824504,5.944145135042071,1.331687725830823
1772708654834402300,6.72940234375,0.9178478353679179,6.442182334974408,0.827538618889451
1772708654844427300,6.73942724609375,1.2093863111555576,6.787344848921895,0.14103200763831847
1772708654854453200,6.749453369140625,1.551921983730793,6.787327897787094,-0.3801392809130251
1772708654864478500,6.759478515625,1.9815619392633437,6.646496700817346,-0.670764295117557
1772708654874503400,6.76950341796875,2.528422499075532,6.61674219854474,-0.8736850877102464
1772708654884528400,6.7795283203125,3.1294904498934746,6.555725127524137,-0.9257673032555729
1772708654894553300,6.78955322265625,3.770491767171025,6.490077474093437,-0.83692618656829
1772708654904578600,6.79957861328125,4.361826259481907,6.363494582706689,-0.6102380032885819
1772708654914604500,6.8096044921875,4.755498829576373,6.258627264043688,-0.2871046032597311
1772708654924629500,6.81962939453125,4.904325701475143,6.133093004927039,0.09981496717687696
1772708654934654500,6.829654541015625,4.787873158958554,5.969319908308982,0.6262889013141393
1772708654944679400,6.839679443359375,4.461396056258678,5.713142668759822,1.1143068846005946
1772708654954704600,6.84970458984375,3.993617216467857,5.413357758152484,1.1903399576410651
1772708654964730600,6.859730712890625,3.4349200883895157,5.191021413406729,1.03031094292216
1772708654974755600,6.869755615234375,2.8212100981414316,4.946544548523426,0.9273707198642194
1772708654984780300,6.8797802734375,2.1994085713744163,4.3961926394641395,0.8971172550935298
1772708654994805200,6.88980517578125,1.329702543362975,3.6144273452341555,0.7492458572886884
1772708655004830500,6.89983056640625,-0.09744681327342987,2.802561511772871,0.6629616585426032
1772708655014855400,6.90985546875,-2.0124223569512365,1.5310627355754374,0.5353961493266746
1772708655024881400,6.91988134765625,-3.8473417826175687,-0.5215151061534882,0.6115000956462696
1772708655034906400,6.92990625,-5.5433308764994145,-3.526879410162568,1.0945216954175383
1772708655044931300,6.939931396484375,-6.754777627316117,-7.395156428781151,1.7723120167143642
1772708655054956500,6.94995654296875,-6.2744590394258495,-10.45466382638812,2.003679516916722
1772708655064981500,6.9599814453125,-3.932853827947378,-10.84219365594387,0.788358043558523
1772708655075006500,6.97000634765625,-4.043360613802075,-10.770285773074626,0.75945847761482
1772708655085032400,6.980032470703125,-4.10758261834383,-10.725081188213824,0.7912407593879848
1772708655095057400,6.990057373046875,-4.125758911025524,-10.706641860681772,0.8703237215183675
1772708655105082600,7.00008251953125,-4.133943971046805,-10.695298628890514,0.9524493392802774
1772708655115107300,7.010107421875,-4.159147970408201,-10.676063182544707,0.9977133261781185
1772708655125132300,7.02013232421875,-4.192934504675865,-10.654885954481363,0.9904743879005312
1772708655135157200,7.0301572265625,-4.198175912460685,-10.654936223363876,0.9395473337396979
1772708655145183200,7.040183349609375,-4.1415304806530475,-10.696044478821754,0.8750947353124618
1772708655155208400,7.05020849609375,-4.017397320505976,-10.78120698006153,0.8318046788360923
1772708655165233400,7.0602333984375,-3.8470793322890993,-10.89922428767681,0.814779602016136
1772708655175258400,7.07025830078125,-0.09066460578739642,-10.652040501922368,-0.6324539267499
1772708655185283300,7.080283447265625,0.7605027259707451,-6.9005690770417445,-1.3519281114354729
1772708655195309300,7.090309326171875,2.1040952629983423,-3.138959704506397,-0.7328788790512829
1772708655205334500,7.10033447265625,2.6139637704998253,0.04207856179475784,0.15451405068971216
1772708655215359500,7.110359375,1.9216577979207037,1.938610101765394,0.9251405496593564
1772708655225384400,7.120384521484375,0.44167993741631506,2.5369553496211767,1.0140469136025756
1772708655235409400,7.130409423828125,-1.0185177023410796,2.5462895796775817,0.35269524753987785
1772708655245434600,7.1404345703125,-1.6718196982651947,3.0168156723499298,-0.3577889174170792
1772708655255460600,7.150460693359375,-1.182721591591835,4.001774219438434,-0.6154544227626174
1772708655265485600,7.160485595703125,0.03081950115561485,4.654404599711299,-0.7106397208448499
1772708655275510300,7.17051025390625,1.591457875305414,4.424755301603675,-0.546111568075791
1772708655285535200,7.18053515625,3.2381717738866804,3.968440105113387,-0.415939712286368
1772708655295560400,7.190560546875,4.6738884678602215,3.8392911626309156,-0.5511054308403283
1772708655305585400,7.20058544921875,5.485094960629939,4.0660190203338855,-0.7014641154162585
1772708655315611400,7.210611328125,5.760372037446499,4.329571172565221,-0.2703477854545228
1772708655325636400,7.22063623046875,5.7341714282631875,4.370508163109421,0.6818824859812855
1772708655335661300,7.230661376953125,5.100139949998259,4.057122012650966,1.320875386045873
1772708655345686500,7.2406865234375,3.7803403764903543,4.0671687748909,1.725650949434936
1772708655355711500,7.25071142578125,2.5932261028975248,4.134737751773,1.3478415727742015
1772708655365736400,7.260736328125,1.8995611169248818,4.5498318800807,0.5292917315043508
1772708655375762400,7.270762451171875,1.7360849574267863,4.987649296849966,-0.3291240735447034
1772708655385787400,7.280787353515625,1.8457523698478937,5.04491724447012,-1.0221724254563451
1772708655395812600,7.2908125,2.100589885225892,4.9030157879203555,-1.4647668473690747
1772708655405837300,7.30083740234375,2.580209384936094,4.867275196975469,-1.5835899184092879
1772708655415862300,7.3108623046875,3.1802514998376368,4.936131875580549,-1.5304711994230746
1772708655425887200,7.32088720703125,3.6927392499268055,5.02641537309587,-1.2961841585122047
1772708655435913200,7.330913330078125,4.041014927458763,5.182622418373823,-0.753728994052112
1772708655445938400,7.3409384765625,4.15286436009407,5.345955954530835,-0.1168865317533724
1772708655455963400,7.35096337890625,4.0153824735522265,5.466916914382576,0.4175239492705092
1772708655465988400,7.36098828125,3.5889977204233405,5.579701582041382,0.785743842472136
1772708655476013300,7.371013427734375,3.1119419337213037,5.602084678763151,0.8804665645439177
1772708655486038500,7.38103857421875,2.6901959463089704,5.715895182338357,0.7131724541928619
1772708655496064500,7.391064453125,2.51716168487072,6.132627140980959,0.3893433087185025
1772708655506089500,7.40108935546875,2.4546862317353484,6.462222083440422,0.03502130022700876
1772708655516114400,7.411114501953125,2.466085577628016,6.487081214886904,-0.29334402737226334
1772708655526139400,7.421139404296875,2.674974411779642,6.286315481436252,-0.5126391777912155
1772708655536164600,7.43116455078125,2.8124317484021186,6.075977032998204,-0.6005514526631682
1772708655546189300,7.441189208984375,2.89185950538218,5.853730704623461,-0.5010254950281232
1772708655556214800,7.45121484375,2.5674299828618765,5.473889091482758,-0.08321786997802555
1772708655566239700,7.46123974609375,1.5139274763792752,5.0513697816103695,0.6229917594648897
1772708655576265000,7.471264892578125,0.3329565278470516,4.1535821529746055,1.3981386584684252
1772708655586289700,7.48128955078125,-0.8118027050971984,2.1879157019793984,2.099545052348077
1772708655596314600,7.491314697265625,-1.614770946353674,-0.8334305995374918,2.426691432611644
1772708655606339600,7.501339599609375,-1.5810481249719857,-4.351963621637225,2.252122801212966
1772708655616365600,7.511365478515625,-1.0551093571573495,-6.58854310902059,1.3508657429009676
1772708655626390800,7.521390869140625,-1.3276520405739545,-7.451182267385721,0.1794035772744566
1772708655636415700,7.531415771484375,-3.3080604258880015,-8.400697745171188,0.010383666044101118
1772708655646440700,7.541440673828125,-5.832624203708767,-9.856962137132882,1.1769055257242171
1772708655656465700,7.551465576171875,-7.623706241214275,-11.658646817195415,2.2499809668786823
1772708655666491000,7.561490966796875,-7.612290528708696,-11.671779855012893,2.2075939236566424
1772708655676516900,7.571516845703125,-7.58848529022932,-11.690532486277817,2.1781208686739206
1772708655686541800,7.581541748046875,-7.52149382097423,-11.73387010822296,2.15991038146168
1772708655696566800,7.59156689453125,-7.40483844936192,-11.806821947187185,2.155508639371395
1772708655706591700,7.601591796875,-7.25690531143248,-11.897572477692364,2.1814500130966303
1772708655716616700,7.61161669921875,-7.103949376904964,-11.989946810007094,2.2432946209825575
1772708655726641700,7.6216416015625,-6.965500691157579,-12.07393792937994,2.3229922809451815
1772708655736667600,7.631667724609375,-8.678275500145554,-9.823318226206302,0.25947394300699234
1772708655746692600,7.641692626953125,-6.441819931402802,-8.585999952030182,-0.9671795831613242
1772708655756717600,7.651717529296875,-3.519775131115317,-7.537368850976228,-1.2110605279780924
1772708655766742800,7.66174267578125,-1.4957172814279793,-6.8934250505059955,-0.9121374948970973
1772708655776767700,7.671767822265625,-0.7561164737105369,-5.809457847654819,-0.8547466515496372
1772708655786792700,7.681792724609375,-0.5128489846169948,-4.131688885596394,-1.2401511595144867
1772708655796818700,7.691818603515625,-0.10727730241417884,-2.382002103796601,-1.5078838123008609
1772708655806843600,7.70184375,0.5682230813145637,-0.5965232931256294,-1.5238175867527723
1772708655816868900,7.711868896484375,1.058114968714118,1.3675766392052173,-1.4982254648566244
1772708655826893800,7.721893798828125,1.1509627637594937,3.372702409407496,-1.3254542382687329
1772708655836918800,7.731918701171875,0.9587328034639357,4.953899002939463,-1.0185040391419082
1772708655846943700,7.74194384765625,0.7942208711773157,5.910645016500354,-0.7476156988035887
1772708655856969700,7.7519697265625,0.9596306290864944,6.265812791633605,-0.44450767165552824
1772708655866995000,7.761994873046875,1.5754250243932009,6.297104586476087,-0.18791582342348992
1772708655877019600,7.77201953125,2.4281693962097166,6.136792443966865,-0.01104334466238506
1772708655887044600,7.782044677734375,3.234565273827314,5.739041080126166,0.18530021583130582
1772708655897069600,7.792069580078125,3.897426540735364,5.356317774069309,0.39088476600684224
1772708655907094800,7.8020947265625,4.368710173776746,5.191536961713433,0.47933454528897995
1772708655917120800,7.812120849609375,4.557466320481896,5.016853764024376,0.4262665335766971
1772708655927145700,7.822145751953125,4.47127856784761,5.099885682976246,0.3686407124295831
1772708655937170700,7.832170654296875,4.230944794118404,5.563459472292661,0.3998363168885931
1772708655947195600,7.842195556640625,4.1155934908419844,5.973029284220933,0.3754245273508131
1772708655957220900,7.852220947265625,4.041289652746916,6.060092066124081,0.33844993763156234
1772708655967245800,7.862245849609375,4.043980207005143,6.067902447614073,0.2063999216790311
1772708655977271800,7.872271728515625,4.1128351320445535,6.121001585116982,-0.04912031526612118
1772708655987296800,7.882296875,4.232905865058303,6.2449576351314775,-0.3080494656056165
1772708655997321700,7.89232177734375,4.359763481733203,6.374174966675043,-0.4327029963649809
1772708656007346700,7.9023466796875,4.409959299010038,6.51539954687655,-0.3154339863663539
1772708656017371600,7.91237158203125,4.383822987234592,6.601985358917712,-0.11017813842222093
1772708656027396600,7.922396728515625,4.412492616879939,6.592824731862545,0.1337910326672718
1772708656037422600,7.932422607421875,4.558961527475715,6.402278779131174,0.3692972035769373
1772708656047447800,7.94244775390625,4.763233807742595,6.0839329604387276,0.4918974550683051
1772708656057472800,7.95247265625,4.867350600299239,5.720245778763294,0.5026795458454638
1772708656067497700,7.962497802734375,4.81563210349977,5.532703684023022,0.4232146351927891
1772708656077522700,7.972522705078125,4.665327560263872,5.442475131565332,0.08396766543202101
1772708656087548000,7.9825478515625,4.192371025574207,5.510259797024727,-0.2842010455716401
1772708656097573600,7.99257373046875,3.35281405211091,5.840093224415183,-0.5582163953566923
1772708656107598800,8.002598876953124,2.4385563501894474,5.9950809570312495,-0.47910018854383374
1772708656117623800,8.012623779296876,1.6614111169755459,5.520021312582492,0.08043035815134644
1772708656127648800,8.022648681640625,1.1728893488854168,4.612466907691955,0.8815709455892443
1772708656137673700,8.032673828125,1.124602580100298,3.4586247891038653,1.4708879605978726
1772708656147698700,8.04269873046875,0.7953022366732359,2.1300901204764844,1.7199219042636453
1772708656157725000,8.052724853515626,-0.41993689216375346,0.761812055003643,1.7942953004635869
1772708656167749600,8.06274951171875,-2.785645448285341,-1.015277697506547,2.1191420254826543
1772708656177774600,8.072774658203125,-5.644233967706561,-3.7765322163790462,2.7993711912989614
1772708656187799800,8.0827998046875,-6.417043802064657,-7.190545710340142,2.5150284722343086
1772708656197824800,8.09282470703125,-4.833335517972707,-10.481485197818278,-0.23841939147524535
1772708656207849700,8.102849609375,-2.317408343333006,-12.682453273594378,-3.6507398908481
1772708656217875700,8.112875732421875,-2.3169985934883353,-12.683928606843947,-3.666813073770702
1772708656227900700,8.122900634765625,-2.248447912092507,-12.731162651705741,-3.766565825898945
1772708656237926000,8.13292578125,-2.175915467584133,-12.789872030305862,-3.933146381153166
1772708656247950800,8.142950927734375,-10.830712476986646,-8.789892877590656,6.535584256771206
1772708656257975800,8.152975830078125,-9.66309902267754,-6.473885048705339,7.34724609209299
1772708656268000800,8.163000732421875,-7.5149559436380855,-6.7151850371181965,6.934746656453609
1772708656278026800,8.17302685546875,-5.6933671241879455,-9.469589543965458,5.908468841505051
1772708656288052000,8.183052001953126,-4.502416048911214,-11.852851876956224,4.008613125547766
1772708656298077000,8.193076904296875,-4.461659675630927,-11.862551433193683,4.12795700559169
1772708656308101600,8.2031015625,-4.386703511106968,-11.894763265490532,4.241901656940579
1772708656318126600,8.213126708984374,-4.285643768033385,-11.948138297325372,4.319855834236741
1772708656328151800,8.22315185546875,-4.169709696432948,-12.01838029280901,4.333375533284246
1772708656338177800,8.233177734375,-3.6932384316205975,-9.296090587624906,-6.100163964271545
1772708656348202800,8.24320263671875,-2.9671114379823207,-5.70982667607963,-4.970577750539779
1772708656358227700,8.253227783203124,-2.0523393567979333,-2.5051538516908884,-2.786751655961573
1772708656368252700,8.263252685546876,-1.3717840277671813,-1.1536895583748816,-0.3857267256565392
1772708656378278000,8.27327783203125,-0.46737493516504763,-0.992408863094449,1.2701812638580798
1772708656388302800,8.283302734375,0.5844044007867575,-0.697639150300622,1.449654033911228
1772708656398328800,8.293328857421875,1.2754916452258824,0.09442074345052241,0.3658433367960155
1772708656408353800,8.303353759765624,1.6779466567128896,1.258045420384407,-0.7881433778945356
1772708656418378800,8.313378662109375,1.6102379790991543,2.5058061781197787,-1.5217846196204423
1772708656428404000,8.323404052734375,1.505356631910801,3.5714953814804553,-1.8844255071133373
1772708656438428700,8.3334287109375,1.549256563913822,4.462588480913639,-1.735126195397228
1772708656448453600,8.34345361328125,1.878779025658965,5.148327934584021,-1.318213034968823
1772708656458479600,8.353479736328126,2.533923434579372,5.535805157169699,-0.8250149456307292
1772708656468504600,8.363504638671875,3.3175779035568236,5.671785406976938,-0.0070513067509979
1772708656478529800,8.37352978515625,3.921316534888744,5.626747410854697,1.0242181790050118
1772708656488554800,8.3835546875,4.1616327729612586,5.4192076532244675,2.0007813112571835
1772708656498579700,8.393579833984376,4.064932394140959,5.196887675091624,2.5957068137973547
1772708656508604700,8.403604736328125,3.7885575852155684,5.20592146089673,2.671277603088319
1772708656518630000,8.4136298828125,3.4592022967308758,5.491114951571822,2.27033285003379
1772708656528656000,8.42365576171875,3.0481992371290922,5.911801200798154,1.620416258764267
1772708656538680800,8.433680908203126,2.7251252208709715,6.346568582347035,0.9660061554677783
1772708656548705800,8.443705810546875,2.4544495003700253,6.8773021832227705,0.34458675988614557
1772708656558730500,8.45373046875,2.3402175565123557,7.516454073241353,-0.15877985490802674
1772708656568755500,8.46375537109375,2.451490650564432,7.96419141100049,-0.47603239847104994
1772708656578780400,8.473780517578126,2.7157667331561446,8.084514657470583,-0.6312689547490328
1772708656588806400,8.483806396484376,3.059340808868408,8.017599176061154,-0.6530436372488737
1772708656598831400,8.493831298828125,3.2908915566831825,8.028823749908804,-0.5732065688155591
1772708656608856300,8.503856201171875,3.4778286712676283,8.06693340807259,-0.3931296588568017
1772708656618881500,8.513881591796874,3.5464924576491117,8.021980167624355,-0.10597038453407585
1772708656628906500,8.523906494140626,3.499154660151899,7.8804925525724885,0.2540021605324
1772708656638931500,8.533931396484375,3.420749231956899,7.809926147440075,0.6038646688643843
1772708656648957400,8.54395751953125,3.483969658240676,7.7774916123032565,0.7241967562280595
1772708656658982400,8.553982421875,3.749357793727517,7.599200745511054,0.4705254716178402
1772708656669007600,8.564007568359376,3.985768841055035,7.376099846133589,0.07297825204711407
1772708656679032600,8.574032470703125,3.982071740102768,7.242047934040427,-0.3333422392290085
1772708656689057500,8.5840576171875,3.85024860997498,7.135803481805324,-0.6790279002677649
1772708656699082500,8.59408251953125,3.530086389510333,7.035889986157417,-0.9585618308112025
1772708656709107500,8.604107421875,3.002605945211649,6.860921541786193,-1.0980728850930928
1772708656719133700,8.6141337890625,2.269212175440788,6.38908085938394,-0.9558252454541623
1772708656729158400,8.624158447265625,1.550178354933858,5.267987748709321,-0.7344014855086803
1772708656739183400,8.634183349609375,0.8801438353955745,3.6805274186074732,-0.8200017936438322
1772708656749208600,8.64420849609375,-0.21112696846723555,1.9909569595962762,-1.0974275729268788
1772708656759233500,8.654233642578125,-1.8553662936285138,-0.12776070299446582,-0.8821150624033063
1772708656769258500,8.664258544921875,-3.38768049056977,-3.3014649731457233,-0.13051175526827574
1772708656779284500,8.674284423828125,-3.614336452080309,-7.172153144559264,0.646246816715598
1772708656789309400,8.684309326171874,-1.873310823380947,-10.160637625437975,0.38615430341884494
1772708656799334400,8.69433447265625,0.5243906615898013,-11.249371604299544,-0.8288339193969965
1772708656809359600,8.704359619140625,0.5351622309729457,-11.269815841913223,-0.9358294822603463
1772708656819384600,8.714384521484375,0.6207756908506155,-11.322474249911307,-1.0128405334874988
1772708656829409500,8.724409423828124,0.7512465295866131,-11.39117661473751,-1.0411856073535979
1772708656839435500,8.734435546875,0.8591828804314136,-11.445123308980465,-1.0354099465616047
1772708656849460500,8.74446044921875,0.9053992726832628,-11.466798549693822,-1.0211078649647534
1772708656859485400,8.7544853515625,0.9138681180819869,-11.4709030624032,-1.0190860037483274
1772708656869510400,8.764510498046874,0.9406658163756132,-11.487286041927337,-1.032926166921854
1772708656879535400,8.774535400390626,1.0211942280739545,-11.532661307179927,-1.0468832344733179
1772708656889560600,8.784560546875,1.1518266871124505,-11.60408520592451,-1.0438197552494703
1772708656899586600,8.794586669921875,1.3172908055573702,-11.695913594794273,-1.025519251666218
1772708656909611500,8.804611572265625,1.5143781427562235,-11.811854680657387,-1.0087579403489828
1772708656919636500,8.814636474609374,-1.663693674954772,-10.255075320023298,-4.023128849895298
1772708656929661400,8.824661376953125,-1.7937603168040512,-6.332916489091515,-4.720506426650285
1772708656939686700,8.834686767578125,-3.2805607168048616,-2.6133646355628968,-3.623523674881458
1772708656949711600,8.844711669921875,-4.903132107776403,-0.5048147312432527,-1.1220797836244105
1772708656959737600,8.854737548828124,-5.486864308390021,-0.28014205250442026,1.1806602751478552
1772708656969762600,8.864762451171876,-4.632335391244292,-0.6631441755026578,1.854811874616146
1772708656979787500,8.87478759765625,-2.1906980261743065,-0.5480547380328178,0.502290400397405
1772708656989812700,8.884812744140625,0.45728082665205,-0.26796938415169713,-1.168053672357276
1772708656999837400,8.89483740234375,2.480743048533797,0.18029753043949603,-2.0658488267123696
1772708657009862400,8.9048623046875,3.713243108773231,0.7625321859717369,-2.6014497413635254
1772708657019887400,8.914887451171875,4.172824613583088,1.6464298209428787,-2.696601429437101
1772708657029913300,8.924913330078125,4.253949822130799,2.8305519269824027,-2.1760969616308805
1772708657039938600,8.9349384765625,4.278295743358135,4.04661523168385,-1.4563133456699549
1772708657049963500,8.944963623046876,4.1031069342345,5.509737234455347,-0.7404650233313441
1772708657059988500,8.954988525390625,3.720266723799705,6.717126818835735,-0.04167947947457432
1772708657070013400,8.965013427734375,3.369669909843802,7.166707154113054,0.7018623209536076
1772708657080038700,8.97503857421875,3.2800153578817843,6.737115129375457,1.6163405337579548
1772708657090064600,8.985064697265624,3.260115894669294,5.646911077961326,2.289490408837795
1772708657100089600,8.995089599609376,2.9868881515979764,4.5149446910947555,2.5075533140480517
1772708657110114600,9.005114501953125,2.6331933716267346,3.8435745390385385,2.232876248951256
1772708657120139500,9.015139404296875,2.2972890998899937,3.929840033084154,1.4972139497265218
1772708657130164500,9.02516455078125,2.259389869606495,4.300224082049727,0.6042681350987404
1772708657140189400,9.035189453125,2.504925303632021,4.43848981244564,-0.00007942191176116467
1772708657150215400,9.04521533203125,2.84135506054759,4.56575717896521,-0.27677593707218767
1772708657160240400,9.055240478515625,3.1006349422872064,4.95998329128921,-0.40814226334318515
1772708657170265300,9.065265380859374,3.2376959730684756,5.556894706949591,-0.4434927589919418
1772708657180290600,9.07529052734375,3.3489421791136262,5.979783434656262,-0.34872985104024407
1772708657190315500,9.0853154296875,3.422942650347948,6.05960866652131,-0.11327442393712699
1772708657200340500,9.095340576171875,3.454045060098171,5.933545999616384,0.196827590284124
1772708657210365400,9.105365478515624,3.447606551483273,5.733354851183295,0.5796920583773404
1772708657220391400,9.115391357421874,3.381380221381783,5.489763536962866,0.9109977502774447
1772708657230416600,9.125416748046876,3.3130940361410377,5.202864411413669,1.1743783453341572
1772708657240441600,9.135441650390625,3.3119349292337894,5.041551567429304,1.1415830140609293
1772708657250466600,9.145466552734375,3.2800258792757986,5.067191620120406,0.934005043312162
1772708657260491500,9.155491455078124,2.971805148756504,5.20556665610969,0.6965598306313157
1772708657270516500,9.1655166015625,2.4918068788617846,5.220560811623931,0.5098023103974759
1772708657280542700,9.175542724609375,2.0759020186930894,5.069527954113483,0.3717574927432462
1772708657290567400,9.1855673828125,1.7190999203562736,4.856511226376891,0.23861279515549538
1772708657300592400,9.19559228515625,1.1262111843407154,4.564547803175449,0.17919218127978964
1772708657310617300,9.205617431640626,0.7018681661725044,4.618611401796341,0.313157383203879
1772708657320642600,9.215642578125,-0.11222060403525828,4.205369623357058,0.4178885813318193
1772708657330667500,9.22566748046875,-0.5581500155895948,3.0367046141684053,0.6374053386121988
1772708657340692500,9.2356923828125,-0.8608721486926079,2.2601550087600946,0.7888278530273586
