time,seconds_elapsed,z,y,x
1772708648157636400,0.05263623046875,-0.32632511854171753,-0.334882915019989,0.4406764507293701
1772708648167661300,0.062661376953125,-0.3358592391014099,-0.4026441276073456,0.48186808824539185
1772708648177686500,0.0726865234375,-0.31986987590789795,-0.39756813645362854,0.5327600240707397
1772708648187711500,0.08271142578125,-0.28578007221221924,-0.3498517572879791,0.5756704807281494
1772708648197736200,0.092736083984375,-0.2361113280057907,-0.30081015825271606,0.5870360732078552
1772708648207761400,0.102761474609375,-0.15825381875038147,-0.26953187584877014,0.5679166913032532
1772708648217787400,0.112787353515625,-0.05481797456741333,-0.24320971965789795,0.5481709837913513
1772708648227812400,0.122812255859375,0.0459136962890625,-0.15795262157917023,0.5460673570632935
1772708648237837300,0.13283740234375,0.10637730360031128,-0.06468898057937622,0.5561466217041016
1772708648247862300,0.1428623046875,0.11639611423015594,-0.047027163207530975,0.560746431350708
1772708648257887500,0.152887451171875,0.061581339687108994,-0.12260367721319199,0.5561668276786804
1772708648267913200,0.162913330078125,-0.02852112427353859,-0.24086587131023407,0.5500106811523438
1772708648277938400,0.1729384765625,-0.12291420251131058,-0.3869493007659912,0.537214457988739
1772708648287963400,0.18296337890625,-0.18157058954238892,-0.5150814652442932,0.535579264163971
1772708648297988400,0.19298828125,-0.19173695147037506,-0.5073950290679932,0.5670980215072632
1772708648308013300,0.203013427734375,-0.16729871928691864,-0.4196034073829651,0.6062701940536499
1772708648318038500,0.21303857421875,-0.14524801075458527,-0.3575062155723572,0.626123309135437
1772708648328064500,0.223064453125,-0.1295047253370285,-0.3243597149848938,0.6337846517562866
1772708648338089500,0.23308935546875,-0.12049125880002975,-0.26765701174736023,0.6246920824050903
1772708648348114400,0.243114501953125,-0.11345066130161285,-0.12030936777591705,0.586827278137207
1772708648358139400,0.253139404296875,-0.11655803769826889,0.07551047205924988,0.49724066257476807
1772708648368164400,0.263164306640625,-0.13165417313575745,0.22331377863883972,0.3598844110965729
1772708648378190300,0.2731904296875,-0.13027597963809967,0.29717522859573364,0.21875791251659393
1772708648388215300,0.28321533203125,-0.13186082243919373,0.28781792521476746,0.1390255242586136
1772708648398240300,0.293240234375,-0.1798667013645172,0.12296800315380096,0.11472365260124207
1772708648408265500,0.303265380859375,-0.31103724241256714,0.028117654845118523,0.127169668674469
1772708648418290400,0.31329052734375,-0.4672561287879944,0.1313742697238922,0.18915554881095886
1772708648428315400,0.3233154296875,-0.5149853229522705,0.1878969371318817,0.3444361984729767
1772708648438341400,0.33334130859375,-0.5229279398918152,0.19481369853019714,0.4996529519557953
1772708648448366300,0.343366455078125,-0.5102989673614502,0.2125926911830902,0.6122985482215881
1772708648458391600,0.3533916015625,-0.4821365475654602,0.20359493792057037,0.7011799216270447
1772708648468416500,0.36341650390625,-0.47977060079574585,0.18292801082134247,0.7377651333808899
1772708648478441500,0.37344140625,-0.5157701373100281,0.06377685070037842,0.6935366988182068
1772708648488466200,0.383466064453125,-0.5613282918930054,-0.22090467810630798,0.6103821396827698
1772708648498492400,0.393492431640625,-0.5698174238204956,-0.46622762084007263,0.5486383438110352
1772708648508517400,0.403517333984375,-0.5221678614616394,-0.5185859203338623,0.5184351801872253
1772708648518542300,0.413542236328125,-0.4000944197177887,-0.4035775661468506,0.5224291086196899
1772708648528567300,0.4235673828125,-0.22197261452674866,-0.1910405308008194,0.5575546026229858
1772708648538592300,0.43359228515625,-0.03867948427796364,0.07721835374832153,0.6373570561408997
1772708648548618000,0.443617919921875,0.12406308948993683,0.33521342277526855,0.7332995533943176
1772708648558643200,0.453643310546875,0.2747495472431183,0.46765321493148804,0.8253370523452759
1772708648568668200,0.463668212890625,0.4201256334781647,0.3598378002643585,0.9197277426719666
1772708648578693000,0.473693115234375,0.553517758846283,0.164825439453125,1.028540015220642
1772708648588718000,0.483718017578125,0.6564593315124512,0.08593488484621048,1.1584683656692505
1772708648598743300,0.493743408203125,0.6700435876846313,0.1568593829870224,1.2930089235305786
1772708648608769300,0.503769287109375,0.5710576176643372,0.33149564266204834,1.3746802806854248
1772708648618794200,0.513794189453125,0.4026728868484497,0.6439188122749329,1.3546980619430542
1772708648628819200,0.523819091796875,0.2937924861907959,0.9995706081390381,1.2174321413040161
1772708648638844200,0.53384423828125,0.30419477820396423,1.4881219863891602,1.0220277309417725
1772708648648869400,0.543869384765625,0.42155948281288147,2.0875580310821533,0.8541402220726013
1772708648658895400,0.553895263671875,0.542752206325531,2.300947666168213,0.7046814560890198
1772708648668920300,0.56392041015625,0.5883975028991699,1.984338402748108,0.5837827324867249
1772708648678945000,0.573945068359375,0.5758574604988098,1.4133118391036987,0.5317155718803406
1772708648688970000,0.583969970703125,0.5343683362007141,0.9177913665771484,0.5586898922920227
1772708648698995200,0.5939951171875,0.43439751863479614,0.6437011957168579,0.6370848417282104
1772708648709020200,0.604020263671875,0.2165869027376175,0.6618099212646484,0.7549305558204651
1772708648719046100,0.614046142578125,-0.07114368677139282,1.1503428220748901,0.9057096838951111
1772708648729071000,0.624071044921875,-0.3519116938114166,1.909409999847412,1.0103055238723755
1772708648739096000,0.634095947265625,-0.5188519358634949,2.4712331295013428,1.0302454233169556
1772708648749121300,0.644121337890625,-0.5169994831085205,2.6745104789733887,1.0796750783920288
1772708648759146200,0.654146240234375,-0.40412962436676025,2.4044723510742188,1.204295039176941
1772708648769172200,0.664172119140625,-0.32149893045425415,1.6790540218353271,1.44705331325531
1772708648779197200,0.674197265625,-0.34238743782043457,0.7613705992698669,1.7911689281463623
1772708648789222100,0.68422216796875,-0.4532953202724457,-0.5591479539871216,2.058626413345337
1772708648799247400,0.694247314453125,-0.697267472743988,-2.200573444366455,2.1462960243225098
1772708648809272000,0.70427197265625,-0.9100716710090637,-3.7424135208129883,2.096771478652954
1772708648819298300,0.71429833984375,-0.9212324023246765,-5.030954837799072,1.987930417060852
1772708648829323000,0.724322998046875,-0.799552321434021,-5.708524227142334,1.7811511754989624
1772708648839348000,0.734347900390625,-0.6024951934814453,-5.573084354400635,1.267799973487854
1772708648849373200,0.744373291015625,-0.22986462712287903,-5.040125846862793,0.722443699836731
1772708648859398100,0.754398193359375,0.18598131835460663,-3.8794546127319336,0.10073699802160263
1772708648869423000,0.764423095703125,0.49551308155059814,-3.042309522628784,-0.5800529718399048
1772708648879449000,0.774448974609375,0.6362715363502502,-2.2242774963378906,-1.2689863443374634
1772708648889474000,0.78447412109375,0.646236777305603,-1.2926355600357056,-1.9577940702438354
1772708648899499300,0.794499267578125,0.6001611948013306,-0.5737429261207581,-2.5622358322143555
1772708648909524200,0.804524169921875,0.5038735270500183,-0.02461852692067623,-2.9533169269561768
1772708648919549200,0.814549072265625,0.36253878474235535,0.3026946187019348,-3.137319326400757
1772708648929575200,0.8245751953125,0.058215368539094925,0.3384281098842621,-3.2062454223632812
1772708648939600100,0.83460009765625,-0.3885946273803711,0.13163019716739655,-3.25942063331604
1772708648949625300,0.844625244140625,-0.7035509347915649,-0.12755583226680756,-3.3092284202575684
1772708648959650300,0.854650390625,-0.7193655967712402,-0.37113305926322937,-3.3594777584075928
1772708648969675000,0.864675048828125,-0.4970470666885376,-0.5802114605903625,-3.324066638946533
1772708648979700000,0.874699951171875,-0.13474050164222717,-0.8104236125946045,-3.140381336212158
1772708648989726000,0.884725830078125,0.22448930144309998,-0.9247246384620667,-2.752958297729492
1772708648999751200,0.894751220703125,0.4980713129043579,-0.49908891320228577,-2.1304492950439453
1772708649009776000,0.904776123046875,0.6103723049163818,-0.000922252656891942,-1.4247959852218628
1772708649019801000,0.914801025390625,0.5687206983566284,0.18618690967559814,-0.7797125577926636
1772708649029826000,0.924825927734375,0.41620492935180664,0.057322144508361816,-0.24605104327201843
1772708649039852000,0.93485205078125,0.21047787368297577,-0.1483018547296524,0.17351080477237701
1772708649049877200,0.944877197265625,-0.032884445041418076,-0.26330965757369995,0.5082632303237915
1772708649059902200,0.954902099609375,-0.3209577798843384,-0.2210085391998291,0.7595236897468567
1772708649069927200,0.96492724609375,-0.5908350944519043,0.12294802814722061,0.9211687445640564
1772708649079952100,0.9749521484375,-0.8010815382003784,0.440157949924469,0.9149465560913086
1772708649089977300,0.984977294921875,-0.9267265200614929,0.6255211234092712,0.7318941950798035
1772708649100003300,0.99500341796875,-0.8762140870094299,0.6936903595924377,0.45099595189094543
1772708649110028300,1.0050283203125,-0.6983596682548523,0.5013366341590881,0.029872944578528404
1772708649120053000,1.015052978515625,-0.4636733829975128,0.04198526591062546,-0.4678228497505188
1772708649130078000,1.025077880859375,-0.2152998000383377,-0.41862067580223083,-0.8925104737281799
1772708649140103200,1.035103271484375,-0.03786429017782211,-0.6512920260429382,-1.1589914560317993
1772708649150129200,1.045129150390625,0.05603929981589317,-0.7199525833129883,-1.3110536336898804
1772708649160154000,1.055154052734375,0.060268402099609375,-0.8179388046264648,-1.3879032135009766
1772708649170179000,1.065178955078125,0.010337858460843563,-0.7498782277107239,-1.3369529247283936
1772708649180204000,1.0752041015625,-0.057798050343990326,-0.4541941285133362,-1.131151556968689
1772708649190229200,1.085229248046875,-0.07559915632009506,-0.03406902030110359,-0.7951288223266602
1772708649200255200,1.095255126953125,0.04681570827960968,0.3896436393260956,-0.44726699590682983
1772708649210280200,1.1052802734375,0.3627837896347046,0.8835952877998352,-0.1805676519870758
1772708649220305200,1.11530517578125,0.8017406463623047,1.3084467649459839,0.05216173827648163
1772708649230330000,1.125330078125,1.2161186933517456,1.532617211341858,0.354943186044693
1772708649240355300,1.135355224609375,1.4427735805511475,1.466092586517334,0.766075074672699
1772708649250380300,1.14538037109375,1.306003212928772,0.9537813067436218,1.0892419815063477
1772708649260406300,1.15540625,0.9832550287246704,0.3520832061767578,1.117993950843811
1772708649270431200,1.16543115234375,0.6109933257102966,-0.12287399172782898,0.8561029434204102
1772708649280456200,1.175456298828125,0.19909551739692688,-0.42382583022117615,0.542818546295166
1772708649290481200,1.185481201171875,-0.17956629395484924,-0.22237634658813477,0.4404623508453369
1772708649300506000,1.195506103515625,-0.3685484826564789,0.5860040783882141,0.440684974193573
1772708649310532000,1.205531982421875,-0.2809797525405884,1.6783225536346436,0.24382491409778595
1772708649320557000,1.21555712890625,0.06271158158779144,2.843682289123535,-0.21960052847862244
1772708649330582000,1.22558203125,0.28952476382255554,3.567927360534668,-0.9614858627319336
1772708649340607200,1.235607177734375,0.2970295548439026,3.507185697555542,-1.8123199939727783
1772708649350632200,1.245632080078125,0.22142106294631958,2.5590405464172363,-2.556495428085327
1772708649360658200,1.255658203125,0.014348046854138374,1.107231616973877,-2.9341588020324707
1772708649370683100,1.26568310546875,-0.29442843794822693,-0.2516769766807556,-2.78281831741333
1772708649380708000,1.2757080078125,-0.6452099084854126,-1.1817740201950073,-2.215773820877075
1772708649390733300,1.2857333984375,-0.9457822442054749,-1.6922801733016968,-1.549119472503662
1772708649400758300,1.29575830078125,-1.0957692861557007,-1.8544114828109741,-0.9976505041122437
1772708649410783000,1.305782958984375,-0.9746602177619934,-1.8920859098434448,-0.6736934781074524
1772708649420809200,1.315809326171875,-0.5417413115501404,-2.081887722015381,-0.6194384694099426
1772708649430834200,1.325834228515625,0.040704287588596344,-2.3065688610076904,-0.6734588146209717
1772708649440859100,1.335859130859375,0.4835440218448639,-2.4439754486083984,-0.7352822422981262
1772708649450884000,1.345884033203125,0.6911664605140686,-2.239248514175415,-0.741194486618042
1772708649460909000,1.355908935546875,0.7139106392860413,-1.5403870344161987,-0.6123794913291931
1772708649470935000,1.36593505859375,0.6020315289497375,-0.626059889793396,-0.3600788116455078
1772708649480960300,1.375960205078125,0.38071539998054504,0.11540994793176651,-0.06314274668693542
1772708649490985200,1.385985107421875,0.12415150552988052,0.34851935505867004,0.200860396027565
1772708649501010200,1.39601025390625,-0.09193578362464905,-0.10620339959859848,0.36809414625167847
1772708649511035100,1.40603515625,-0.25547757744789124,-0.9161639213562012,0.420771986246109
1772708649521060400,1.416060302734375,-0.4033253490924835,-1.6155472993850708,0.3536882996559143
1772708649531086000,1.426086181640625,-0.5247172713279724,-2.003394365310669,0.20489509403705597
1772708649541111300,1.436111328125,-0.5422683358192444,-1.9929566383361816,0.07351336628198624
1772708649551135700,1.4461357421875,-0.4138491153717041,-1.6796053647994995,0.03587597608566284
1772708649561160400,1.456160400390625,-0.16025598347187042,-1.1904138326644897,0.12191418558359146
1772708649571185700,1.466185546875,0.16384992003440857,-0.5832780599594116,0.32626280188560486
1772708649581211600,1.476211669921875,0.49758875370025635,0.023555127903819084,0.6262844204902649
1772708649591236600,1.486236572265625,0.8090822100639343,0.4985075294971466,0.9705552458763123
1772708649601261600,1.496261474609375,0.9727323651313782,0.6995841860771179,1.225745677947998
1772708649611286500,1.50628662109375,0.9373857975006104,0.6171827912330627,1.3122667074203491
1772708649621311700,1.516311767578125,0.6805159449577332,0.386211097240448,1.2253319025039673
1772708649631336700,1.526336669921875,0.3046131730079651,0.15109391510486603,1.0355224609375
1772708649641362700,1.53636279296875,-0.08488399535417557,-0.10613629221916199,0.8027148246765137
1772708649651387600,1.5463876953125,-0.3911390006542206,-0.2887527048587799,0.5411889553070068
1772708649661412600,1.55641259765625,-0.5347558259963989,-0.2699686288833618,0.30420783162117004
1772708649671437800,1.566437744140625,-0.539678692817688,-0.06685306876897812,0.12611426413059235
1772708649681462800,1.576462890625,-0.4649868607521057,0.23951458930969238,0.04891268163919449
1772708649691488800,1.58648876953125,-0.3532528579235077,0.5797608494758606,0.09636647999286652
1772708649701513700,1.596513671875,-0.23584288358688354,0.8942370414733887,0.23528042435646057
1772708649711538400,1.606538330078125,-0.1480453908443451,1.0557070970535278,0.4082793593406677
1772708649721563600,1.616563720703125,-0.14191372692584991,1.0194255113601685,0.5774803757667542
1772708649731588600,1.626588623046875,-0.23161165416240692,1.002922773361206,0.750679612159729
1772708649741614600,1.636614501953125,-0.370636910200119,1.112837553024292,0.949803352355957
1772708649751639600,1.6466396484375,-0.49791204929351807,1.1988013982772827,1.1364097595214844
1772708649761664500,1.65666455078125,-0.5797470211982727,1.0238608121871948,1.2575100660324097
1772708649771689700,1.666689697265625,-0.6190707087516785,0.4143495261669159,1.2396754026412964
1772708649781714700,1.676714599609375,-0.5514458417892456,-0.47602006793022156,1.0844091176986694
1772708649791739600,1.68673974609375,-0.37168487906455994,-1.333837866783142,0.8905421495437622
1772708649801765600,1.696765625,-0.08778178691864014,-1.6650519371032715,0.7489413619041443
1772708649811790600,1.70679052734375,0.36350950598716736,-1.3358995914459229,0.6780485510826111
1772708649821815800,1.71681591796875,1.061643362045288,-0.3730428218841553,0.7383848428726196
1772708649831840800,1.7268408203125,1.9480807781219482,1.0068777799606323,0.9932956695556641
1772708649841865700,1.73686572265625,2.5806291103363037,2.6255195140838623,1.1553945541381836
1772708649851890700,1.746890625,2.3272483348846436,3.616039991378784,0.7832940220832825
1772708649861916700,1.756916748046875,1.4018293619155884,2.8957486152648926,-0.07843675464391708
1772708649871941600,1.766941650390625,0.40855419635772705,1.3476588726043701,-0.6176877021789551
1772708649881966600,1.776966552734375,-0.3589576184749603,-0.4782573878765106,-0.7196739912033081
1772708649891991600,1.786991455078125,-0.7970561385154724,-1.8066085577011108,-0.7013663649559021
1772708649902016500,1.7970166015625,-0.998975932598114,-2.085601806640625,-0.9000243544578552
1772708649912042500,1.80704248046875,-1.0943083763122559,-1.5873388051986694,-1.5051020383834839
1772708649922067700,1.817067626953125,-1.0132174491882324,-0.3336818218231201,-2.3443784713745117
1772708649932092700,1.8270927734375,-0.6859210729598999,1.2716923952102661,-3.1260483264923096
1772708649942117600,1.83711767578125,-0.1686081886291504,2.700725793838501,-3.5702688694000244
1772708649952142600,1.847142578125,0.4592605233192444,3.509728193283081,-3.5425302982330322
1772708649962167800,1.857167724609375,0.9981673955917358,3.5214195251464844,-3.0961427688598633
1772708649972193800,1.86719384765625,1.2342915534973145,2.882326602935791,-2.4031569957733154
1772708649982218800,1.87721875,1.1524959802627563,1.740154504776001,-1.6561673879623413
1772708649992243700,1.88724365234375,0.8019989728927612,0.34712228178977966,-1.0224248170852661
1772708650002268700,1.8972685546875,0.29543083906173706,-0.9516289234161377,-0.6179527044296265
1772708650012293600,1.907293701171875,-0.12569241225719452,-1.9047257900238037,-0.4738602340221405
1772708650022319600,1.917319580078125,-0.35369041562080383,-2.3449530601501465,-0.5494279861450195
1772708650032344600,1.927344482421875,-0.39189612865448,-2.288285732269287,-0.7650684118270874
1772708650042369500,1.93736962890625,-0.27255162596702576,-1.9259597063064575,-1.0273863077163696
1772708650052394800,1.947394775390625,-0.04812252148985863,-1.400964617729187,-1.2373120784759521
1772708650062419700,1.957419677734375,0.1998595893383026,-0.6568127274513245,-1.3044711351394653
1772708650072444700,1.967444580078125,0.3855604827404022,0.23010776937007904,-1.187868595123291
1772708650082470700,1.977470703125,0.46581509709358215,0.9993360042572021,-0.9347003102302551
1772708650092495600,1.98749560546875,0.48299381136894226,1.4372947216033936,-0.6026456356048584
1772708650102520800,1.997520751953125,0.4348286986351013,1.5533145666122437,-0.23229049146175385
1772708650112545800,2.0075458984375,0.29626762866973877,1.4546451568603516,0.11266742646694183
1772708650122570800,2.01757080078125,0.10111916065216064,1.2023849487304688,0.35569044947624207
1772708650132596700,2.0275966796875,-0.05669869855046272,0.7315258979797363,0.44014620780944824
1772708650142621700,2.03762158203125,-0.15106089413166046,-0.03930879011750221,0.3528962731361389
1772708650152646700,2.047646728515625,-0.1833977848291397,-1.1281347274780273,0.17361226677894592
1772708650162671600,2.057671630859375,-0.1703464388847351,-2.289803981781006,-0.01411448698490858
1772708650172696600,2.067696533203125,-0.08566243946552277,-3.004236936569214,-0.10119692236185074
1772708650182721500,2.077721435546875,0.07148057222366333,-2.911017894744873,-0.060802098363637924
1772708650192747500,2.08774755859375,0.2787938117980957,-2.467843532562256,0.06664267927408218
1772708650202772700,2.097772705078125,0.5008969306945801,-2.417548179626465,0.23425297439098358
1772708650212797700,2.107797607421875,0.6963961124420166,-2.379671335220337,0.42639073729515076
1772708650222822700,2.11782275390625,0.850964367389679,-2.4129927158355713,0.6568601727485657
1772708650232847600,2.12784765625,0.9349767565727234,-2.520132303237915,0.9357948303222656
1772708650242872800,2.137872802734375,0.9350518584251404,-2.5064198970794678,1.251824140548706
1772708650252898800,2.14789892578125,0.8359100818634033,-2.293755531311035,1.5548770427703857
1772708650262923800,2.157923828125,0.6319324374198914,-1.908363699913025,1.8196988105773926
1772708650272948700,2.16794873046875,0.3620604872703552,-1.473075032234192,2.03383731842041
1772708650282973700,2.1779736328125,0.08317770808935165,-1.0364772081375122,2.1780502796173096
1772708650292998700,2.18799853515625,-0.13261716067790985,-0.6633992791175842,2.250115394592285
1772708650303025000,2.19802490234375,-0.2586744427680969,-0.4009537994861603,2.254133462905884
1772708650313049600,2.208049560546875,-0.3258896768093109,-0.26809269189834595,2.177084445953369
1772708650323074600,2.218074462890625,-0.3713266849517822,-0.2338910549879074,2.0241851806640625
1772708650333099500,2.228099609375,-0.4350675642490387,-0.17193740606307983,1.8248666524887085
1772708650343124700,2.238124755859375,-0.533999502658844,0.008403871208429337,1.5730443000793457
1772708650353149700,2.248149658203125,-0.6741366386413574,0.28617024421691895,1.2522540092468262
1772708650363175700,2.25817578125,-0.8227553963661194,0.45319119095802307,0.8744838237762451
1772708650373200600,2.26820068359375,-0.9297326803207397,0.3020312190055847,0.47634071111679077
1772708650383225600,2.2782255859375,-0.9274887442588806,-0.13766199350357056,0.0938122421503067
1772708650393250800,2.288250732421875,-0.7480829954147339,-0.5127732753753662,-0.2226961851119995
1772708650403275800,2.29827587890625,-0.40228673815727234,-0.48545485734939575,-0.4894426763057709
1772708650413300700,2.30830078125,0.031802404671907425,0.060629259794950485,-0.655128538608551
1772708650423326700,2.31832666015625,0.4864945411682129,1.0789141654968262,-0.6183489561080933
1772708650433351700,2.3283515625,0.8244742155075073,2.258284568786621,-0.4566466212272644
1772708650443377000,2.338376953125,0.9271433353424072,3.0986902713775635,-0.33523446321487427
1772708650453401600,2.348401611328125,0.7674774527549744,3.2227160930633545,-0.28335821628570557
1772708650463426600,2.358426513671875,0.3412633240222931,2.6958000659942627,-0.20623625814914703
1772708650473452500,2.36845263671875,-0.3180256485939026,1.6080480813980103,-0.20442929863929749
1772708650483477500,2.3784775390625,-0.9031231999397278,0.2992303669452667,-0.24363236129283905
1772708650493502700,2.388502685546875,-1.0181232690811157,-0.18506519496440887,-0.1529192477464676
1772708650503527700,2.398527587890625,-0.7976422905921936,0.005084507167339325,-0.1902189403772354
1772708650513552600,2.408552734375,-0.37116822600364685,0.1253344863653183,-0.40745431184768677
1772708650523577600,2.41857763671875,0.15494804084300995,0.40957313776016235,-0.688514769077301
1772708650533603600,2.428603515625,0.6316719651222229,1.0384703874588013,-0.8500426411628723
1772708650543628800,2.43862890625,0.9275198578834534,1.7015790939331055,-0.8852797746658325
1772708650553654000,2.448654052734375,0.9882287383079529,1.9864811897277832,-0.891605794429779
1772708650563679000,2.458678955078125,0.8332341313362122,1.8718770742416382,-0.8176810145378113
1772708650573704000,2.468703857421875,0.4804486334323883,1.5501219034194946,-0.5676256418228149
1772708650583730000,2.47872998046875,0.035836558789014816,1.0889686346054077,-0.2302262783050537
1772708650593755000,2.4887548828125,-0.34416723251342773,0.2614254653453827,0.01913401298224926
1772708650603780000,2.498780029296875,-0.4784286320209503,-0.9030422568321228,0.13774588704109192
1772708650613805000,2.50880517578125,-0.37746578454971313,-2.0154385566711426,0.1888018697500229
1772708650623830000,2.518830078125,-0.16922950744628906,-2.7186174392700195,0.13505049049854279
1772708650633855200,2.528855224609375,0.06904830783605576,-2.844210386276245,-0.05143176391720772
1772708650643881000,2.538880859375,0.3329196274280548,-2.488863229751587,-0.2890318036079407
1772708650653906200,2.54890625,0.5655195713043213,-1.781204104423523,-0.5004029273986816
1772708650663931100,2.55893115234375,0.7556524872779846,-0.8350828886032104,-0.6032701730728149
1772708650673956000,2.5689560546875,0.9116706252098083,0.14026549458503723,-0.5691114068031311
1772708650683981000,2.57898095703125,1.0105135440826416,0.9514949917793274,-0.45380130410194397
1772708650694006000,2.589006103515625,1.0253127813339233,1.4924449920654297,-0.3190118074417114
1772708650704032000,2.599031982421875,0.9329748153686523,1.7889424562454224,-0.23190486431121826
1772708650714057000,2.609056884765625,0.7293093204498291,1.8962628841400146,-0.21290108561515808
1772708650724082000,2.61908203125,0.41651520133018494,1.8568999767303467,-0.22437238693237305
1772708650734107100,2.629107177734375,-0.01751827262341976,1.6196194887161255,-0.2471354901790619
1772708650744132000,2.639132080078125,-0.49663612246513367,1.2359466552734375,-0.21392640471458435
1772708650754157000,2.649156982421875,-0.8750689029693604,0.91872239112854,-0.09486259520053864
1772708650764183000,2.65918310546875,-1.0562679767608643,0.8390129208564758,0.09592439979314804
1772708650774208000,2.6692080078125,-1.02213716506958,0.9869025349617004,0.34422367811203003
1772708650784233200,2.679233154296875,-0.8484631180763245,1.269966959953308,0.6404414772987366
1772708650794258200,2.689258056640625,-0.5933672189712524,1.5288193225860596,0.9255121350288391
1772708650804283100,2.699283203125,-0.326406866312027,1.6683378219604492,1.1357884407043457
1772708650814309000,2.70930908203125,-0.12313950806856155,1.7460488080978394,1.2362327575683594
1772708650824334000,2.719333984375,-0.010762100107967854,1.9976022243499756,1.2398426532745361
1772708650834359000,2.729359130859375,0.027791684493422508,2.1718642711639404,1.1305478811264038
1772708650844384000,2.739384033203125,-0.00344586418941617,2.161065101623535,0.933366596698761
1772708650854409000,2.749408935546875,-0.12914812564849854,1.727332353591919,0.6568090319633484
1772708650864434000,2.759433837890625,-0.3642498552799225,0.5689563751220703,0.3222272992134094
1772708650874460000,2.7694599609375,-0.6140314936637878,-0.5545159578323364,0.124470554292202
1772708650884485000,2.779485107421875,-0.7683797478675842,-1.1278889179229736,0.1360561102628708
1772708650894510000,2.789510009765625,-0.8213857412338257,-1.3731399774551392,0.2924651503562927
1772708650904535000,2.79953515625,-0.7945280075073242,-1.3595885038375854,0.5199276208877563
1772708650914560000,2.80956005859375,-0.7041685581207275,-1.2043418884277344,0.7558093667030334
1772708650924585200,2.819585205078125,-0.5689915418624878,-0.8125554919242859,0.990755021572113
1772708650934611200,2.829611083984375,-0.4705137014389038,-0.39941051602363586,1.1784194707870483
1772708650944636200,2.83963623046875,-0.4311458170413971,-0.10342119634151459,1.3223164081573486
1772708650954661000,2.8496611328125,-0.4280956983566284,0.1435808688402176,1.3407164812088013
1772708650964686000,2.85968603515625,-0.4264304041862488,0.38062751293182373,1.2163442373275757
1772708650974711000,2.8697109375,-0.38474100828170776,0.564644992351532,0.9616584181785583
1772708650984736000,2.879736083984375,-0.2339850664138794,0.5664042830467224,0.6450386643409729
1772708650994762000,2.889761962890625,0.13654133677482605,0.4772472381591797,0.34600773453712463
1772708651004787000,2.899786865234375,0.7160390615463257,0.5360431671142578,0.19273509085178375
1772708651014812000,2.90981201171875,1.4643303155899048,0.8395604491233826,0.2299961894750595
1772708651024837000,2.919837158203125,2.2161734104156494,1.483502745628357,0.3573560118675232
1772708651034862000,2.929862060546875,2.6498754024505615,2.5000317096710205,0.2759394347667694
1772708651044888000,2.93988818359375,2.3240697383880615,3.229450225830078,-0.13254126906394958
1772708651054913000,2.9499130859375,1.1243746280670166,2.913633346557617,-0.5904313325881958
1772708651064938000,2.95993798828125,-0.20188571512699127,1.6371684074401855,-0.8996533751487732
1772708651074963200,2.969963134765625,-1.0383065938949585,-0.36741209030151367,-0.999416172504425
1772708651084988200,2.97998828125,-1.3528938293457031,-1.6129783391952515,-0.8648058772087097
1772708651095013000,2.99001318359375,-1.2741281986236572,-1.648413896560669,-0.8671742677688599
1772708651105039000,3.0000390625,-0.917079746723175,-1.8638359308242798,-1.097378134727478
1772708651115064000,3.01006396484375,-0.76936274766922,-1.887158751487732,-1.722320556640625
1772708651125089000,3.020089111328125,-0.7364412546157837,-1.2971248626708984,-2.288872003555298
1772708651135114000,3.030114013671875,-0.6481369733810425,-0.40816059708595276,-2.5727782249450684
1772708651145139000,3.040138916015625,-0.4261893928050995,0.2551705241203308,-2.566073417663574
1772708651155164000,3.050163818359375,-0.09827330708503723,0.30520758032798767,-2.6044540405273438
1772708651165190000,3.06018994140625,0.14161917567253113,-0.2676655352115631,-2.74430513381958
1772708651175215000,3.070215087890625,0.18945008516311646,-1.024889588356018,-2.7668004035949707
1772708651185240000,3.080239990234375,0.07878588885068893,-1.8335254192352295,-2.511841297149658
1772708651195265000,3.09026513671875,-0.14874286949634552,-2.2647743225097656,-1.9702707529067993
1772708651205290000,3.1002900390625,-0.4730554223060608,-2.0602529048919678,-1.3182597160339355
1772708651215315200,3.110315185546875,-0.8178375959396362,-1.4766509532928467,-0.7116948962211609
1772708651225341200,3.120341064453125,-1.1666299104690552,-0.762646496295929,-0.20402877032756805
1772708651235366100,3.1303662109375,-1.4644699096679688,-0.045576807111501694,0.1970781832933426
1772708651245391000,3.14039111328125,-1.6434276103973389,0.392598420381546,0.46009624004364014
1772708651255416000,3.150416015625,-1.6842565536499023,0.44069191813468933,0.5707002282142639
1772708651265441000,3.16044091796875,-1.6149680614471436,0.18241001665592194,0.5287258625030518
1772708651275467300,3.17046728515625,-1.484424114227295,-0.30339422821998596,0.3372344970703125
1772708651285492000,3.180491943359375,-1.3887319564819336,-0.9751710295677185,-0.028306739404797554
1772708651295517000,3.190516845703125,-1.265344500541687,-1.68660306930542,-0.4336153566837311
1772708651305542000,3.2005419921875,-1.0739620923995972,-2.2719597816467285,-0.739564061164856
1772708651315567000,3.210567138671875,-0.8159864544868469,-2.4392335414886475,-0.7887737154960632
1772708651325592000,3.220592041015625,-0.5591219067573547,-2.134835958480835,-0.5992860794067383
1772708651335618000,3.2306181640625,-0.35354235768318176,-1.6586090326309204,-0.2694389224052429
1772708651345643000,3.24064306640625,-0.2139522284269333,-1.1103919744491577,0.07765857875347137
1772708651355668000,3.25066796875,-0.10444864630699158,-0.5756028294563293,0.38640549778938293
1772708651365693200,3.260693115234375,0.02671283669769764,-0.09693507105112076,0.638687252998352
1772708651375718100,3.27071826171875,0.15940190851688385,0.29647988080978394,0.8514986038208008
1772708651385743000,3.2807431640625,0.27943962812423706,0.5430265069007874,1.0235912799835205
1772708651395769000,3.29076904296875,0.379862904548645,0.5818793773651123,1.1586308479309082
1772708651405794000,3.3007939453125,0.47082558274269104,0.39888960123062134,1.2454299926757812
1772708651415819000,3.310819091796875,0.5955797433853149,0.06162821128964424,1.2567646503448486
1772708651425844000,3.320843994140625,0.737011194229126,-0.3278793394565582,1.1763129234313965
1772708651435869000,3.330868896484375,0.8837175369262695,-0.6468732953071594,1.0266443490982056
1772708651445894000,3.340893798828125,1.0429913997650146,-0.8736798167228699,0.8162983059883118
1772708651455919900,3.350919921875,1.2227139472961426,-1.104037880897522,0.5689952969551086
1772708651465945000,3.360945068359375,1.4051746129989624,-1.3239247798919678,0.2934473156929016
1772708651475970000,3.370969970703125,1.5283777713775635,-1.531417965888977,0.011303787119686604
1772708651485995000,3.3809951171875,1.517279028892517,-1.6120595932006836,-0.24716131389141083
1772708651496020000,3.39102001953125,1.416431188583374,-1.4711235761642456,-0.49553704261779785
1772708651506045200,3.401045166015625,1.1987135410308838,-1.1249288320541382,-0.7836098670959473
1772708651516071200,3.4110712890625,0.7804619669914246,-0.6805732250213623,-1.0574980974197388
1772708651526096100,3.42109619140625,0.18477357923984528,-0.3792503774166107,-1.2085896730422974
1772708651536121000,3.43112109375,-0.49273645877838135,-0.244045689702034,-1.1548576354980469
1772708651546146000,3.44114599609375,-1.0565873384475708,-0.11165276169776917,-0.9289199113845825
1772708651556170800,3.451170654296875,-1.269294261932373,-0.014708638191223145,-0.49445074796676636
1772708651566196700,3.46119677734375,-0.9345428943634033,0.24225284159183502,0.13927240669727325
1772708651576221700,3.4712216796875,-0.05892536789178848,0.8646791577339172,0.703167736530304
1772708651586246700,3.48124658203125,0.996288537979126,1.7312462329864502,0.8244936466217041
1772708651596271900,3.49127197265625,1.7190989255905151,1.866807460784912,0.31188544631004333
1772708651606296800,3.501296875,1.5210766792297363,1.772580623626709,-0.2685912549495697
1772708651616321800,3.51132177734375,0.47676175832748413,2.009333610534668,-0.4381754696369171
1772708651626347800,3.52134765625,-0.6313363909721375,1.7847837209701538,-0.31678566336631775
1772708651636372700,3.531372802734375,-1.1367745399475098,1.6938934326171875,0.07669371366500854
1772708651646398000,3.54139794921875,-0.9646398425102234,1.5363874435424805,0.334696501493454
1772708651656423000,3.5514228515625,-0.4723885953426361,0.6518712639808655,0.10098414123058319
1772708651666448000,3.56144775390625,0.048162467777729034,-0.31306710839271545,-0.3402414619922638
1772708651676472800,3.571472900390625,0.3271578848361969,-0.627627432346344,-0.6976462006568909
1772708651686498800,3.581498779296875,0.25062769651412964,-0.3967883586883545,-0.9357810020446777
1772708651696524000,3.59152392578125,-0.09564237296581268,0.2729913294315338,-1.0697944164276123
1772708651706548700,3.601548828125,-0.5766779780387878,1.0856751203536987,-1.2557721138000488
1772708651716573700,3.61157373046875,-1.055908441543579,1.5224231481552124,-1.6300995349884033
1772708651726598700,3.6215986328125,-1.4354366064071655,1.3673585653305054,-2.0907318592071533
1772708651736624600,3.631624755859375,-1.754354476928711,0.7497645020484924,-2.38127064704895
1772708651746649900,3.64164990234375,-2.124340534210205,-0.055266451090574265,-2.366591691970825
1772708651756674800,3.6516748046875,-2.631211996078491,-1.005910038948059,-2.0938501358032227
1772708651766699800,3.66169970703125,-3.178583860397339,-2.020320177078247,-1.6682614088058472
1772708651776724700,3.671724853515625,-3.5152595043182373,-2.8653225898742676,-1.217507243156433
1772708651786750000,3.68175,-3.4324710369110107,-3.1803603172302246,-0.799994170665741
1772708651796775000,3.69177490234375,-2.924391269683838,-2.9850821495056152,-0.4035874009132385
1772708651806801000,3.70180078125,-2.1672768592834473,-2.3488664627075195,-0.002584864152595401
1772708651816825900,3.711825927734375,-1.3599578142166138,-1.5735374689102173,0.3733096718788147
1772708651826850800,3.721850830078125,-0.6014350056648254,-0.8500511646270752,0.6955329775810242
1772708651836875800,3.731875732421875,0.01683703623712063,-0.21959812939167023,0.9689866304397583
1772708651846900700,3.741900634765625,0.46027225255966187,0.26205530762672424,1.188006043434143
1772708651856926700,3.7519267578125,0.7171016335487366,0.5363063216209412,1.3820503950119019
1772708651866951700,3.76195166015625,0.8220539093017578,0.6484360694885254,1.5800678730010986
1772708651876976600,3.7719765625,0.8374903798103333,0.6164733171463013,1.7700403928756714
1772708651887001900,3.782001953125,0.806955099105835,0.46858692169189453,1.921151876449585
1772708651897026800,3.79202685546875,0.7561632990837097,0.21088933944702148,2.007385015487671
1772708651907051800,3.8020517578125,0.6932178735733032,-0.12799525260925293,2.025036334991455
1772708651917077800,3.812077880859375,0.603192925453186,-0.451516330242157,2.029151439666748
1772708651927102700,3.822102783203125,0.46236470341682434,-0.6941803693771362,2.0452141761779785
1772708651937128000,3.8321279296875,0.25953277945518494,-0.8642562031745911,2.0420315265655518
1772708651947153000,3.84215283203125,0.022350313141942024,-0.969748318195343,1.9896787405014038
1772708651957177900,3.852177734375,-0.216024711728096,-0.9674097895622253,1.8769272565841675
1772708651967202800,3.862202880859375,-0.43469366431236267,-0.8381945490837097,1.7109384536743164
1772708651977228800,3.872228759765625,-0.632786750793457,-0.5808535218238831,1.507277011871338
1772708651987254000,3.88225390625,-0.7898839712142944,-0.2454017698764801,1.2961927652359009
1772708651997278700,3.89227880859375,-0.9050896763801575,0.10087575018405914,1.1156983375549316
1772708652007303700,3.9023037109375,-0.9914118051528931,0.36831730604171753,0.9834108352661133
1772708652017328600,3.91232861328125,-1.072567105293274,0.45950847864151,0.9063056707382202
1772708652027353900,3.922353759765625,-1.1576907634735107,0.33678868412971497,0.857763409614563
1772708652037379800,3.9323798828125,-1.2529067993164062,0.10921064019203186,0.8236954808235168
1772708652047404800,3.94240478515625,-1.3401916027069092,-0.04571289196610451,0.7966271042823792
1772708652057429800,3.9524296875,-1.396691918373108,0.01188195962458849,0.7877228260040283
1772708652067454700,3.962454833984375,-1.3870669603347778,0.33387303352355957,0.8151739239692688
1772708652077480000,3.97247998046875,-1.3224725723266602,0.7490585446357727,0.8705348968505859
1772708652087505000,3.9825048828125,-1.2200881242752075,1.0437895059585571,0.9289143085479736
1772708652097531000,3.99253076171875,-1.049049735069275,1.0375545024871826,0.9326845407485962
1772708652107555800,4.002555908203125,-0.7913700342178345,0.7481330633163452,0.7917910814285278
1772708652117580800,4.012580810546875,-0.41341927647590637,0.3906297981739044,0.5325592160224915
1772708652127605800,4.022605712890625,0.10134979337453842,0.0793379619717598,0.23778246343135834
1772708652137630700,4.032630615234375,0.720430314540863,-0.09665676951408386,0.058769840747117996
1772708652147655700,4.04265576171875,1.482683777809143,0.026040388271212578,0.016587499529123306
1772708652157681700,4.052681640625,2.2841591835021973,0.2778033912181854,-0.06438884139060974
1772708652167706600,4.06270654296875,2.92122220993042,0.3985433876514435,-0.28198960423469543
1772708652177731800,4.07273193359375,3.231459856033325,0.5377265810966492,-0.5601687431335449
1772708652187756800,4.0827568359375,3.152895450592041,0.8873559236526489,-0.654522716999054
1772708652197781800,4.09278173828125,2.7430508136749268,1.4703863859176636,-0.4887062907218933
1772708652207806700,4.102806640625,2.1413493156433105,2.1702089309692383,-0.13249066472053528
1772708652217832700,4.112832763671875,1.5656065940856934,2.881732940673828,0.20694012939929962
1772708652227858000,4.12285791015625,1.1213593482971191,2.8305437564849854,0.11080694198608398
1772708652237883000,4.1328828125,0.7049847841262817,1.9307318925857544,-0.49972885847091675
1772708652247907800,4.142907958984375,0.19330421090126038,0.8247002959251404,-1.3145825862884521
1772708652257932800,4.152932861328125,-0.4423728883266449,-0.14614549279212952,-2.023135185241699
1772708652267957800,4.162957763671875,-1.0258232355117798,-0.9344536662101746,-2.481313467025757
1772708652277984000,4.17298388671875,-1.419329047203064,-1.4803683757781982,-2.789713144302368
1772708652288008700,4.1830087890625,-1.48529851436615,-2.142975330352783,-3.007080078125
1772708652298033700,4.19303369140625,-1.1423251628875732,-3.057990312576294,-3.1151511669158936
1772708652308058600,4.20305859375,-0.5467179417610168,-3.7173044681549072,-2.9535422325134277
1772708652318083800,4.213083740234375,0.08652131259441376,-3.8882505893707275,-2.47989559173584
1772708652328109800,4.22310986328125,0.5470300912857056,-3.47122859954834,-1.7792432308197021
1772708652338134800,4.233134765625,0.7276789546012878,-2.5690906047821045,-0.9975141286849976
1772708652348159700,4.24315966796875,0.6629582643508911,-1.3565772771835327,-0.2276211827993393
1772708652358184700,4.253184814453125,0.43848147988319397,-0.04921974241733551,0.4504989981651306
1772708652368210000,4.2632099609375,0.07455732673406601,1.0461604595184326,0.9782842397689819
1772708652378235000,4.27323486328125,-0.39497342705726624,1.8235561847686768,1.337647795677185
1772708652388260900,4.2832607421875,-0.9277547597885132,2.200479745864868,1.5319136381149292
1772708652398285800,4.293285888671875,-1.4640445709228516,1.9643750190734863,1.5429481267929077
1772708652408310800,4.303310791015625,-1.902159571647644,0.9401152729988098,1.3119196891784668
1772708652418335700,4.313335693359375,-2.081973075866699,-0.3069863021373749,0.9092836380004883
1772708652428360700,4.323360595703125,-2.0448367595672607,-1.1480698585510254,0.5012580752372742
1772708652438385700,4.3333857421875,-1.9242994785308838,-1.4380990266799927,0.11637747287750244
1772708652448411600,4.34341162109375,-1.7068904638290405,-1.3142551183700562,-0.16428960859775543
1772708652458436600,4.3534365234375,-1.4367543458938599,-0.9386699795722961,-0.3016165792942047
1772708652468461800,4.3634619140625,-1.1668099164962769,-0.6218758225440979,-0.32929906249046326
1772708652478486800,4.37348681640625,-0.8850592374801636,-0.47834527492523193,-0.29615843296051025
1772708652488511700,4.38351171875,-0.6129483580589294,-0.5049265623092651,-0.24927186965942383
1772708652498536700,4.39353662109375,-0.37744849920272827,-0.577644944190979,-0.21477940678596497
1772708652508562700,4.403562744140625,-0.19574126601219177,-0.5832136273384094,-0.19732026755809784
1772708652518588000,4.413587890625,-0.06294833868741989,-0.4830380380153656,-0.2003038078546524
1772708652528612900,4.42361279296875,0.034023482352495193,-0.3289792239665985,-0.2039286345243454
1772708652538637800,4.433637939453125,0.10320840775966644,-0.18853315711021423,-0.18380685150623322
1772708652548662800,4.443662841796875,0.1573941558599472,-0.12212830781936646,-0.1277603656053543
1772708652558688000,4.45368798828125,0.2163115292787552,-0.12528096139431,-0.02287442237138748
1772708652568714000,4.4637138671875,0.29837098717689514,-0.17671778798103333,0.1320943832397461
1772708652578739000,4.473739013671875,0.39163196086883545,-0.257367342710495,0.3213535249233246
1772708652588764000,4.483763916015625,0.4671357572078705,-0.3632865846157074,0.5050085783004761
1772708652598788900,4.493788818359375,0.4747031331062317,-0.49716076254844666,0.6809868216514587
1772708652608813800,4.503813720703125,0.37804052233695984,-0.6280961632728577,0.8639270663261414
1772708652618838800,4.5138388671875,0.1646677702665329,-0.7279862761497498,1.0248554944992065
1772708652628864800,4.52386474609375,-0.16382116079330444,-0.824127733707428,1.1558058261871338
1772708652638889700,4.5338896484375,-0.5864107608795166,-0.9277550578117371,1.2373571395874023
1772708652648914700,4.543914794921875,-1.0546019077301025,-1.0046961307525635,1.2839168310165405
1772708652658940000,4.55393994140625,-1.4284487962722778,-0.8208128809928894,1.3553308248519897
1772708652668964900,4.56396484375,-1.3966639041900635,-0.34734171628952026,1.463277816772461
1772708652678989800,4.57398974609375,-0.896602988243103,0.3900393843650818,1.7166835069656372
1772708652689015800,4.584015869140625,-0.2281455546617508,1.1262105703353882,1.8058292865753174
1772708652699040800,4.594040771484375,0.47511059045791626,1.8272632360458374,1.438389778137207
1772708652709066000,4.60406591796875,0.9978454113006592,2.074998140335083,0.3866707384586334
1772708652719091000,4.614091064453125,1.1069793701171875,1.4140746593475342,-1.0723230838775635
1772708652729116000,4.624115966796875,0.8178695440292358,0.4133457541465759,-2.243844509124756
1772708652739140900,4.634140869140625,0.46581244468688965,0.12763358652591705,-2.488919496536255
1772708652749166800,4.644166748046875,0.37061455845832825,0.9342281222343445,-1.8991800546646118
1772708652759192000,4.654192138671875,0.8427064418792725,2.3080711364746094,-1.0113232135772705
1772708652769216800,4.664216796875,1.7863876819610596,3.1917240619659424,-0.429474413394928
1772708652779241700,4.67424169921875,2.7719995975494385,3.2914199829101562,-0.41901350021362305
1772708652789267000,4.684266845703125,3.4155869483947754,2.8884499073028564,-0.8225511312484741
1772708652799292000,4.6942919921875,3.4582347869873047,2.4774274826049805,-1.2422107458114624
1772708652809318000,4.70431787109375,2.9840235710144043,2.1895368099212646,-1.5037707090377808
1772708652819342800,4.7143427734375,2.1782708168029785,1.8002779483795166,-1.593700885772705
1772708652829367800,4.724367919921875,1.2183642387390137,1.2292791604995728,-1.5666530132293701
1772708652839393000,4.73439306640625,0.29526200890541077,0.4767945110797882,-1.5522253513336182
1772708652849418000,4.74441796875,-0.37090402841567993,-0.5640119910240173,-1.6557726860046387
1772708652859443000,4.75444287109375,-0.684552788734436,-1.8563071489334106,-1.7818523645401
1772708652869469000,4.764468994140625,-0.54139643907547,-2.8518381118774414,-1.7009655237197876
1772708652879494000,4.774493896484375,-0.0294931773096323,-3.1221981048583984,-1.338111400604248
1772708652889519000,4.78451904296875,0.6863019466400146,-2.656034469604492,-0.6995988488197327
1772708652899543800,4.794543701171875,1.4525141716003418,-1.6610889434814453,0.0759086161851883
1772708652909568800,4.80456884765625,2.08390474319458,-0.4305433928966522,0.845283567905426
1772708652919593700,4.81459375,2.441373109817505,0.7770387530326843,1.5078061819076538
1772708652929619700,4.82461962890625,2.438964366912842,1.7111403942108154,1.9591238498687744
1772708652939645000,4.83464501953125,2.111119270324707,2.2899017333984375,2.1707420349121094
1772708652949670000,4.844669921875,1.5471484661102295,2.564842700958252,2.154808521270752
1772708652959694800,4.85469482421875,0.850734293460846,2.569157361984253,1.9238145351409912
1772708652969719800,4.8647197265625,0.04296264797449112,2.129511833190918,1.4867658615112305
1772708652979745000,4.8747451171875,-0.7749931812286377,1.0008132457733154,0.846780002117157
1772708652989771000,4.88477099609375,-1.2168006896972656,0.12196531891822815,0.4525893032550812
1772708652999796000,4.8947958984375,-1.398851990699768,-0.14772501587867737,0.4209882318973541
1772708653009821000,4.904821044921875,-1.4243416786193848,-0.12326494604349136,0.6372328996658325
1772708653019846000,4.914845947265625,-1.3090176582336426,-0.02353115938603878,1.0026042461395264
1772708653029871000,4.92487109375,-1.0653914213180542,0.07889667898416519,1.396114468574524
1772708653039895800,4.934895751953125,-0.7929506301879883,0.1731289029121399,1.7321503162384033
1772708653049922000,4.944922119140625,-0.5539628267288208,0.25302958488464355,1.9733307361602783
1772708653059946800,4.95494677734375,-0.40029415488243103,0.33073610067367554,2.1269333362579346
1772708653069971700,4.9649716796875,-0.35003283619880676,0.39750048518180847,2.1892080307006836
1772708653079997000,4.974996826171875,-0.40999549627304077,0.45884081721305847,2.1568491458892822
1772708653090022000,4.98502197265625,-0.5666892528533936,0.5773248672485352,2.026860475540161
1772708653100046800,4.995046875,-0.775046706199646,0.6997793912887573,1.7946504354476929
1772708653110072800,5.00507275390625,-0.9936911463737488,0.7310475707054138,1.4868502616882324
1772708653120097800,5.015097900390625,-1.1833606958389282,0.4155215620994568,1.0955240726470947
1772708653130123000,5.025123046875,-1.2882874011993408,-0.2081550657749176,0.7091979384422302
1772708653140148000,5.03514794921875,-1.3145040273666382,-0.6768831610679626,0.46117961406707764
1772708653150173000,5.0451728515625,-1.3184067010879517,-0.8156369924545288,0.3427959680557251
1772708653160198000,5.055197998046875,-1.2876064777374268,-0.7963650822639465,0.2705609202384949
1772708653170223900,5.065223876953125,-1.2229586839675903,-0.6709645390510559,0.1765289604663849
1772708653180249000,5.0752490234375,-1.1714369058609009,-0.4974212348461151,0.03026735782623291
1772708653190273800,5.085273681640625,-1.1545860767364502,-0.41604354977607727,-0.15178073942661285
1772708653200298800,5.095298828125,-1.208622694015503,-0.4598466753959656,-0.38901540637016296
1772708653210323700,5.10532373046875,-1.35722815990448,-0.7249950170516968,-0.7107638716697693
1772708653220349000,5.115348876953125,-1.5088472366333008,-1.045151948928833,-1.0008180141448975
1772708653230375000,5.125375,-1.4902005195617676,-1.1842480897903442,-1.1141365766525269
1772708653240400000,5.13539990234375,-1.176497220993042,-1.099178433418274,-0.9731057286262512
1772708653250424800,5.1454248046875,-0.6122452616691589,-0.7483575940132141,-0.6759020090103149
1772708653260449800,5.15544970703125,0.07862796634435654,-0.3859996199607849,-0.24854137003421783
1772708653270475000,5.16547509765625,0.7072154879570007,-0.01830443926155567,0.13360174000263214
1772708653280500000,5.1755,0.9251337051391602,0.1798110455274582,0.3022450804710388
1772708653290526000,5.18552587890625,0.5126699805259705,-0.009354885667562485,0.16713732481002808
1772708653300551000,5.195551025390625,-0.1462205946445465,-0.09259118884801865,-0.04063131660223007
1772708653310575900,5.205575927734375,-0.4950896203517914,0.002551840851083398,-0.13607928156852722
1772708653320601000,5.21560107421875,-0.46111994981765747,-0.197307750582695,-0.16135986149311066
1772708653330625800,5.225625732421875,-0.20256908237934113,-0.47931787371635437,-0.2330383062362671
1772708653340650800,5.235650634765625,0.05212179198861122,-0.3570241630077362,-0.4854508638381958
1772708653350676700,5.2456767578125,-0.05801989510655403,-0.36179283261299133,-1.3149410486221313
1772708653360701700,5.25570166015625,-0.43304118514060974,-0.7274935841560364,-2.717749834060669
1772708653370727000,5.265726806640625,-0.6764511466026306,-0.8092960119247437,-3.9837052822113037
1772708653380752000,5.275751953125,-0.6606897711753845,-0.44271349906921387,-4.518845081329346
1772708653390776800,5.28577685546875,-0.42781364917755127,0.0822775587439537,-4.232123374938965
1772708653400801800,5.2958017578125,-0.07104727625846863,0.33699506521224976,-3.453494071960449
1772708653410827800,5.305827880859375,0.2985406219959259,0.07188617438077927,-2.5212182998657227
1772708653421478000,5.316477783203125,0.5548895597457886,-0.849981427192688,-1.6535769701004028
1772708653431502800,5.3265029296875,0.5296912789344788,-1.8654993772506714,-1.0564424991607666
1772708653441528800,5.33652880859375,0.24116654694080353,-2.487698793411255,-0.7040497660636902
1772708653451553800,5.3465537109375,-0.14760836958885193,-2.6002838611602783,-0.6038858890533447
1772708653461578800,5.356578857421875,-0.46148958802223206,-2.363391399383545,-0.7037557363510132
1772708653471604000,5.36660400390625,-0.6696515679359436,-1.827130913734436,-0.8398512601852417
1772708653481629000,5.37662890625,-0.7659389972686768,-1.0556727647781372,-0.8746867775917053
1772708653491654000,5.38665380859375,-0.7698754072189331,-0.16839726269245148,-0.7405662536621094
1772708653501679900,5.396679931640625,-0.7055906653404236,0.7363190054893494,-0.461272269487381
1772708653511704800,5.406704833984375,-0.5756619572639465,1.5295162200927734,-0.08160271495580673
1772708653521730000,5.41672998046875,-0.4268069863319397,2.059600591659546,0.30725181102752686
1772708653531755000,5.426755126953125,-0.3154942989349365,2.1653130054473877,0.6047136187553406
1772708653541779700,5.43677978515625,-0.27316123247146606,1.669548511505127,0.7555167078971863
1772708653551804700,5.4468046875,-0.25241732597351074,0.6580178141593933,0.8217955827713013
1772708653561831200,5.4568310546875,-0.17810635268688202,-0.44025248289108276,0.8379039764404297
1772708653571856100,5.466856201171875,-0.06166709214448929,-1.191217064857483,0.8030908703804016
1772708653581881000,5.476881103515625,0.03067721799015999,-1.5150995254516602,0.7252339124679565
1772708653591906000,5.486906005859375,0.08159393072128296,-1.528802514076233,0.5919669270515442
1772708653601931000,5.496930908203125,0.09675237536430359,-1.3394536972045898,0.41706886887550354
1772708653611956200,5.506956298828125,0.08048445731401443,-1.0171128511428833,0.2611655592918396
1772708653621982200,5.516982177734375,0.035832032561302185,-0.6009779572486877,0.17843419313430786
1772708653632007200,5.527007080078125,-0.0336567647755146,-0.10506197065114975,0.18974569439888
1772708653642032000,5.5370322265625,-0.11022371053695679,0.4296046197414398,0.2826410233974457
1772708653652057000,5.54705712890625,-0.17307670414447784,0.911692202091217,0.4297196865081787
1772708653662082300,5.557082275390625,-0.2254086285829544,1.2389168739318848,0.6411059498786926
1772708653672107300,5.567107177734375,-0.27147918939590454,1.3951823711395264,0.9450125694274902
1772708653682133200,5.57713330078125,-0.2959379255771637,1.3915379047393799,1.3597503900527954
1772708653692158200,5.587158203125,-0.312354177236557,1.3123040199279785,1.822817087173462
1772708653702183000,5.597182861328125,-0.32550859451293945,1.2334492206573486,2.2232253551483154
1772708653712208100,5.6072080078125,-0.3307845890522003,1.107751488685608,2.441671848297119
1772708653722233000,5.617233154296875,-0.3131616413593292,0.8732712864875793,2.4647133350372314
1772708653732258000,5.627258056640625,-0.26218846440315247,0.6073461174964905,2.348417043685913
1772708653751683300,5.646683349609375,-0.18423694372177124,0.26017192006111145,1.833777666091919
1772708653761708000,5.6567080078125,-0.1953870803117752,0.31539177894592285,1.5064573287963867
1772708653771734300,5.666734375,-0.17336513102054596,0.5091383457183838,1.1804094314575195
1772708653781759000,5.676759033203125,-0.07597572356462479,0.6670321226119995,0.8747285604476929
1772708653791784000,5.686783935546875,0.06114404648542404,0.627548098564148,0.5765024423599243
1772708653801809200,5.69680908203125,0.18195542693138123,0.2933485209941864,0.30823132395744324
1772708653811834000,5.706834228515625,0.291698694229126,-0.10791102051734924,0.16720522940158844
1772708653821859000,5.716859130859375,0.45190462470054626,-0.1882077306509018,0.2588097155094147
1772708653831885000,5.726885009765625,0.7131644487380981,-0.1518411934375763,0.48561543226242065
1772708653841910000,5.736909912109375,1.0062596797943115,-0.16393834352493286,0.6224457025527954
1772708653851935200,5.746935302734375,1.2022308111190796,-0.23416270315647125,0.44358304142951965
1772708653861960200,5.756960205078125,1.1950697898864746,-0.2769636809825897,-0.025304291397333145
1772708653871985200,5.766985107421875,0.9233229756355286,-0.23229768872261047,-0.483835905790329
1772708653882011100,5.77701123046875,0.522193968296051,0.005073321983218193,-0.7325053811073303
1772708653892036000,5.7870361328125,0.13303661346435547,0.7152065634727478,-0.6855072379112244
1772708653902061300,5.797061279296875,-0.07874567806720734,1.6753957271575928,-0.49265044927597046
1772708653912086000,5.8070859375,0.025708559900522232,2.020759105682373,-0.45775771141052246
1772708653922111000,5.817111083984375,0.3055820167064667,1.7523986101150513,-0.6623942255973816
1772708653932136000,5.827135986328125,0.547614336013794,1.0350607633590698,-0.9926807880401611
1772708653942162000,5.837161865234375,0.634272038936615,-0.0011203918838873506,-1.4689743518829346
1772708653952187100,5.847187255859375,0.5717061161994934,-1.0117146968841553,-2.086212635040283
1772708653962212000,5.857212158203125,0.544391930103302,-1.6230264902114868,-2.7011160850524902
1772708653972237000,5.867237060546875,0.7329599857330322,-1.633416771888733,-3.1044106483459473
1772708653982262000,5.877261962890625,1.158323049545288,-0.9873791933059692,-3.0220675468444824
1772708653992287200,5.887287353515625,1.570557713508606,-0.014508634805679321,-2.4253063201904297
1772708654002313200,5.897313232421875,1.7139140367507935,0.7112112641334534,-1.5112805366516113
1772708654012338200,5.907338134765625,1.5130996704101562,0.9683037996292114,-0.5261200070381165
1772708654022363100,5.917363037109375,1.0714112520217896,0.7214167714118958,0.2528913915157318
1772708654032388000,5.92738818359375,0.4936384856700897,0.04818909987807274,0.6295987367630005
1772708654042413300,5.937413330078125,-0.16614823043346405,-0.7748342156410217,0.6391751766204834
1772708654052438000,5.94743798828125,-0.7350026369094849,-1.479687213897705,0.37265080213546753
1772708654062464300,5.95746435546875,-1.0055137872695923,-1.9750425815582275,-0.08881482481956482
1772708654072489000,5.967489013671875,-0.9127872586250305,-2.1527369022369385,-0.6107219457626343
1772708654082514000,5.977513916015625,-0.5217995643615723,-2.055217742919922,-1.0739638805389404
1772708654092539100,5.9875390625,0.0282145943492651,-1.8527710437774658,-1.4255203008651733
1772708654102564000,5.997564208984375,0.6039577722549438,-1.6226693391799927,-1.6134356260299683
1772708654112590000,6.007590087890625,1.0389788150787354,-1.3853819370269775,-1.6509755849838257
1772708654122615000,6.017614990234375,1.2888368368148804,-1.2028331756591797,-1.5645948648452759
1772708654132640000,6.027639892578125,1.229697346687317,-0.9719512462615967,-1.3646143674850464
1772708654142665200,6.037665283203125,0.8740800619125366,-0.5367470383644104,-1.023563265800476
1772708654152690200,6.047690185546875,0.37203773856163025,0.1297265738248825,-0.5518935322761536
1772708654162715100,6.057715087890625,-0.12772946059703827,0.8351236581802368,0.0021166803780943155
1772708654172741000,6.0677412109375,-0.5127772688865662,1.306498646736145,0.5795941352844238
1772708654182766000,6.07776611328125,-0.7551299929618835,1.408791184425354,1.0115731954574585
1772708654192791300,6.087791259765625,-0.8346890211105347,1.1662408113479614,1.2096309661865234
1772708654202816000,6.09781591796875,-0.7584877014160156,0.59975665807724,1.1804813146591187
1772708654212841000,6.107841064453125,-0.5528597235679626,-0.06501628458499908,1.0147868394851685
1772708654222867000,6.117866943359375,-0.24284912645816803,-0.48184120655059814,0.8713756203651428
1772708654232892200,6.12789208984375,0.07144888490438461,-0.4995669424533844,0.803583025932312
1772708654242917000,6.137917236328125,0.27868035435676575,-0.23598377406597137,0.7611618041992188
1772708654252942000,6.147942138671875,0.3317166864871979,0.18017323315143585,0.7179141640663147
1772708654262967000,6.157967041015625,0.25768187642097473,0.6236004829406738,0.6744362115859985
1772708654272992300,6.1679921875,0.09692548215389252,0.9935002326965332,0.6575376391410828
1772708654283018200,6.178018310546875,-0.09772709012031555,1.266826868057251,0.6761853694915771
1772708654293043200,6.188043212890625,-0.31096506118774414,1.4223309755325317,0.7139836549758911
1772708654303068200,6.198068115234375,-0.5214725136756897,1.3919941186904907,0.7665733098983765
1772708654313093000,6.208093017578125,-0.6935734152793884,1.1603208780288696,0.8278465270996094
1772708654323118300,6.218118408203125,-0.8008953332901001,0.8045753240585327,0.8647672533988953
1772708654333143300,6.228143310546875,-0.8306945562362671,0.38913071155548096,0.8363819718360901
1772708654343169300,6.238169189453125,-0.7554436922073364,0.016825318336486816,0.7471809983253479
1772708654353194200,6.2481943359375,-0.5711910724639893,-0.2114696353673935,0.6497370004653931
1772708654363219000,6.258218994140625,-0.3259623944759369,-0.25099679827690125,0.5829734206199646
1772708654373244200,6.268244140625,-0.08496682345867157,-0.09120261669158936,0.5489131808280945
1772708654383269000,6.27826904296875,0.09602426737546921,0.2818996012210846,0.5582238435745239
1772708654393295000,6.288295166015625,0.1979578286409378,0.8219934701919556,0.6055722236633301
1772708654403320000,6.298320068359375,0.2258419245481491,1.4011588096618652,0.6650304794311523
1772708654413345000,6.308344970703125,0.20014187693595886,1.9087040424346924,0.6940423846244812
1772708654423370200,6.318370361328125,0.11717269569635391,2.1470746994018555,0.688666820526123
1772708654433395200,6.328395263671875,0.0020746025256812572,1.937026023864746,0.6858425140380859
1772708654443420200,6.338420166015625,-0.0653931200504303,1.36142098903656,0.6769270896911621
1772708654453446100,6.348446044921875,0.012510465458035469,0.5540216565132141,0.6807748079299927
1772708654463471000,6.35847119140625,0.3081951141357422,-0.18293653428554535,0.7231731414794922
1772708654473496300,6.368496337890625,0.9016496539115906,-0.40461859107017517,0.9839445352554321
1772708654483521300,6.378521240234375,1.651784896850586,-0.0014090784825384617,1.187641978263855
1772708654493546000,6.3885458984375,2.1754934787750244,0.4513099193572998,0.8060984015464783
1772708654503571000,6.398571044921875,2.25095796585083,0.8656021952629089,-0.2498692274093628
1772708654513597000,6.408596923828125,1.8372721672058105,1.3745591640472412,-1.374584674835205
1772708654523622100,6.4186220703125,1.13251531124115,1.903802752494812,-1.862701654434204
1772708654533647000,6.428647216796875,0.3748553693294525,2.384653329849243,-1.5547199249267578
1772708654543672000,6.438672119140625,-0.09809886664152145,2.585608959197998,-0.7631871104240417
1772708654553697300,6.448697265625,-0.09225483238697052,2.2083823680877686,-0.08804969489574432
1772708654563723300,6.45872314453125,0.10556211322546005,1.1456055641174316,0.05004692077636719
1772708654573748200,6.468748291015625,0.2649349868297577,-0.15517786145210266,-0.1872609704732895
1772708654583773400,6.4787734375,0.4029434621334076,-1.3065599203109741,-0.5562171936035156
1772708654593798400,6.48879833984375,0.48842853307724,-1.9629316329956055,-0.8538946509361267
1772708654603823400,6.4988232421875,0.49378788471221924,-1.9025979042053223,-0.9491516947746277
1772708654613848300,6.508848388671875,0.4055064916610718,-1.221493124961853,-0.9093272686004639
1772708654623874300,6.518874267578125,0.26390114426612854,-0.288517028093338,-0.8733527660369873
1772708654633899500,6.5288994140625,0.08862201124429703,0.5106496810913086,-0.8904843330383301
1772708654643924500,6.538924560546875,-0.05434233322739601,0.8522781133651733,-0.8568680882453918
1772708654653949400,6.548949462890625,-0.12452621757984161,0.5639720559120178,-0.7536849975585938
1772708654663974400,6.558974365234375,-0.05567098408937454,-0.20957666635513306,-0.5344245433807373
1772708654674000400,6.56900048828125,0.10797493904829025,-1.1721386909484863,-0.2514279782772064
1772708654684025600,6.579025634765625,0.23809778690338135,-1.9902739524841309,-0.05560893192887306
1772708654694050300,6.58905029296875,0.3156934976577759,-2.378340005874634,-0.03881717100739479
1772708654704075300,6.5990751953125,0.35276922583580017,-2.3732428550720215,-0.14900971949100494
1772708654714100500,6.6091005859375,0.3404470682144165,-2.053962469100952,-0.27038756012916565
1772708654724125400,6.61912548828125,0.25606292486190796,-1.5117535591125488,-0.31331396102905273
1772708654734151400,6.6291513671875,0.10853499919176102,-0.9312390089035034,-0.35113486647605896
1772708654744176400,6.63917626953125,-0.0919155403971672,-0.45184043049812317,-0.41483554244041443
1772708654754201300,6.649201416015625,-0.314523309469223,-0.07538370043039322,-0.5146359205245972
1772708654764226600,6.6592265625,-0.5348599553108215,0.14619262516498566,-0.6534249186515808
1772708654774251500,6.66925146484375,-0.7363035678863525,0.10302172601222992,-0.7587095499038696
1772708654784276500,6.6792763671875,-0.8847942352294922,-0.25213930010795593,-0.7999951839447021
1772708654794302500,6.689302490234375,-0.9606035351753235,-0.8084803223609924,-0.7258003354072571
1772708654804327400,6.699327392578125,-0.9288029670715332,-1.2429641485214233,-0.49976053833961487
1772708654814352600,6.7093525390625,-0.8113692998886108,-1.3317406177520752,-0.16204962134361267
1772708654824377300,6.71937744140625,-0.6544198989868164,-1.1670429706573486,0.19456015527248383
1772708654834402300,6.72940234375,-0.4849243462085724,-0.9662065505981445,0.4971594512462616
1772708654844427300,6.73942724609375,-0.329319566488266,-0.7445814609527588,0.7363778948783875
1772708654854453200,6.749453369140625,-0.21817681193351746,-0.4161900281906128,0.9121723771095276
1772708654864478500,6.759478515625,-0.17373397946357727,-0.007869907654821873,1.037065863609314
1772708654874503400,6.76950341796875,-0.2162201851606369,0.37417519092559814,1.1123414039611816
1772708654884528400,6.7795283203125,-0.31689485907554626,0.6669120192527771,1.140495777130127
1772708654894553300,6.78955322265625,-0.42618992924690247,0.8346306681632996,1.1155809164047241
1772708654904578600,6.79957861328125,-0.5318657755851746,0.8696488738059998,1.0264304876327515
1772708654914604500,6.8096044921875,-0.6210054755210876,0.7507954239845276,0.8809641003608704
1772708654924629500,6.81962939453125,-0.6830102801322937,0.4878990948200226,0.711158275604248
1772708654934654500,6.829654541015625,-0.6910231709480286,0.1687096506357193,0.550227165222168
1772708654944679400,6.839679443359375,-0.6156488060951233,-0.1179221123456955,0.42226070165634155
1772708654954704600,6.84970458984375,-0.4911569356918335,-0.31154191493988037,0.3110883831977844
1772708654964730600,6.859730712890625,-0.3629204034805298,-0.38176146149635315,0.20751404762268066
1772708654974755600,6.869755615234375,-0.2384200245141983,-0.3765893578529358,0.08912907540798187
1772708654984780300,6.8797802734375,-0.09565088897943497,-0.3562033772468567,-0.11752183735370636
1772708654994805200,6.88980517578125,0.044318728148937225,-0.25726935267448425,-0.33861854672431946
1772708655004830500,6.89983056640625,0.19339396059513092,0.0330176055431366,-0.42523252964019775
1772708655014855400,6.90985546875,0.3350895643234253,0.5197589993476868,-0.3134114444255829
1772708655024881400,6.91988134765625,0.4564618170261383,1.0686484575271606,-0.04135063663125038
1772708655034906400,6.92990625,0.5746765732765198,1.6004719734191895,0.32562869787216187
1772708655044931300,6.939931396484375,0.6715403199195862,2.1779425144195557,0.834886372089386
1772708655054956500,6.94995654296875,0.71788090467453,2.5132296085357666,1.2646318674087524
1772708655064981500,6.9599814453125,0.6524432897567749,1.9661720991134644,1.3591831922531128
1772708655075006500,6.97000634765625,0.4348427951335907,0.6520206332206726,1.0611498355865479
1772708655085032400,6.980032470703125,0.08731519430875778,-1.014512062072754,0.5324060916900635
1772708655095057400,6.990057373046875,-0.17801101505756378,-1.9575954675674438,0.218491330742836
1772708655105082600,7.00008251953125,-0.20333021879196167,-1.603385090827942,0.2833627462387085
1772708655115107300,7.010107421875,0.038246989250183105,-0.312322735786438,0.43785110116004944
1772708655125132300,7.02013232421875,0.4182822108268738,1.28708016872406,0.24709607660770416
1772708655135157200,7.0301572265625,0.7779729962348938,2.453033447265625,-0.4341743588447571
1772708655145183200,7.040183349609375,1.0406451225280762,2.7159430980682373,-1.3336557149887085
1772708655155208400,7.05020849609375,1.1154671907424927,2.1713318824768066,-2.063664674758911
1772708655165233400,7.0602333984375,0.8293427228927612,1.348855972290039,-2.399522542953491
1772708655175258400,7.07025830078125,0.2298068255186081,0.4689594805240631,-2.324770927429199
1772708655185283300,7.080283447265625,-0.44734182953834534,-0.5118001699447632,-2.018270492553711
1772708655195309300,7.090309326171875,-0.914008617401123,-1.877124309539795,-1.7060351371765137
1772708655205334500,7.10033447265625,-0.9409803152084351,-3.5296645164489746,-1.4138191938400269
1772708655215359500,7.110359375,-0.592743992805481,-4.8814191818237305,-1.0989731550216675
1772708655225384400,7.120384521484375,-0.13393916189670563,-5.354884624481201,-0.7682657837867737
1772708655235409400,7.130409423828125,0.21133780479431152,-4.81306266784668,-0.4845171570777893
1772708655245434600,7.1404345703125,0.45798274874687195,-3.521305799484253,-0.30952349305152893
1772708655255460600,7.150460693359375,0.6018911600112915,-1.861140251159668,-0.204335555434227
1772708655265485600,7.160485595703125,0.6049658060073853,-0.10358870774507523,-0.0776391327381134
1772708655275510300,7.17051025390625,0.4963620901107788,1.4616773128509521,0.0844283327460289
1772708655285535200,7.18053515625,0.28439950942993164,2.594891309738159,0.18840773403644562
1772708655295560400,7.190560546875,0.0054823835380375385,3.1391751766204834,0.1713152974843979
1772708655305585400,7.20058544921875,-0.2830442190170288,2.824221134185791,0.037455495446920395
1772708655315611400,7.210611328125,-0.4991309940814972,1.6348594427108765,-0.07399299740791321
1772708655325636400,7.22063623046875,-0.5930755734443665,0.1474296599626541,-0.12436109781265259
1772708655335661300,7.230661376953125,-0.5830144286155701,-1.1139826774597168,-0.0750926211476326
1772708655345686500,7.2406865234375,-0.5235007405281067,-1.5345314741134644,-0.0635821744799614
1772708655355711500,7.25071142578125,-0.35080090165138245,-1.5927109718322754,0.12874945998191833
1772708655365736400,7.260736328125,-0.1640685647726059,-1.3603639602661133,0.2795693278312683
1772708655375762400,7.270762451171875,-0.05492370203137398,-0.9836180210113525,0.3455885648727417
1772708655385787400,7.280787353515625,-0.024694427847862244,-0.49243074655532837,0.35113725066185
1772708655395812600,7.2908125,-0.06861661374568939,0.08731679618358612,0.3287328779697418
1772708655405837300,7.30083740234375,-0.16985587775707245,0.659012496471405,0.32126352190971375
1772708655415862300,7.3108623046875,-0.3080388009548187,1.0933911800384521,0.3351289927959442
1772708655425887200,7.32088720703125,-0.44568878412246704,1.2447806596755981,0.37372538447380066
1772708655435913200,7.330913330078125,-0.5491531491279602,1.093807339668274,0.45750629901885986
1772708655445938400,7.3409384765625,-0.618950605392456,0.7457367777824402,0.5789680480957031
1772708655455963400,7.35096337890625,-0.6615231037139893,0.32546570897102356,0.7332747578620911
1772708655465988400,7.36098828125,-0.6675497889518738,-0.009280850179493427,0.9181937575340271
1772708655476013300,7.371013427734375,-0.6396524310112,-0.1173844188451767,1.086546778678894
1772708655486038500,7.38103857421875,-0.5917274951934814,0.028331240639090538,1.2153087854385376
1772708655496064500,7.391064453125,-0.531617283821106,0.27216440439224243,1.304930329322815
1772708655506089500,7.40108935546875,-0.4934709668159485,0.5040175914764404,1.3451712131500244
1772708655516114400,7.411114501953125,-0.4891214966773987,0.751050591468811,1.340736746788025
1772708655526139400,7.421139404296875,-0.5245468616485596,0.9973074793815613,1.2768381834030151
1772708655536164600,7.43116455078125,-0.5918846130371094,1.1599981784820557,1.1601868867874146
1772708655546189300,7.441189208984375,-0.6641985177993774,1.167751431465149,1.0047454833984375
1772708655556214800,7.45121484375,-0.7081800699234009,1.0002590417861938,0.8537667989730835
1772708655566239700,7.46123974609375,-0.643470048904419,0.7460843324661255,0.8120777010917664
1772708655576265000,7.471264892578125,-0.42956575751304626,0.5371707677841187,0.8449586629867554
1772708655586289700,7.48128955078125,-0.07106325775384903,0.5553745627403259,0.9657682180404663
1772708655596314600,7.491314697265625,0.3715927302837372,0.8083269000053406,1.078035831451416
1772708655606339600,7.501339599609375,0.7205246090888977,1.1851741075515747,0.8588441610336304
1772708655616365600,7.511365478515625,0.8692565560340881,1.4478179216384888,0.2421969175338745
1772708655626390800,7.521390869140625,0.8261053562164307,1.7155362367630005,-0.48419782519340515
1772708655636415700,7.531415771484375,0.7173000574111938,2.0466291904449463,-0.8765664100646973
1772708655646440700,7.541440673828125,0.6323527097702026,2.120795488357544,-0.8225426077842712
1772708655656465700,7.551465576171875,0.5568432807922363,1.9003313779830933,-0.4993504285812378
1772708655666491000,7.561490966796875,0.4238825738430023,1.447946548461914,-0.3395194709300995
1772708655676516900,7.571516845703125,0.16841164231300354,0.7395326495170593,-0.6170453429222107
1772708655686541800,7.581541748046875,-0.09835000336170197,0.10424304753541946,-1.1383119821548462
1772708655696566800,7.59156689453125,-0.1471702754497528,-0.3749813437461853,-1.6084518432617188
1772708655706591700,7.601591796875,0.1640499234199524,-0.5926398634910583,-1.8048356771469116
1772708655716616700,7.61161669921875,0.6638110280036926,-0.4153021275997162,-1.7836382389068604
1772708655726641700,7.6216416015625,1.0627524852752686,0.12875930964946747,-1.6090805530548096
1772708655736667600,7.631667724609375,1.1013044118881226,0.8000513911247253,-1.3824490308761597
1772708655746692600,7.641692626953125,0.835562527179718,1.0183818340301514,-1.1732492446899414
1772708655756717600,7.651717529296875,0.4829184412956238,0.3532845675945282,-1.0154625177383423
1772708655766742800,7.66174267578125,0.1622709333896637,-0.9312996864318848,-0.8648003339767456
1772708655776767700,7.671767822265625,-0.10592909902334213,-2.077561140060425,-0.6336062550544739
1772708655786792700,7.681792724609375,-0.3370416760444641,-2.676323652267456,-0.40652647614479065
1772708655796818700,7.691818603515625,-0.5251386165618896,-2.855530261993408,-0.32462015748023987
1772708655806843600,7.70184375,-0.6563557386398315,-2.8185975551605225,-0.44793757796287537
1772708655816868900,7.711868896484375,-0.733270525932312,-2.6585824489593506,-0.7016521096229553
1772708655826893800,7.721893798828125,-0.7208567261695862,-2.3320083618164062,-0.9362478852272034
1772708655836918800,7.731918701171875,-0.6274213194847107,-1.8714911937713623,-1.0090818405151367
1772708655846943700,7.74194384765625,-0.5164878368377686,-1.3483190536499023,-0.8950101137161255
1772708655856969700,7.7519697265625,-0.42008382081985474,-0.80217444896698,-0.6320322751998901
1772708655866995000,7.761994873046875,-0.36394092440605164,-0.304252028465271,-0.2906446158885956
1772708655877019600,7.77201953125,-0.36244475841522217,-0.0036509274505078793,0.05210075154900551
1772708655887044600,7.782044677734375,-0.39703282713890076,0.08939166367053986,0.3378145396709442
1772708655897069600,7.792069580078125,-0.4266170859336853,0.04609159380197525,0.546175479888916
1772708655907094800,7.8020947265625,-0.4434352219104767,-0.10931850224733353,0.6531237363815308
1772708655917120800,7.812120849609375,-0.4814140200614929,-0.3508845269680023,0.6801364421844482
1772708655927145700,7.822145751953125,-0.5158071517944336,-0.5600899457931519,0.7046468257904053
1772708655937170700,7.832170654296875,-0.4809298813343048,-0.6211354732513428,0.7817642688751221
1772708655947195600,7.842195556640625,-0.3789750039577484,-0.545439600944519,0.8521556258201599
1772708655957220900,7.852220947265625,-0.2643246054649353,-0.3839772343635559,0.8583695888519287
1772708655967245800,7.862245849609375,-0.18085765838623047,-0.1839354783296585,0.8151904344558716
1772708655977271800,7.872271728515625,-0.14282213151454926,0.018149176612496376,0.7553132176399231
1772708655987296800,7.882296875,-0.15031041204929352,0.18486332893371582,0.6979798674583435
1772708655997321700,7.89232177734375,-0.1885499358177185,0.29956167936325073,0.6385160088539124
1772708656007346700,7.9023466796875,-0.22451725602149963,0.3664264678955078,0.6123046875
1772708656017371600,7.91237158203125,-0.22433589398860931,0.42487913370132446,0.629648745059967
1772708656027396600,7.922396728515625,-0.17423997819423676,0.48140230774879456,0.6854459643363953
1772708656037422600,7.932422607421875,-0.09700164943933487,0.4782733619213104,0.7346622943878174
1772708656047447800,7.94244775390625,-0.012973855249583721,0.3972022235393524,0.7404357194900513
1772708656057472800,7.95247265625,0.052919141948223114,0.2892158329486847,0.6764122843742371
1772708656067497700,7.962497802734375,0.09586021304130554,0.1998065859079361,0.5678746104240417
1772708656077522700,7.972522705078125,0.08351380378007889,0.14732153713703156,0.43052688241004944
1772708656087548000,7.9825478515625,-0.003777693957090378,0.17608235776424408,0.30598628520965576
1772708656097573600,7.99257373046875,-0.10538873821496964,0.3006698191165924,0.24158945679664612
1772708656107598800,8.002598876953124,-0.16378839313983917,0.5356202721595764,0.2581905424594879
1772708656117623800,8.012623779296876,-0.13937386870384216,0.8555804491043091,0.34979769587516785
1772708656127648800,8.022648681640625,-0.014753379859030247,1.0948899984359741,0.49963778257369995
1772708656137673700,8.032673828125,0.1665106862783432,1.1192930936813354,0.5706291198730469
1772708656147698700,8.04269873046875,0.29546627402305603,0.8731138706207275,0.4881494343280792
1772708656157725000,8.052724853515626,0.3587656021118164,0.4935348927974701,0.40597599744796753
1772708656167749600,8.06274951171875,0.49738502502441406,0.4489319920539856,0.557094156742096
1772708656177774600,8.072774658203125,0.8985707759857178,1.0012640953063965,1.086625099182129
1772708656187799800,8.0827998046875,1.4311497211456299,1.7264295816421509,1.5601303577423096
1772708656197824800,8.09282470703125,1.6879801750183105,2.1165997982025146,1.3620244264602661
1772708656207849700,8.102849609375,1.302851676940918,1.9532499313354492,0.41018566489219666
1772708656217875700,8.112875732421875,0.14938442409038544,1.4152421951293945,-0.6392214894294739
1772708656227900700,8.122900634765625,-1.2447974681854248,0.7509536147117615,-1.053061604499817
1772708656237926000,8.13292578125,-1.9027340412139893,0.3925161063671112,-0.6877807974815369
1772708656247950800,8.142950927734375,-1.3955038785934448,0.3771480917930603,-0.0006532734259963036
1772708656257975800,8.152975830078125,-0.2539382576942444,0.6318565607070923,0.4241938889026642
1772708656268000800,8.163000732421875,0.8898782134056091,0.8923219442367554,0.3740966320037842
1772708656278026800,8.17302685546875,1.5748165845870972,0.9198699593544006,0.022817963734269142
1772708656288052000,8.183052001953126,1.7905337810516357,0.7549816370010376,-0.3602391481399536
1772708656298077000,8.193076904296875,1.7483532428741455,0.5466796159744263,-0.7556362748146057
1772708656308101600,8.2031015625,1.496219515800476,0.4739382863044739,-1.1146857738494873
1772708656318126600,8.213126708984374,0.9725959897041321,0.6342123746871948,-1.3787815570831299
1772708656328151800,8.22315185546875,0.24122273921966553,0.8339587450027466,-1.5101300477981567
1772708656338177800,8.233177734375,-0.5022926926612854,0.9052103161811829,-1.4454452991485596
1772708656348202800,8.24320263671875,-0.9945007562637329,0.7592640519142151,-1.1717634201049805
1772708656358227700,8.253227783203124,-1.0725518465042114,0.20278400182724,-0.7167804837226868
1772708656368252700,8.263252685546876,-0.8759275078773499,-0.8064544200897217,-0.16756929457187653
1772708656378278000,8.27327783203125,-0.6002533435821533,-1.9581632614135742,0.295245498418808
1772708656388302800,8.283302734375,-0.39326179027557373,-2.79636812210083,0.5049635767936707
1772708656398328800,8.293328857421875,-0.3191737234592438,-3.055589199066162,0.4006619155406952
1772708656408353800,8.303353759765624,-0.33882758021354675,-2.814927577972412,0.09340957552194595
1772708656418378800,8.313378662109375,-0.375227689743042,-2.1427433490753174,-0.25040319561958313
1772708656428404000,8.323404052734375,-0.4018329083919525,-1.203466773033142,-0.5040532946586609
1772708656438428700,8.3334287109375,-0.438362181186676,-0.2145567685365677,-0.5927794575691223
1772708656448453600,8.34345361328125,-0.5135621428489685,0.6823554039001465,-0.49722176790237427
1772708656458479600,8.353479736328126,-0.6067674160003662,1.268410563468933,-0.2608523666858673
1772708656468504600,8.363504638671875,-0.686048150062561,1.2880202531814575,0.011670771054923534
1772708656478529800,8.37352978515625,-0.7046913504600525,0.7014020681381226,0.28520724177360535
1772708656488554800,8.3835546875,-0.6424695253372192,-0.24111275374889374,0.5776242017745972
1772708656498579700,8.393579833984376,-0.506731390953064,-1.1694129705429077,0.8758151531219482
1772708656508604700,8.403604736328125,-0.34944722056388855,-1.8436989784240723,1.114320158958435
1772708656518630000,8.4136298828125,-0.21692006289958954,-2.1936538219451904,1.2502776384353638
1772708656528656000,8.42365576171875,-0.12055624276399612,-2.189499855041504,1.282612681388855
1772708656538680800,8.433680908203126,-0.06583733856678009,-1.9438540935516357,1.2481516599655151
1772708656548705800,8.443705810546875,-0.029586920514702797,-1.5504257678985596,1.1875916719436646
1772708656558730500,8.45373046875,0.01323990523815155,-1.0687869787216187,1.1461955308914185
1772708656568755500,8.46375537109375,0.06379309296607971,-0.588621973991394,1.1267051696777344
1772708656578780400,8.473780517578126,0.09561174362897873,-0.17802992463111877,1.0920391082763672
1772708656588806400,8.483806396484376,0.07118496298789978,0.14199042320251465,1.0194082260131836
1772708656598831400,8.493831298828125,-0.003010969841852784,0.36412283778190613,0.9191871285438538
1772708656608856300,8.503856201171875,-0.0891738161444664,0.44959351420402527,0.8301629424095154
1772708656618881500,8.513881591796874,-0.15436241030693054,0.4177117645740509,0.7851859331130981
1772708656628906500,8.523906494140626,-0.17274540662765503,0.34536299109458923,0.7892317771911621
1772708656638931500,8.533931396484375,-0.12455098330974579,0.3066195845603943,0.8147618770599365
1772708656648957400,8.54395751953125,-0.03786429017782211,0.28251370787620544,0.8280547857284546
1772708656658982400,8.553982421875,0.022542594000697136,0.2259143590927124,0.7776861786842346
1772708656669007600,8.564007568359376,0.02213805913925171,0.14614363014698029,0.6467931270599365
1772708656679032600,8.574032470703125,-0.01888394169509411,0.08468958735466003,0.45799553394317627
1772708656689057500,8.5840576171875,-0.09531160444021225,0.06306471675634384,0.253892719745636
1772708656699082500,8.59408251953125,-0.21574480831623077,0.08190099149942398,0.05663851276040077
1772708656709107500,8.604107421875,-0.3398795425891876,0.17888931930065155,-0.11764061450958252
1772708656719133700,8.6141337890625,-0.36112064123153687,0.3674539029598236,-0.22722889482975006
1772708656729158400,8.624158447265625,-0.26990365982055664,0.6062073707580566,-0.2860431969165802
1772708656739183400,8.634183349609375,-0.12320928275585175,0.8503870368003845,-0.3906804025173187
1772708656749208600,8.64420849609375,-0.00708773685619235,1.059797763824463,-0.5100802779197693
1772708656759233500,8.654233642578125,0.07013195008039474,1.4180792570114136,-0.4602815806865692
1772708656769258500,8.664258544921875,0.1821223944425583,2.1792125701904297,-0.1784682720899582
1772708656779284500,8.674284423828125,0.30567070841789246,3.050246477127075,0.2048271745443344
1772708656789309400,8.684309326171874,0.3230305314064026,3.426138162612915,0.2613453269004822
1772708656799334400,8.69433447265625,0.16918343305587769,3.1088643074035645,-0.16075319051742554
1772708656809359600,8.704359619140625,-0.12641386687755585,2.0901899337768555,-0.8648804426193237
1772708656819384600,8.714384521484375,-0.42149052023887634,0.381879985332489,-1.4236129522323608
1772708656829409500,8.724409423828124,-0.46564918756484985,-0.7965296506881714,-1.3870844841003418
1772708656839435500,8.734435546875,-0.21574880182743073,-0.7408509254455566,-0.7889542579650879
1772708656849460500,8.74446044921875,0.12564048171043396,-0.007650995627045631,-0.20523864030838013
1772708656859485400,8.7544853515625,0.36987578868865967,0.8705987930297852,-0.22937965393066406
1772708656869510400,8.764510498046874,0.5397322177886963,1.4201202392578125,-0.8303155899047852
1772708656879535400,8.774535400390626,0.6989570260047913,1.4499484300613403,-1.5185691118240356
1772708656889560600,8.784560546875,0.8039289712905884,1.1642913818359375,-1.9653428792953491
1772708656899586600,8.794586669921875,0.7172902226448059,0.7818476557731628,-2.289179801940918
1772708656909611500,8.804611572265625,0.34126996994018555,0.388340562582016,-2.642990827560425
1772708656919636500,8.814636474609374,-0.2954729199409485,-0.004227235447615385,-2.9980626106262207
1772708656929661400,8.824661376953125,-0.9494475722312927,-0.6293720602989197,-3.1472275257110596
1772708656939686700,8.834686767578125,-1.2110540866851807,-1.257341742515564,-2.767298698425293
1772708656949711600,8.844711669921875,-0.7767156958580017,-1.7326416969299316,-1.819419503211975
1772708656959737600,8.854737548828124,0.17497926950454712,-2.240414619445801,-0.520920991897583
1772708656969762600,8.864762451171876,1.1387357711791992,-2.7740185260772705,0.712429940700531
1772708656979787500,8.87478759765625,1.639602780342102,-3.2967445850372314,1.531912088394165
1772708656989812700,8.884812744140625,1.6720534563064575,-3.5258753299713135,1.8687230348587036
1772708656999837400,8.89483740234375,1.4933414459228516,-3.3774642944335938,1.7872707843780518
1772708657009862400,8.9048623046875,1.27781081199646,-2.9326395988464355,1.4283827543258667
1772708657019887400,8.914887451171875,1.071371078491211,-2.2172489166259766,0.9474757313728333
1772708657029913300,8.924913330078125,0.90169358253479,-1.3285868167877197,0.4173423647880554
1772708657039938600,8.9349384765625,0.7436975836753845,-0.3367372751235962,-0.11636069416999817
1772708657049963500,8.944963623046876,0.5900917649269104,0.6786967515945435,-0.540134608745575
1772708657059988500,8.954988525390625,0.4714053273200989,1.5940446853637695,-0.7616028189659119
1772708657070013400,8.965013427734375,0.4063216745853424,2.077409267425537,-0.7050508260726929
1772708657080038700,8.97503857421875,0.4172941744327545,1.8162018060684204,-0.44881880283355713
1772708657090064600,8.985064697265624,0.45213496685028076,0.8651180267333984,-0.12739630043506622
1772708657100089600,8.995089599609376,0.4606597423553467,-0.36115819215774536,0.2243438959121704
1772708657110114600,9.005114501953125,0.3999492824077606,-1.313831090927124,0.5850674510002136
1772708657120139500,9.015139404296875,0.2394551932811737,-1.7413177490234375,0.8947890996932983
1772708657130164500,9.02516455078125,0.007366036996245384,-1.7738399505615234,1.0658189058303833
1772708657140189400,9.035189453125,-0.23885278403759003,-1.550087571144104,1.0454281568527222
1772708657150215400,9.04521533203125,-0.4438152611255646,-1.1273783445358276,0.8825393319129944
1772708657160240400,9.055240478515625,-0.5432385206222534,-0.5384442806243896,0.6796466708183289
1772708657170265300,9.065265380859374,-0.525475263595581,0.1402343362569809,0.4722501039505005
1772708657180290600,9.07529052734375,-0.44936156272888184,0.7887830138206482,0.27920687198638916
1772708657190315500,9.0853154296875,-0.39278644323349,1.2831884622573853,0.13781645894050598
1772708657200340500,9.095340576171875,-0.37091681361198425,1.5241020917892456,0.0496988482773304
1772708657210365400,9.105365478515624,-0.3608444631099701,1.4992867708206177,0.011816445738077164
1772708657220391400,9.115391357421874,-0.3498839735984802,1.2902477979660034,0.04093971103429794
1772708657230416600,9.125416748046876,-0.3212118446826935,1.0370268821716309,0.10769770294427872
1772708657240441600,9.135441650390625,-0.28376033902168274,0.7868179082870483,0.1664036214351654
1772708657250466600,9.145466552734375,-0.23975880444049835,0.5337193012237549,0.2591884136199951
1772708657260491500,9.155491455078124,-0.20572759211063385,0.3100505471229553,0.39818254113197327
1772708657270516500,9.1655166015625,-0.18474827706813812,0.22494150698184967,0.579140841960907
1772708657280542700,9.175542724609375,-0.19318464398384094,0.27274444699287415,0.7341583967208862
1772708657290567400,9.1855673828125,-0.27882257103919983,0.3882625102996826,0.9102612733840942
1772708657300592400,9.19559228515625,-0.412217378616333,0.3711612820625305,1.0268176794052124
1772708657310617300,9.205617431640626,-0.48545512557029724,0.2327277809381485,1.0603746175765991
1772708657320642600,9.215642578125,-0.4349384009838104,0.41593676805496216,1.0173906087875366
1772708657330667500,9.22566748046875,-0.2959831953048706,0.657362163066864,0.8995614647865295
1772708657340692500,9.2356923828125,-0.13838717341423035,0.7830324769020081,0.8303626775741577
