time,seconds_elapsed,z,y,x
1772708508926230800,0.049230712890625,0.4553787924230098,-0.252626269069314,-0.7563394688114523
1772708508936256800,0.0592568359375,0.7129290738910437,-0.36441315786242484,-0.9107473557129502
1772708508946281700,0.06928173828125,0.942605844527483,-0.38526889888644217,-0.9962688995234668
1772708508956307700,0.0793076171875,1.0943646782249212,-0.4585375487148762,-1.045065517526865
1772708508966333700,0.089333740234375,1.3880091863811015,-0.5508803168475628,-1.1836086035594344
1772708508976359700,0.099359619140625,1.562249900999665,-0.6752396869659424,-1.0934564773388207
1772708508986385700,0.1093857421875,1.3858061233788728,-0.7179577157080173,-0.7843696315094828
1772708508996411600,0.11941162109375,1.031616837888956,-0.7789052286237478,-0.5492281657263637
1772708509006437600,0.129437744140625,0.6517834080547094,-0.8288006016492843,-0.41473318604081866
1772708509016462600,0.139462646484375,0.2885013000488281,-0.7325573189467192,-0.5450315908193588
1772708509026488600,0.149488525390625,0.09343348597884178,-0.5929910273462533,-0.7033871924333274
1772708509036514600,0.1595146484375,-0.08278700428009032,-0.47738604156970976,-0.8560603644967079
1772708509046540800,0.169540771484375,-0.10986264273226261,-0.35516660608947276,-1.0286074269399046
1772708509056566800,0.17956689453125,-0.07488193024396896,-0.2844187069103122,-0.9465909686408936
1772708509066592800,0.1895927734375,-0.09573942483365536,-0.35213206069916486,-0.7677686253204942
1772708509076618800,0.19961865234375,-0.04121054678857326,-0.3875473652124405,-0.5136101782478392
1772708509086643700,0.209643798828125,0.08557809630334377,-0.30814182006418706,-0.1640295555971563
1772708509096669700,0.219669677734375,0.09285597835183143,-0.18979396532028914,0.020021482156962155
1772708509106695700,0.22969580078125,0.13659808944463728,-0.13722966534644365,0.09743073892146348
1772708509116721700,0.2397216796875,0.18138591019809244,-0.0985109353736043,0.13533259955346583
1772708509126747600,0.24974755859375,0.08660451674163341,-0.1732069876566529,0.11950286999791859
1772708509136773600,0.259773681640625,0.12295417949557304,-0.35497488290965556,0.1398586986757815
1772708509146799600,0.269799560546875,0.06998188324272632,-0.6007929332688451,0.2785382705695927
1772708509156824600,0.279824462890625,0.24105156660974025,-0.7405307820439339,0.5642381033316254
1772708509166850600,0.2898505859375,0.4480184927880764,-0.6574497632533312,0.8283287463538348
1772708509176876500,0.29987646484375,0.03337210824787617,-0.6668538436755538,1.0443645296506583
1772708509186902500,0.309902587890625,-0.2649661106824875,-0.5386094488173723,0.9996651178330183
1772708509196928800,0.3199287109375,-0.23962241058945655,-0.37320524386614556,0.7349751937434077
1772708509206954800,0.329954833984375,-0.41065000838041305,-0.5598424987211823,0.5723777167759836
1772708509216980700,0.339980712890625,-0.3240291250258684,-0.6824912655293941,0.3418630340106785
1772708509227005700,0.350005615234375,-0.36795068433880807,-0.6128039813190699,0.04712620057314634
1772708509237031700,0.36003173828125,-0.23862755433320998,-0.4147577359601855,-0.44426001703739165
1772708509247057700,0.3700576171875,0.18002280515134333,-0.32062662310600276,-0.8924452446945011
1772708509257083600,0.380083740234375,0.8905839808672666,-0.36113895849734545,-0.9904721959434449
1772708509267109600,0.390109619140625,1.7653852861911057,-0.35829613628685475,-0.778160839997232
1772708509277135600,0.400135498046875,2.5669056667268273,-0.18377222081273792,-0.5821275418959557
1772708509287161600,0.41016162109375,3.26851605874598,-0.11044219618588685,-0.48046048057898877
1772708509297186600,0.4201865234375,3.8798184033304453,0.22864742758870124,-0.25808614191040397
1772708509307212500,0.430212646484375,4.152818767386675,1.362772746054828,-0.5016071673735976
1772708509317238500,0.440238525390625,3.340481224760413,1.2207739666104316,-1.0626108918938786
1772708509327264500,0.450264404296875,2.618380417898297,0.9102946435093879,-1.3759941928081214
1772708509337290500,0.46029052734375,2.725122882783413,1.3375994340926407,-1.515539587751031
1772708509347316700,0.470316650390625,3.2926129736483096,1.8654867056265472,-1.2913415407866238
1772708509357342700,0.4803427734375,4.062538777002692,2.263414595077932,-0.9585388883270323
1772708509367367400,0.490367431640625,4.444225141227245,2.505111766114831,-0.38961496526673434
1772708509377393700,0.5003935546875,4.196740326699614,2.648325766567886,0.1268984601419419
1772708509387419600,0.510419677734375,3.937976577788591,2.76008693639785,0.20630751242153345
1772708509397445600,0.520445556640625,3.030961102080345,3.418138464936614,-0.19911774704791604
1772708509407471900,0.530471923828125,2.4688509506881235,4.377362559048831,-0.49826267925128337
1772708509417498000,0.540498046875,1.7411907561331987,5.0216965278804295,-1.09858412255086
1772708509427522800,0.550522705078125,0.24957798741459844,5.750898106658458,-2.44170341604352
1772708509437549000,0.560549072265625,-1.1875795530170201,6.215197872161865,-3.0910394309461116
1772708509447575000,0.570574951171875,-1.7259318122029303,6.506019139590859,-2.5698876051470636
1772708509457601000,0.58060107421875,-1.697485469919443,6.524249208286404,-1.9902233846247195
1772708509467627000,0.590626953125,-1.6660685873925685,6.099585287600755,-1.298442458833009
1772708509477653000,0.600653076171875,-1.8257944544464348,4.892873748612404,-0.3331665173359215
1772708509487679000,0.610678955078125,-1.903977179801464,3.062775751753151,0.806585262709856
1772708509497704000,0.620703857421875,-1.44536072063148,0.6609966420799493,2.4451122015736995
1772708509507730000,0.63072998046875,-0.6187941616445779,-1.5068100455895066,2.5229998895049093
1772708509517756000,0.640755859375,-0.8094184403091669,-3.7692303689330813,1.7834123796604573
1772708509527782000,0.650781982421875,-3.1275153504282236,-5.353050296705961,0.17916560380011795
1772708509537808000,0.660807861328125,-8.024495949837565,-4.5830613649874925,-1.0910538731765
1772708509547833900,0.670833740234375,-14.074459420657156,-3.2711785559535023,0.3649089054901153
1772708509557859800,0.68085986328125,-14.043789557105303,-3.331094972255826,0.4013112482793629
1772708509567884800,0.690884765625,-14.031597599530219,-3.361279974900186,0.3946151116415858
1772708509577910800,0.700910888671875,-14.032476720452308,-3.359934697771072,0.3921276787400245
1772708509587937000,0.71093701171875,-14.041129982507227,-3.3280414299041032,0.4347083448380232
1772708509597963000,0.720962890625,-14.057840294289589,-3.2618072087571024,0.5447556234221905
1772708509607989000,0.730989013671875,-14.083173472988605,-3.165203568309545,0.7333719963304698
1772708509618015000,0.741014892578125,-14.117251099157333,-3.0551500791803,0.9656867142550647
1772708509628041000,0.751041015625,-14.155090708208084,-2.9534841869071125,1.1922917492959648
1772708509638066200,0.761066162109375,-14.185095385849475,-2.8829876321405172,1.382153007698804
1772708509648092000,0.771091796875,-8.823132299369574,-8.071717719739675,3.2707460097551344
1772708509658118000,0.781117919921875,-6.147015147295594,-8.704481370025873,3.068959993346035
1772708509668143900,0.791143798828125,-3.7518443498462437,-8.55094032908678,2.794496863260865
1772708509678169900,0.801169921875,-1.516912045148015,-8.208980995094775,3.2572190041840074
1772708509688195800,0.81119580078125,0.5159282459318637,-7.835522360989451,3.2733623297333714
1772708509698221800,0.821221923828125,3.0153970377236603,-7.1542977543950075,2.6260209957793355
1772708509708247000,0.8312470703125,6.036858490052819,-5.949120585367083,1.6952843066133558
1772708509718273000,0.84127294921875,8.183716789978742,-4.241425271600485,1.2850792655214667
1772708509728299000,0.851299072265625,9.809301391291617,-2.0780238331526517,0.9082157914087176
1772708509738325000,0.861324951171875,10.865782621324062,-0.38787937364578245,0.6735153473913669
1772708509748351000,0.87135107421875,11.487881085211038,1.5687904086843132,0.23925927636548874
1772708509758377000,0.881376953125,11.755698493671417,3.698489191755652,-0.9445023257985711
1772708509768402200,0.891402099609375,11.882780566751956,5.215055199944973,-1.1386375351935625
1772708509778428200,0.90142822265625,11.4248029900074,5.94761544150114,-0.16164244126491248
1772708509788454100,0.9114541015625,10.74705921126604,5.396925678789615,1.4715709744259715
1772708509798480100,0.921480224609375,10.097655391824246,3.9426454463824627,2.696452376355231
1772708509808506000,0.931506103515625,9.340506067934632,2.5542221262425184,3.3128450298160312
1772708509818532000,0.941531982421875,8.837296433800459,1.6183859219804406,3.3435943883448838
1772708509828558000,0.95155810546875,9.49023193449974,1.775877161850035,2.4560516748696566
1772708509838583000,0.9615830078125,10.272277799236774,2.470771105095744,1.397241271237284
1772708509848609000,0.971609130859375,11.000002875721455,3.092105306611955,0.7779725508835166
1772708509858635000,0.981635009765625,11.422719753992556,3.910371362504363,0.16402287012804298
1772708509868661000,0.991660888671875,11.172086120045185,4.165436549158394,-0.4132945680724457
1772708509878687000,1.00168701171875,10.341917737174034,3.5739047807097433,-0.5874518787238746
1772708509888713000,1.011712890625,9.31932065656483,3.425889225193858,-0.2953396581688896
1772708509898739200,1.0217392578125,7.682159014704823,3.7757448653936385,-0.04192711582640186
1772708509908764000,1.031763916015625,6.350517612233758,3.511056694869697,0.5314574581708759
1772708509918790100,1.0417900390625,5.605948368453979,3.036225890740752,0.848994517763704
1772708509928816000,1.051816162109375,5.695229995450378,2.5884131496578453,0.7856881667621434
1772708509938842000,1.061842041015625,6.308828342017531,2.0547540167242286,0.5655767680568621
1772708509948868000,1.0718681640625,6.898538447996974,1.6108393059931694,0.3248675851440057
1772708509958894000,1.08189404296875,7.143321017828583,1.367982005135715,0.07763079056069254
1772708509968920000,1.091920166015625,7.2052283156871795,1.2884966727495193,-0.1314083935807459
1772708509978945000,1.101945068359375,7.091326626697183,1.2421896796047687,-0.6040029082912951
1772708509988971000,1.111970947265625,7.040882972139119,1.1365114829502998,-1.1107412280082702
1772708509998997000,1.1219970703125,7.099467263054847,1.2205489256829023,-1.4653917012691497
1772708510009023000,1.13202294921875,7.138638997492194,1.3864729167245327,-2.0888769433394074
1772708510019049000,1.142049072265625,7.465742123135924,1.4416818859882652,-2.5711224076390264
1772708510029075000,1.152074951171875,7.924045278573035,1.6371156107611953,-2.599332895340025
1772708510039100000,1.162099853515625,7.9585712330311535,1.7124780179984866,-2.5213918697863815
1772708510049126000,1.1721259765625,7.709162756964564,1.6998736802302299,-2.509270054838061
1772708510059152000,1.18215185546875,7.34258453002274,1.8180415022321044,-2.5007798743903638
1772708510069178000,1.19217822265625,6.687496235203742,2.147483738347888,-2.4094236330769956
1772708510079204000,1.2022041015625,5.803429088884592,2.442757309010625,-2.3691253788277504
1772708510089230000,1.21222998046875,4.993324419876933,2.831421695554256,-2.449656567005068
1772708510099256000,1.222256103515625,4.248420829576253,3.245526228302717,-2.430819033935666
1772708510109281000,1.232281005859375,3.645072074344754,3.384450422607362,-2.640556886132061
1772708510119307000,1.24230712890625,3.0367823555797337,3.54067646484673,-2.868556371206045
1772708510129333000,1.2523330078125,2.1846634221851824,3.5314234833329916,-2.500789811262488
1772708510139359000,1.26235888671875,0.9166893129825592,2.9249791001737115,-1.426695767650008
1772708510149385000,1.272385009765625,-1.1746768168240784,1.455268074400723,0.2714476547215134
1772708510159411000,1.282410888671875,-4.117330689898133,-1.6535408219918608,3.1486674440503117
1772708510169436000,1.292435791015625,-7.05054394993186,-5.941587851774692,6.7436231960952275
1772708510179462000,1.3024619140625,-9.816841723668574,-8.447986150568724,7.641297427484393
1772708510189487900,1.31248779296875,-13.177211305725574,-7.917353671979904,5.198361254775524
1772708510199513900,1.322513916015625,-13.309759827518462,-7.909633306860924,5.620004366335272
1772708510209539800,1.332539794921875,-13.351796303737164,-8.007806680843233,5.833444287919998
1772708510219566000,1.342566162109375,-13.307059336388111,-8.191295700800419,5.8675078855633735
1772708510229592000,1.352592041015625,-13.207311844956875,-8.431121525007486,5.778866310036182
1772708510239617000,1.362616943359375,-13.095322127068043,-8.692856983205676,5.644122324025631
1772708510249643000,1.37264306640625,-13.009024484318495,-8.925468053728341,5.537644647556543
1772708510259669000,1.3826689453125,-12.975195864474772,-9.079730394679308,5.528730688738823
1772708510269695000,1.392695068359375,-13.00575116173625,-9.13892141931653,5.6592889134973285
1772708510279721000,1.402720947265625,-13.085188855588436,-9.118501731622219,5.880844336998463
1772708510289747000,1.412746826171875,-13.188783670097589,-9.0504633836627,6.124683488500118
1772708510299772000,1.42277197265625,-13.29199036207199,-8.968027677038311,6.340077466762065
1772708510309798000,1.4327978515625,-9.14736717610061,-8.498928402298688,-7.982811940318346
1772708510319824000,1.442823974609375,-5.550253369238972,-7.238739540144801,-4.96940110797584
1772708510329849900,1.452849853515625,-2.7092180421650407,-5.519731974247097,-2.0046397402510046
1772708510339875800,1.462875732421875,0.31331717687547206,-3.1334494166523217,-0.37819121558517216
1772708510349901800,1.47290185546875,2.7876123644441364,-0.09432283603399992,0.7865785397306084
1772708510359927800,1.482927734375,4.141539833003282,2.8439003611162303,2.672614696910977
1772708510369953000,1.492953125,4.722721180090308,5.176728099638224,4.574558032797277
1772708510379979000,1.50297900390625,4.738671613416075,6.15422171767354,5.84289542235434
1772708510390005000,1.5130048828125,4.643747596618533,5.881004495996237,6.6078633110404015
1772708510400031000,1.523031005859375,4.7322407035857434,4.960936061969399,7.087803713268041
1772708510410057200,1.53305712890625,5.205560810890794,4.010771764886379,7.1679767356574535
1772708510420083200,1.543083251953125,6.324354412451386,3.1498695133164523,6.805342862427234
1772708510430108400,1.5531083984375,8.041840467870236,2.720228096479177,6.271987680876254
1772708510440134400,1.563134521484375,9.63887526652515,3.0980092699587343,5.572919374555349
1772708510450160400,1.573160400390625,10.50515015104413,3.5014725817054506,4.948754625788331
1772708510460186400,1.583186279296875,10.87044710600376,3.770833127954602,4.241567894941568
1772708510470212000,1.593212158203125,11.083771876776218,4.154303745247423,3.2041631213009354
1772708510480238000,1.603238037109375,11.171321565413475,4.400279324255884,2.198342111186683
1772708510490264000,1.61326416015625,10.901662913000584,4.467946208554506,1.4219931429170072
1772708510500289300,1.623289306640625,10.065499673628807,4.322173755790293,1.0999684895813464
1772708510510315300,1.633315185546875,8.928778785711526,3.899816650742292,1.0918521108821033
1772708510520341500,1.643341552734375,8.234782960349321,3.1727997225269675,1.2540481674417852
1772708510530367500,1.653367431640625,8.14711052211523,2.7426544478207826,1.330657652130723
1772708510540393500,1.6633935546875,8.062116363179683,2.60635475680083,1.3937750564314424
1772708510550419500,1.67341943359375,7.644160415700077,2.1649179804906247,1.8084848615966735
1772708510560444400,1.6834443359375,7.059872334769368,1.532322380247712,2.2207868749678132
1772708510570470400,1.693470458984375,6.827385767409205,1.0005807713732122,2.2277190123185515
1772708510580496400,1.703496337890625,7.2690446620374916,0.6091504272475838,2.096023892484605
1772708510590522400,1.7135224609375,8.189359764301777,0.5801929205715656,1.913192898044735
1772708510600548400,1.72354833984375,9.20734847433269,0.9296583924099803,1.4701318815335631
1772708510610574300,1.73357421875,9.763666013798117,1.3068342934727668,0.9980505953084677
1772708510620599300,1.743599365234375,9.84298037353158,1.6600795761108398,0.7787899316810071
1772708510630625300,1.753625244140625,9.81153426491022,2.040686036144197,0.5294994559708982
1772708510640651300,1.7636513671875,9.608955344557762,2.3879358777597544,0.2237542487196624
1772708510650677200,1.77367724609375,9.217030494913459,2.7106866534128784,-0.0986784008949995
1772708510660703200,1.783703125,8.889055847132205,2.9497578598603607,-0.3523463610369712
1772708510670729500,1.7937294921875,8.576779703742265,3.287960763928294,-0.5984559416886419
1772708510680755500,1.80375537109375,8.131323170396685,3.8844106995567675,-0.8646160844612866
1772708510690780400,1.813780517578125,7.383610367894172,4.501529036943614,-1.3323665018752215
1772708510700806400,1.823806396484375,6.6171607162177555,5.173183558899164,-2.167819547151029
1772708510710832400,1.833832275390625,5.805216556823253,6.102948626554012,-3.226400964333117
1772708510720858400,1.8438583984375,4.876570264065266,6.597488047498464,-4.14555432934165
1772708510730884400,1.85388427734375,4.075186077129841,6.520594777432084,-4.651197035841643
1772708510740910300,1.863910400390625,3.233963216280937,6.136549282860756,-4.343979052624106
1772708510750935300,1.873935302734375,2.47885445830822,5.60893059913516,-3.4200454676017165
1772708510760961300,1.883961181640625,1.787393704381585,4.653760164327919,-2.078169817494601
1772708510770987300,1.8939873046875,0.1083159978121519,2.631264157129824,-0.24972276618015019
1772708510781013200,1.90401318359375,-3.768091720291972,-2.2238021311357614,3.4057606294006106
1772708510791039200,1.914039306640625,-7.510180399799347,-9.375967257416248,7.4937927441000936
1772708510801065200,1.924065185546875,-6.979683530288934,-13.090070782411098,7.897000035259127
1772708510811090200,1.934090087890625,-5.5609372603386635,-13.157351590001582,4.946327106380462
1772708510821116200,1.9441162109375,-7.390667885190248,-11.185613125616312,1.3314504099436104
1772708510831142100,1.95414208984375,-12.868126651853322,-6.54393239839971,-2.0083127296753225
1772708510841168400,1.96416845703125,-20.29999163982868,-3.3511946342155334,-4.19988213185668
1772708510851194400,1.9741943359375,-20.158722051441668,-3.7246395320564507,-4.231012598657608
1772708510861220400,1.984220458984375,-20.055535233211515,-4.03965883667469,-4.28845005762577
1772708510871246300,1.994246337890625,-19.990302590322493,-4.265339523412287,-4.34378557587862
1772708510881271300,2.004271240234375,-19.957405698370934,-4.382710934339463,-4.357084325651824
1772708510891297300,2.01429736328125,-19.948235718965527,-4.392197140087187,-4.28253878775537
1772708510901323300,2.0243232421875,-19.955794756042955,-4.316640963843464,-4.088642940074205
1772708510911349200,2.034349365234375,-9.759207280823588,-8.042389333924651,-1.1038397780567406
1772708510921375200,2.044375244140625,-2.003188080137968,-6.386641649538278,1.5858170929394662
1772708510931401200,2.054401123046875,3.672823420101404,-4.784776654247939,3.318912659291923
1772708510941426200,2.06442626953125,7.841693158578872,-3.539114037835598,3.342243850518763
1772708510951452200,2.0744521484375,10.334396109497547,-1.0155755114093423,1.3015404248483478
1772708510961478100,2.08447802734375,10.603524016034603,2.1848758958920835,-1.2221133985206485
1772708510971504000,2.094504150390625,8.475394966498017,4.591701475299894,-2.8638328498154877
1772708510981530000,2.104530029296875,5.250007855382561,5.5319625102669,-3.2087925346672534
1772708510991556400,2.114556396484375,2.354516130977869,5.752824106284976,-3.0655595372527835
1772708511001581300,2.124581298828125,0.2450496963351965,5.143115752893686,-1.9596685257546602
1772708511011607300,2.134607177734375,-0.2813034974992275,3.652601008544862,0.38111367890313264
1772708511021633300,2.14463330078125,1.3534493296533823,3.0181638720884916,2.3681857598900793
1772708511031659300,2.1546591796875,4.625909157589078,3.669755849224329,3.210928669913113
1772708511041685200,2.164685302734375,7.417145557749271,4.1574738997161385,4.184526741814613
1772708511051711200,2.174711181640625,9.0453172529459,4.093216239339113,5.136671983581781
1772708511061736400,2.184736328125,9.155341808241605,3.9640357326745983,5.406219576835632
1772708511071762400,2.194762451171875,8.122576969361305,3.2507197052925823,5.40866521642208
1772708511081788400,2.204788330078125,7.142085338553786,2.206192678556591,5.203952791172266
1772708511091814400,2.214814453125,6.483221616849303,1.3736679418176412,4.368975838975608
1772708511101840400,2.22484033203125,6.3559098266661165,0.8208281614653765,3.9052135413497684
1772708511111866000,2.2348662109375,6.229225812992453,0.45586891402751206,3.8657279186576603
1772708511121891300,2.244891357421875,6.047424307730793,-0.029057898310571907,3.830708043202758
1772708511131917300,2.254917236328125,5.722814167946577,-0.5794190135896206,3.9208538858130573
1772708511141943300,2.264943359375,5.38261249127686,-0.94539474459365,3.8197026650637387
1772708511151969300,2.27496923828125,5.0709156090795995,-1.273666767886281,3.4691356617242097
1772708511161995300,2.284995361328125,5.122409649473428,-1.4314301026955245,2.8986788300082087
1772708511172021500,2.295021484375,5.66019842955768,-1.3633559527702628,2.0514605281367895
1772708511182047500,2.305047607421875,6.050234104454517,-1.1428031304404138,1.1587769446417688
1772708511192072400,2.315072509765625,6.267556420430541,-0.6362411171384156,0.40868221543878314
1772708511202098400,2.325098388671875,6.402982543486356,0.13141703354492784,-0.13145312777161597
1772708511212124400,2.33512451171875,6.19133593505919,0.8551179690800607,-0.14099983153492213
1772708511222150400,2.345150390625,5.8366708487510675,1.5834421805016696,0.18435352783203124
1772708511232176400,2.35517626953125,5.482028558796644,2.1842552797757087,0.6818155582249165
1772708511242202400,2.365202392578125,5.218096467337012,2.5365458920374513,1.3292185592383146
1772708511252227300,2.375227294921875,5.38833788318634,2.5895517982989547,1.8416902349755166
1772708511262253300,2.38525341796875,5.8359156464695925,2.56315186715126,1.9342545369043944
1772708511272279300,2.395279296875,6.238368319869041,2.47208335673809,1.9278144208543002
1772708511282305300,2.40530517578125,6.492275860920548,2.258844510683417,1.8705659085869788
1772708511292331300,2.415331298828125,6.6962021042287345,2.268999409472942,1.5488886073842645
1772708511302357200,2.425357177734375,6.717253660085797,2.7361241692692038,0.780849202298373
1772708511312382200,2.43538232421875,6.326998789480328,3.11697554397434,-0.06492343080937862
1772708511322408200,2.445408203125,6.384243940746784,3.3643484225600955,-0.7037235847808421
1772708511332434200,2.45543408203125,6.479820868495106,4.181523468345404,-1.426802150633931
1772708511342460400,2.46546044921875,5.8709068803519004,4.92255343208313,-1.3681037318192422
1772708511352486400,2.475486328125,4.079130430841445,4.7610365899592635,-0.5669879865616559
1772708511362512400,2.485512451171875,0.6235170985132455,2.9977985449299216,0.5333734478600323
1772708511372537300,2.495537353515625,-4.377090464109182,-1.45705466555655,2.1188421657532452
1772708511382563300,2.505563232421875,-8.131445919993519,-6.692449473696946,3.5118031293228267
1772708511392589300,2.51558935546875,-8.684890534371137,-7.8946555179595945,1.8928392613239586
1772708511402615300,2.525615234375,-14.676278482103347,-8.787627270746231,-1.0860062343981116
1772708511412641500,2.5356416015625,-14.617321266222,-9.02595730343759,-1.213942805416137
1772708511422667500,2.54566748046875,-14.579093534636497,-9.207372439730166,-1.2486818181030452
1772708511432692500,2.5556923828125,-14.562074595296382,-9.301435455784201,-1.2130804164331406
1772708511442718500,2.565718505859375,-14.56334651492834,-9.30207200012207,-1.1671350231423974
1772708511452744400,2.575744384765625,-14.577159936225414,-9.241409733888506,-1.102067873013392
1772708511462770400,2.5857705078125,-14.602691852366924,-9.138314101073146,-0.9891578984744847
1772708511472796400,2.59579638671875,-14.644070156937836,-8.993515754038095,-0.8121464770335703
1772708511482822400,2.605822509765625,-14.700253231930732,-8.841484533140063,-0.5556177206330001
1772708511492847400,2.615847412109375,-14.75475405292511,-8.73889568080306,-0.291018397436291
1772708511502873300,2.625873291015625,-8.267174240866304,-14.931726238334178,-5.630739110839366
1772708511512899300,2.6358994140625,-2.992759673979878,-12.635444854182005,-2.0387347559459505
1772708511522925300,2.64592529296875,0.11573065798282622,-9.215599000805616,-0.06189604581221938
1772708511532951300,2.655951416015625,1.9501579162180422,-6.1535495175004,1.398715581573546
1772708511542977300,2.665977294921875,3.1714667203575373,-3.1269799283772706,1.988982444652915
1772708511553002200,2.676002197265625,4.150767095553875,0.11056282689087092,1.9020674006573854
1772708511563028200,2.6860283203125,3.9423084695130584,3.0989564876809714,0.3691337566435337
1772708511573054200,2.69605419921875,2.7835394159168003,4.745950664508342,-1.3414049638554453
1772708511583080400,2.70608056640625,2.0804022527217865,4.831678106154501,-1.8811247120022772
1772708511593106400,2.7161064453125,3.2587352539658543,4.956140059864521,-1.1078906608827412
1772708511603132400,2.72613232421875,5.919599891850352,4.816202889125049,0.2281375053051859
1772708511613157600,2.73615771484375,8.922977990478277,4.635560198509693,0.9966145711559802
1772708511623183600,2.74618359375,11.514251205742358,4.7349236590594055,1.1138081412982195
1772708511633209300,2.756209228515625,13.418410756373405,4.763660508722067,0.6937846668295562
1772708511643235300,2.7662353515625,14.280850592774152,4.5005473324298855,0.266648912670277
1772708511653261300,2.77626123046875,14.199303943943976,4.7149844483584165,-0.1836282822974026
1772708511663287300,2.786287353515625,13.625587525910138,4.986763746187091,0.2959041236512363
1772708511673312500,2.7963125,12.329522463732957,4.822503742834925,1.2918793009251355
1772708511683338500,2.80633837890625,10.37012559452653,4.209797376671434,2.0750889487445354
1772708511693364500,2.816364501953125,9.026382835373282,3.474118126311898,2.733175256335735
1772708511703390500,2.826390380859375,8.715852074345946,2.7841560865104196,3.221097012706101
1772708511713416400,2.83641650390625,8.623178466823697,1.8442862428180873,3.574379412484169
1772708511723442400,2.8464423828125,8.955941517925261,0.8555246501848102,4.029905796684324
1772708511733467400,2.85646728515625,9.14080533336699,0.2390980944544077,4.318320002971589
1772708511743493400,2.866493408203125,8.902729567697644,-0.23468232383877038,4.734504264603555
1772708511753519400,2.876519287109375,8.761329046407342,-0.6572296907618641,4.970672443085909
1772708511763545600,2.886545654296875,9.000130203741788,-0.530198763346672,4.522063583189249
1772708511773571600,2.896571533203125,8.9845380823344,-0.40602819379866123,3.541633619441092
1772708511783597600,2.90659765625,8.613793967884778,-0.0657131198823452,2.26627539133653
1772708511793622500,2.91662255859375,7.893180184710025,0.520862487463653,0.9565968143485486
1772708511803648500,2.9266484375,6.590219517800212,1.220023440504074,0.10255173519700765
1772708511813674500,2.936674560546875,5.439977469530701,2.125835970163345,-0.42751536459401246
1772708511823700500,2.946700439453125,5.065246915793419,2.9593960412994025,-0.9497831157457083
1772708511833726500,2.9567265625,5.0362949620753525,3.5484979522526263,-1.0732084198843688
1772708511843752400,2.96675244140625,5.440965896046161,4.169500145335495,-0.6775337161872536
1772708511853777400,2.97677734375,6.074702190756797,4.549379460138082,0.06911569486744701
1772708511863803400,2.986803466796875,6.771900027030706,4.595833168277144,0.5053321061808616
1772708511873829400,2.996829345703125,7.383246210756898,4.650487134006619,-0.040333142899535594
1772708511883855400,3.00685546875,7.104725621974468,4.75747129869312,-1.5522972467839717
1772708511893881300,3.01688134765625,5.866870172181725,4.997303260380029,-3.7019121519416567
1772708511903907300,3.0269072265625,4.037336531206965,5.047008663791418,-5.768543068942427
1772708511913932300,3.036932373046875,2.409878537237644,5.330096706619859,-6.584700462117791
1772708511923958300,3.046958251953125,2.2957108907878396,6.092258890235423,-6.085171562322974
1772708511933984500,3.056984619140625,2.777202614110708,6.525838523304462,-5.125649654307961
1772708511944010500,3.067010498046875,2.737797070917487,6.102713064232468,-4.161805791440606
1772708511954036500,3.077036376953125,2.3881875144332647,5.098729498678446,-2.6771242832899094
1772708511964062500,3.0870625,0.7908359049141407,3.5134845065385103,-0.23799524777904152
1772708511974087400,3.09708740234375,-1.731615118536353,-0.12087678869962691,3.052818713623285
1772708511984113400,3.107113525390625,-3.3837165553748605,-5.880762503933906,6.135342245158553
1772708511994139400,3.117139404296875,-2.8599223983734845,-11.886584635210037,7.844817428079247
1772708512004165400,3.127165283203125,-2.681940159139037,-12.823670255011319,5.914156824013591
1772708512014191400,3.13719140625,-8.460222531807423,-12.458617630201577,4.584299674610794
1772708512024217300,3.14721728515625,-12.189731715726852,-10.316492204016447,-1.994148887505382
1772708512034242300,3.1572421875,-12.158988202416896,-10.582400563985109,-1.6098485413901507
1772708512044268300,3.167268310546875,-12.127332834959029,-10.875823538345099,-1.3009718311801552
1772708512054294300,3.177294189453125,-12.07356383537054,-11.189172863924503,-1.1455495065391064
1772708512064320300,3.1873203125,-12.010381695270537,-11.477644937878846,-1.1099509544134138
1772708512074346200,3.19734619140625,-11.967319967657327,-11.688130101311206,-1.0965224407806993
1772708512084372500,3.20737255859375,-11.970958031898736,-11.792614558136462,-0.9924826589830219
1772708512094397200,3.217397216796875,-12.023817515426874,-11.805223864340782,-0.7761755113989114
1772708512104423400,3.22742333984375,-12.11090192463994,-11.778327674108743,-0.489288076287508
1772708512114449400,3.237449462890625,-9.494994618856907,-6.461631131809949,0.38599253698587416
1772708512124475400,3.247475341796875,-4.134371256548166,-5.236114354586601,-0.03808189337402582
1772708512134501400,3.25750146484375,1.0948539230465888,-3.84470968054831,-1.128837441191077
1772708512144527400,3.26752734375,4.135699874803423,-1.2761803581424056,-1.7231512415736914
1772708512154552600,3.277552490234375,5.649950591787696,1.2082771808698773,-2.1465783139407635
1772708512164578600,3.28757861328125,6.376369846370816,2.455022916343808,-2.3706439666971564
1772708512174604300,3.297604248046875,7.015725150007009,3.0690532245874405,-1.2435624292626977
1772708512184630300,3.30763037109375,8.55269506379962,3.7176755382627245,1.3460764627978206
1772708512194656300,3.31765625,10.494957258331775,4.008671577736735,4.072136918692291
1772708512204682200,3.32768212890625,12.409009257423877,3.9478102817997334,6.129436820507049
1772708512214707500,3.33770751953125,14.463323129165172,4.614474448122084,7.3165423262715334
1772708512224733400,3.3477333984375,16.31262997662425,5.477096363091468,7.417249602645636
1772708512234759400,3.357759521484375,17.25419303410053,6.533328586798906,6.394131713032722
1772708512244785400,3.367785400390625,16.839208211386204,7.741161238771676,5.034679928094149
1772708512254811600,3.377811767578125,15.335603976100682,8.192874494424462,4.332154174795747
1772708512264837400,3.38783740234375,13.278050684046745,7.511043154108524,4.402262899288535
1772708512274862600,3.397862548828125,10.950733525639771,6.691405517601966,4.321244073724746
1772708512284888600,3.407888671875,8.601247790044546,5.859914946216344,4.4112610292583705
1772708512294914600,3.41791455078125,7.1236138623178,4.884802962620556,4.715255374254286
1772708512304940500,3.4279404296875,6.8137354277193545,4.0804304075241085,4.24227341286242
1772708512314966500,3.437966552734375,6.579121200680732,3.4733085634946823,3.1539646736755964
1772708512324992500,3.447992431640625,6.173219848132133,2.4768723445802925,2.2506942297145724
1772708512335017500,3.458017578125,6.569640840151906,1.1810266242422163,1.634303475949913
1772708512345043500,3.46804345703125,7.44098236041069,0.3224121913485229,1.3671531530961394
1772708512355069400,3.4780693359375,8.205885367166996,-0.21859730434790253,1.5595269057765602
1772708512365095400,3.488095458984375,8.723459626740217,-0.6396227224007248,1.5383021853096783
1772708512375121400,3.498121337890625,8.82487359007895,-0.8250957557819784,1.357620916249603
1772708512385147400,3.5081474609375,8.53452929251194,-0.6836984493620694,1.1924001050412654
1772708512395172400,3.51817236328125,8.249914478507637,-0.2649525205485523,0.9556003506571054
1772708512405198300,3.5281982421875,8.059556741824746,0.6288534911051392,0.48264410822838544
1772708512415223600,3.5382236328125,7.500996391868591,1.4323434181481598,-0.3142845971355214
1772708512425249500,3.54824951171875,6.635796443104743,1.6763740005686878,-0.9572926145929843
1772708512435275500,3.558275634765625,6.138198219111562,1.8944965270116925,-1.1729005278665572
1772708512445301800,3.5683017578125,6.006800620919465,2.3728598891809582,-1.0188774024989455
1772708512455326500,3.578326416015625,6.304562501266599,2.6957547494798897,-0.5912203644119203
1772708512465352700,3.588352783203125,6.916462811744212,2.841136741621792,0.0995648283407092
1772708512475378700,3.598378662109375,7.4970426858067505,2.916509377992153,0.9027982233393936
1772708512485404700,3.60840478515625,7.988844206219911,3.02235401725471,1.5948415263943374
1772708512495430700,3.6184306640625,8.202979124331474,3.2633754809871314,1.607670028307289
1772708512505455600,3.62845556640625,7.969995713365077,3.4819726392045616,0.7302781219683587
1772708512515481600,3.638481689453125,7.254483637243509,3.854113468709588,-0.6094444417580962
1772708512525507600,3.648507568359375,6.455041816547513,4.367621209496259,-1.5581689152963458
1772708512535533600,3.658533447265625,5.5245618786215775,4.652852109572291,-2.0962651538945734
1772708512545559600,3.6685595703125,4.691913953894376,4.265901541209221,-1.9441649594135582
1772708512555585500,3.67858544921875,4.050321100464463,3.272745659139752,-0.9321943406283855
1772708512565610800,3.68861083984375,3.133010440713167,0.2661713948190212,0.8779407723933458
1772708512575636700,3.69863671875,2.881106056177616,-4.4822970977291465,3.1637975009039043
1772708512585662700,3.708662841796875,3.1548528546869754,-7.981413179436325,4.2590269792646165
1772708512595688700,3.718688720703125,2.7001971158415077,-8.432201136937737,1.7414214961491523
1772708512605714400,3.72871435546875,-3.144690941634774,-6.662495064938068,-5.004098911869526
1772708512615740700,3.73874072265625,-19.183809682071207,-1.039720064845681,-15.348209775173663
1772708512625765600,3.748765625,-38.01691792076826,5.6580538187444205,-22.963828571522235
1772708512635792000,3.7587919921875,-37.96095111887455,5.155718629357218,-23.08720711390972
1772708512645817900,3.76881787109375,-37.91907129452228,4.798816870038211,-23.28253328665495
1772708512655843800,3.77884375,-37.901294814813134,4.610613096518814,-23.40205866074562
1772708512665869800,3.788869873046875,-37.9084493627429,4.577735493789613,-23.362306496071813
1772708512675895800,3.798895751953125,-37.93657655607462,4.654992628732323,-23.190630078983304
1772708512685920800,3.808920654296875,-37.981895707225796,4.789523556514084,-22.951745335018632
1772708512695946800,3.81894677734375,-38.035524421560766,4.93562626414597,-22.712509877920148
1772708512705972700,3.82897265625,-38.08692260036468,5.05026737332642,-22.511824808490275
1772708512715998700,3.838998779296875,-9.565720013943315,-7.91926272047162,-0.43007425529658794
1772708512726024700,3.849024658203125,-4.350735541146993,-6.870772489193081,0.5096241773515939
1772708512736049700,3.859049560546875,-2.6437474988669156,-4.4124829722687595,-0.318089798104763
1772708512746075600,3.86907568359375,-2.292994617566466,-1.6739362520277499,-0.3051847238242626
1772708512756101600,3.8791015625,-1.7871750931948422,1.200949468330294,-0.05955693534016609
1772708512766127600,3.889127685546875,-0.8410060032278299,3.0393025217071172,0.40490635016188026
1772708512776153600,3.899153564453125,0.8459469667613506,3.9236207201778885,1.0434529677636921
1772708512786179800,3.909179931640625,3.1867782712578774,4.130412582050264,1.31380837026909
1772708512796204500,3.91920458984375,4.875375501322746,3.84412194378823,0.5556421244218945
1772708512806230800,3.929230712890625,6.0798173418134445,3.1127444822758434,-0.47194954960420726
1772708512816256800,3.9392568359375,7.924911540013551,2.688389189147949,-0.7498940920643508
1772708512826282800,3.94928271484375,9.981890831571818,2.7825597572296856,-0.3786478733114898
1772708512836308700,3.959308837890625,11.393380262261628,3.475857663455605,0.08707892932035029
1772708512846334700,3.969334716796875,11.94080956187248,4.2928719657212495,1.1641492853298783
1772708512856359700,3.979359619140625,12.416722608280182,5.862390396419167,1.624619847933948
1772708512866385700,3.9893857421875,12.447559645092486,7.479670695245265,1.7824452881939707
1772708512876411600,3.99941162109375,12.978359296941756,8.364957738748192,2.3006074306577444
1772708512886437600,4.009437744140625,12.723804690158367,8.293454929548501,2.898331039483845
1772708512896463600,4.019463623046875,11.583987005269528,7.481877849900722,3.1310233585491773
1772708512906488600,4.029488525390625,11.008763689804077,6.23614947477579,3.32533363225013
1772708512916514600,4.0395146484375,10.920604929357767,4.869064126218855,3.7252827983960506
1772708512926540500,4.04954052734375,11.358319470274449,3.7143691901937124,4.364449885983765
1772708512936566500,4.05956640625,11.66070667233467,3.002913111464679,4.946932671058177
1772708512946592500,4.069592529296875,10.845185238975287,2.661741712979972,5.450998629760742
1772708512956618500,4.079618408203125,10.521548328137397,1.9566724126785993,6.502377568218112
1772708512966643500,4.0896435546875,11.859114444482326,1.5093988930389284,5.9092708055377
1772708512976669400,4.09966943359375,12.13718085975647,1.2907362683698533,4.939181326279044
1772708512986695700,4.10969580078125,12.892746713846922,1.2655232089191675,3.7967809314206242
1772708512996721700,4.1197216796875,13.380919522368908,1.8164350899487733,2.470724051083624
1772708513006747600,4.12974755859375,13.532116630530357,2.66917770819962,1.3219738488070667
1772708513016773600,4.139773681640625,13.430730139720438,3.635546121108532,0.12732563604544847
1772708513026798800,4.149798828125,12.945759342110156,4.798090601590276,-0.7014343778651208
1772708513036824600,4.159824462890625,12.253463306403159,5.9770250758588315,-0.8637100755322724
1772708513046850600,4.1698505859375,11.642775878846646,6.799932527816296,-0.2763431168791838
1772708513056876500,4.17987646484375,11.153155794125794,7.101175236016512,0.7329941029287874
1772708513066902500,4.189902587890625,10.655679735207556,7.024496485483646,1.9125602992296218
1772708513076928500,4.199928466796875,10.119980620878934,7.0007391777992245,2.7280194810077547
1772708513086953700,4.20995361328125,9.29336437753141,7.408172562220692,3.1724656682670114
1772708513096979700,4.219979736328125,8.368072655898333,8.003783416676521,3.28887232581526
1772708513107005700,4.230005615234375,7.613294152793288,8.880426550474763,2.726761882162094
1772708513117031700,4.24003173828125,6.552988980558514,9.603013095027208,1.6254598058894276
1772708513127057700,4.2500576171875,5.254128150182962,9.271177680164575,0.7206851679105312
1772708513137082600,4.26008251953125,4.6538294301718475,8.644988147571683,-0.46298696587178856
1772708513147108600,4.270108642578125,5.2224710291594265,7.600016153547167,-2.0657908129148184
1772708513157134800,4.280134765625,4.996430569198727,5.736633434462547,-3.3639074007943273
1772708513167160800,4.290160888671875,2.3498680129110814,2.8330490044951437,-3.6537884647637604
1772708513177186800,4.300186767578125,-2.206199546688795,-2.2150389789655804,-1.8075515262693165
1772708513187212800,4.310212890625,-5.800177978134155,-7.5584981482446185,0.7999247819073497
1772708513197237800,4.32023779296875,-5.125983416306973,-8.8020474257648,-0.14521854520849883
1772708513207263700,4.330263671875,-4.499873963212966,-6.694654290264845,-6.601777853646874
1772708513217289700,4.340289794921875,-11.271814906775951,-4.1766923949271435,-14.557334122771024
1772708513227315700,4.350315673828125,-24.69500939029455,-0.17239859388321638,-20.061546456325054
1772708513237341700,4.360341796875,-24.689821174001693,-0.4808174042578786,-19.955792417955397
1772708513247366700,4.37036669921875,-24.692241094624993,-0.6629177463356405,-19.920209063398836
1772708513257392600,4.380392578125,-24.69579031153917,-0.7755195317082106,-19.91818895574808
1772708513267418600,4.390418701171875,-24.698729287600514,-0.8579732123807072,-19.881948598587513
1772708513277444600,4.400444580078125,-24.699105719697474,-0.8808484765335917,-19.747894348406792
1772708513287470600,4.410470703125,-24.69911273396015,-0.7994498578719794,-19.49735189987421
1772708513297496600,4.42049658203125,-24.708376236867903,-0.6261791573293507,-19.165187983709572
1772708513307521500,4.430521484375,-24.732238758492468,-0.41031255658697335,-18.829549669432637
1772708513317547500,4.440547607421875,-24.764469295489786,-0.19239013755964113,-18.557582155555487
1772708513327573800,4.45057373046875,-24.793489638268944,-0.011513875650428235,-18.382342493027448
1772708513337599700,4.460599853515625,-6.875093859523535,1.0534264455717057,7.158567686799168
1772708513347625700,4.470625732421875,-1.928774351927638,0.3906732421480119,8.00593036557734
1772708513357651700,4.480651611328125,1.9764555560350416,0.47325906130019574,7.257665189889073
1772708513367676700,4.4906767578125,4.918193483307958,1.4133341817736624,5.921591357928514
1772708513377702700,4.50070263671875,6.648469462195038,2.549521108944714,5.254737806513905
1772708513387728600,4.510728759765625,7.937890848574042,3.217826904994249,4.801400456790626
1772708513397754600,4.520754638671875,8.591136730396746,3.9475156827673312,4.275429832533002
1772708513407780600,4.530780517578125,9.140849757030606,3.952234820243716,4.1840939033553
1772708513417806300,4.540806396484375,9.468254495969415,3.6831414004981515,4.066393698865175
1772708513427832600,4.55083251953125,9.588775310838223,2.8552906469196078,4.37823145083785
1772708513437858600,4.560858642578125,10.34688734228015,1.5212917215369641,4.422354085680842
1772708513447884500,4.570884521484375,11.5675128403306,0.9134606332596391,4.1867765665680166
1772708513457910500,4.58091064453125,12.726767047095297,1.0835625675730407,4.307972504219412
1772708513467936500,4.5909365234375,13.973783708465099,1.803163374312967,4.619039856341481
1772708513477961500,4.60096142578125,15.00585764247179,2.694840849505365,4.854419222533703
1772708513487987500,4.610987548828125,15.257646291673183,3.4027602785408493,5.227134929317236
1772708513498013400,4.621013427734375,14.817945545375347,3.8899014059275387,5.43065492991209
1772708513508039400,4.631039306640625,13.700112897801398,4.036950162237883,5.5299394800066946
1772708513518065400,4.6410654296875,12.178361595928669,3.3213679434895513,5.559435623604059
1772708513528090400,4.65109033203125,10.39669795963168,2.2224724899671973,4.795150164224207
1772708513538116400,4.661116455078125,8.885750375846028,1.2751673817075788,3.5171541349619626
1772708513548142300,4.671142333984375,7.87599582567513,0.10635529219843447,2.5885443748220798
1772708513558168300,4.681168212890625,6.768450178837776,-1.1153270944938063,2.202407022538036
1772708513568194300,4.6911943359375,5.711293241500854,-2.2134537556007503,2.329116316783428
1772708513578220500,4.701220458984375,5.288880314612388,-2.8370468419596553,2.253110789337009
1772708513588245500,4.71124560546875,5.442413756766915,-2.8847531805083153,2.1354005018442868
1772708513598271500,4.721271484375,5.997072423109412,-2.301858453632146,1.990865774181485
1772708513608297500,4.73129736328125,6.515581333184242,-1.2112702982712535,1.6015844247832893
1772708513618323500,4.741323486328125,6.607513766950368,-0.06300371479317546,1.214565978815779
1772708513628349400,4.751349365234375,6.46407443330884,1.2555249619960784,0.61896053118743
1772708513638374700,4.761374755859375,6.155536307403445,2.129069106865674,-0.004671133616194129
1772708513648400600,4.771400634765625,5.872439496746659,2.52326906183511,-0.8927415972925722
1772708513658426600,4.781426513671875,6.119777596279978,2.7118787858068942,-1.6934595754042268
1772708513668452600,4.79145263671875,6.78511431339085,2.1637354927077888,-1.9069602872654794
1772708513678478600,4.801478515625,7.177807224798202,1.1127787251852452,-1.9969041775628924
1772708513688504600,4.811504638671875,7.553208809664845,0.5436150020197034,-2.3606273073345423
1772708513698529500,4.821529541015625,7.421391524755954,0.3500865994114429,-2.45026373911798
1772708513708555500,4.831555419921875,6.6126552214920515,0.45748752820529043,-2.0598624457791446
1772708513718581500,4.84158154296875,5.539741327574848,0.831228924774751,-1.6892507255375384
1772708513728607500,4.851607421875,4.630927862533927,1.2727711342208086,-1.574227339041233
1772708513738633500,4.861633544921875,4.134864593023061,1.7113759019754826,-1.6986916308388114
1772708513748658400,4.871658447265625,4.3834991621077055,2.028265384379774,-2.112769421710819
1772708513758684400,4.881684326171875,4.727269929435849,2.2347174929037688,-3.050806789278984
1772708513768710700,4.891710693359375,4.232962563681602,2.3508728060394524,-3.3129455675810573
1772708513778736600,4.901736572265625,2.3544565097451207,1.399213009701669,-2.273037578947842
1772708513788762600,4.9117626953125,0.2913905917495489,-0.2909133296266198,-0.13651126967770977
1772708513798788600,4.92178857421875,-1.8584481852918862,-3.774009419903159,3.389525533914566
1772708513808813600,4.9318134765625,-1.8025018416643142,-8.079563757064937,6.6762488650023935
1772708513818839600,4.941839599609375,2.0707769307643176,-6.594023001736402,4.474158507198095
1772708513828865500,4.951865478515625,2.3806962818950415,-5.601093914160132,1.7381997576236723
1772708513838891500,4.9618916015625,-2.079918268597126,-4.8870279451936485,-2.1362435285396875
1772708513848917500,4.97191748046875,-9.22765827191174,0.6529284864366054,-7.935306092777847
1772708513858942500,4.9819423828125,-18.70157093977332,4.123418777640164,-8.837412753656507
1772708513868968400,4.991968505859375,-18.678399323022365,3.9477798866614697,-8.844531645751
1772708513878994400,5.001994384765625,-18.67160250248909,3.897421864560246,-8.95719473285675
1772708513889020400,5.0120205078125,-18.673889152121543,3.9071325267136094,-9.117578771558403
1772708513899046400,5.02204638671875,-18.678675217354296,3.9238095207482573,-9.245326615071296
1772708513909072400,5.032072265625,-18.682378748047352,3.943539472612738,-9.288303002488613
1772708513919097300,5.042097412109375,-18.686178140330313,3.9843481606021522,-9.247481162756682
1772708513929123300,5.052123291015625,-18.69248863865137,4.0521608831122515,-9.141070121783018
1772708513939149600,5.062149658203125,-8.95827668287456,-5.348780364301801,-0.6116522540006786
1772708513949175600,5.072175537109375,-8.054533360704779,-4.963918877172469,-1.110234520595148
1772708513959201500,5.082201416015625,-7.572499785590171,-4.454618524947763,-0.7718675120066851
1772708513969226500,5.0922265625,-6.8582824254542585,-4.75107487565428,0.4224967692470178
1772708513979252500,5.10225244140625,-6.005620471224188,-4.628655241426825,1.7271860500477254
1772708513989278500,5.112278564453125,-4.677579723593593,-4.182128156240284,2.577541042509675
1772708513999304400,5.122304443359375,-3.513320840409398,-3.6124893629088994,2.5844559364646673
1772708514009330400,5.132330322265625,-2.2958348094284533,-2.606786133955419,2.469597969663143
1772708514019356400,5.1423564453125,-1.1796253791421651,-1.566287047561258,2.105613850867748
1772708514029381600,5.152381591796875,-0.02239654072523117,-1.4392584582336245,2.1891130950704216
1772708514039407600,5.16240771484375,0.33007074327766894,-0.20682342605441809,-0.31509551165960725
1772708514049433300,5.172433349609375,-0.005767477485537529,-0.28495588252693416,-3.658548518772423
1772708514059459300,5.182459228515625,-0.5992179390370845,-0.6308706761464477,-5.706493147742748
1772708514069485300,5.1924853515625,-1.36787006919384,0.12051964582502842,-6.389799821308255
1772708514079510500,5.202510498046875,-1.7084551922231912,1.3695818415477872,-5.3405888745397325
1772708514089536500,5.21253662109375,-0.5035848971873521,2.998784341096878,-2.9869235151723026
1772708514099562500,5.2225625,0.7567974417120218,3.2533225812673567,0.5869095154754818
1772708514109588500,5.23258837890625,2.0438614513099194,2.200611517423391,2.5462679523676632
1772708514119614700,5.24261474609375,7.7409747762888665,-0.8548021811291575,3.6060707280382513
1772708514129639400,5.252639404296875,-0.983309610837698,-1.4494021049767731,2.5948580880135297
1772708514139665700,5.262665771484375,-4.5916392237186425,1.1619666805937885,-2.0765245345056056
1772708514149691600,5.272691650390625,-3.699685123541951,3.182315738891065,-4.571337901706993
1772708514159717600,5.282717529296875,-3.861291397514939,3.989939696998894,-4.032582906939089
1772708514169743600,5.29274365234375,-3.307060016673803,3.7866695795118805,-3.589429682099819
1772708514179769600,5.30276953125,-2.180531436946988,4.1675905123218895,-2.2121860737524925
1772708514199192600,5.322192626953125,-0.6173240890920162,5.08247686753571,-0.929217151448503
1772708514209218600,5.332218505859375,1.1142337462991476,4.743291966693103,0.4172899943841621
1772708514219244500,5.34224462890625,2.5741958237349984,3.777631117531657,1.2686971627801655
1772708514229270500,5.3522705078125,2.965869913488626,3.0200770122334357,1.345857559350133
1772708514239296500,5.362296630859375,2.232783602231741,2.6700968688711524,0.8401840923856944
1772708514249321500,5.372321533203125,1.37301736895442,3.0221053031906484,-0.0394248506818898
1772708514259347500,5.382347412109375,0.7973995012134313,3.5962203651532527,-0.6218995803140104
1772708514269373400,5.39237353515625,0.7485895853370428,3.880512815335393,-0.7365431737124919
1772708514279399400,5.4023994140625,1.0598884081274271,3.6615725427687167,-0.6889612652610987
1772708514289425700,5.41242578125,1.720326247280836,3.258907687923312,-0.51388146946989
1772708514299450400,5.422450439453125,2.383180499926209,2.926703147487342,-0.2887055904492736
1772708514309476600,5.4324765625,2.7594840020686386,2.7446219485014676,0.12171023471592925
1772708514319502600,5.442502685546875,3.0114860017597676,2.7629811965346334,0.4592032095493748
1772708514329528600,5.452528564453125,3.3266660498976703,2.743829921340942,0.54774636620339
1772708514339554600,5.462554443359375,3.516998067617416,2.522230658698082,0.6627323798313737
1772708514349580500,5.47258056640625,3.254616128209233,2.185029332888126,0.8375958294581621
1772708514359605500,5.48260546875,2.7836376155942677,2.1898364409089086,0.7426881062082946
1772708514369631500,5.492631591796875,2.369181785190105,2.2839713531553745,0.4164213583234697
1772708514379657500,5.502657470703125,2.1372481755375863,2.084904824838042,0.20545020147245377
1772708514389683500,5.512683349609375,2.3413199647963046,1.7300789950102566,-0.11202274337559938
1772708514399709400,5.52270947265625,2.7562060033112763,1.3193079905986784,-0.3892812763329595
1772708514409734400,5.532734375,3.022233021223545,1.0436147341966628,-0.04136809370415285
1772708514419760000,5.542760009765625,2.7448037348091603,0.8618851251274346,0.46055393003858625
1772708514429786000,5.5527861328125,2.14839383893013,0.924804230377078,0.7673527379959821
1772708514439812000,5.56281201171875,1.5361305403590202,1.0033259784281254,1.0599933298066258
1772708514449838000,5.572838134765625,0.9968664270251989,0.9402934759318828,1.2255023103065787
1772708514459863300,5.58286328125,0.7224211248576641,0.8405407238036393,0.9525342410847544
1772708514469889300,5.59288916015625,0.7712298716902732,0.5047001649528742,0.6025311917709186
1772708514479915300,5.602915283203125,0.7738537904530763,0.18680092098414897,0.04178301291428506
1772708514489941200,5.612941162109375,0.6256541105419396,0.029733459484577177,-0.5405663915714248
1772708514509367300,5.6323671875,-0.1262847852230072,-0.24002631521522996,-1.2041468030668794
