time,seconds_elapsed,z,y,x
1772709124084967200,0.00396728515625,-0.247283935546875,-0.4423980712890625,0.800994873046875
1772709124094992100,0.0139921875,-0.228057861328125,-0.4359588623046875,0.7719268798828125
1772709124105017000,0.02401708984375,-0.2002716064453125,-0.4111175537109375,0.8094482421875
1772709124115042300,0.034042236328125,-0.1909332275390625,-0.391632080078125,0.7781219482421875
1772709124125067300,0.0440673828125,-0.188812255859375,-0.3568572998046875,0.719512939453125
1772709124135092200,0.05409228515625,-0.1064605712890625,-0.205841064453125,0.8557891845703125
1772709124145117200,0.0641171875,-0.02197265625,-0.0165863037109375,1.0472412109375
1772709124155142400,0.074142333984375,-0.00457763671875,-0.01605224609375,1.0615386962890625
1772709124165167400,0.08416748046875,-0.1288604736328125,-0.1664276123046875,0.76751708984375
1772709124175192000,0.094192138671875,-0.2094879150390625,-0.3070220947265625,0.6419830322265625
1772709124185217000,0.104217041015625,-0.2941131591796875,-0.3393402099609375,0.5819549560546875
1772709124195242200,0.1142421875,-0.4090423583984375,-0.389251708984375,0.4864044189453125
1772709124205267200,0.12426708984375,-0.3902435302734375,-0.522735595703125,0.3138275146484375
1772709124215292200,0.134292236328125,-0.439483642578125,-0.59552001953125,0.25506591796875
1772709124225318100,0.144318115234375,-0.577301025390625,-0.506591796875,0.3380126953125
1772709124235342300,0.15434228515625,-0.6293792724609375,-0.40087890625,0.3743743896484375
1772709124245368300,0.164368408203125,-0.67901611328125,-0.373992919921875,0.35064697265625
1772709124255393300,0.174393310546875,-0.7335052490234375,-0.3443450927734375,0.3551788330078125
1772709124265418200,0.184418212890625,-0.8239898681640625,-0.2918701171875,0.369781494140625
1772709124275443200,0.194443115234375,-0.8928070068359375,-0.266876220703125,0.3362579345703125
1772709124285468200,0.20446826171875,-0.957244873046875,-0.239013671875,0.2633819580078125
1772709124295493000,0.2144931640625,-1.0569305419921875,-0.186431884765625,0.1892242431640625
1772709124305518000,0.22451806640625,-1.0852813720703125,-0.1583099365234375,0.156097412109375
1772709124315543300,0.234543212890625,-1.1080474853515625,-0.185394287109375,0.209136962890625
1772709124325568300,0.244568359375,-1.11328125,-0.2310791015625,0.22186279296875
1772709124335593200,0.25459326171875,-1.0810089111328125,-0.1852264404296875,0.191680908203125
1772709124345618200,0.2646181640625,-1.04901123046875,-0.1404266357421875,0.1652984619140625
1772709124355643400,0.274643310546875,-1.051910400390625,-0.10931396484375,0.1102142333984375
1772709124365668400,0.28466845703125,-1.045166015625,-0.086029052734375,0.0406951904296875
1772709124375693300,0.294693359375,-1.0637359619140625,-0.0471649169921875,0.003570556640625
1772709124385718000,0.304718017578125,-1.1253662109375,-0.0389862060546875,-0.050140380859375
1772709124395743200,0.3147431640625,-1.18072509765625,-0.031982421875,-0.0562591552734375
1772709124405768200,0.324768310546875,-1.2592620849609375,-0.0380401611328125,-0.061614990234375
1772709124415793200,0.334793212890625,-1.304718017578125,-0.055328369140625,-0.0933685302734375
1772709124425818000,0.344818115234375,-1.353668212890625,-0.056793212890625,-0.121612548828125
1772709124435843300,0.35484326171875,-1.3531646728515625,-0.0387115478515625,-0.1391143798828125
1772709124445868300,0.364868408203125,-1.3223114013671875,-0.0272979736328125,-0.142974853515625
1772709124455893200,0.374893310546875,-1.2762451171875,-0.0467529296875,-0.1430206298828125
1772709124465918200,0.384918212890625,-1.21307373046875,-0.0605010986328125,-0.1183624267578125
1772709124475943400,0.394943359375,-1.1502838134765625,-0.0623779296875,-0.077423095703125
1772709124485968100,0.404968017578125,-1.1129608154296875,-0.08673095703125,-0.0518035888671875
1772709124495993000,0.4149931640625,-1.097137451171875,-0.1295318603515625,-0.031768798828125
1772709124506018000,0.42501806640625,-1.1107940673828125,-0.131988525390625,0.0066070556640625
1772709124516043300,0.435043212890625,-1.032379150390625,-0.16351318359375,0.043243408203125
1772709124526068200,0.445068115234375,-0.9330291748046875,-0.149261474609375,0.0697784423828125
1772709124536093200,0.45509326171875,-0.902984619140625,-0.1595916748046875,0.095489501953125
1772709124546118100,0.4651181640625,-0.817596435546875,-0.1915130615234375,0.0975341796875
1772709124556143400,0.475143310546875,-0.7390289306640625,-0.15423583984375,0.1284942626953125
1772709124566168300,0.485168212890625,-0.698150634765625,-0.136962890625,0.1445770263671875
1772709124576193300,0.495193359375,-0.6603546142578125,-0.1425323486328125,0.1631927490234375
1772709124586218200,0.50521826171875,-0.6244659423828125,-0.147552490234375,0.203521728515625
1772709124596243200,0.5152431640625,-0.5701141357421875,-0.156005859375,0.271209716796875
1772709124606268200,0.52526806640625,-0.553436279296875,-0.1543426513671875,0.352203369140625
1772709124616293000,0.535293212890625,-0.5844268798828125,-0.1757659912109375,0.422149658203125
1772709124626318300,0.545318359375,-0.609222412109375,-0.1842803955078125,0.497833251953125
1772709124636343300,0.55534326171875,-0.6452789306640625,-0.1599273681640625,0.5556640625
1772709124646368300,0.5653681640625,-0.6926422119140625,-0.152740478515625,0.5702056884765625
1772709124656393200,0.575393310546875,-0.6824951171875,-0.124359130859375,0.588623046875
1772709124666419200,0.585419189453125,-0.627105712890625,-0.0709686279296875,0.6140899658203125
1772709124676444400,0.5954443359375,-0.54864501953125,-0.0403900146484375,0.6165771484375
1772709124686469400,0.605469482421875,-0.47833251953125,-0.0149688720703125,0.59063720703125
1772709124696494000,0.615494140625,-0.4304962158203125,0.002838134765625,0.5384368896484375
1772709124706519000,0.62551904296875,-0.514892578125,0.0320892333984375,0.491363525390625
1772709124716544300,0.635544189453125,-0.630523681640625,0.0019378662109375,0.450286865234375
1772709124726569200,0.6455693359375,-0.7965545654296875,-0.0092010498046875,0.6688079833984375
1772709124736594200,0.65559423828125,-1.0437774658203125,0.0881195068359375,0.86761474609375
1772709124746619100,0.665619140625,-1.151092529296875,0.0709686279296875,0.72515869140625
1772709124756644400,0.675644287109375,-1.16156005859375,0.0392913818359375,0.6342926025390625
1772709124766669300,0.68566943359375,-1.3169097900390625,0.1061859130859375,0.6005859375
1772709124776694300,0.6956943359375,-1.5272979736328125,0.1307373046875,0.5108795166015625
1772709124786719200,0.70571923828125,-1.6480560302734375,0.1165313720703125,0.4433746337890625
1772709124796744200,0.715744140625,-1.7889251708984375,0.103729248046875,0.413848876953125
1772709124806769200,0.72576904296875,-1.89544677734375,0.0731048583984375,0.37677001953125
1772709124816794000,0.735794189453125,-1.914581298828125,0.0428619384765625,0.4064483642578125
1772709124826819000,0.745819091796875,-1.8434906005859375,-0.000335693359375,0.3831329345703125
1772709124836844300,0.75584423828125,-1.5984649658203125,-0.0325927734375,0.2962493896484375
1772709124846869200,0.765869140625,-1.292633056640625,-0.038970947265625,0.2144317626953125
1772709124856894200,0.775894287109375,-1.0747528076171875,-0.0218505859375,0.1611175537109375
1772709124866919200,0.785919189453125,-0.9557037353515625,-0.0148773193359375,0.15631103515625
1772709124876944400,0.7959443359375,-0.8472442626953125,-0.002685546875,0.2819366455078125
1772709124886969300,0.80596923828125,-0.789337158203125,-0.0129852294921875,0.374847412109375
1772709124896994000,0.815994140625,-0.7031097412109375,-0.0621795654296875,0.43255615234375
1772709124907019300,0.826019287109375,-0.703369140625,-0.061553955078125,0.43157958984375
1772709124917044200,0.836044189453125,-0.7169036865234375,-0.0577392578125,0.371795654296875
1772709124927069200,0.846069091796875,-0.573333740234375,-0.0908966064453125,0.3169708251953125
1772709124937094100,0.85609423828125,-0.458282470703125,-0.1021881103515625,0.3314361572265625
1772709124947119400,0.866119384765625,-0.4193572998046875,-0.0941162109375,0.351226806640625
1772709124957144300,0.876144287109375,-0.462005615234375,-0.084259033203125,0.3272552490234375
1772709124967169300,0.886169189453125,-0.7156524658203125,-0.0664825439453125,0.244110107421875
1772709124977194200,0.8961943359375,-0.982330322265625,-0.04913330078125,0.118255615234375
1772709124987219500,0.906219482421875,-1.0302886962890625,-0.0433807373046875,0.019744873046875
1772709124997244200,0.916244140625,-1.210906982421875,-0.0282745361328125,0.0330963134765625
1772709125007269000,0.92626904296875,-0.997955322265625,-0.027557373046875,0.0990447998046875
1772709125017294000,0.936294189453125,-0.942962646484375,-0.032440185546875,0.1328887939453125
1772709125027319600,0.946319580078125,-1.00140380859375,-0.04193115234375,0.161773681640625
1772709125037344500,0.956344482421875,-1.01153564453125,-0.040985107421875,0.1105804443359375
1772709125047369200,0.966369140625,-1.074554443359375,-0.0138702392578125,0.0247802734375
1772709125057394200,0.976394287109375,-1.1473541259765625,0.0254364013671875,-0.0374908447265625
1772709125067419400,0.98641943359375,-1.2166748046875,0.0572509765625,-0.071624755859375
1772709125077444400,0.9964443359375,-1.268646240234375,0.08685302734375,-0.0873565673828125
1772709125087469300,1.00646923828125,-1.292144775390625,0.110870361328125,-0.092529296875
1772709125097494300,1.016494384765625,-1.2749786376953125,0.1318511962890625,-0.0920867919921875
1772709125107519500,1.02651953125,-1.1613616943359375,0.1289825439453125,-0.057708740234375
1772709125117545500,1.03654541015625,-1.0152587890625,0.075469970703125,-0.0060882568359375
1772709125127570400,1.0465703125,-0.921417236328125,0.0192413330078125,0.0173492431640625
1772709125137595400,1.056595458984375,-0.87255859375,-0.0026702880859375,0.0080413818359375
1772709125147620400,1.066620361328125,-0.87847900390625,0.008087158203125,-0.002105712890625
1772709125157645300,1.076645263671875,-0.9450225830078125,0.0350799560546875,-0.0120849609375
1772709125167670300,1.086670166015625,-1.0220184326171875,0.056854248046875,-0.026763916015625
1772709125177695200,1.0966953125,-1.0638427734375,0.069000244140625,-0.0245361328125
1772709125187720200,1.10672021484375,-1.0570220947265625,0.0767364501953125,-0.0211944580078125
1772709125197745400,1.116745361328125,-1.011444091796875,0.0615692138671875,-0.0238800048828125
1772709125207770400,1.126770263671875,-0.9704742431640625,0.0375518798828125,-0.0217437744140625
1772709125217795300,1.13679541015625,-0.95947265625,0.023895263671875,-0.023040771484375
1772709125227820300,1.1468203125,-0.968109130859375,0.0231781005859375,-0.0231475830078125
1772709125237845500,1.156845458984375,-0.985595703125,0.0411834716796875,-0.02197265625
1772709125247870500,1.166870361328125,-1.000885009765625,0.0589599609375,-0.0182342529296875
1772709125257895200,1.176895263671875,-1.010498046875,0.0652923583984375,-0.023162841796875
1772709125267920100,1.186920166015625,-1.011383056640625,0.0637664794921875,-0.0227813720703125
1772709125277945300,1.1969453125,-1.0018463134765625,0.0564727783203125,-0.0225677490234375
1772709125287970300,1.20697021484375,-0.9931182861328125,0.044464111328125,-0.0262298583984375
1772709125297995300,1.216995361328125,-0.9871063232421875,0.0390777587890625,-0.030120849609375
1772709125308020500,1.2270205078125,-0.9891357421875,0.037353515625,-0.0348663330078125
1772709125318045400,1.23704541015625,-0.996795654296875,0.043609619140625,-0.035675048828125
1772709125328070400,1.2470703125,-1.0027923583984375,0.049591064453125,-0.037109375
1772709125338095400,1.257095458984375,-1.0103759765625,0.0522918701171875,-0.03411865234375
1772709125348120600,1.26712060546875,-1.0085296630859375,0.0577545166015625,-0.0289459228515625
1772709125358145300,1.277145263671875,-0.9999542236328125,0.0569915771484375,-0.026947021484375
1772709125368170200,1.287170166015625,-0.9901885986328125,0.05499267578125,-0.0227203369140625
1772709125378195200,1.2971953125,-0.9840850830078125,0.0519256591796875,-0.0201873779296875
1772709125388220400,1.307220458984375,-0.990203857421875,0.0504302978515625,-0.021209716796875
1772709125398245400,1.317245361328125,-0.998260498046875,0.0476226806640625,-0.0245208740234375
1772709125408270300,1.327270263671875,-0.999267578125,0.048583984375,-0.0233154296875
1772709125418295300,1.33729541015625,-0.996124267578125,0.05511474609375,-0.0218048095703125
1772709125428320500,1.347320556640625,-0.9936370849609375,0.056121826171875,-0.0211639404296875
1772709125438345500,1.357345458984375,-0.991363525390625,0.059326171875,-0.022613525390625
1772709125448370400,1.367370361328125,-0.9922637939453125,0.063995361328125,-0.0238037109375
1772709125458395100,1.37739501953125,-0.9951324462890625,0.06036376953125,-0.024627685546875
1772709125468420400,1.38742041015625,-0.99755859375,0.055755615234375,-0.0240936279296875
1772709125478445300,1.3974453125,-0.99554443359375,0.0520172119140625,-0.0247039794921875
1772709125488470300,1.40747021484375,-0.991607666015625,0.0491180419921875,-0.03076171875
1772709125498495200,1.4174951171875,-0.9922943115234375,0.0478668212890625,-0.0316619873046875
1772709125508520400,1.4275205078125,-0.997100830078125,0.046600341796875,-0.0224609375
1772709125518545400,1.43754541015625,-0.998077392578125,0.04559326171875,-0.02508544921875
1772709125528570400,1.4475703125,-0.99176025390625,0.049560546875,-0.02838134765625
1772709125538595300,1.45759521484375,-0.98931884765625,0.055938720703125,-0.0264739990234375
1772709125548620500,1.46762060546875,-0.99365234375,0.0594482421875,-0.02557373046875
1772709125558645200,1.477645263671875,-0.99761962890625,0.0596160888671875,-0.028961181640625
1772709125568670200,1.487670166015625,-0.9990081787109375,0.0532989501953125,-0.0275421142578125
1772709125578695400,1.4976953125,-0.995391845703125,0.041900634765625,-0.0239410400390625
1772709125588721200,1.50772119140625,-0.9885101318359375,0.035125732421875,-0.027069091796875
1772709125598746400,1.517746337890625,-0.9849090576171875,0.0303802490234375,-0.031341552734375
1772709125608771300,1.527771240234375,-0.98529052734375,0.0303497314453125,-0.0375213623046875
1772709125618796300,1.53779638671875,-0.989837646484375,0.0312652587890625,-0.04144287109375
1772709125628821200,1.5478212890625,-0.997100830078125,0.0357818603515625,-0.0374755859375
1772709125638846500,1.557846435546875,-1.000457763671875,0.042266845703125,-0.032257080078125
1772709125648871400,1.567871337890625,-0.9986419677734375,0.0499114990234375,-0.0318450927734375
1772709125658896400,1.577896484375,-0.9967498779296875,0.05303955078125,-0.03277587890625
1772709125668921300,1.58792138671875,-0.9976043701171875,0.05560302734375,-0.0307464599609375
1772709125678946300,1.5979462890625,-0.99676513671875,0.054931640625,-0.03411865234375
1772709125688971300,1.60797119140625,-0.994720458984375,0.058074951171875,-0.038726806640625
1772709125698996200,1.617996337890625,-0.9949951171875,0.05828857421875,-0.0479583740234375
1772709125709021400,1.628021484375,-0.9943695068359375,0.06976318359375,-0.0440826416015625
1772709125719046400,1.63804638671875,-0.999053955078125,0.070220947265625,-0.0440826416015625
1772709125729071400,1.6480712890625,-1.0100555419921875,0.0632171630859375,-0.03900146484375
1772709125739096300,1.658096435546875,-1.012237548828125,0.0624542236328125,-0.0307769775390625
1772709125749121500,1.66812158203125,-1.0017242431640625,0.065185546875,-0.0303955078125
1772709125759146500,1.678146484375,-0.987457275390625,0.0747833251953125,-0.0314178466796875
1772709125769171200,1.688171142578125,-0.9863128662109375,0.0859832763671875,-0.0379791259765625
1772709125779196200,1.698196044921875,-0.9969482421875,0.0854949951171875,-0.0412750244140625
1772709125789221400,1.708221435546875,-1.00830078125,0.0775909423828125,-0.0362548828125
1772709125799246300,1.718246337890625,-1.0074310302734375,0.062103271484375,-0.0288848876953125
1772709125809271300,1.728271240234375,-0.995941162109375,0.0558624267578125,-0.0241851806640625
1772709125819296300,1.738296142578125,-0.985626220703125,0.06329345703125,-0.026397705078125
1772709125829321500,1.748321533203125,-0.9898681640625,0.06201171875,-0.0268707275390625
1772709125839346400,1.758346435546875,-0.993377685546875,0.05963134765625,-0.03350830078125
1772709125849371400,1.768371337890625,-0.9949951171875,0.0499267578125,-0.02630615234375
1772709125859396400,1.778396240234375,-0.989105224609375,0.0446929931640625,-0.0287628173828125
1772709125869421300,1.78842138671875,-0.9856719970703125,0.0435638427734375,-0.03314208984375
1772709125879446300,1.7984462890625,-0.9883880615234375,0.0437469482421875,-0.03619384765625
1772709125889471200,1.80847119140625,-0.991485595703125,0.0469512939453125,-0.033416748046875
1772709125899496200,1.81849609375,-0.99163818359375,0.05657958984375,-0.0441436767578125
1772709125909521400,1.828521484375,-0.9994354248046875,0.05419921875,-0.0329132080078125
1772709125919546400,1.83854638671875,-0.999542236328125,0.0525970458984375,-0.0331573486328125
1772709125929571300,1.8485712890625,-1,0.054901123046875,-0.03515625
1772709125939596300,1.85859619140625,-0.9968719482421875,0.0525054931640625,-0.0377960205078125
1772709125949621500,1.86862158203125,-0.99798583984375,0.047882080078125,-0.0341339111328125
1772709125959646200,1.878646240234375,-0.9928741455078125,0.0445404052734375,-0.0346221923828125
1772709125969671200,1.888671142578125,-0.9906158447265625,0.049041748046875,-0.0338287353515625
1772709125979696400,1.8986962890625,-0.9947052001953125,0.052978515625,-0.037139892578125
1772709125989721300,1.908721435546875,-1.0067596435546875,0.046539306640625,-0.0335235595703125
1772709125999746300,1.918746337890625,-1.0088043212890625,0.0435638427734375,-0.03466796875
1772709126009771300,1.928771240234375,-0.998077392578125,0.039306640625,-0.0442962646484375
1772709126019796500,1.93879638671875,-0.9944305419921875,0.032989501953125,-0.0382537841796875
1772709126029821200,1.9488212890625,-0.9887847900390625,0.028839111328125,-0.035919189453125
1772709126039846100,1.95884619140625,-0.987548828125,0.0337982177734375,-0.0359954833984375
1772709126049871000,1.96887109375,-0.992462158203125,0.0431671142578125,-0.0375213623046875
1772709126059896300,1.978896240234375,-1.0009918212890625,0.04730224609375,-0.0323028564453125
1772709126069922300,1.98892236328125,-1.0031280517578125,0.048431396484375,-0.029693603515625
1772709126079947300,1.998947265625,-0.9988555908203125,0.0473175048828125,-0.0286102294921875
1772709126089972200,2.00897216796875,-0.992523193359375,0.046630859375,-0.0235137939453125
1772709126099997200,2.0189970703125,-0.989013671875,0.0493927001953125,-0.0236053466796875
1772709126110022400,2.0290224609375,-0.9884033203125,0.04925537109375,-0.0284881591796875
1772709126120047400,2.03904736328125,-0.9933013916015625,0.048675537109375,-0.031707763671875
1772709126130072000,2.049072021484375,-0.993499755859375,0.0472412109375,-0.031646728515625
1772709126140097000,2.059096923828125,-0.995697021484375,0.04534912109375,-0.0325469970703125
1772709126150122200,2.069122314453125,-0.9947052001953125,0.046051025390625,-0.02862548828125
1772709126160147200,2.079147216796875,-0.9933013916015625,0.0532379150390625,-0.0299835205078125
1772709126170172200,2.089172119140625,-0.9944610595703125,0.0561065673828125,-0.03070068359375
1772709126180197000,2.099197021484375,-0.9976806640625,0.058563232421875,-0.0304718017578125
1772709126190222300,2.109222412109375,-0.993927001953125,0.05908203125,-0.0308990478515625
1772709126200247300,2.119247314453125,-0.9926605224609375,0.061279296875,-0.0342864990234375
1772709126210272300,2.129272216796875,-0.994384765625,0.061279296875,-0.034027099609375
1772709126220297200,2.139297119140625,-0.9957427978515625,0.0563812255859375,-0.03643798828125
1772709126230322200,2.149322265625,-0.989105224609375,0.04913330078125,-0.02996826171875
1772709126240347100,2.15934716796875,-0.979248046875,0.0500335693359375,-0.033203125
1772709126250372000,2.1693720703125,-0.9766998291015625,0.058319091796875,-0.018310546875
1772709126260397300,2.179397216796875,-0.98590087890625,0.065887451171875,-0.0348358154296875
1772709126270422300,2.18942236328125,-1.0090179443359375,0.0504913330078125,-0.0379180908203125
1772709126280447200,2.199447265625,-1.0169677734375,0.0488739013671875,-0.040252685546875
1772709126290472200,2.20947216796875,-1.007965087890625,0.0555419921875,-0.046783447265625
1772709126300497400,2.219497314453125,-0.994537353515625,0.054046630859375,-0.033660888671875
1772709126310522400,2.2295224609375,-0.9925384521484375,0.047393798828125,-0.02716064453125
1772709126320547000,2.239547119140625,-0.993316650390625,0.05023193359375,-0.0265655517578125
1772709126330572000,2.249572021484375,-0.9959564208984375,0.0683746337890625,-0.032012939453125
1772709126340597200,2.25959716796875,-1.001922607421875,0.077056884765625,-0.0410003662109375
1772709126350622200,2.269622314453125,-1.0031890869140625,0.076202392578125,-0.0433349609375
1772709126360647200,2.279647216796875,-0.9998626708984375,0.065399169921875,-0.0420684814453125
1772709126370672000,2.289672119140625,-0.99462890625,0.0555877685546875,-0.0316162109375
1772709126380697300,2.299697265625,-0.9880218505859375,0.045013427734375,-0.026611328125
1772709126390722300,2.309722412109375,-0.9717559814453125,0.0478515625,-0.026092529296875
1772709126400747300,2.319747314453125,-0.9899749755859375,0.0644989013671875,-0.03369140625
1772709126410772200,2.329772216796875,-1.004180908203125,0.0761260986328125,-0.043121337890625
1772709126420797200,2.339797119140625,-1.0081787109375,0.0751190185546875,-0.0403594970703125
1772709126430822100,2.349822265625,-1.0071258544921875,0.0724029541015625,-0.0369873046875
1772709126440847000,2.35984716796875,-0.996185302734375,0.0637054443359375,-0.03411865234375
1772709126450872000,2.3698720703125,-0.985382080078125,0.0592041015625,-0.0327301025390625
1772709126460897300,2.379897216796875,-0.9871368408203125,0.060089111328125,-0.0318756103515625
1772709126470922200,2.389922119140625,-0.9970245361328125,0.0631866455078125,-0.03411865234375
1772709126480947200,2.399947265625,-1.0048065185546875,0.0635833740234375,-0.03472900390625
1772709126490972200,2.40997216796875,-0.9998321533203125,0.0625,-0.03338623046875
1772709126500997400,2.419997314453125,-0.9908294677734375,0.058380126953125,-0.036529541015625
1772709126511022300,2.430022216796875,-0.9893035888671875,0.05511474609375,-0.038238525390625
1772709126521047000,2.440047119140625,-0.9905548095703125,0.0543060302734375,-0.038238525390625
1772709126531073300,2.4500732421875,-0.993377685546875,0.0591888427734375,-0.0349273681640625
1772709126541098200,2.46009814453125,-0.9957275390625,0.06353759765625,-0.034820556640625
1772709126551123200,2.470123291015625,-1.001922607421875,0.0642547607421875,-0.03778076171875
1772709126561148200,2.480148193359375,-0.99755859375,0.060791015625,-0.0297698974609375
1772709126571173000,2.490173095703125,-0.990966796875,0.0630645751953125,-0.034454345703125
1772709126581198300,2.5001982421875,-0.9941558837890625,0.0638580322265625,-0.035400390625
1772709126591223300,2.510223388671875,-0.995880126953125,0.0562744140625,-0.03228759765625
1772709126601248300,2.520248291015625,-0.9947662353515625,0.0585479736328125,-0.033294677734375
1772709126611273200,2.530273193359375,-0.9972076416015625,0.062286376953125,-0.03680419921875
1772709126621298400,2.54029833984375,-0.998138427734375,0.0586090087890625,-0.040618896484375
1772709126631323100,2.5503232421875,-0.9955902099609375,0.056549072265625,-0.0339813232421875
1772709126641348000,2.56034814453125,-0.98974609375,0.056365966796875,-0.02978515625
1772709126651373000,2.570373046875,-0.990203857421875,0.0569915771484375,-0.031005859375
1772709126661398300,2.580398193359375,-0.9940948486328125,0.0624847412109375,-0.0355682373046875
1772709126671423200,2.59042333984375,-0.9959564208984375,0.0620880126953125,-0.03802490234375
1772709126681448200,2.6004482421875,-0.9965972900390625,0.0622100830078125,-0.0346221923828125
1772709126691473200,2.61047314453125,-0.99615478515625,0.05743408203125,-0.0338134765625
1772709126701498400,2.620498291015625,-0.993621826171875,0.05865478515625,-0.0337066650390625
1772709126711523300,2.6305234375,-0.991363525390625,0.0637664794921875,-0.0333709716796875
1772709126721548300,2.64054833984375,-0.9915008544921875,0.0666656494140625,-0.035736083984375
1772709126731573000,2.650572998046875,-0.996612548828125,0.0649871826171875,-0.03570556640625
1772709126741598200,2.66059814453125,-0.9958038330078125,0.063079833984375,-0.0330352783203125
1772709126751623200,2.670623046875,-0.9933624267578125,0.059417724609375,-0.0325775146484375
1772709126761648000,2.680648193359375,-0.99169921875,0.057098388671875,-0.0297088623046875
1772709126771673000,2.690673095703125,-0.99139404296875,0.0570526123046875,-0.030487060546875
1772709126781698300,2.7006982421875,-0.9943084716796875,0.058441162109375,-0.032958984375
1772709126791723300,2.71072314453125,-0.9961090087890625,0.058837890625,-0.03472900390625
1772709126801748200,2.720748291015625,-0.99664306640625,0.0567779541015625,-0.0339202880859375
1772709126811773200,2.730773193359375,-0.9958038330078125,0.056182861328125,-0.0297393798828125
1772709126821798400,2.74079833984375,-0.9931182861328125,0.0572052001953125,-0.0273590087890625
1772709126831823000,2.750822998046875,-0.99493408203125,0.0566558837890625,-0.02947998046875
1772709126841848000,2.76084814453125,-0.997039794921875,0.0545501708984375,-0.033477783203125
1772709126851873300,2.770873291015625,-0.995697021484375,0.0551300048828125,-0.035980224609375
1772709126861898200,2.780898193359375,-0.99346923828125,0.0545654296875,-0.0358123779296875
1772709126871923200,2.790923095703125,-0.9932708740234375,0.05389404296875,-0.0325469970703125
1772709126881948200,2.8009482421875,-0.991790771484375,0.058258056640625,-0.029998779296875
1772709126891973400,2.810973388671875,-0.9910888671875,0.058624267578125,-0.030181884765625
1772709126901998300,2.820998291015625,-0.9957427978515625,0.0557098388671875,-0.0339813232421875
1772709126912023300,2.831023193359375,-0.996002197265625,0.0496978759765625,-0.037689208984375
1772709126922048300,2.84104833984375,-0.990570068359375,0.0429534912109375,-0.0386199951171875
1772709126932073200,2.8510732421875,-0.9864959716796875,0.039764404296875,-0.040283203125
1772709126942098200,2.86109814453125,-0.9911651611328125,0.0432281494140625,-0.043243408203125
1772709126952123100,2.871123046875,-0.9962310791015625,0.04632568359375,-0.0485992431640625
1772709126962148000,2.881148193359375,-1.0003204345703125,0.0524139404296875,-0.04248046875
1772709126972173300,2.89117333984375,-1,0.0584869384765625,-0.0414581298828125
1772709126982198300,2.9011982421875,-0.999969482421875,0.06195068359375,-0.0363616943359375
1772709126992223200,2.91122314453125,-0.9967803955078125,0.0708160400390625,-0.0306854248046875
1772709127002248200,2.921248291015625,-0.99261474609375,0.07574462890625,-0.0345916748046875
1772709127012273400,2.9312734375,-0.9951324462890625,0.0832672119140625,-0.0357666015625
1772709127022298400,2.94129833984375,-0.9987945556640625,0.0852508544921875,-0.0382537841796875
1772709127032322800,2.95132275390625,-1.0012054443359375,0.0784912109375,-0.0414581298828125
1772709127042348000,2.96134814453125,-0.9980010986328125,0.072723388671875,-0.04022216796875
1772709127052373000,2.971373046875,-0.99310302734375,0.068115234375,-0.0446624755859375
1772709127062398000,2.98139794921875,-0.9931488037109375,0.06146240234375,-0.0379180908203125
1772709127072422700,2.991422607421875,-0.994659423828125,0.0547027587890625,-0.033599853515625
1772709127082449000,3.001448974609375,-0.9957733154296875,0.0517425537109375,-0.0359649658203125
1772709127092472800,3.011472900390625,-0.9967041015625,0.0512847900390625,-0.03472900390625
1772709127102498800,3.021498779296875,-0.99920654296875,0.050018310546875,-0.0381317138671875
1772709127112523800,3.031523681640625,-0.99798583984375,0.0506134033203125,-0.040374755859375
1772709127122548700,3.041548828125,-0.997283935546875,0.0527496337890625,-0.0395050048828125
1772709127132574000,3.051573974609375,-0.996978759765625,0.0520782470703125,-0.03656005859375
1772709127142599000,3.061598876953125,-0.996429443359375,0.047760009765625,-0.0351715087890625
1772709127152623900,3.071623779296875,-0.995819091796875,0.047515869140625,-0.0353240966796875
1772709127162648800,3.08164892578125,-0.9935302734375,0.0484771728515625,-0.0391998291015625
1772709127172674000,3.091674072265625,-0.991058349609375,0.0591278076171875,-0.038421630859375
1772709127182698800,3.10169873046875,-0.9963226318359375,0.0479888916015625,-0.0369110107421875
1772709127192723700,3.1117236328125,-1.0027313232421875,0.036041259765625,-0.03515625
1772709127202748700,3.121748779296875,-0.986114501953125,0.0532989501953125,-0.034576416015625
1772709127212774000,3.13177392578125,-0.9886016845703125,0.0522003173828125,-0.0395660400390625
1772709127222798800,3.141798828125,-1.001434326171875,0.0485382080078125,-0.036865234375
1772709127232823800,3.15182373046875,-0.9987945556640625,0.0567474365234375,-0.0396575927734375
1772709127242848800,3.161848876953125,-0.9956817626953125,0.0570220947265625,-0.03558349609375
1772709127252874000,3.1718740234375,-0.995849609375,0.05596923828125,-0.0329132080078125
1772709127262899000,3.18189892578125,-0.9868011474609375,0.0598907470703125,-0.0391082763671875
1772709127272924000,3.191923828125,-0.993255615234375,0.0633697509765625,-0.0380859375
1772709127282948600,3.201948486328125,-1.00128173828125,0.0639190673828125,-0.0390167236328125
1772709127292973800,3.211973876953125,-1.001953125,0.061798095703125,-0.0407257080078125
1772709127302998800,3.221998779296875,-0.9940643310546875,0.05859375,-0.0413818359375
1772709127313023700,3.232023681640625,-0.9893951416015625,0.0540924072265625,-0.0425872802734375
1772709127323048700,3.242048583984375,-0.9875030517578125,0.04937744140625,-0.0415191650390625
1772709127333074000,3.252073974609375,-0.99053955078125,0.0469818115234375,-0.041015625
1772709127343099000,3.262098876953125,-0.995208740234375,0.04608154296875,-0.0413665771484375
1772709127353123800,3.272123779296875,-0.9979248046875,0.0468597412109375,-0.040924072265625
1772709127363148800,3.282148681640625,-0.9983978271484375,0.0490264892578125,-0.0416107177734375
1772709127373174000,3.292174072265625,-0.9966888427734375,0.0510711669921875,-0.03924560546875
1772709127383198700,3.30219873046875,-0.9941253662109375,0.0516815185546875,-0.0372772216796875
1772709127393223700,3.3122236328125,-0.9913787841796875,0.0516204833984375,-0.03662109375
1772709127403249000,3.322248779296875,-0.9913482666015625,0.05145263671875,-0.0348358154296875
1772709127413273900,3.33227392578125,-0.9925537109375,0.054046630859375,-0.0349578857421875
1772709127423298800,3.342298828125,-0.99603271484375,0.0567169189453125,-0.036865234375
1772709127433323800,3.35232373046875,-0.9981842041015625,0.0583648681640625,-0.0353240966796875
1772709127443349000,3.362348876953125,-0.9995574951171875,0.0575714111328125,-0.0376434326171875
1772709127453374000,3.3723740234375,-0.995269775390625,0.0616455078125,-0.0394134521484375
1772709127463399000,3.38239892578125,-0.993255615234375,0.066070556640625,-0.0380401611328125
1772709127473424000,3.392423828125,-0.9960784912109375,0.071044921875,-0.03546142578125
1772709127483448800,3.40244873046875,-0.99945068359375,0.072479248046875,-0.0317230224609375
1772709127493473800,3.412473876953125,-0.996917724609375,0.067840576171875,-0.0333709716796875
1772709127503498800,3.422498779296875,-0.9915313720703125,0.0694427490234375,-0.0358123779296875
1772709127513523700,3.432523681640625,-0.990936279296875,0.068145751953125,-0.0375518798828125
1772709127523549000,3.442548828125,-0.996734619140625,0.0669708251953125,-0.0381622314453125
1772709127533574000,3.452573974609375,-0.9990081787109375,0.0650177001953125,-0.03662109375
1772709127543598800,3.462598876953125,-1.0018310546875,0.061676025390625,-0.033447265625
1772709127553623800,3.472623779296875,-0.9972381591796875,0.06024169921875,-0.0327911376953125
1772709127563649000,3.48264892578125,-0.99285888671875,0.059051513671875,-0.03387451171875
1772709127573673700,3.492673828125,-0.9903106689453125,0.05438232421875,-0.0364990234375
1772709127583698700,3.50269873046875,-0.9888916015625,0.0521087646484375,-0.0355682373046875
1772709127593723600,3.5127236328125,-0.98980712890625,0.05340576171875,-0.036407470703125
1772709127603748900,3.522748779296875,-0.9922332763671875,0.055816650390625,-0.0341339111328125
1772709127613773800,3.53277392578125,-0.997589111328125,0.0566864013671875,-0.0345916748046875
1772709127623798800,3.542798828125,-0.997314453125,0.05438232421875,-0.0369415283203125
1772709127633823700,3.55282373046875,-0.9990386962890625,0.0512847900390625,-0.0370025634765625
1772709127643849000,3.562848876953125,-0.991851806640625,0.05047607421875,-0.035369873046875
1772709127653874000,3.5728740234375,-0.9924774169921875,0.0513458251953125,-0.03387451171875
1772709127663899000,3.58289892578125,-0.9953155517578125,0.04742431640625,-0.0379486083984375
1772709127673923800,3.592923828125,-0.991302490234375,0.0477752685546875,-0.037109375
1772709127683948800,3.60294873046875,-0.9900054931640625,0.0536041259765625,-0.0338897705078125
1772709127693973800,3.612973876953125,-0.9929046630859375,0.055145263671875,-0.035858154296875
1772709127703998700,3.622998779296875,-0.9974822998046875,0.0561676025390625,-0.033721923828125
1772709127714024000,3.63302392578125,-0.9988250732421875,0.05596923828125,-0.0330657958984375
1772709127724049000,3.643048828125,-0.9954833984375,0.0573272705078125,-0.0344390869140625
1772709127734073900,3.653073974609375,-0.99285888671875,0.064483642578125,-0.0363006591796875
1772709127744098800,3.663098876953125,-1.0073089599609375,0.0749053955078125,-0.038177490234375
1772709127754124000,3.6731240234375,-1.0052490234375,0.0634613037109375,-0.03143310546875
1772709127764149000,3.68314892578125,-0.983154296875,0.059661865234375,-0.0208282470703125
1772709127774173700,3.693173583984375,-0.97705078125,0.0571441650390625,-0.0345611572265625
1772709127784198700,3.70319873046875,-0.991424560546875,0.05877685546875,-0.0417938232421875
1772709127794223900,3.713223876953125,-1.00518798828125,0.062652587890625,-0.03253173828125
1772709127804248800,3.723248779296875,-1.0020904541015625,0.068084716796875,-0.0271759033203125
1772709127814273800,3.733273681640625,-0.9991912841796875,0.0670013427734375,-0.02911376953125
1772709127824298800,3.743298828125,-0.989013671875,0.0640869140625,-0.0328369140625
1772709127834324000,3.753323974609375,-0.9852447509765625,0.0590667724609375,-0.03643798828125
1772709127844349000,3.763348876953125,-0.987091064453125,0.0597076416015625,-0.03399658203125
1772709127854374000,3.773373779296875,-0.994903564453125,0.0626220703125,-0.0317230224609375
1772709127864398800,3.78339892578125,-0.9992523193359375,0.0627593994140625,-0.0317840576171875
1772709127874423800,3.793423828125,-1.000152587890625,0.06219482421875,-0.0342864990234375
1772709127884448800,3.80344873046875,-0.9958038330078125,0.06402587890625,-0.034088134765625
1772709127894473700,3.8134736328125,-0.9951629638671875,0.06890869140625,-0.0337677001953125
1772709127904498700,3.823498779296875,-0.9981231689453125,0.06292724609375,-0.0331878662109375
1772709127914524000,3.83352392578125,-0.998016357421875,0.0593414306640625,-0.03399658203125
1772709127924550000,3.8435498046875,-0.9936981201171875,0.055328369140625,-0.0369720458984375
1772709127934574800,3.853574951171875,-0.9869537353515625,0.05303955078125,-0.030303955078125
1772709127944599800,3.863599853515625,-0.9881134033203125,0.0590362548828125,-0.0275726318359375
1772709127954624800,3.873624755859375,-0.9959716796875,0.066558837890625,-0.0357208251953125
1772709127964650000,3.88364990234375,-1.0034027099609375,0.0634765625,-0.0396728515625
1772709127974675000,3.893675048828125,-1.00115966796875,0.0615692138671875,-0.0352935791015625
1772709127984699600,3.90369970703125,-0.9925384521484375,0.06805419921875,-0.0274810791015625
1772709127994724900,3.913724853515625,-0.9933624267578125,0.0657196044921875,-0.029754638671875
1772709128004749800,3.923749755859375,-0.9929351806640625,0.0641937255859375,-0.029998779296875
1772709128014774800,3.93377490234375,-0.9913787841796875,0.0670928955078125,-0.032073974609375
1772709128024799700,3.9437998046875,-0.9941864013671875,0.0683441162109375,-0.032135009765625
1772709128034825000,3.953824951171875,-0.99664306640625,0.0617523193359375,-0.032623291015625
1772709128044850000,3.963849853515625,-0.9962921142578125,0.0612640380859375,-0.0318145751953125
1772709128054874600,3.97387451171875,-0.9935760498046875,0.0658416748046875,-0.032806396484375
1772709128064899600,3.983899658203125,-0.9955596923828125,0.063018798828125,-0.0331268310546875
1772709128074924800,3.9939248046875,-0.9949188232421875,0.061126708984375,-0.0316009521484375
1772709128084949800,4.00394970703125,-0.992279052734375,0.0671844482421875,-0.0336456298828125
1772709128094974700,4.013974609375,-0.9934844970703125,0.0637359619140625,-0.035430908203125
1772709128104999700,4.023999755859375,-0.9979248046875,0.057373046875,-0.0286407470703125
1772709128115025000,4.03402490234375,-0.994476318359375,0.0637054443359375,-0.0313873291015625
1772709128125049900,4.0440498046875,-0.992034912109375,0.067291259765625,-0.0332183837890625
1772709128135074800,4.05407470703125,-0.9965362548828125,0.0662689208984375,-0.031341552734375
1772709128145099800,4.064099853515625,-0.9953155517578125,0.06561279296875,-0.0330963134765625
1772709128155124700,4.074124755859375,-0.994384765625,0.064971923828125,-0.03167724609375
1772709128165149700,4.084149658203125,-0.9923553466796875,0.06463623046875,-0.029052734375
1772709128175174700,4.094174560546875,-0.9944610595703125,0.0637969970703125,-0.03131103515625
1772709128185199600,4.10419970703125,-0.99298095703125,0.064422607421875,-0.031982421875
1772709128195224800,4.114224853515625,-0.99139404296875,0.0645751953125,-0.033050537109375
1772709128205249800,4.124249755859375,-0.992431640625,0.059234619140625,-0.0367584228515625
1772709128215274800,4.134274658203125,-0.996917724609375,0.0558624267578125,-0.03363037109375
1772709128225299700,4.1442998046875,-0.994598388671875,0.05670166015625,-0.0266876220703125
1772709128235325000,4.154324951171875,-0.9914398193359375,0.0565643310546875,-0.0264892578125
1772709128245349600,4.164349609375,-0.992767333984375,0.0549774169921875,-0.0294189453125
1772709128255374600,4.17437451171875,-0.9907684326171875,0.0584564208984375,-0.03192138671875
1772709128265399800,4.18439990234375,-0.99102783203125,0.063690185546875,-0.0327301025390625
1772709128275424800,4.1944248046875,-0.99591064453125,0.0704193115234375,-0.0355072021484375
1772709128285449700,4.20444970703125,-1.0040130615234375,0.0706329345703125,-0.03375244140625
1772709128295474700,4.214474609375,-1.005401611328125,0.062591552734375,-0.03582763671875
1772709128305500000,4.2245,-0.998382568359375,0.0591583251953125,-0.0353546142578125
1772709128315524900,4.23452490234375,-0.985321044921875,0.063934326171875,-0.0338897705078125
1772709128325549800,4.2445498046875,-0.984283447265625,0.0646209716796875,-0.03485107421875
1772709128335574800,4.25457470703125,-0.99261474609375,0.06610107421875,-0.0405731201171875
1772709128345599700,4.264599853515625,-0.9977569580078125,0.0684814453125,-0.0449676513671875
1772709128355624700,4.274624755859375,-1.0006103515625,0.069915771484375,-0.043212890625
1772709128365649700,4.284649658203125,-1.00262451171875,0.069061279296875,-0.0391845703125
1772709128375674600,4.294674560546875,-0.9991302490234375,0.0724334716796875,-0.03338623046875
1772709128385699800,4.304699951171875,-0.992706298828125,0.0714111328125,-0.02874755859375
1772709128395724800,4.314724853515625,-0.991851806640625,0.065032958984375,-0.02838134765625
1772709128405749800,4.324749755859375,-0.9923248291015625,0.06005859375,-0.028961181640625
1772709128415774700,4.334774658203125,-0.993499755859375,0.059783935546875,-0.0321044921875
1772709128425800000,4.344800048828125,-0.99786376953125,0.0578460693359375,-0.031494140625
1772709128435825000,4.354824951171875,-0.9993896484375,0.0571746826171875,-0.0309295654296875
1772709128445849600,4.364849609375,-0.9931182861328125,0.0581817626953125,-0.032501220703125
1772709128455874600,4.37487451171875,-0.990325927734375,0.0593414306640625,-0.0345306396484375
1772709128465899800,4.384899658203125,-0.990447998046875,0.0587310791015625,-0.036376953125
1772709128475924700,4.3949248046875,-0.992156982421875,0.060577392578125,-0.0343170166015625
1772709128485949700,4.40494970703125,-0.9948272705078125,0.0618743896484375,-0.0341796875
1772709128495974700,4.414974609375,-0.996978759765625,0.0624847412109375,-0.0348663330078125
1772709128506000000,4.424999755859375,-0.9964752197265625,0.0633392333984375,-0.035797119140625
1772709128516024800,4.43502490234375,-0.994476318359375,0.061431884765625,-0.0370635986328125
1772709128526049800,4.4450498046875,-0.99334716796875,0.0610809326171875,-0.0375823974609375
1772709128536074800,4.45507470703125,-0.9950714111328125,0.0598297119140625,-0.0360107421875
1772709128546099700,4.465099609375,-0.995025634765625,0.062164306640625,-0.037506103515625
1772709128556124700,4.475124755859375,-0.995880126953125,0.0623321533203125,-0.038818359375
1772709128566149600,4.485149658203125,-0.993896484375,0.0649261474609375,-0.039825439453125
1772709128576174800,4.4951748046875,-0.99627685546875,0.06292724609375,-0.0354156494140625
1772709128586199800,4.50519970703125,-0.99566650390625,0.0618438720703125,-0.0364837646484375
1772709128596224800,4.515224853515625,-0.993682861328125,0.0637054443359375,-0.0348358154296875
1772709128606249700,4.525249755859375,-0.9934539794921875,0.0628204345703125,-0.0380096435546875
1772709128616275000,4.53527490234375,-0.9946136474609375,0.06280517578125,-0.0370330810546875
1772709128626300000,4.5452998046875,-0.9929962158203125,0.06097412109375,-0.0354766845703125
1772709128636324600,4.55532470703125,-0.9913482666015625,0.0634307861328125,-0.035736083984375
1772709128646349600,4.565349609375,-0.99395751953125,0.064239501953125,-0.03546142578125
1772709128656374800,4.575374755859375,-0.99664306640625,0.0640106201171875,-0.0364227294921875
1772709128666399700,4.585399658203125,-0.9954833984375,0.06390380859375,-0.038665771484375
1772709128676424700,4.5954248046875,-0.99462890625,0.0630950927734375,-0.0363922119140625
1772709128686449700,4.60544970703125,-0.99530029296875,0.0617828369140625,-0.0361328125
1772709128696475000,4.615474853515625,-0.993682861328125,0.060272216796875,-0.035430908203125
1772709128706499800,4.625499755859375,-0.9921722412109375,0.0597991943359375,-0.0369873046875
1772709128716524800,4.63552490234375,-0.991546630859375,0.0614166259765625,-0.0370635986328125
1772709128726549800,4.6455498046875,-0.9912109375,0.0631561279296875,-0.037384033203125
1772709128736574700,4.65557470703125,-0.991943359375,0.065032958984375,-0.039031982421875
1772709128746599700,4.665599609375,-0.9938201904296875,0.064910888671875,-0.0380096435546875
1772709128756624600,4.675624755859375,-0.9971466064453125,0.064971923828125,-0.0390472412109375
1772709128766649600,4.685649658203125,-0.9986419677734375,0.0621795654296875,-0.0385894775390625
1772709128776674800,4.6956748046875,-0.998687744140625,0.061187744140625,-0.0378570556640625
1772709128786699800,4.70569970703125,-0.99652099609375,0.062225341796875,-0.0388336181640625
1772709128796724700,4.715724853515625,-0.9947967529296875,0.0641632080078125,-0.0396270751953125
1772709128806749700,4.725749755859375,-0.9969635009765625,0.0647125244140625,-0.0394744873046875
1772709128816775000,4.73577490234375,-0.99591064453125,0.0635528564453125,-0.0391998291015625
1772709128826799900,4.7457998046875,-0.9949493408203125,0.0621795654296875,-0.036651611328125
1772709128836824600,4.755824462890625,-0.99200439453125,0.0596160888671875,-0.03759765625
1772709128846849800,4.765849853515625,-0.9913482666015625,0.06280517578125,-0.038970947265625
1772709128856874800,4.775874755859375,-0.9950103759765625,0.0640716552734375,-0.0408172607421875
1772709128866899700,4.785899658203125,-0.9980621337890625,0.0603790283203125,-0.0390472412109375
1772709128876924700,4.795924560546875,-0.9961395263671875,0.059051513671875,-0.038482666015625
1772709128886950000,4.805949951171875,-0.9923858642578125,0.056610107421875,-0.0399932861328125
1772709128896974800,4.815974853515625,-0.99072265625,0.0613250732421875,-0.04180908203125
1772709128906999800,4.825999755859375,-0.9935455322265625,0.0652618408203125,-0.0428314208984375
1772709128917024800,4.836024658203125,-0.9970550537109375,0.0630035400390625,-0.04254150390625
1772709128927050000,4.846050048828125,-0.99700927734375,0.061767578125,-0.0402679443359375
1772709128937074700,4.85607470703125,-0.9965972900390625,0.063934326171875,-0.0400848388671875
1772709128947099600,4.866099609375,-0.9947967529296875,0.0646820068359375,-0.039642333984375
1772709128957124600,4.87612451171875,-0.9937896728515625,0.067535400390625,-0.0402374267578125
1772709128967149800,4.88614990234375,-0.9961700439453125,0.0674896240234375,-0.0408477783203125
1772709128977174800,4.8961748046875,-0.99737548828125,0.063934326171875,-0.0399627685546875
1772709128987199700,4.90619970703125,-0.99395751953125,0.06365966796875,-0.0380859375
1772709128997224700,4.916224609375,-0.9908905029296875,0.0667266845703125,-0.03472900390625
1772709129007250000,4.92625,-0.9918975830078125,0.065765380859375,-0.0374755859375
1772709129017275000,4.93627490234375,-0.9956207275390625,0.0627288818359375,-0.0389556884765625
1772709129027299800,4.9462998046875,-0.998443603515625,0.061309814453125,-0.0406646728515625
1772709129037324800,4.95632470703125,-0.99530029296875,0.0620269775390625,-0.03924560546875
1772709129047350000,4.96635009765625,-0.99383544921875,0.06024169921875,-0.0374603271484375
1772709129057375000,4.976375,-0.989044189453125,0.060333251953125,-0.03790283203125
1772709129067399700,4.986399658203125,-0.991119384765625,0.0610809326171875,-0.038330078125
1772709129077424600,4.996424560546875,-0.9925689697265625,0.0610504150390625,-0.038482666015625
1772709129087449900,5.006449951171875,-0.9952545166015625,0.0602569580078125,-0.0377655029296875
1772709129097474800,5.016474853515625,-0.9968414306640625,0.05816650390625,-0.0377197265625
1772709129107499800,5.026499755859375,-0.9969635009765625,0.05859375,-0.0384674072265625
1772709129117524700,5.036524658203125,-0.997344970703125,0.0598602294921875,-0.03851318359375
1772709129127550000,5.046550048828125,-0.99725341796875,0.06024169921875,-0.040679931640625
1772709129137575000,5.056574951171875,-0.9967498779296875,0.0593109130859375,-0.0404205322265625
1772709129147600000,5.066599853515625,-0.9947662353515625,0.0580902099609375,-0.039276123046875
1772709129157624800,5.076624755859375,-0.99310302734375,0.0576324462890625,-0.037506103515625
1772709129167649800,5.08664990234375,-0.9938507080078125,0.0595855712890625,-0.0389251708984375
1772709129177674800,5.0966748046875,-0.9958648681640625,0.05938720703125,-0.03887939453125
1772709129187699700,5.10669970703125,-0.993896484375,0.061553955078125,-0.0398101806640625
1772709129197725000,5.116724853515625,-0.994476318359375,0.062255859375,-0.0383758544921875
1772709129207750000,5.12675,-0.9931640625,0.06256103515625,-0.037689208984375
1772709129217774800,5.13677490234375,-0.99609375,0.0627899169921875,-0.0375213623046875
1772709129227799800,5.1467998046875,-0.995819091796875,0.0595703125,-0.0378570556640625
1772709129237825000,5.156824951171875,-0.995697021484375,0.0612945556640625,-0.0392608642578125
1772709129247850000,5.16685009765625,-0.9954986572265625,0.0601043701171875,-0.0391693115234375
1772709129257874700,5.176874755859375,-0.9932861328125,0.0611114501953125,-0.0398712158203125
1772709129267899600,5.186899658203125,-0.9936370849609375,0.0619659423828125,-0.041290283203125
1772709129277924900,5.1969248046875,-0.995147705078125,0.0594329833984375,-0.042816162109375
1772709129287949800,5.20694970703125,-0.9939117431640625,0.059326171875,-0.0406951904296875
1772709129297974800,5.216974853515625,-0.989593505859375,0.0601959228515625,-0.04010009765625
1772709129307999700,5.226999755859375,-0.988067626953125,0.0550537109375,-0.0411529541015625
1772709129318025000,5.23702490234375,-0.9922027587890625,0.0525054931640625,-0.0349578857421875
1772709129328050000,5.2470498046875,-0.99505615234375,0.056793212890625,-0.041717529296875
1772709129338075000,5.257074951171875,-1.00213623046875,0.058837890625,-0.040771484375
1772709129348099800,5.267099853515625,-1.004638671875,0.0593414306640625,-0.037841796875
1772709129358124800,5.277124755859375,-0.9987335205078125,0.054718017578125,-0.043182373046875
1772709129368149800,5.287149658203125,-0.9938201904296875,0.0579986572265625,-0.03912353515625
1772709129378174700,5.2971748046875,-0.9922027587890625,0.059844970703125,-0.03955078125
1772709129388199700,5.30719970703125,-0.996063232421875,0.0597381591796875,-0.0383758544921875
1772709129398225000,5.317224853515625,-0.99517822265625,0.061279296875,-0.0374908447265625
1772709129408249900,5.327249755859375,-0.993896484375,0.061492919921875,-0.035858154296875
1772709129418274800,5.33727490234375,-0.9900665283203125,0.062530517578125,-0.036651611328125
1772709129428299800,5.3472998046875,-0.9863128662109375,0.063201904296875,-0.0396270751953125
1772709129438325000,5.357324951171875,-0.9900360107421875,0.0606231689453125,-0.037750244140625
1772709129448350000,5.367349853515625,-0.9947662353515625,0.0596160888671875,-0.035888671875
1772709129458374700,5.377374755859375,-0.9991912841796875,0.0597076416015625,-0.0361328125
1772709129468399900,5.38739990234375,-0.99951171875,0.0582733154296875,-0.039520263671875
1772709129478424800,5.3974248046875,-0.99896240234375,0.0558624267578125,-0.0435638427734375
1772709129488449800,5.40744970703125,-0.996185302734375,0.0554656982421875,-0.044403076171875
1772709129498474800,5.417474853515625,-0.9934234619140625,0.0583038330078125,-0.0387420654296875
1772709129508500000,5.4275,-0.9936065673828125,0.0573883056640625,-0.0384979248046875
1772709129518525000,5.43752490234375,-0.9936065673828125,0.057525634765625,-0.04010009765625
1772709129528550000,5.4475498046875,-0.9939422607421875,0.05706787109375,-0.04022216796875
1772709129538574800,5.457574951171875,-0.99407958984375,0.05670166015625,-0.0372467041015625
1772709129548600000,5.46760009765625,-0.99249267578125,0.0569610595703125,-0.037994384765625
1772709129558624800,5.477624755859375,-0.9932708740234375,0.0583648681640625,-0.0399932861328125
1772709129568649700,5.487649658203125,-0.9953765869140625,0.0577545166015625,-0.040802001953125
1772709129578674700,5.4976748046875,-0.996795654296875,0.0572052001953125,-0.0410003662109375
1772709129588700000,5.507699951171875,-0.9974822998046875,0.0589599609375,-0.0410003662109375
1772709129598724900,5.517724853515625,-0.99578857421875,0.0609588623046875,-0.039215087890625
1772709129608749800,5.527749755859375,-0.9953765869140625,0.0602569580078125,-0.041168212890625
1772709129618774800,5.53777490234375,-0.9916534423828125,0.058013916015625,-0.041778564453125
1772709129628800000,5.547800048828125,-0.9942169189453125,0.058013916015625,-0.0378265380859375
1772709129638825000,5.557824951171875,-0.994293212890625,0.060302734375,-0.0389404296875
1772709129648849700,5.567849609375,-0.99530029296875,0.0612030029296875,-0.0393829345703125
1772709129658874600,5.57787451171875,-0.993011474609375,0.0606689453125,-0.037933349609375
1772709129668899800,5.58789990234375,-0.9931488037109375,0.0600738525390625,-0.03887939453125
1772709129678924800,5.5979248046875,-0.9943389892578125,0.060150146484375,-0.040130615234375
1772709129693334800,5.612334716796875,-0.994781494140625,0.0595855712890625,-0.0391082763671875
1772709129703359700,5.62235986328125,-0.99713134765625,0.058441162109375,-0.0378570556640625
1772709129713385000,5.632385009765625,-0.9966583251953125,0.0582275390625,-0.039215087890625
1772709129723410000,5.642409912109375,-0.9960174560546875,0.0587005615234375,-0.038665771484375
1772709129733435000,5.652434814453125,-0.9920501708984375,0.0592803955078125,-0.03985595703125
1772709129743459800,5.6624599609375,-0.99322509765625,0.0599822998046875,-0.0391693115234375
1772709129753484800,5.67248486328125,-0.9947509765625,0.0590057373046875,-0.0395965576171875
1772709129763509800,5.682509765625,-0.99664306640625,0.059326171875,-0.040252685546875
1772709129773534700,5.69253466796875,-0.99615478515625,0.059051513671875,-0.039886474609375
1772709129783559700,5.7025595703125,-0.9929962158203125,0.0572357177734375,-0.03887939453125
1772709129793585000,5.7125849609375,-0.991729736328125,0.05853271484375,-0.0398712158203125
1772709129803609900,5.72260986328125,-0.9923858642578125,0.0611724853515625,-0.0408172607421875
1772709129813634800,5.732634765625,-0.998077392578125,0.06146240234375,-0.040130615234375
1772709129823659800,5.74265966796875,-1.0012359619140625,0.0599212646484375,-0.039642333984375
1772709129833685000,5.75268505859375,-0.99652099609375,0.055633544921875,-0.0392303466796875
1772709129843710000,5.7627099609375,-0.994049072265625,0.056549072265625,-0.038909912109375
1772709129853734700,5.772734619140625,-0.992462158203125,0.05804443359375,-0.0415496826171875
1772709129863760000,5.782759765625,-0.995849609375,0.0576324462890625,-0.0407257080078125
1772709129873784800,5.792784912109375,-0.9960479736328125,0.058197021484375,-0.0402374267578125
1772709129883809800,5.802809814453125,-0.9970703125,0.058441162109375,-0.0396728515625
1772709129893834800,5.812834716796875,-0.998016357421875,0.058441162109375,-0.0416259765625
1772709129903860000,5.82285986328125,-0.995147705078125,0.05950927734375,-0.0391082763671875
1772709129913885000,5.832885009765625,-0.991302490234375,0.0607452392578125,-0.03790283203125
1772709129923910000,5.842909912109375,-0.990081787109375,0.060577392578125,-0.037109375
1772709129933934800,5.852934814453125,-0.9931488037109375,0.0599822998046875,-0.0377044677734375
1772709129943960000,5.8629599609375,-0.9965972900390625,0.0586700439453125,-0.0407867431640625
1772709129953984800,5.87298486328125,-0.997894287109375,0.05963134765625,-0.0402069091796875
1772709129964009700,5.883009765625,-0.9960784912109375,0.0588531494140625,-0.0393524169921875
1772709129974034700,5.89303466796875,-0.9936065673828125,0.057586669921875,-0.0395965576171875
1772709129984060000,5.903059814453125,-0.992156982421875,0.05682373046875,-0.039794921875
1772709129994084900,5.9130849609375,-0.9936676025390625,0.0590057373046875,-0.0378875732421875
1772709130004109800,5.92310986328125,-0.9949798583984375,0.05859375,-0.037567138671875
1772709130014134800,5.933134765625,-0.9962158203125,0.060333251953125,-0.0384063720703125
1772709130024160000,5.943159912109375,-0.9962005615234375,0.0592498779296875,-0.042022705078125
1772709130034185200,5.953185302734375,-0.9936370849609375,0.0583953857421875,-0.03961181640625
1772709130044838100,5.963838134765625,-0.99249267578125,0.060028076171875,-0.0387420654296875
1772709130054863000,5.973863037109375,-0.9932403564453125,0.0605010986328125,-0.038177490234375
1772709130064888300,5.983888427734375,-0.995574951171875,0.0594940185546875,-0.0380401611328125
1772709130074913000,5.9939130859375,-0.9946441650390625,0.061279296875,-0.0376434326171875
1772709130084938000,6.00393798828125,-0.9947509765625,0.05926513671875,-0.038299560546875
1772709130094963200,6.013963134765625,-0.9952239990234375,0.05950927734375,-0.0401611328125
1772709130104988200,6.02398828125,-0.9968109130859375,0.059417724609375,-0.0400238037109375
1772709130115013000,6.03401318359375,-0.9978485107421875,0.059722900390625,-0.0401458740234375
1772709130125038000,6.0440380859375,-0.9965972900390625,0.0592193603515625,-0.037994384765625
1772709130135063300,6.054063232421875,-0.99395751953125,0.0601043701171875,-0.038299560546875
1772709130145088300,6.064088134765625,-0.9933624267578125,0.0590972900390625,-0.0396575927734375
1772709130155113200,6.07411328125,-0.99273681640625,0.057586669921875,-0.0375823974609375
1772709130165138200,6.08413818359375,-0.99298095703125,0.0596466064453125,-0.037933349609375
1772709130175163100,6.0941630859375,-0.994659423828125,0.0612030029296875,-0.0391387939453125
1772709130185188000,6.10418798828125,-0.9954833984375,0.059906005859375,-0.0388946533203125
1772709130195213000,6.114213134765625,-0.9949493408203125,0.0576019287109375,-0.0370330810546875
1772709130205238000,6.124238037109375,-0.992156982421875,0.0596160888671875,-0.0375823974609375
1772709130215263200,6.13426318359375,-0.9932861328125,0.05792236328125,-0.0375213623046875
1772709130225288200,6.1442880859375,-0.994293212890625,0.0595855712890625,-0.0394287109375
1772709130235313200,6.154313232421875,-0.9973602294921875,0.0592803955078125,-0.039459228515625
1772709130245338000,6.164338134765625,-0.996856689453125,0.0580596923828125,-0.0395660400390625
1772709130255363300,6.17436328125,-0.996124267578125,0.0579986572265625,-0.0401763916015625
1772709130265388300,6.18438818359375,-0.9964599609375,0.060333251953125,-0.0399017333984375
1772709130275413000,6.1944130859375,-0.996002197265625,0.05804443359375,-0.0376434326171875
1772709130285438000,6.20443798828125,-0.9961700439453125,0.0566253662109375,-0.037933349609375
1772709130295463200,6.214463134765625,-0.9949798583984375,0.0587615966796875,-0.039459228515625
1772709130305488100,6.224488037109375,-0.9939422607421875,0.060760498046875,-0.039398193359375
1772709130315513000,6.23451318359375,-0.996612548828125,0.0597076416015625,-0.0397796630859375
1772709130325538000,6.2445380859375,-0.9960784912109375,0.0581207275390625,-0.039703369140625
1772709130335563300,6.254563232421875,-0.99078369140625,0.0576629638671875,-0.03753662109375
1772709130345588200,6.264588134765625,-0.9920196533203125,0.0598297119140625,-0.03948974609375
1772709130355613200,6.27461328125,-0.996612548828125,0.05975341796875,-0.0406036376953125
1772709130365638100,6.28463818359375,-0.997589111328125,0.057891845703125,-0.04119873046875
1772709130375663000,6.2946630859375,-0.9959716796875,0.0589599609375,-0.0408782958984375
1772709130385688000,6.30468798828125,-0.9959716796875,0.0584716796875,-0.041839599609375
1772709130395713000,6.314713134765625,-0.9954376220703125,0.0597991943359375,-0.041961669921875
1772709130405738200,6.32473828125,-0.994171142578125,0.06060791015625,-0.0387420654296875
1772709130415763200,6.33476318359375,-0.993133544921875,0.0595245361328125,-0.035675048828125
1772709130425788200,6.3447880859375,-0.992340087890625,0.060028076171875,-0.0372467041015625
1772709130435813000,6.354813232421875,-0.9923858642578125,0.0604400634765625,-0.0371856689453125
1772709130445838300,6.36483837890625,-0.994598388671875,0.05889892578125,-0.038665771484375
1772709130455863300,6.37486328125,-0.99700927734375,0.0590362548828125,-0.038818359375
1772709130465888000,6.384887939453125,-0.996917724609375,0.058502197265625,-0.03643798828125
1772709130475913000,6.394912841796875,-0.995452880859375,0.0583038330078125,-0.035552978515625
1772709130485938200,6.404938232421875,-0.9955902099609375,0.0576171875,-0.0377960205078125
1772709130495963100,6.414963134765625,-0.9949188232421875,0.0591278076171875,-0.04034423828125
1772709130505988000,6.424988037109375,-0.9964141845703125,0.0579376220703125,-0.03985595703125
1772709130516013000,6.435012939453125,-0.996917724609375,0.0586700439453125,-0.0381927490234375
1772709130526038300,6.445038330078125,-0.99456787109375,0.059722900390625,-0.038421630859375
1772709130536063200,6.455063232421875,-0.995086669921875,0.0583953857421875,-0.03924560546875
1772709130546088200,6.465088134765625,-0.994049072265625,0.0592041015625,-0.0387725830078125
1772709130556113200,6.475113037109375,-0.993682861328125,0.0594024658203125,-0.0369873046875
1772709130566138000,6.48513818359375,-0.9932861328125,0.0597991943359375,-0.03839111328125
1772709130576163000,6.4951630859375,-0.993865966796875,0.06060791015625,-0.039703369140625
1772709130586188000,6.50518798828125,-0.9952545166015625,0.0582122802734375,-0.0387420654296875
1772709130596213000,6.515212890625,-0.9953765869140625,0.0583038330078125,-0.0390167236328125
1772709130606238200,6.52523828125,-0.9955596923828125,0.05859375,-0.037933349609375
1772709130616263200,6.53526318359375,-0.9942779541015625,0.0598602294921875,-0.038726806640625
1772709130626288000,6.5452880859375,-0.995819091796875,0.0611419677734375,-0.03900146484375
1772709130636313000,6.55531298828125,-0.9960174560546875,0.0603790283203125,-0.0391082763671875
1772709130646338300,6.56533837890625,-0.99468994140625,0.059295654296875,-0.036956787109375
1772709130656363300,6.57536328125,-0.99456787109375,0.059906005859375,-0.037322998046875
1772709130666388000,6.585387939453125,-0.995941162109375,0.060150146484375,-0.0382232666015625
1772709130676413200,6.5954130859375,-0.99395751953125,0.0601654052734375,-0.0390625
1772709130686438100,6.605438232421875,-0.9954986572265625,0.0597686767578125,-0.038970947265625
1772709130696463000,6.615463134765625,-0.99468994140625,0.060150146484375,-0.036956787109375
1772709130706488000,6.625488037109375,-0.994598388671875,0.060394287109375,-0.036102294921875
1772709130716513300,6.63551318359375,-0.99298095703125,0.0605621337890625,-0.03887939453125
1772709130726538200,6.645538330078125,-0.99407958984375,0.0597686767578125,-0.0369720458984375
1772709130736563200,6.655563232421875,-0.9941253662109375,0.0591278076171875,-0.03680419921875
1772709130746588200,6.665588134765625,-0.9954071044921875,0.0606842041015625,-0.0360565185546875
1772709130756613000,6.675613037109375,-0.9967803955078125,0.061309814453125,-0.03759765625
1772709130766638000,6.68563818359375,-0.996124267578125,0.061309814453125,-0.037841796875
1772709130776663000,6.6956630859375,-0.99371337890625,0.06048583984375,-0.0372161865234375
1772709130786688000,6.70568798828125,-0.9923248291015625,0.0601806640625,-0.036865234375
1772709130796713200,6.715713134765625,-0.994873046875,0.0604095458984375,-0.038818359375
1772709130806738200,6.72573828125,-0.9967193603515625,0.06109619140625,-0.0383453369140625
1772709130816763100,6.73576318359375,-0.9952392578125,0.06024169921875,-0.03692626953125
1772709130826788000,6.7457880859375,-0.9940338134765625,0.059783935546875,-0.0357818603515625
1772709130836813300,6.755813232421875,-0.991943359375,0.062896728515625,-0.036773681640625
1772709130846838300,6.76583837890625,-0.994873046875,0.064300537109375,-0.03759765625
1772709130856863000,6.775863037109375,-0.9947509765625,0.06048583984375,-0.036773681640625
1772709130866888000,6.785887939453125,-0.991058349609375,0.059326171875,-0.0343170166015625
1772709130876913200,6.7959130859375,-0.9914093017578125,0.0581207275390625,-0.0396728515625
1772709130886938000,6.805938232421875,-0.9976959228515625,0.0584716796875,-0.04376220703125
1772709130896963000,6.815963134765625,-0.9993133544921875,0.0607147216796875,-0.0384368896484375
1772709130906989000,6.825989013671875,-0.9942474365234375,0.0612640380859375,-0.036529541015625
1772709130917014000,6.836013916015625,-0.9938201904296875,0.0598907470703125,-0.0397491455078125
1772709130927039200,6.846039306640625,-0.99365234375,0.057403564453125,-0.0409088134765625
1772709130937064200,6.856064208984375,-0.991607666015625,0.0663299560546875,-0.0355072021484375
1772709130947089200,6.866089111328125,-0.9936981201171875,0.0645904541015625,-0.0348968505859375
1772709130957114000,6.876114013671875,-0.9989166259765625,0.0579376220703125,-0.038970947265625
1772709130967139300,6.886139404296875,-0.9974517822265625,0.0602874755859375,-0.038787841796875
1772709130977164000,6.8961640625,-0.99261474609375,0.0602264404296875,-0.0353546142578125
1772709130987189000,6.90618896484375,-0.992034912109375,0.057891845703125,-0.037200927734375
1772709130997214000,6.9162138671875,-0.99072265625,0.059417724609375,-0.038116455078125
1772709131007239200,6.9262392578125,-0.99267578125,0.0608978271484375,-0.0366058349609375
1772709131017264000,6.93626416015625,-0.996826171875,0.059173583984375,-0.0396270751953125
1772709131027289300,6.946289306640625,-0.9990997314453125,0.0571136474609375,-0.0419769287109375
1772709131037314300,6.956314208984375,-0.998077392578125,0.0614776611328125,-0.0391998291015625
1772709131047339500,6.966339599609375,-0.9954986572265625,0.0623779296875,-0.037811279296875
1772709131057364500,6.976364501953125,-0.9937591552734375,0.0603179931640625,-0.0393524169921875
1772709131067389400,6.986389404296875,-0.99151611328125,0.059173583984375,-0.040924072265625
1772709131077414400,6.996414306640625,-0.9935302734375,0.0589447021484375,-0.0397186279296875
1772709131087439600,7.006439697265625,-0.9959716796875,0.058746337890625,-0.03741455078125
1772709131097464600,7.016464599609375,-0.9946136474609375,0.060791015625,-0.03851318359375
1772709131107489500,7.026489501953125,-0.99249267578125,0.063140869140625,-0.0380859375
1772709131117514500,7.036514404296875,-0.9923553466796875,0.060638427734375,-0.0377960205078125
1772709131127539500,7.04653955078125,-0.9914703369140625,0.0597076416015625,-0.0388031005859375
1772709131137564400,7.056564453125,-0.9920806884765625,0.0596160888671875,-0.0377349853515625
1772709131147589400,7.06658935546875,-0.9970550537109375,0.057952880859375,-0.037567138671875
1772709131157614600,7.076614501953125,-0.99822998046875,0.060394287109375,-0.0406494140625
1772709131167639600,7.0866396484375,-0.9846954345703125,0.0699615478515625,-0.03515625
1772709131177664500,7.09666455078125,-0.97943115234375,0.0697479248046875,-0.042144775390625
1772709131187689500,7.106689453125,-1.015899658203125,0.038299560546875,-0.04351806640625
1772709131197714700,7.116714599609375,-1.020599365234375,0.0551300048828125,-0.0403900146484375
1772709131207739400,7.126739501953125,-0.992431640625,0.0748443603515625,-0.036865234375
1772709131217764400,7.136764404296875,-0.986907958984375,0.0537872314453125,-0.040557861328125
1772709131227789300,7.146789306640625,-0.984588623046875,0.051177978515625,-0.035552978515625
1772709131237814500,7.156814453125,-0.985809326171875,0.0590057373046875,-0.037078857421875
1772709131247839500,7.166839599609375,-1.003875732421875,0.0554656982421875,-0.0391693115234375
1772709131257864400,7.176864501953125,-1.0079193115234375,0.05377197265625,-0.0431976318359375
1772709131267889400,7.186889404296875,-0.996124267578125,0.0597686767578125,-0.043212890625
1772709131277914600,7.19691455078125,-0.988800048828125,0.06890869140625,-0.0259857177734375
