time,seconds_elapsed,z,y,x
1772709124079955200,-0.001044921875,-0.03959694504737854,-0.9272820353507996,-0.9348680973052979
1772709124089980200,0.008980224609375,-0.0441669300198555,-0.9857096672058105,-0.9891068339347839
1772709124100005000,0.019005126953125,0.007025951519608498,-0.9909933805465698,-1.0760430097579956
1772709124110030000,0.029030029296875,0.0615009106695652,-1.0296939611434937,-1.1854145526885986
1772709124120055300,0.03905517578125,0.0704006627202034,-1.0373272895812988,-1.2779407501220703
1772709124130080300,0.049080322265625,0.3166450560092926,-1.193521499633789,-1.3039335012435913
1772709124140105200,0.059105224609375,0.9356206655502319,-1.7774293422698975,-1.1919448375701904
1772709124150130200,0.069130126953125,1.6848526000976562,-2.315411329269409,-1.0347765684127808
1772709124160155400,0.0791552734375,2.0141961574554443,-2.391664743423462,-1.0334993600845337
1772709124170180400,0.089180419921875,1.9978704452514648,-2.4607911109924316,-1.1649678945541382
1772709124180205000,0.099205078125,1.8630033731460571,-2.632551908493042,-1.3372011184692383
1772709124190230000,0.10922998046875,1.6839511394500732,-2.787034273147583,-1.526327133178711
1772709124200255200,0.119255126953125,1.3166428804397583,-2.9150726795196533,-1.822129249572754
1772709124210280200,0.1292802734375,0.7002622485160828,-2.8442537784576416,-2.2410006523132324
1772709124220305200,0.13930517578125,0.3517148792743683,-2.9486660957336426,-2.5291733741760254
1772709124230330000,0.149330078125,0.0637025460600853,-3.0913496017456055,-2.7081398963928223
1772709124240355300,0.159355224609375,-0.25984570384025574,-3.2129931449890137,-2.8139681816101074
1772709124250380300,0.16938037109375,-0.5075497627258301,-3.4423439502716064,-2.9072134494781494
1772709124260405200,0.1794052734375,-0.5882352590560913,-3.628962993621826,-2.9588675498962402
1772709124270430200,0.18943017578125,-0.5761898159980774,-3.6530370712280273,-2.9845125675201416
1772709124280455200,0.199455078125,-0.55805504322052,-3.4342832565307617,-2.980025291442871
1772709124290480000,0.209480224609375,-0.508007824420929,-3.0222158432006836,-2.8769640922546387
1772709124300505000,0.219505126953125,-0.4303297996520996,-2.805236339569092,-2.6538376808166504
1772709124310530300,0.2295302734375,-0.297037273645401,-2.6135103702545166,-2.3591928482055664
1772709124320555300,0.23955517578125,-0.1775801181793213,-2.116814374923706,-1.9390177726745605
1772709124330580200,0.249580322265625,0.02846306748688221,-1.9876505136489868,-1.5732253789901733
1772709124340605200,0.259605224609375,0.26797738671302795,-1.910744309425354,-1.345879316329956
1772709124350630400,0.26963037109375,0.41315507888793945,-1.803809642791748,-1.2128435373306274
1772709124360655400,0.2796552734375,0.3992251455783844,-1.5922012329101562,-1.1502951383590698
1772709124370680300,0.289680419921875,0.297858864068985,-1.3287885189056396,-1.1338157653808594
1772709124380705000,0.299705078125,0.11595829576253891,-1.0867351293563843,-1.1496176719665527
1772709124390730200,0.309730224609375,-0.09801844507455826,-0.8401500582695007,-1.1516845226287842
1772709124400755200,0.319755126953125,-0.3065705895423889,-0.6087781190872192,-1.0326292514801025
1772709124410780200,0.3297802734375,-0.5144824981689453,-0.5692440271377563,-0.7996849417686462
1772709124420805000,0.33980517578125,-0.6980012059211731,-0.6338397860527039,-0.5238016843795776
1772709124430830300,0.349830322265625,-0.8848786950111389,-0.8706339597702026,-0.23649908602237701
1772709124440855300,0.359855224609375,-1.108805775642395,-1.1027321815490723,0.0018013621447607875
1772709124450880300,0.36988037109375,-1.373535394668579,-1.2144742012023926,0.15880802273750305
1772709124460906200,0.37990625,-1.6233234405517578,-1.187776803970337,0.26280659437179565
1772709124470931200,0.38993115234375,-1.784162163734436,-0.977749228477478,0.3510192632675171
1772709124480956400,0.399956298828125,-1.864267349243164,-0.6331313848495483,0.4696868062019348
1772709124490981000,0.409981201171875,-1.9070249795913696,-0.3024280369281769,0.5848224759101868
1772709124501006000,0.420006103515625,-1.9140293598175049,-0.3876214921474457,0.6441880464553833
1772709124511031000,0.430031005859375,-1.942376732826233,-0.3091013729572296,0.6860294938087463
1772709124521056300,0.44005615234375,-1.9463393688201904,-0.5289754271507263,0.7134217023849487
1772709124531081200,0.450081298828125,-1.9282222986221313,-0.7207192778587341,0.659085750579834
1772709124541106200,0.460106201171875,-1.9405165910720825,-0.7721896767616272,0.5676381587982178
1772709124551131100,0.470131103515625,-1.914638638496399,-0.79350346326828,0.47522857785224915
1772709124561156400,0.48015625,-1.8726850748062134,-0.6876729130744934,0.38138118386268616
1772709124571181300,0.490181396484375,-1.8440853357315063,-0.44703635573387146,0.33698201179504395
1772709124581206300,0.500206298828125,-1.8085212707519531,-0.040395092219114304,0.3248057961463928
1772709124591231200,0.510231201171875,-1.7441850900650024,0.4300938546657562,0.2851742208003998
1772709124601256200,0.520256103515625,-1.6194560527801514,0.9257643222808838,0.21110105514526367
1772709124611281200,0.53028125,-1.430618405342102,1.3234946727752686,0.15243375301361084
1772709124621306000,0.54030615234375,-1.1837852001190186,1.4394077062606812,0.13339374959468842
1772709124631331300,0.550331298828125,-0.8938950896263123,1.3216887712478638,0.14938949048519135
1772709124641356300,0.560356201171875,-0.6111161112785339,1.2258812189102173,0.1843983381986618
1772709124651381200,0.57038134765625,-0.3915536403656006,1.1863738298416138,0.18049520254135132
1772709124661406200,0.58040625,-0.25200188159942627,1.1918530464172363,0.0725807249546051
1772709124671431400,0.590431396484375,-0.18949829041957855,1.1588199138641357,-0.11758308857679367
1772709124681456400,0.600456298828125,-0.17485517263412476,1.1224685907363892,-0.336410254240036
1772709124691481000,0.610481201171875,-0.18885193765163422,1.1689988374710083,-0.5728102326393127
1772709124701506000,0.620506103515625,-0.23678351938724518,0.6954261660575867,-0.943304717540741
1772709124711531300,0.63053125,-0.29486972093582153,0.7579931616783142,-1.3161821365356445
1772709124721556200,0.64055615234375,-0.17305007576942444,0.46907374262809753,-1.5496364831924438
1772709124731581200,0.650581298828125,0.09833589196205139,-0.7031704187393188,-1.9006189107894897
1772709124741606100,0.660606201171875,0.5589927434921265,-0.9854215383529663,-1.9188965559005737
1772709124751631400,0.67063134765625,0.9228569269180298,-1.3245199918746948,-1.8506284952163696
1772709124761656300,0.68065625,1.086852788925171,-1.4946054220199585,-1.5971957445144653
1772709124771681300,0.690681396484375,1.0028334856033325,-1.2285428047180176,-1.2224068641662598
1772709124781706200,0.700706298828125,0.7966073751449585,-0.9746665954589844,-0.8409594297409058
1772709124791731200,0.710731201171875,0.5952223539352417,-0.7844870686531067,-0.4277436137199402
1772709124801756200,0.720756103515625,0.4336739480495453,-0.5629091858863831,-0.030953655019402504
1772709124811781000,0.730781005859375,0.3642352223396301,-0.31678512692451477,0.33059096336364746
1772709124821806000,0.74080615234375,0.35146695375442505,0.050405118614435196,0.6112886667251587
1772709124831831300,0.750831298828125,0.3169265389442444,0.5525462627410889,0.733942449092865
1772709124841856300,0.760856201171875,0.22945262491703033,1.044711709022522,0.755177915096283
1772709124851881200,0.770881103515625,0.1300264447927475,1.4154413938522339,0.7211504578590393
1772709124861906200,0.78090625,0.025201227515935898,1.6841281652450562,0.6339705586433411
1772709124871931400,0.790931396484375,0.010398845188319683,1.7321233749389648,0.4998588263988495
1772709124881956000,0.8009560546875,0.11447011679410934,1.681959867477417,0.3246542513370514
1772709124891982300,0.810982421875,0.25511646270751953,1.4017153978347778,0.15897341072559357
1772709124902006300,0.82100634765625,0.3708566427230835,0.9466165900230408,0.08909419178962708
1772709124912032000,0.831031982421875,0.42709460854530334,0.42173391580581665,0.08862441033124924
1772709124922057200,0.84105712890625,0.3784106969833374,-0.5218232274055481,0.0533609576523304
1772709124932082200,0.851082275390625,0.29608890414237976,-1.5308358669281006,-0.02448190748691559
1772709124942107100,0.861107177734375,0.2337038367986679,-2.482187032699585,-0.13361585140228271
1772709124952132400,0.87113232421875,0.1954864114522934,-3.2162904739379883,-0.2912808358669281
1772709124962157300,0.8811572265625,0.14955008029937744,-3.2602434158325195,-0.43644896149635315
1772709124972182300,0.891182373046875,0.09156133979558945,-2.802278995513916,-0.5319613814353943
1772709124982207200,0.901207275390625,0.045161351561546326,-2.734943389892578,-0.6567996740341187
1772709124992232400,0.911232421875,0.05313672125339508,-2.3100714683532715,-0.7101393342018127
1772709125002257200,0.921257080078125,0.07934994995594025,-2.5348641872406006,-0.8808527588844299
1772709125012282000,0.9312822265625,0.10371920466423035,-2.862339735031128,-1.077657699584961
1772709125022307300,0.941307373046875,0.1200166866183281,-2.7578346729278564,-1.2466307878494263
1772709125032332500,0.95133251953125,0.11529196798801422,-2.5210113525390625,-1.3239662647247314
1772709125042357500,0.961357421875,0.09942459315061569,-2.264308214187622,-1.2969032526016235
1772709125052382200,0.97138232421875,0.09087477624416351,-2.0229880809783936,-1.1504634618759155
1772709125062407200,0.9814072265625,0.08066528290510178,-1.6849188804626465,-0.9062929153442383
1772709125072432400,0.991432373046875,0.06460961699485779,-1.1992884874343872,-0.5978549122810364
1772709125082457300,1.001457275390625,0.037828605622053146,-0.5888781547546387,-0.26104599237442017
1772709125092482300,1.011482421875,0.007933823391795158,0.011857458390295506,0.05004798620939255
1772709125102507300,1.02150732421875,-0.01158741395920515,0.3430902361869812,0.24171222746372223
1772709125112532500,1.031532470703125,-0.016321714967489243,0.3169744908809662,0.2741290330886841
1772709125122557400,1.041557373046875,-0.013159211724996567,0.14772847294807434,0.20392809808254242
1772709125132582400,1.05158251953125,-0.013052685186266899,-0.009613478556275368,0.06902460753917694
1772709125142607400,1.061607421875,-0.008391354233026505,-0.0970892682671547,-0.07425052672624588
1772709125152632300,1.07163232421875,0.0012314456980675459,-0.1083187535405159,-0.133782297372818
1772709125162657300,1.0816572265625,-0.0018104169284924865,-0.09287401288747787,-0.09655184298753738
1772709125172682200,1.09168212890625,-0.01356640923768282,-0.06202608719468117,-0.002990197157487273
1772709125182707200,1.101707275390625,-0.021638182923197746,-0.01974361017346382,0.07198071479797363
1772709125192732400,1.111732421875,-0.029337381944060326,-0.006926349364221096,0.0829409584403038
1772709125202757400,1.12175732421875,-0.026437200605869293,-0.026545589789748192,0.049188584089279175
1772709125212782300,1.1317822265625,-0.020893564447760582,-0.04946981370449066,0.008257397450506687
1772709125222807300,1.141807373046875,-0.02730991691350937,-0.05006130412220955,-0.018518025055527687
1772709125232832500,1.15183251953125,-0.029866818338632584,-0.04945649951696396,-0.02743482030928135
1772709125242857500,1.161857421875,-0.030409038066864014,-0.06096641346812248,-0.0243197213858366
1772709125252882200,1.171882080078125,-0.031927041709423065,-0.07092983275651932,-0.006849916651844978
1772709125262907400,1.181907470703125,-0.03369325026869774,-0.06564798206090927,0.012573049403727055
1772709125272932400,1.191932373046875,-0.025918416678905487,-0.0551719106733799,0.01979687437415123
1772709125282957300,1.201957275390625,-0.01902349293231964,-0.04803010821342468,0.018278339877724648
1772709125292982300,1.211982177734375,-0.01715741492807865,-0.042098984122276306,0.004087419714778662
1772709125303007500,1.222007568359375,-0.009101619012653828,-0.03737906366586685,-0.012386628426611423
1772709125313032400,1.232032470703125,-0.0036242958158254623,-0.014566159807145596,-0.03129586949944496
1772709125323057400,1.242057373046875,0.002447711303830147,-0.002013349672779441,-0.044685713946819305
1772709125333082400,1.252082275390625,0.009605756029486656,0.01828419789671898,-0.04324920475482941
1772709125343107600,1.262107666015625,0.014584269374608994,0.03296088054776192,-0.04117140546441078
1772709125353133600,1.272133544921875,0.014931811019778252,0.038236070424318314,-0.03494253754615784
1772709125363158300,1.282158203125,0.009955961257219315,0.03267725184559822,-0.03310335800051689
1772709125373183200,1.292183349609375,0.010128534398972988,0.02143232151865959,-0.04015008360147476
1772709125383208200,1.302208251953125,0.010056362487375736,0.017004549503326416,-0.04132560268044472
1772709125393233400,1.3122333984375,0.006518885493278503,0.018441591411828995,-0.03632844612002373
1772709125403258400,1.32225830078125,0.004959338344633579,0.019171297550201416,-0.029985595494508743
1772709125413283300,1.332283447265625,0.001972070662304759,0.019094066694378853,-0.026429476216435432
1772709125423308300,1.342308349609375,0.0010191916953772306,0.005113801918923855,-0.023069899529218674
1772709125433333500,1.35233349609375,-0.0016215987270697951,-0.0015614113071933389,-0.01636459305882454
1772709125443358500,1.3623583984375,-0.0011624698527157307,-0.003263970138505101,-0.006983873434364796
1772709125453383400,1.372383544921875,-0.004108458757400513,-0.005195294506847858,0.003658917034044862
1772709125463408000,1.382408203125,-0.005825132131576538,-0.007396663539111614,0.01552596315741539
1772709125473433300,1.392433349609375,-0.006324208807200193,-0.009733054786920547,0.019294070079922676
1772709125483458300,1.402458251953125,-0.010268616490066051,-0.020291956141591072,0.0167989544570446
1772709125493483300,1.412483154296875,-0.009504289366304874,-0.016115054488182068,0.006719954311847687
1772709125503508200,1.42250830078125,-0.004262921866029501,-0.0100212087854743,-0.0003153182624373585
1772709125513533400,1.432533447265625,-0.008154598996043205,-0.010874485597014427,-0.0014237258583307266
1772709125523558400,1.442558349609375,-0.019665313884615898,-0.017728397622704506,-0.0049345712177455425
1772709125533583400,1.452583251953125,-0.017738783732056618,-0.02479349635541439,-0.008994294330477715
1772709125543608300,1.4626083984375,-0.01311979629099369,-0.024351146072149277,-0.007730357814580202
1772709125553633500,1.472633544921875,-0.010459565557539463,-0.013884124346077442,0.00008255799184553325
1772709125563658200,1.482658203125,-0.011860920116305351,-0.00765951769426465,0.010577277280390263
1772709125573683200,1.49268310546875,-0.012887302786111832,-0.006741792429238558,0.019946277141571045
1772709125583708200,1.502708251953125,-0.02327629365026951,-0.01901869848370552,0.018505508080124855
1772709125593733400,1.5127333984375,-0.03139946609735489,-0.03779984265565872,0.010378604754805565
1772709125603758300,1.52275830078125,-0.04054130241274834,-0.06010141968727112,-0.008222776465117931
1772709125613783300,1.532783203125,-0.0478450208902359,-0.07622366398572922,-0.02725718729197979
1772709125623808300,1.542808349609375,-0.04410833865404129,-0.06800009310245514,-0.03777614235877991
1772709125633833500,1.55283349609375,-0.04062332585453987,-0.04342550411820412,-0.047030624002218246
1772709125643858400,1.5628583984375,-0.04027871415019035,-0.03521604463458061,-0.0522453598678112
1772709125653883400,1.57288330078125,-0.04813477396965027,-0.049020539969205856,-0.053469616919755936
1772709125663908400,1.582908447265625,-0.04739920794963837,-0.0615142285823822,-0.04675418883562088
1772709125673933300,1.592933349609375,-0.04297942668199539,-0.05825558304786682,-0.034882884472608566
1772709125683958300,1.602958251953125,-0.03286447376012802,-0.03966032713651657,-0.024402545765042305
1772709125693983200,1.612983154296875,-0.02521321177482605,-0.02251063473522663,-0.020120447501540184
1772709125704008400,1.623008544921875,-0.008858206681907177,0.0028474517166614532,-0.03473401069641113
1772709125714033400,1.633033447265625,0.00041518680518493056,0.02828889526426792,-0.05157637596130371
1772709125724058400,1.643058349609375,0.004095142707228661,0.030342726036906242,-0.05582811310887337
1772709125734083300,1.653083251953125,0.01708950474858284,0.031061246991157532,-0.05137184262275696
1772709125744108500,1.663108642578125,0.033786192536354065,0.049423474818468094,-0.041619349271059036
1772709125754133200,1.67313330078125,0.040647562593221664,0.05775997042655945,-0.03296434134244919
1772709125764158200,1.683158203125,0.03693777695298195,0.031788021326065063,-0.022425148636102676
1772709125774183200,1.69318310546875,0.03521924093365669,0.01847248338162899,-0.0011792477453127503
1772709125784208400,1.70320849609375,0.042809516191482544,0.031852737069129944,0.021616345271468163
1772709125794233300,1.7132333984375,0.038663771003484726,0.0633760392665863,0.03945925831794739
1772709125804258300,1.72325830078125,0.03478701040148735,0.04568652808666229,0.039626769721508026
1772709125814283300,1.733283203125,0.03369404748082161,0.0008769789128564298,0.028846295550465584
1772709125824308500,1.74330859375,0.03859160095453262,-0.003556119045242667,0.027179690077900887
1772709125834333400,1.75333349609375,0.03548209369182587,0.005084507167339325,0.03844486176967621
1772709125844359400,1.763359375,0.03133288770914078,0.011991415172815323,0.05709923803806305
1772709125854384400,1.77338427734375,0.025730131193995476,-0.01781122200191021,0.060447096824645996
1772709125864409300,1.783409423828125,0.022161761298775673,-0.03663311153650284,0.05170260742306709
1772709125874434300,1.793434326171875,0.022036060690879822,-0.02063976414501667,0.04129071533679962
1772709125884459300,1.803459228515625,0.026195650920271873,0.0008609999786131084,0.037211284041404724
1772709125894484200,1.813484130859375,0.027881965041160583,-0.01188275869935751,0.03744271397590637
1772709125904509200,1.82350927734375,0.03549221530556679,0.010929613374173641,0.03996845334768295
1772709125914534400,1.833534423828125,0.038911979645490646,0.006389189511537552,0.04573872685432434
1772709125924559400,1.843559326171875,0.04277808964252472,-0.011228153482079506,0.0438244454562664
1772709125934584300,1.853584228515625,0.04885249584913254,-0.011412178166210651,0.041738659143447876
1772709125944609300,1.863609375,0.054242465645074844,0.014060957357287407,0.04460421949625015
1772709125954634500,1.873634521484375,0.054600927978754044,0.014688665047287941,0.04150136932730675
1772709125964659500,1.883659423828125,0.056230515241622925,0.000604004948399961,0.03159308061003685
1772709125974684200,1.89368408203125,0.0512796975672245,-0.017763551324605942,0.014986938796937466
1772709125984709400,1.90370947265625,0.044558677822351456,-0.009242500178515911,0.008022773079574108
1772709125994734300,1.913734375,0.038248851895332336,0.009248625487089157,0.009880061261355877
1772709126004759300,1.92375927734375,0.033237848430871964,0.015484949573874474,0.0006508765509352088
1772709126014784300,1.9337841796875,0.03009212203323841,0.03297259658575058,-0.013994911685585976
1772709126024809200,1.943809326171875,0.027847077697515488,0.044684913009405136,-0.03449060022830963
1772709126034834200,1.953834228515625,0.02593545988202095,0.039015043526887894,-0.05484221130609512
1772709126044859100,1.963859130859375,0.020367056131362915,0.02816239558160305,-0.06652123481035233
1772709126054884000,1.973884033203125,0.020438162609934807,0.02798343077301979,-0.06318455934524536
1772709126064909300,1.983909423828125,0.017912155017256737,0.036489035934209824,-0.05409332737326622
1772709126074934300,1.993934326171875,0.012621519155800343,0.041132256388664246,-0.04777604341506958
1772709126084959200,2.003959228515625,0.009502957575023174,0.029985861852765083,-0.04809509217739105
1772709126094984200,2.013984130859375,0.009548763744533062,0.01726607233285904,-0.05006343498826027
1772709126105009400,2.024009521484375,0.007305583450943232,0.019220566377043724,-0.050939880311489105
1772709126115034000,2.0340341796875,0.005340170580893755,0.023720774799585342,-0.044809017330408096
1772709126125059000,2.04405908203125,0.0000804274677648209,0.02419748157262802,-0.04231150448322296
1772709126135084000,2.054083984375,-0.003297259798273444,0.01739710010588169,-0.03829492628574371
1772709126145109200,2.064109130859375,-0.0035835495218634605,0.01468493603169918,-0.04162440821528435
1772709126155134200,2.07413427734375,-0.004229632206261158,0.0073418025858700275,-0.0473957434296608
1772709126165159200,2.0841591796875,-0.010193515568971634,0.010425476357340813,-0.050516970455646515
1772709126175184100,2.09418408203125,-0.012679043225944042,0.011233746074140072,-0.04381139576435089
1772709126185209300,2.104209228515625,-0.013427125290036201,0.0023523701820522547,-0.033065542578697205
1772709126195234300,2.114234375,-0.011520568281412125,0.000037017940485384315,-0.028853219002485275
1772709126205259300,2.12425927734375,-0.009120794013142586,0.0044109937734901905,-0.021525265648961067
1772709126215284200,2.1342841796875,-0.0070493873208761215,0.009637713432312012,-0.016032496467232704
1772709126225309200,2.14430908203125,-0.004381699021905661,-0.004286890383809805,-0.009701629169285297
1772709126235334100,2.154334228515625,-0.013973073102533817,-0.02672002837061882,-0.013655091635882854
1772709126245359000,2.164359130859375,-0.005244829226285219,-0.044552020728588104,-0.007505586836487055
1772709126255384300,2.17438427734375,-0.017231984063982964,-0.0497201532125473,-0.010319482535123825
1772709126265409300,2.1844091796875,-0.02183552458882332,-0.0474679172039032,-0.006986536551266909
1772709126275434200,2.194434326171875,-0.021191570907831192,-0.04054449498653412,-0.00379021093249321
1772709126285459200,2.204459228515625,-0.021230187267065048,-0.0239559318870306,-0.014194648712873459
1772709126295485200,2.214485107421875,-0.022062690928578377,0.0037819549906998873,-0.02383023127913475
1772709126305510400,2.224510498046875,-0.028807945549488068,0.025604961439967155,-0.03898255154490471
1772709126315535400,2.234535400390625,-0.020953219383955002,0.00041092574247159064,-0.05554501712322235
1772709126325560300,2.244560302734375,-0.008865929208695889,-0.02359534054994583,-0.06072486564517021
1772709126335585000,2.2545849609375,-0.00990296434611082,-0.004340686369687319,-0.04234053194522858
1772709126345610200,2.2646103515625,-0.006685066968202591,0.023550866171717644,-0.01840723678469658
1772709126355635200,2.27463525390625,-0.004221376497298479,0.03213157132267952,0.0013073458103463054
1772709126365660200,2.28466015625,-0.004845887888222933,0.03407115116715431,0.005023254547268152
1772709126375685000,2.29468505859375,-0.011913117952644825,0.016057796776294708,-0.007281614933162928
1772709126385710300,2.30471044921875,-0.011591142043471336,-0.02925189398229122,-0.030593328177928925
1772709126395735300,2.3147353515625,-0.012955745682120323,-0.024382304400205612,-0.0418422557413578
1772709126405760300,2.32476025390625,-0.010816961526870728,-0.00833782460540533,-0.03582004830241203
1772709126415785200,2.33478515625,-0.00595589354634285,0.0051630702801048756,-0.02209172025322914
1772709126425810400,2.344810546875,-0.0005467469454742968,0.018193917348980904,-0.004480235744267702
1772709126435835100,2.354835205078125,-0.0006434197421185672,0.021383585408329964,0.0023960459511727095
1772709126445860000,2.364860107421875,0.0034349451307207346,0.007965248078107834,-0.005336175672709942
1772709126455885000,2.374885009765625,0.0023518374655395746,0.004839229863137007,-0.014521418139338493
1772709126465910300,2.38491015625,0.0037944719661027193,0.008902681060135365,-0.015903599560260773
1772709126475935200,2.394935302734375,0.0016263924771919847,0.013801832683384418,-0.00771863991394639
1772709126485960200,2.404960205078125,0.003949468024075031,0.008835835382342339,0.0007928230334073305
1772709126495985200,2.414985107421875,0.0028509139083325863,0.006421413738280535,0.00003808320252574049
1772709126506010400,2.42501025390625,0.0030304109677672386,0.013719274662435055,-0.006390254944562912
1772709126516035300,2.435035400390625,0.006927148438990116,0.014364025555551052,-0.0059969061985611916
1772709126526060000,2.44506005859375,0.00552233075723052,0.013998107053339481,-0.014198110438883305
1772709126536085200,2.455085205078125,0.011651063337922096,0.003910585772246122,-0.008990032598376274
1772709126546110200,2.465110107421875,0.004209125880151987,0.013829795643687248,-0.0008847020799294114
1772709126556135200,2.47513525390625,0.006936203222721815,0.018754778429865837,0.0038456046022474766
1772709126566160100,2.48516015625,0.012432434596121311,0.004419249482452869,0.0012751214671880007
1772709126576185300,2.495185302734375,0.00845686811953783,0.02118491381406784,0.000556334329303354
1772709126586210300,2.505210205078125,0.005730323493480682,0.019948141649365425,0.003937750123441219
1772709126596235300,2.5152353515625,0.008883239701390266,0.005845638457685709,-0.00006311691686278209
1772709126606260200,2.52526025390625,0.012193016707897186,0.009178051725029945,-0.00318886898458004
1772709126616285400,2.535285400390625,0.0091170659288764,0.02754960209131241,0.0008934905636124313
1772709126626310100,2.54531005859375,0.007385478354990482,0.029436452314257622,0.001002680161036551
1772709126636335000,2.555335205078125,0.009442769922316074,0.012517656199634075,-0.006322610657662153
1772709126646360000,2.565360107421875,0.0063007730059325695,0.006747118663042784,-0.012860405258834362
1772709126656385300,2.57538525390625,0.012834039516746998,0.010313623584806919,-0.00935275573283434
1772709126666410200,2.58541015625,0.007840879261493683,0.025041969493031502,-0.0050099384970963
1772709126676435200,2.595435302734375,0.010143447667360306,0.020487431436777115,-0.004618986509740353
1772709126686460200,2.605460205078125,0.010332798585295677,0.013275325298309326,-0.00563977612182498
1772709126696485400,2.6154853515625,0.010098706930875778,0.013288907706737518,-0.006556968670338392
1772709126706510300,2.62551025390625,0.014169614762067795,0.01122335996478796,-0.005228317808359861
1772709126716535300,2.635535400390625,0.015414375811815262,0.007230482529848814,-0.0005062668933533132
1772709126726560000,2.64556005859375,0.01619175262749195,0.00923158135265112,0.010934406891465187
1772709126736585200,2.655585205078125,0.015412778593599796,0.008628375828266144,0.018399247899651527
1772709126746610200,2.665610107421875,0.013569870963692665,0.0020793962758034468,0.02003283053636551
1772709126756635100,2.67563525390625,0.01209634356200695,-0.001505751279182732,0.0161222442984581
1772709126766660000,2.68566015625,0.010690727271139622,-0.00726457079872489,0.011244664900004864
1772709126776685300,2.695685302734375,0.01085584331303835,-0.010154100134968758,0.008817460387945175
1772709126786711300,2.705711181640625,0.01113148033618927,-0.008580971509218216,0.008437693119049072
1772709126796736300,2.715736328125,0.00953970942646265,-0.00035606464371085167,0.012278503738343716
1772709126806761200,2.72576123046875,0.008929313160479069,0.003870371961966157,0.010165286250412464
1772709126816786200,2.7357861328125,0.006383330561220646,-0.0002825613773893565,0.005094094667583704
1772709126826811400,2.745811279296875,0.0062219430692493916,-0.009603625163435936,0.0017973673529922962
1772709126836836000,2.755836181640625,0.005964415613561869,-0.010729609988629818,0.00173771264962852
1772709126846861000,2.765861083984375,0.003382480936124921,-0.006338323466479778,0.004809668753296137
1772709126856886300,2.77588623046875,0.0041161817498505116,0.000461259507574141,0.0035446672700345516
1772709126866911200,2.7859111328125,0.003406981937587261,-0.0036730316933244467,0.004614192992448807
1772709126876936200,2.795936279296875,0.002531334524974227,-0.007923702709376812,0.005494900047779083
1772709126886961200,2.805961181640625,0.0002426139690214768,-0.01776275224983692,0.008930644020438194
1772709126896986400,2.815986328125,0.0013491574209183455,-0.014001836068928242,0.018436796963214874
1772709126907011300,2.82601123046875,-0.0012447615154087543,-0.005546299275010824,0.024929318577051163
1772709126917036300,2.836036376953125,-0.002161954063922167,-0.00788801722228527,0.022637667134404182
1772709126927061200,2.846061279296875,-0.00401551416143775,-0.023077089339494705,0.014963769353926182
1772709126937086200,2.856086181640625,-0.0015512913232669234,-0.026143720373511314,0.00643686018884182
1772709126947111200,2.866111083984375,-0.0041763694025576115,-0.018008295446634293,0.003913515247404575
1772709126957136100,2.87613623046875,-0.00358807691372931,-0.009516273625195026,0.001457548001781106
1772709126967161000,2.8861611328125,-0.007477091159671545,-0.008699215948581696,-0.0062336609698832035
1772709126977186300,2.896186279296875,-0.007404919248074293,-0.01068140659481287,-0.013493438251316547
1772709126987211300,2.906211181640625,-0.002624278888106346,-0.013681191019713879,-0.0173821859061718
1772709126997236200,2.916236328125,-0.004858138505369425,-0.01870604418218136,-0.017175525426864624
1772709127007261200,2.92626123046875,-0.0006399576086550951,-0.021406488493084908,-0.009307747706770897
1772709127017286400,2.936286376953125,0.0017803232185542583,-0.01962376944720745,0.006595850922167301
1772709127027310800,2.946310791015625,0.004938565660268068,-0.016404539346694946,0.027042536064982414
1772709127037335800,2.956335693359375,0.013316071592271328,-0.016652746126055717,0.039084549993276596
1772709127047361000,2.966361083984375,0.01817421056330204,-0.021385982632637024,0.04409981518983841
1772709127057386000,2.976385986328125,0.01996918022632599,-0.012043613009154797,0.047197870910167694
1772709127067411000,2.986410888671875,0.02184617705643177,-0.005575327668339014,0.04597628116607666
1772709127077435600,2.996435546875,0.01823626086115837,-0.01056103128939867,0.04284173995256424
1772709127087460900,3.0064609375,0.01816675253212452,-0.010971956886351109,0.032825324684381485
1772709127097485800,3.01648583984375,0.017064204439520836,-0.0023342606145888567,0.0241338312625885
1772709127107510800,3.0265107421875,0.017707090824842453,0.005591040477156639,0.016348879784345627
1772709127117535700,3.03653564453125,0.016270847991108894,0.011695804074406624,0.010499779134988785
1772709127127561000,3.04656103515625,0.011838549748063087,0.018977684900164604,0.006484530866146088
1772709127137586000,3.0565859375,0.0094480961561203,0.021804364398121834,0.000028495824153651483
1772709127147611000,3.06661083984375,0.007733819540590048,0.019093800336122513,-0.008984972722828388
1772709127157635800,3.0766357421875,0.006281598005443811,0.012891030870378017,-0.01344310399144888
1772709127167661000,3.0866611328125,0.01230327133089304,0.012807673774659634,-0.02215270698070526
1772709127177685800,3.096685791015625,0.0070275492034852505,0.02977733686566353,-0.0133850472047925
1772709127187710700,3.106710693359375,-0.0024913870729506016,0.042393796145915985,-0.00848323293030262
1772709127197735700,3.116735595703125,0.009704026393592358,-0.0009882990270853043,-0.02311757020652294
1772709127207761000,3.126760986328125,0.0019323896849527955,0.008169779554009438,-0.024937307462096214
1772709127217785900,3.136785888671875,0.0019379822770133615,0.03518887981772423,-0.021582789719104767
1772709127227810800,3.146810791015625,0.005732720717787743,0.022839002311229706,-0.028802087530493736
1772709127237835800,3.156835693359375,-0.00035206988104619086,0.010595385916531086,-0.020959876477718353
1772709127247861000,3.166861083984375,-0.0023318638559430838,0.014609036035835743,-0.011716577224433422
1772709127257886000,3.176885986328125,0.0015550197567790747,0.008551410399377346,-0.016385631635785103
1772709127267911000,3.186910888671875,-0.0020575581584125757,0.01569667086005211,-0.01782027631998062
1772709127277935600,3.196935546875,-0.0009752495680004358,0.010632404126226902,-0.011021225713193417
1772709127287960800,3.2069609375,0.0008737831376492977,0.007060306146740913,-0.000015180017726379447
1772709127297985800,3.21698583984375,0.001773132593370974,0.009786051698029041,0.0028445222415030003
1772709127308010800,3.2270107421875,0.004774781409651041,0.006771087180823088,0.0030746194534003735
1772709127318036000,3.237035888671875,0.0070640346966683865,0.006810501683503389,0.0009528790251351893
1772709127328061000,3.24706103515625,0.005399292800575495,0.0046480149030685425,-0.00030413299100473523
1772709127338086000,3.2570859375,0.007673099637031555,0.006121009588241577,-0.004491420928388834
1772709127348110800,3.26711083984375,0.006884803995490074,0.007881625555455685,-0.010076869279146194
1772709127358136000,3.277135986328125,0.007395598106086254,0.014988536946475506,-0.015438077971339226
1772709127368160800,3.287160888671875,0.0075601814314723015,0.015045794658362865,-0.02010446973145008
1772709127378185700,3.297185791015625,0.007266168482601643,0.01684689149260521,-0.022731145843863487
1772709127388210700,3.307210693359375,0.00282055395655334,0.013888118788599968,-0.022226475179195404
1772709127398236000,3.31723583984375,0.0027236149180680513,0.010802047327160835,-0.024719994515180588
1772709127408260900,3.3272607421875,0.0038157771341502666,0.00878124125301838,-0.028015390038490295
1772709127418285800,3.337285888671875,0.001743305241689086,0.013482253067195415,-0.0284713227301836
1772709127428310800,3.347310791015625,0.0004511394945438951,0.016510000452399254,-0.02719913050532341
1772709127438336800,3.357336669921875,0.0008221178431995213,0.016468722373247147,-0.023803066462278366
1772709127448362000,3.367362060546875,0.0005195827106945217,0.012956278398633003,-0.026569291949272156
1772709127458387000,3.377386962890625,0.0011851066956296563,0.01828579604625702,-0.029415147379040718
1772709127468410600,3.38741064453125,0.0010596717474982142,0.024834509938955307,-0.027158383280038834
1772709127478436900,3.397436767578125,0.0040914141573011875,0.029402630403637886,-0.015738749876618385
1772709127488461800,3.4074619140625,0.002820287598297,0.021025922149419785,-0.004864796530455351
1772709127498486800,3.41748681640625,0.004858671221882105,0.01380848977714777,-0.0014564828015863895
1772709127508511700,3.42751171875,0.005288239102810621,0.01691373623907566,-0.0019233349012210965
1772709127518536700,3.43753662109375,0.009886452928185463,0.026764502748847008,0.000609863898716867
1772709127528562000,3.44756201171875,0.008867793716490269,0.032951824367046356,0.003683684393763542
1772709127538587000,3.4575869140625,0.00944836251437664,0.03086044453084469,0.007815312594175339
1772709127548611800,3.46761181640625,0.011666509322822094,0.023790817707777023,0.006057093385607004
1772709127558636800,3.47763671875,0.010280334390699863,0.0267099067568779,0.004628041293472052
1772709127568662000,3.487662109375,0.009347694925963879,0.023936225101351738,0.004338555503636599
1772709127578687000,3.49768701171875,0.009281116537749767,0.02202061377465725,0.004077299498021603
1772709127588711700,3.507711669921875,0.007708253338932991,0.016527578234672546,0.002110288944095373
1772709127598736600,3.517736572265625,0.010580206289887428,0.013903564773499966,-0.0007014766451902688
1772709127608761900,3.527761962890625,0.008784170262515545,0.019448531791567802,-0.00475480780005455
1772709127618786800,3.537786865234375,0.008165784180164337,0.010673416778445244,-0.0036578518338501453
1772709127628811800,3.547811767578125,0.007297860458493233,0.020369719713926315,-0.004780906718224287
1772709127638836700,3.557836669921875,0.004510595928877592,0.019213907420635223,-0.00771837355569005
1772709127648862000,3.567862060546875,0.005030178464949131,0.01979287900030613,-0.012301141396164894
1772709127658887000,3.577886962890625,0.0031435952987521887,0.021524200215935707,-0.0166170597076416
1772709127668911900,3.587911865234375,0.0018839201657101512,0.017644241452217102,-0.019770242273807526
1772709127678936800,3.597936767578125,0.0016647420125082135,0.0119706429541111,-0.02550988644361496
1772709127688961800,3.6079619140625,-0.0006716492353007197,0.012738964520394802,-0.028433239087462425
1772709127698986800,3.61798681640625,-0.003323891432955861,0.016706807538866997,-0.029143771156668663
1772709127709011700,3.62801171875,-0.003073021536692977,0.013250557705760002,-0.028545890003442764
1772709127719037000,3.638036865234375,-0.003977697342634201,0.012433233670890331,-0.032758213579654694
1772709127729062000,3.648061767578125,0.0022072279825806618,0.014708371832966805,-0.038536738604307175
1772709127739086800,3.6580869140625,0.00768721429631114,0.036559075117111206,-0.04441060870885849
1772709127749111800,3.66811181640625,-0.00355931487865746,0.038007836788892746,-0.021860558539628983
1772709127759137000,3.678136962890625,-0.004385161213576794,-0.00370072852820158,-0.003750795964151621
1772709127769162000,3.688161865234375,-0.002666090615093708,-0.012778911739587784,-0.011474229395389557
1772709127779186700,3.698186767578125,-0.00040027310024015605,0.026753317564725876,-0.031153392046689987
1772709127789211600,3.708211669921875,0.0027561055030673742,0.0363934263586998,-0.030133668333292007
1772709127799236900,3.71823681640625,0.0019864519126713276,0.012141884304583073,-0.021758824586868286
1772709127809261800,3.72826171875,-0.003748665563762188,0.0020303940400481224,-0.012967996299266815
1772709127819286800,3.738286865234375,-0.001773398951627314,0.007417968939989805,-0.00820866134017706
1772709127829311700,3.748311767578125,-0.00010253170330543071,0.015139271505177021,-0.01164547074586153
1772709127839337000,3.7583369140625,0.0008205199264921248,0.01122442539781332,-0.012418054044246674
1772709127849362000,3.76836181640625,-0.0008466189028695226,0.005313272587954998,-0.013584517873823643
1772709127859387000,3.778386962890625,-0.00040480049210600555,0.0021608888637274504,-0.010881409980356693
1772709127869411800,3.788411865234375,-0.0030988543294370174,-0.0017411747248843312,-0.006219279952347279
1772709127879436800,3.798436767578125,-0.0036637107841670513,0.006922354456037283,-0.011769307777285576
1772709127889461800,3.808461669921875,0.00407410366460681,0.0038301581516861916,-0.012225773185491562
1772709127899486700,3.81848681640625,0.0021398498211055994,0.01961258426308632,-0.0031244205310940742
1772709127909511700,3.82851171875,0.00373108871281147,0.020564664155244827,-0.01176478061825037
1772709127919537000,3.838536865234375,0.0036938043776899576,0.008503207005560398,-0.012053467333316803
1772709127929561900,3.848561767578125,-0.0003403519804123789,0.01113414391875267,-0.00953784491866827
1772709127939586800,3.8585869140625,-0.0008034756756387651,0.008743157610297203,-0.0171440988779068
1772709127949611800,3.86861181640625,0.0038804919458925724,0.005246427375823259,-0.024352744221687317
1772709127959637000,3.878636962890625,0.005087969359010458,0.01375469472259283,-0.020178770646452904
1772709127969662000,3.888661865234375,0.0024716798216104507,0.02641243301331997,-0.015350992791354656
1772709127979686700,3.898686767578125,0.007171360310167074,0.020264258608222008,-0.018313493579626083
1772709127989712000,3.9087119140625,0.009370598942041397,0.00939083844423294,-0.01817953586578369
1772709127999736800,3.91873681640625,0.004167846869677305,0.013967214152216911,-0.012191152200102806
1772709128009761800,3.92876171875,0.0054485611617565155,0.011908324435353279,-0.007477091159671545
1772709128019786800,3.938786865234375,0.004793956410139799,0.01516084372997284,-0.011870508082211018
1772709128029812000,3.94881201171875,0.005059739574790001,0.013675864785909653,-0.007366569712758064
1772709128039836700,3.958836669921875,0.006006227340549231,0.016280436888337135,-0.008962602354586124
1772709128049861600,3.968861572265625,0.005291967187076807,0.018580341711640358,-0.014252971857786179
1772709128059886600,3.978886474609375,0.0037465349305421114,0.014329138211905956,-0.012506737373769283
1772709128069911800,3.988911865234375,0.005253884010016918,0.012692625634372234,-0.007107177749276161
1772709128079936800,3.998936767578125,0.00785339530557394,0.010831075720489025,-0.010939200408756733
1772709128089961700,4.008961669921875,0.006424609571695328,0.012160259298980236,-0.01264255866408348
1772709128099986700,4.018986572265625,0.0022088258992880583,0.018273545429110527,-0.009529856033623219
1772709128110012000,4.029011962890625,0.008076036348938942,0.00484215933829546,-0.009138637222349644
1772709128120036900,4.039036865234375,0.002482066163793206,0.012828713282942772,-0.013631124049425125
1772709128130061800,4.049061767578125,0.004532699938863516,0.011392470449209213,-0.010657704435288906
1772709128140086500,4.05908642578125,0.004979312419891357,0.006951116491109133,-0.004972121678292751
1772709128150111700,4.06911181640625,0.0013214604696258903,0.016394419595599174,-0.003926032222807407
1772709128160136700,4.07913671875,0.005847768858075142,0.010436128824949265,-0.00574843306094408
1772709128170161700,4.08916162109375,0.0046357642859220505,-0.0000655137628200464,-0.005392901133745909
1772709128180186600,4.0991865234375,0.0022836606949567795,-0.01726340875029564,0.008597749285399914
1772709128190211800,4.1092119140625,0.0030770162120461464,-0.009967945516109467,0.011304852552711964
1772709128200236800,4.11923681640625,0.007668306119740009,-0.0041004689410328865,0.0065620290115475655
1772709128210261800,4.12926171875,0.005705556366592646,-0.005843774415552616,0.0073532541282474995
1772709128220286700,4.13928662109375,0.001445830101147294,-0.007148456759750843,0.008333031088113785
1772709128230312000,4.14931201171875,-0.0011374361347407103,-0.02165123261511326,0.0065324679017066956
1772709128240336600,4.159336669921875,-0.0013680658303201199,-0.0269493255764246,0.004762264434248209
1772709128250361600,4.169361572265625,-0.007781223859637976,-0.027823641896247864,0.002529470482841134
1772709128260386800,4.17938671875,-0.00827737059444189,-0.024147946387529373,0.00007962851668708026
1772709128270411800,4.189411865234375,-0.007233412005007267,-0.018817363306879997,-0.004591023549437523
1772709128280436700,4.199436767578125,-0.006937001831829548,-0.00395719101652503,-0.00708720413967967
1772709128290461700,4.209461669921875,-0.007553257513791323,0.004113784991204739,-0.002632800955325365
1772709128300487000,4.21948681640625,-0.004452006425708532,0.002284193178638816,-0.000010120012120751198
1772709128310511900,4.229511962890625,-0.0020841897930949926,-0.010804710909724236,-0.005224855616688728
1772709128320536800,4.239536865234375,-0.004343615844845772,-0.01173442043364048,-0.002409361768513918
1772709128330561800,4.249561767578125,-0.0017201356822624803,-0.008941829204559326,0.003326820908114314
1772709128340586800,4.259586669921875,0.0010290454374626279,-0.003547064261510968,0.003438939806073904
1772709128350611700,4.26961181640625,0.005372661165893078,0.005209409166127443,-0.0014831144362688065
1772709128360636700,4.27963671875,0.007283479440957308,0.006113818846642971,-0.0014018879737704992
1772709128370661600,4.28966162109375,0.011480354703962803,0.006077866069972515,0.004845887888222933
1772709128380686800,4.299686767578125,0.009228652343153954,0.00726430444046855,0.011462777853012085
1772709128390711800,4.3097119140625,0.008232097141444683,-0.0009142631897702813,0.01477468479424715
1772709128400736800,4.31973681640625,0.0075548551976680756,-0.005482915788888931,0.014213024638593197
1772709128410761700,4.32976171875,0.0029891319572925568,-0.0003046656202059239,0.0057138120755553246
1772709128420787000,4.339786865234375,0.0025904567446559668,0.0007126618875190616,0.00072597770486027
1772709128430811600,4.349811767578125,0.0018373148050159216,0.004639759194105864,0.0016421051695942879
1772709128440836600,4.359836669921875,-0.00004314320904086344,0.0022274679504334927,0.0005909554311074317
1772709128450861600,4.369861572265625,-0.001189900329336524,-0.0012298477813601494,-0.0009198558400385082
1772709128460886800,4.37988671875,-0.00290417717769742,-0.0004577973741106689,-0.0013140037190169096
1772709128470911700,4.389911865234375,-0.0032091091852635145,-0.00025779398856684566,-0.0014045510906726122
1772709128480936700,4.399936767578125,-0.0028040423057973385,-0.002897519152611494,-0.002888997085392475
1772709128490961700,4.409961669921875,-0.00045593318645842373,-0.003620833856984973,0.0008937568636611104
1772709128500987000,4.41998681640625,-0.005179848056286573,-0.0021233384031802416,0.0016871124971657991
1772709128511011800,4.43001171875,-0.0038804919458925724,0.0011616708943620324,-0.0002735066518653184
1772709128521036800,4.440036865234375,-0.0028455876745283604,0.00401737866923213,-0.004984905011951923
1772709128531061800,4.450061767578125,-0.0032205607276409864,0.0041217743419110775,-0.006568686570972204
1772709128541086700,4.460086669921875,-0.0016437029698863626,0.0026557042729109526,-0.008096808567643166
1772709128551111700,4.470111572265625,-0.0007209177128970623,0.0049558766186237335,-0.009040100499987602
1772709128561136600,4.48013671875,-0.0014090784825384617,0.007722367998212576,-0.009876066818833351
1772709128571161900,4.490161865234375,0.0013720606220886111,0.011891813017427921,-0.009807090274989605
1772709128581186800,4.500186767578125,0.0005185174522921443,0.006145776715129614,-0.008382565341889858
1772709128591211800,4.510211669921875,0.0008221178431995213,0.00009400958515470847,-0.009013734757900238
1772709128601236700,4.52023681640625,0.0007323693134821951,-0.0016405072528868914,-0.00826991442590952
1772709128611262000,4.530261962890625,-0.000931041082367301,0.0008783105295151472,-0.004018709994852543
1772709128621287000,4.540286865234375,-0.003318032482638955,0.0010551444720476866,-0.004364654887467623
1772709128631311600,4.5503115234375,-0.0031100395135581493,-0.009906958788633347,-0.005685849115252495
1772709128641336600,4.560336669921875,-0.004445881117135286,-0.013189305551350117,-0.00500940578058362
1772709128651361800,4.57036181640625,-0.0046333675272762775,-0.009889115579426289,-0.0028418591246008873
1772709128661386800,4.58038671875,-0.0044011399149894714,-0.006124471314251423,-0.005348159931600094
1772709128671411700,4.59041162109375,-0.0038535939529538155,-0.007632353343069553,-0.004055461846292019
1772709128681436700,4.600436767578125,-0.0029819414485245943,-0.0051289820112288,-0.0036914076190441847
1772709128691462000,4.6104619140625,-0.0025622271932661533,-0.006564692128449678,-0.0029790119733661413
1772709128701486800,4.62048681640625,-0.0012596751330420375,-0.009040899574756622,-0.0024458470288664103
1772709128711511800,4.63051171875,-0.0027025758754462004,-0.014935273677110672,-0.0005797701887786388
1772709128721536800,4.640536865234375,-0.004855475388467312,-0.022131135687232018,0.0035742283798754215
1772709128731561700,4.650561767578125,-0.0049225869588553905,-0.022351112216711044,0.00552366254851222
1772709128741586700,4.660586669921875,-0.004193413536995649,-0.017010409384965897,0.007136738859117031
1772709128751611600,4.670611572265625,-0.00239151855930686,-0.014159761369228363,0.006847519893199205
1772709128761636600,4.68063671875,-0.0018250643042847514,-0.009012935683131218,0.005270395893603563
1772709128771661800,4.690661865234375,-0.0016218650853261352,-0.00464668357744813,0.002264219569042325
1772709128781686800,4.700686767578125,0.00003861583536490798,-0.0005542038124985993,-0.0014474280178546906
1772709128791711700,4.710711669921875,0.0010431602131575346,0.004486893769353628,-0.006338057108223438
1772709128801736700,4.72073681640625,0.0036195022985339165,0.0107093695551157,-0.00894129741936922
1772709128811762000,4.730761962890625,0.0033124396577477455,0.013369867578148842,-0.00586614478379488
1772709128821786600,4.74078662109375,0.000969656917732209,0.008758338168263435,-0.0017427726415917277
1772709128831811600,4.7508115234375,-0.0009086705395020545,0.0003038666909560561,-0.0010713896481320262
1772709128841836800,4.7608369140625,0.0011659319279715419,-0.0007555388147011399,-0.0046719834208488464
1772709128851861800,4.77086181640625,0.0010357033461332321,0.002314553363248706,-0.004878911189734936
1772709128861886700,4.78088671875,0.001047687605023384,0.009496832266449928,0.0006285060080699623
1772709128871911700,4.79091162109375,0.0003296993381809443,0.005881058517843485,-0.0014032195322215557
1772709128881937000,4.80093701171875,0.00005326322207110934,0.0014125406742095947,-0.0062246061861515045
1772709128891961900,4.8109619140625,0.0007012102869339287,-0.004463457968086004,-0.0073228939436376095
1772709128901986800,4.82098681640625,0.0015307849971577525,0.008115450851619244,-0.009133577346801758
1772709128912011800,4.83101171875,0.004295412451028824,0.014428740367293358,-0.006202502176165581
1772709128922036700,4.84103662109375,0.004571582190692425,0.011741877533495426,-0.0033159018494188786
1772709128932061700,4.851061767578125,0.0022807312197983265,0.007420365698635578,-0.0034708979073911905
1772709128942086700,4.861086669921875,0.0041097900830209255,0.011272095143795013,-0.006044310517609119
1772709128952111600,4.871111572265625,0.006695985794067383,0.014795724302530289,-0.007358846720308065
1772709128962136800,4.88113671875,0.010666492395102978,0.019041068851947784,-0.005281048361212015
1772709128972161800,4.891161865234375,0.012234562076628208,0.0184615645557642,-0.0025369273498654366
1772709128982186800,4.901186767578125,0.012912869453430176,0.015136342495679855,0.002442651428282261
1772709128992211700,4.911211669921875,0.01070883683860302,0.015341938473284245,0.006083725020289421
1772709129002237000,4.92123681640625,0.011928298510611057,0.009156746789813042,0.007705323863774538
1772709129012262000,4.931261962890625,0.012947490438818932,0.009546633809804916,0.010493121109902859
1772709129022286600,4.94128662109375,0.014495053328573704,0.012897955253720284,0.01068007480353117
1772709129032311800,4.951311767578125,0.01417387556284666,0.014176805503666401,0.012592757120728493
1772709129042337000,4.9613369140625,0.013794908300042152,0.01082921214401722,0.013055081479251385
1772709129052361700,4.97136181640625,0.013587980531156063,0.0023869911674410105,0.012566125951707363
1772709129062386700,4.98138671875,0.013100888580083847,-0.004199006129056215,0.01504233293235302
1772709129072411600,4.99141162109375,0.01152669358998537,-0.008862201124429703,0.019301526248455048
1772709129082436900,5.001436767578125,0.00771730812266469,-0.006133792456239462,0.021323664113879204
1772709129092461800,5.0114619140625,0.008109325543045998,-0.0016788567882031202,0.02172393724322319
1772709129102486800,5.02148681640625,0.009462743997573853,-0.004601409658789635,0.017366738989949226
1772709129112512000,5.031511962890625,0.007568703964352608,-0.0029843382071703672,0.010039318352937698
1772709129122537000,5.041536865234375,0.008359928615391254,0.0032149681355804205,0.00758042186498642
1772709129132562000,5.05156201171875,0.00788695178925991,0.007657120935618877,0.0044346959330141544
1772709129142587000,5.0615869140625,0.0070797475054860115,0.01158634852617979,0.0025960493367165327
1772709129152611800,5.07161181640625,0.0064893243834376335,0.012041749432682991,-0.001419198582880199
1772709129162636800,5.08163671875,0.006031527183949947,0.00845340546220541,-0.0019038938917219639
1772709129172661800,5.091661865234375,0.006426740437746048,0.004803277086466551,-0.0034610440488904715
1772709129182686700,5.101686767578125,0.0075604477897286415,0.005558816250413656,-0.0027001791168004274
1772709129192712000,5.1117119140625,0.00672421557828784,0.005890113301575184,0.00040986048406921327
1772709129202737000,5.12173681640625,0.006307963281869888,0.0030045784078538418,0.003424558788537979
1772709129212761900,5.131761962890625,0.005863215308636427,0.0017635452095419168,0.003686880227178335
1772709129222786800,5.141786865234375,0.0055028898641467094,0.0020964404102414846,0.0029675604309886694
1772709129232812000,5.15181201171875,0.005735916085541248,0.004366252571344376,0.002116147894412279
1772709129242837000,5.1618369140625,0.0055002267472445965,0.0015603461069986224,0.004581436049193144
1772709129252861700,5.17186181640625,0.005078648217022419,0.0046786414459347725,0.00501100393012166
1772709129262886700,5.18188671875,0.007261907681822777,0.010312292724847794,0.005991845857352018
1772709129272912000,5.191911865234375,0.007435812149196863,0.006333795841783285,0.007247526664286852
1772709129282936800,5.201936767578125,0.007444600574672222,0.006792658474296331,0.009136506356298923
1772709129292961800,5.2119619140625,0.022479210048913956,-0.016623716801404953,0.01852468214929104
1772709129302986800,5.22198681640625,0.010031594894826412,-0.003183809109032154,0.01842081919312477
1772709129313012000,5.232011962890625,0.00851412583142519,0.0046727824956178665,0.013827398419380188
1772709129323037000,5.242036865234375,0.014479872770607471,-0.01227717287838459,0.0054211304523050785
1772709129333062000,5.252061767578125,0.006185458041727543,0.006213953718543053,-0.00024234765442088246
1772709129343086800,5.2620869140625,0.00603392394259572,0.02424089051783085,-0.004003263544291258
1772709129353111800,5.27211181640625,0.008411594666540623,0.02008902281522751,-0.010990066453814507
1772709129363136800,5.28213671875,0.008855010382831097,0.03219708427786827,-0.02057558298110962
1772709129373161700,5.29216162109375,0.008105862885713577,0.040109600871801376,-0.0231788232922554
1772709129383187000,5.30218701171875,0.0111045828089118,0.04463138431310654,-0.023673903197050095
1772709129393212000,5.3122119140625,0.010608968324959278,0.03439978510141373,-0.021090371534228325
1772709129403236900,5.32223681640625,0.007781756576150656,0.016500147059559822,-0.010148773901164532
1772709129413261800,5.33226171875,0.006847786251455545,0.0018825886072590947,-0.0010756507981568575
1772709129423287000,5.342287109375,0.009169263765215874,-0.004024835303425789,0.003486344125121832
1772709129433312000,5.35231201171875,0.007639543619006872,-0.012014051899313927,0.00947978813201189
1772709129443336700,5.362336669921875,0.005684517323970795,-0.01732492819428444,0.011487012729048729
1772709129453361700,5.372361572265625,0.004311657976359129,-0.015060442499816418,0.011271563358604908
1772709129463387000,5.382386962890625,0.00436092633754015,-0.01070697233080864,0.008363124914467335
1772709129473411800,5.392411865234375,0.004150536376982927,0.00037736992817372084,0.0037910097744315863
1772709129483436800,5.402436767578125,0.004595550708472729,0.012171445414423943,-0.0014418354257941246
1772709129493461800,5.412461669921875,0.0057100835256278515,0.014654044061899185,-0.0033838124945759773
1772709129503487000,5.422487060546875,0.0035926043055951595,0.012146677821874619,-0.0031846079509705305
1772709129513512000,5.432511962890625,0.005192098673433065,0.007414773106575012,-0.0026913906913250685
1772709129523537000,5.442536865234375,0.00561048137024045,0.00803262647241354,-0.00392709719017148
1772709129533561900,5.452561767578125,0.0032951291650533676,0.00390286254696548,-0.0010719223646447062
1772709129543586800,5.4625869140625,0.0035686357878148556,-0.006719155237078667,-0.0022623552940785885
1772709129553611800,5.47261181640625,0.0043745082803070545,-0.004929511342197657,-0.0010210559703409672
1772709129563636700,5.48263671875,0.002014415105804801,0.003171292133629322,-0.0016157397767528892
1772709129573661700,5.49266162109375,0.00316063966602087,0.009004414081573486,-0.006427805405110121
1772709129583687000,5.50268701171875,0.0037739656399935484,0.009954895824193954,-0.006970824208110571
1772709129593711900,5.5127119140625,0.003543335711583495,0.013348562642931938,-0.00851439218968153
1772709129603736800,5.52273681640625,0.0024791366886347532,0.015913186594843864,-0.00827870238572359
1772709129613761800,5.53276171875,0.0030421288684010506,0.01756434701383114,-0.007428088691085577
1772709129623787000,5.542787109375,0.0037790255155414343,0.015618907287716866,-0.007758587133139372
1772709129633812000,5.55281201171875,0.0015872439835220575,0.010396181605756283,-0.0062826634384691715
1772709129643836700,5.562836669921875,0.0030570426024496555,0.0043928842060267925,-0.0046938215382397175
1772709129653862000,5.57286181640625,0.00185089698061347,0.0005499427788890898,-0.0017630126094445586
1772709129663887600,5.5828876953125,0.00029587719473056495,-0.0003296993381809443,0.0004942826926708221
1772709129673911800,5.592911865234375,0.0033489251509308815,0.0028309402987360954,-0.0006226470577530563
1772709129683937800,5.602937744140625,0.004628041293472052,0.002579005202278495,0.000794420950114727
1772709129694588000,5.613587890625,0.00487305223941803,0.007850199937820435,-0.0025012409314513206
1772709129704612600,5.623612548828125,0.003236273303627968,0.0070158313028514385,-0.00433189794421196
1772709129714637800,5.633637939453125,0.004501807503402233,0.008742358535528183,-0.005292233545333147
1772709129724662800,5.643662841796875,0.005225121974945068,0.010626811534166336,-0.005826730281114578
1772709129734687700,5.653687744140625,0.004720453172922134,0.007821437902748585,-0.0031827439088374376
1772709129744712700,5.663712646484375,0.007949269376695156,0.010868626646697521,-0.005246427375823259
1772709129754738000,5.673738037109375,0.006415022537112236,0.013055347837507725,-0.006307963281869888
1772709129764763000,5.683762939453125,0.008863532915711403,0.010280867107212543,-0.0031872710678726435
1772709129774787800,5.693787841796875,0.00649651512503624,0.004992361646145582,-0.0007355650886893272
1772709129784812800,5.703812744140625,0.008922921493649483,-0.00027803401462733746,-0.0005840312223881483
1772709129794838000,5.713838134765625,0.007635016459971666,-0.002005360322073102,-0.0017073525814339519
1772709129804862700,5.72386279296875,0.010067014954984188,0.00017976337403524667,-0.0011906992876902223
1772709129814887700,5.7338876953125,0.008856608532369137,0.006471747532486916,0.0010282464791089296
1772709129824913000,5.743912841796875,0.009327721782028675,0.009694971144199371,0.0023214775137603283
1772709129834937900,5.753937744140625,0.006618754006922245,0.008677643723785877,-0.004253068007528782
1772709129844962800,5.763962890625,0.0065130265429615974,0.007300789933651686,-0.008259793743491173
1772709129854987800,5.77398779296875,0.006587595213204622,0.01082628220319748,-0.007867244072258472
1772709129865013000,5.784012939453125,0.0065132929012179375,0.014742727391421795,-0.005105546209961176
1772709129875038000,5.794037841796875,0.004818190820515156,0.015793876722455025,-0.008186823688447475
1772709129885063000,5.80406298828125,0.00669225724413991,0.015587481670081615,-0.01028805784881115
1772709129895087900,5.814087890625,0.007592938374727964,0.02003016695380211,-0.009813481941819191
1772709129905112800,5.82411279296875,0.008743956685066223,0.01618456281721592,-0.006626743823289871
1772709129915137800,5.8341376953125,0.005029912106692791,0.012062521651387215,-0.004013117402791977
1772709129925162800,5.844162841796875,0.005283178761601448,0.006946322973817587,-0.003084473079070449
1772709129935187700,5.854187744140625,0.0044291033409535885,0.0086001455783844,-0.004010454285889864
1772709129945213000,5.864212890625,0.005002748221158981,0.009516273625195026,-0.004234692547470331
1772709129955238000,5.87423779296875,0.0034996599424630404,0.008904279209673405,0.000025832661776803434
1772709129965262800,5.884262939453125,0.0038924762047827244,0.012438293546438217,-0.001939313835464418
1772709129975287800,5.894287841796875,0.005798766855150461,0.014495319686830044,-0.00455773388966918
1772709129985313000,5.90431298828125,0.005173190496861935,0.011667574755847454,-0.005795571021735668
1772709129995337700,5.914337646484375,0.004334561061114073,0.00974690355360508,-0.006656038574874401
1772709130005362700,5.92436279296875,0.004267981741577387,0.008293350227177143,-0.003652791725471616
1772709130015387600,5.9343876953125,0.005830458365380764,0.011024155654013157,-0.005848567932844162
1772709130025412900,5.944412841796875,0.003930293023586273,0.011186608113348484,-0.004342550411820412
1772709130035438000,5.95443798828125,0.003757453989237547,0.007415838539600372,-0.003855458227917552
1772709130054863000,5.973863037109375,0.004278368316590786,0.0059838565066456795,-0.001671932521276176
1772709130064888300,5.983888427734375,0.004084756597876549,0.006179332733154297,-0.0010847054654732347
1772709130074913000,5.9939130859375,0.0025244103744626045,0.0020509003661572933,0.0005893575726076961
1772709130084938000,6.00393798828125,0.0036762275267392397,0.0019214707426726818,0.0002777676854748279
1772709130094963200,6.013963134765625,0.00407623453065753,0.00896979309618473,-0.001490304945036769
1772709130104988200,6.02398828125,0.004542021080851555,0.014760037884116173,-0.005515672732144594
1772709130115013000,6.03401318359375,0.004832305945456028,0.01661093533039093,-0.0057497648522257805
1772709130125038000,6.0440380859375,0.0035156388767063618,0.013409548439085484,-0.0035665053874254227
1772709130135063300,6.054063232421875,0.0026088326703757048,0.014824752695858479,-0.0038519962690770626
1772709130145088300,6.064088134765625,0.004250671248883009,0.013042565435171127,-0.002469016704708338
1772709130155113200,6.07411328125,0.003975566942244768,0.008697884157299995,-0.0031824775505810976
1772709130165138200,6.08413818359375,0.0029441246297210455,0.007816378027200699,-0.004063717555254698
1772709130175163100,6.0941630859375,0.004712996073067188,0.004603007808327675,-0.001377919572405517
1772709130185188000,6.10418798828125,0.004293282050639391,0.004185690078884363,0.0012713931500911713
1772709130195213000,6.114213134765625,0.0038120488170534372,-0.003681021276861429,0.0024503744207322598
1772709130205238000,6.124238037109375,0.0035095135681331158,-0.00649731419980526,0.003885818412527442
1772709130215263200,6.13426318359375,0.002365153282880783,-0.006957508157938719,0.003963049966841936
1772709130225288200,6.1442880859375,0.003826696192845702,-0.004332696553319693,0.0023331954143941402
1772709130235313200,6.154313232421875,0.003863980295136571,-0.0034437335561960936,0.003762513864785433
1772709130245338000,6.164338134765625,0.00395852280780673,0.000925182132050395,0.003008040366694331
1772709130255363300,6.17436328125,0.0037084517534822226,0.0029081718530505896,-0.0006612628931179643
1772709130265388300,6.18438818359375,0.0035278894938528538,0.007093329448252916,-0.002701244316995144
1772709130275413000,6.1944130859375,0.0029904635157436132,0.008192682638764381,-0.003724430687725544
1772709130285438000,6.20443798828125,0.003858920419588685,0.0073053170926868916,-0.005829127039760351
1772709130295463200,6.214463134765625,0.0032051142770797014,0.00743261631578207,-0.006898119580000639
1772709130305488100,6.224488037109375,0.005688778590410948,0.009651295840740204,-0.005309810396283865
1772709130315513000,6.23451318359375,0.003716441337019205,0.011744806542992592,-0.0003736414946615696
1772709130325538000,6.2445380859375,0.0038868836127221584,0.011203385889530182,-0.0007499461644329131
1772709130335563300,6.254563232421875,0.004738030023872852,0.003481017891317606,-0.003668770659714937
1772709130345588200,6.264588134765625,0.003454119898378849,0.00612340634688735,-0.004094077739864588
1772709130355613200,6.27461328125,0.004854942671954632,0.009093363769352436,-0.001609348226338625
1772709130365638100,6.28463818359375,0.00523710623383522,0.011186608113348484,-0.005417402368038893
1772709130375663000,6.2946630859375,0.0057532270438969135,0.01269848458468914,-0.007800931576639414
1772709130385688000,6.30468798828125,0.005426457151770592,0.018617626279592514,-0.008731439709663391
1772709130395713000,6.314713134765625,0.008770056068897247,0.02382703498005867,-0.009552226401865482
1772709130405738200,6.32473828125,0.008859271183609962,0.018859973177313805,-0.00953944306820631
1772709130415763200,6.33476318359375,0.007625961676239967,0.009543703868985176,-0.005679457448422909
1772709130425788200,6.3447880859375,0.004750014282763004,0.003180879633873701,-0.0019049590919166803
1772709130435813000,6.354813232421875,0.004930309951305389,0.0018048242200165987,-0.000990962260402739
1772709130445838300,6.36483837890625,0.0049026133492589,0.006427273154258728,0.00006950850365683436
1772709130455863300,6.37486328125,0.0029768813401460648,0.007497331127524376,-0.0011174624087288976
1772709130465888000,6.384887939453125,0.0017632789677008986,0.004508997779339552,-0.0033878071699291468
1772709130475913000,6.394912841796875,0.0013643373968079686,0.005515939090400934,-0.00529622845351696
1772709130485938200,6.404938232421875,0.0001174454009742476,0.013378389179706573,-0.008504538796842098
1772709130495963100,6.414963134765625,0.0019587550777941942,0.01841922104358673,-0.010395116172730923
1772709130505988000,6.424988037109375,0.002941993996500969,0.022070415318012238,-0.009710151702165604
1772709130516013000,6.435012939453125,-0.0002860235108528286,0.022712502628564835,-0.01019671093672514
1772709130526038300,6.445038330078125,0.0030631679110229015,0.021202756091952324,-0.011564244516193867
1772709130536063200,6.455063232421875,0.0008333030855283141,0.018560102209448814,-0.01194108184427023
1772709130546088200,6.465088134765625,0.0022272015921771526,0.015119298361241817,-0.009761550463736057
1772709130556113200,6.475113037109375,0.0013512879377231002,0.009496832266449928,-0.005380117800086737
1772709130566138000,6.48513818359375,0.002537726191803813,0.0091732582077384,-0.0034554514568299055
1772709130576163000,6.4951630859375,0.002229332225397229,0.007680290378630161,-0.004862399306148291
1772709130586188000,6.50518798828125,0.001526257605291903,0.00860467366874218,-0.0065567027777433395
1772709130596213000,6.515212890625,0.0005643238546326756,0.008331699296832085,-0.00740332156419754
1772709130606238200,6.52523828125,0.0013424995122477412,0.0073479278944432735,-0.0067753479816019535
1772709130616263200,6.53526318359375,0.0015241270884871483,0.011392470449209213,-0.010063286870718002
1772709130626288000,6.5452880859375,0.0011267834343016148,0.010400176979601383,-0.007932757958769798
1772709130636313000,6.55531298828125,0.0013161342358216643,0.011347196996212006,-0.0070680296048521996
1772709130646338300,6.56533837890625,0.0014383733505383134,0.009750098921358585,-0.006356166675686836
1772709130656363300,6.57536328125,0.0018551580142229795,0.010777014307677746,-0.007909322157502174
1772709130666388000,6.585387939453125,0.00185089698061347,0.015082013793289661,-0.009550628252327442
1772709130676413200,6.5954130859375,0.0019361181184649467,0.01836515963077545,-0.010356500744819641
1772709130686438100,6.605438232421875,0.001924932817928493,0.01474485732614994,-0.009645170532166958
1772709130696463000,6.615463134765625,0.0015456987312063575,0.010487794876098633,-0.007367901504039764
1772709130706488000,6.625488037109375,0.0034080471377819777,0.006643787957727909,-0.006369482260197401
1772709130716513300,6.63551318359375,0.002222674200311303,0.005586779210716486,-0.004691424313932657
1772709130726538200,6.645538330078125,0.00316063966602087,0.007592139765620232,-0.004513525404036045
1772709130736563200,6.655563232421875,0.0007291734800674021,0.0046448190696537495,-0.006169212516397238
1772709130746588200,6.665588134765625,0.00039308256236836314,0.006281331647187471,-0.0058656120672822
1772709130756613000,6.675613037109375,-0.000002663161012605997,0.00780572509393096,-0.005920739844441414
1772709130766638000,6.68563818359375,0.0011914982460439205,0.00754979532212019,-0.005362807307392359
1772709130776663000,6.6956630859375,0.00017736652807798237,0.007927431724965572,-0.005600893869996071
1772709130786688000,6.70568798828125,0.00027803401462733746,0.005262938793748617,-0.00558012118563056
1772709130796713200,6.715713134765625,0.0003145193331874907,0.00740278884768486,-0.006394516211003065
1772709130806738200,6.72573828125,0.0015606123488396406,0.009328254498541355,-0.004747617058455944
1772709130816763100,6.73576318359375,0.003659183392301202,0.00487358495593071,-0.005813147872686386
1772709130826788000,6.7457880859375,0.0013483584625646472,0.0011736550368368626,-0.005361209623515606
1772709130836813300,6.755813232421875,0.0006780407857149839,0.00043595946044661105,-0.005337241105735302
1772709130846838300,6.76583837890625,0.0021614215802401304,0.0041247038170695305,0.0009009473724290729
1772709130856863000,6.775863037109375,-0.0008743157959543169,-0.009721336886286736,0.006777478381991386
1772709130866888000,6.785887939453125,0.0013760552974417806,-0.010865164920687675,0.0005728459218516946
1772709130876913200,6.7959130859375,0.003498062025755644,-0.003228017594665289,-0.00965635571628809
1772709130886938000,6.805938232421875,0.0019030949333682656,0.005131378769874573,-0.005903961602598429
1772709130896963000,6.815963134765625,0.0019046928500756621,0.007934888824820518,-0.0014977618120610714
1772709130906989000,6.825989013671875,0.002261290093883872,0.002350772265344858,-0.00427117757499218
1772709130917014000,6.836013916015625,0.0031760858837515116,0.004335093777626753,-0.008416121825575829
1772709130927039200,6.846039306640625,0.003982757218182087,0.003034405643120408,-0.0003502056933939457
1772709130937064200,6.856064208984375,0.002787264296784997,0.0067726848646998405,-0.00267727579921484
1772709130947089200,6.866089111328125,0.004768656101077795,0.0015654060989618301,0.00222027744166553
1772709130957114000,6.876114013671875,0.005516471806913614,0.010666492395102978,-0.001067661214619875
1772709130967139300,6.886139404296875,0.005304217804223299,0.005686914082616568,-0.0019244002178311348
1772709130977164000,6.8961640625,0.003774498123675585,-0.00034194986801594496,0.0010990865994244814
1772709130987189000,6.90618896484375,0.003665574826300144,0.0041582598350942135,0.00034194986801594496
1772709130997214000,6.9162138671875,0.0037622477393597364,-0.011546134948730469,0.002132392954081297
1772709131007239200,6.9262392578125,-0.0008761800127103925,-0.0017278589075431228,-0.001118793967179954
1772709131017264000,6.93626416015625,0.002394980750977993,-0.0022176143247634172,-0.004281564150005579
1772709131027289300,6.946289306640625,0.0015507587231695652,0.0059929112903773785,-0.0070706927217543125
1772709131037314300,6.956314208984375,0.0027409254107624292,0.009228652343153954,-0.0060176788829267025
1772709131047339500,6.966339599609375,0.0034016557037830353,0.007234210614115,-0.002223206916823983
1772709131057364500,6.976364501953125,0.003221359569579363,0.01101749762892723,-0.005873069167137146
1772709131067389400,6.986389404296875,0.0036911412607878447,0.014275342226028442,-0.00765871861949563
1772709131077414400,6.996414306640625,0.004549744538962841,0.018852517008781433,-0.008991630747914314
1772709131087439600,7.006439697265625,0.005470665637403727,0.024052871391177177,-0.008987636305391788
1772709131097464600,7.016464599609375,0.004336158744990826,0.012377574108541012,-0.006558566819876432
1772709131107489500,7.026489501953125,0.0012434299569576979,0.006618221756070852,-0.003876230912283063
1772709131117514500,7.036514404296875,0.0031153657473623753,0.003869839245453477,-0.0006713828770443797
1772709131127539500,7.04653955078125,0.0013371731620281935,0.00022423815971706063,0.00041971419705078006
1772709131137564400,7.056564453125,0.0017907095607370138,-0.008136489428579807,-0.0006412891671061516
1772709131147589400,7.06658935546875,0.0002665824140422046,-0.008241417817771435,0.00020053602929692715
1772709131157614600,7.076614501953125,-0.01902429200708866,-0.01076982356607914,0.06251557916402817
1772709131167639600,7.0866396484375,-0.0070981234312057495,0.001913481275551021,0.047255128622055054
1772709131177664500,7.09666455078125,0.0023489079903811216,0.0029640982393175364,-0.00675244489684701
1772709131187689500,7.106689453125,0.002746784361079335,0.020073575899004936,-0.00210682675242424
1772709131197714700,7.116714599609375,0.0035569178871810436,0.025498434901237488,-0.0014452975010499358
1772709131207739400,7.126739501953125,0.0028658276423811913,0.028261199593544006,-0.004565989598631859
1772709131217764400,7.136764404296875,0.0029933929909020662,0.0300764087587595,-0.0038099181838333607
1772709131227789300,7.146789306640625,0.0023379891645163298,0.025247832760214806,-0.01673290692269802
1772709131237814500,7.156814453125,0.006881874520331621,0.008264321833848953,-0.033963028341531754
1772709131247839500,7.166839599609375,0.009896839037537575,0.01290541235357523,-0.03810637444257736
1772709131257864400,7.176864501953125,0.014908375218510628,0.03201492503285408,-0.046773362904787064
1772709131267889400,7.186889404296875,0.0014759238110855222,0.02707768976688385,-0.05494420975446701
1772709131277914600,7.19691455078125,-0.00030892668291926384,-0.022905049845576286,-0.011609784327447414
