time,seconds_elapsed,z,y,x
1772709218833229800,0.057229736328125,-0.9960174560546875,0.0570068359375,-0.05267333984375
1772709218843254800,0.0672548828125,-0.99468994140625,0.060546875,-0.0494232177734375
1772709218853279700,0.07727978515625,-0.9970550537109375,0.0574798583984375,-0.0512542724609375
1772709218863304700,0.0873046875,-0.994781494140625,0.0592803955078125,-0.0522308349609375
1772709218873328600,0.09732861328125,-0.9938507080078125,0.0627593994140625,-0.0499725341796875
1772709218883353600,0.107353515625,-0.9982452392578125,0.0630340576171875,-0.0490264892578125
1772709218893378800,0.11737890625,-0.9984893798828125,0.067352294921875,-0.0507354736328125
1772709218903403800,0.12740380859375,-0.9920501708984375,0.069000244140625,-0.05157470703125
1772709218913428700,0.1374287109375,-0.990509033203125,0.064697265625,-0.049468994140625
1772709218923453700,0.14745361328125,-0.99017333984375,0.060577392578125,-0.0521697998046875
1772709218933479000,0.15747900390625,-0.9930572509765625,0.05450439453125,-0.052093505859375
1772709218943503600,0.167503662109375,-0.992218017578125,0.0601348876953125,-0.0493927001953125
1772709218953527800,0.17752783203125,-0.9975738525390625,0.067840576171875,-0.0487060546875
1772709218963552800,0.187552734375,-1.0021514892578125,0.0663909912109375,-0.0512542724609375
1772709218973577700,0.19757763671875,-0.995025634765625,0.0670166015625,-0.0514984130859375
1772709218983602700,0.207602783203125,-0.987060546875,0.0683135986328125,-0.047607421875
1772709218993628000,0.2176279296875,-0.9881744384765625,0.066619873046875,-0.04827880859375
1772709219003652900,0.22765283203125,-0.993804931640625,0.0658111572265625,-0.0497283935546875
1772709219013677800,0.237677734375,-0.996673583984375,0.062286376953125,-0.0526123046875
1772709219023702500,0.24770263671875,-0.99609375,0.0621185302734375,-0.050933837890625
1772709219033726700,0.257726806640625,-0.9925537109375,0.0615234375,-0.0507049560546875
1772709219043751700,0.267751708984375,-0.991546630859375,0.0643768310546875,-0.0516204833984375
1772709219053776600,0.277776611328125,-0.9932098388671875,0.0681304931640625,-0.052947998046875
1772709219063801900,0.2878017578125,-0.997589111328125,0.067535400390625,-0.0536956787109375
1772709219073826800,0.297826904296875,-0.998291015625,0.0644378662109375,-0.0485687255859375
1772709219083851800,0.307851806640625,-0.9947967529296875,0.059722900390625,-0.046539306640625
1772709219093876700,0.317876708984375,-0.9916229248046875,0.0614013671875,-0.0465545654296875
1772709219103901700,0.327901611328125,-0.992279052734375,0.0665130615234375,-0.04986572265625
1772709219113926700,0.3379267578125,-0.99566650390625,0.0678863525390625,-0.0508575439453125
1772709219123950300,0.347950439453125,-0.9952392578125,0.069366455078125,-0.045806884765625
1772709219133975300,0.357975341796875,-0.9943389892578125,0.070709228515625,-0.045654296875
1772709219144000300,0.368000244140625,-0.9952392578125,0.07073974609375,-0.0452423095703125
1772709219154025200,0.378025146484375,-0.9937286376953125,0.069580078125,-0.0485687255859375
1772709219164050400,0.388050537109375,-0.9936065673828125,0.06463623046875,-0.0501251220703125
1772709219174075400,0.398075439453125,-0.992919921875,0.063934326171875,-0.05047607421875
1772709219184100400,0.408100341796875,-0.9920654296875,0.0670928955078125,-0.0489654541015625
1772709219194125300,0.418125244140625,-0.9959259033203125,0.0678863525390625,-0.0502777099609375
1772709219204149200,0.428149169921875,-0.9985504150390625,0.065826416015625,-0.0520782470703125
1772709219214174200,0.43817431640625,-0.9949493408203125,0.064208984375,-0.050567626953125
1772709219224199200,0.44819921875,-0.9931488037109375,0.0646209716796875,-0.0483856201171875
1772709219234224400,0.458224365234375,-0.9942779541015625,0.0629119873046875,-0.0476226806640625
1772709219244249300,0.468249267578125,-0.9935150146484375,0.064300537109375,-0.0482940673828125
1772709219254274300,0.4782744140625,-0.99298095703125,0.062042236328125,-0.051025390625
1772709219264299500,0.488299560546875,-0.991302490234375,0.058502197265625,-0.0489349365234375
1772709219274324500,0.498324462890625,-0.991455078125,0.0626983642578125,-0.048919677734375
1772709219284349400,0.508349365234375,-0.9958343505859375,0.0673675537109375,-0.05194091796875
1772709219294373400,0.518373291015625,-0.9954986572265625,0.06805419921875,-0.0507659912109375
1772709219304398300,0.5283984375,-0.9917144775390625,0.066253662109375,-0.052154541015625
1772709219314423300,0.53842333984375,-0.9893951416015625,0.066741943359375,-0.0521392822265625
1772709219324448300,0.5484482421875,-0.991668701171875,0.066741943359375,-0.050933837890625
1772709219334473500,0.558473388671875,-0.99420166015625,0.06842041015625,-0.0514373779296875
1772709219344498400,0.56849853515625,-0.9945068359375,0.0667266845703125,-0.0511474609375
1772709219354523400,0.5785234375,-0.99395751953125,0.0670013427734375,-0.051544189453125
1772709219364548400,0.58854833984375,-0.9940338134765625,0.06768798828125,-0.0505523681640625
1772709219374572300,0.598572265625,-0.9934539794921875,0.06585693359375,-0.0505828857421875
1772709219384597200,0.60859716796875,-0.9946136474609375,0.0642242431640625,-0.049285888671875
1772709219394622200,0.618622314453125,-0.993499755859375,0.0648193359375,-0.0503082275390625
1772709219404647400,0.6286474609375,-0.995025634765625,0.0632171630859375,-0.0491485595703125
1772709219414672400,0.63867236328125,-0.9942626953125,0.066314697265625,-0.0477752685546875
1772709219424697300,0.648697265625,-0.9956817626953125,0.067962646484375,-0.048065185546875
1772709219434722300,0.658722412109375,-0.9965972900390625,0.0650177001953125,-0.0492401123046875
1772709219444747500,0.66874755859375,-0.9967498779296875,0.0646820068359375,-0.050140380859375
1772709219454771200,0.678771240234375,-0.994903564453125,0.0648193359375,-0.04949951171875
1772709219464796400,0.68879638671875,-0.99554443359375,0.0664825439453125,-0.04876708984375
1772709219474821400,0.6988212890625,-0.995697021484375,0.0702056884765625,-0.0501861572265625
1772709219484846300,0.708846435546875,-0.9947662353515625,0.070281982421875,-0.0508270263671875
1772709219494871300,0.718871337890625,-0.9957122802734375,0.0691986083984375,-0.0504608154296875
1772709219504896500,0.728896484375,-0.9939117431640625,0.067718505859375,-0.04986572265625
1772709219514921500,0.73892138671875,-0.9910888671875,0.0666961669921875,-0.048919677734375
1772709219524946400,0.748946533203125,-0.9916534423828125,0.0701141357421875,-0.0514984130859375
1772709219534971100,0.75897119140625,-0.9934844970703125,0.0676727294921875,-0.0524749755859375
1772709219544995300,0.768995361328125,-0.9935150146484375,0.06524658203125,-0.050567626953125
1772709219555020300,0.779020263671875,-0.9955291748046875,0.064788818359375,-0.050445556640625
1772709219565045200,0.789045166015625,-0.99517822265625,0.063323974609375,-0.0509033203125
1772709219575070500,0.799070556640625,-0.994293212890625,0.0638580322265625,-0.0496063232421875
1772709219585095400,0.809095458984375,-0.9907073974609375,0.062774658203125,-0.0494232177734375
1772709219595120400,0.819120361328125,-0.99334716796875,0.064422607421875,-0.0504302978515625
1772709219605145300,0.829145263671875,-0.9967041015625,0.066192626953125,-0.052215576171875
1772709219615170300,0.83917041015625,-0.9973907470703125,0.0629119873046875,-0.0501251220703125
1772709219625195300,0.8491953125,-0.9925994873046875,0.0621795654296875,-0.04852294921875
1772709219635219500,0.859219482421875,-0.9920501708984375,0.064483642578125,-0.05059814453125
1772709219645244400,0.869244384765625,-0.9933929443359375,0.0668792724609375,-0.055023193359375
1772709219655269400,0.879269287109375,-0.9930419921875,0.0673675537109375,-0.0543975830078125
1772709219665294300,0.88929443359375,-0.9945220947265625,0.0649871826171875,-0.054840087890625
1772709219675319600,0.899319580078125,-0.9944610595703125,0.066619873046875,-0.053680419921875
1772709219685344500,0.909344482421875,-0.9955291748046875,0.0688629150390625,-0.0513458251953125
1772709219695369200,0.919369140625,-0.9952239990234375,0.0679168701171875,-0.0515899658203125
1772709219705394200,0.929394287109375,-0.9923095703125,0.065216064453125,-0.0489044189453125
1772709219715418400,0.93941845703125,-0.9920806884765625,0.0655059814453125,-0.0493316650390625
1772709219725443300,0.949443359375,-0.99444580078125,0.06634521484375,-0.0499420166015625
1772709219735468300,0.95946826171875,-0.9971923828125,0.0672607421875,-0.0496826171875
1772709219745493500,0.969493408203125,-0.996307373046875,0.0663299560546875,-0.04888916015625
1772709219755518500,0.9795185546875,-0.9961090087890625,0.0650482177734375,-0.0500030517578125
1772709219765543400,0.98954345703125,-0.9947509765625,0.0665435791015625,-0.0492401123046875
1772709219775568100,0.999568115234375,-0.9930572509765625,0.0671234130859375,-0.0496368408203125
1772709219785593300,1.00959326171875,-0.993499755859375,0.0678253173828125,-0.0482177734375
1772709219795617300,1.0196171875,-0.9930572509765625,0.066802978515625,-0.049591064453125
1772709219805642200,1.029642333984375,-0.995849609375,0.068328857421875,-0.049896240234375
1772709219815667500,1.03966748046875,-0.9971923828125,0.0696563720703125,-0.049224853515625
1772709219825692400,1.0496923828125,-0.9945068359375,0.0685882568359375,-0.0491485595703125
1772709219835717400,1.05971728515625,-0.992950439453125,0.0674896240234375,-0.05059814453125
1772709219845742600,1.06974267578125,-0.993072509765625,0.066619873046875,-0.0524139404296875
1772709219855767300,1.079767333984375,-0.9930267333984375,0.06744384765625,-0.0519866943359375
1772709219865792300,1.089792236328125,-0.995635986328125,0.0678863525390625,-0.051513671875
1772709219875817200,1.099817138671875,-0.9949798583984375,0.06671142578125,-0.0514984130859375
1772709219885841400,1.10984130859375,-0.99365234375,0.06622314453125,-0.050567626953125
1772709219895866400,1.119866455078125,-0.9944000244140625,0.066864013671875,-0.0513763427734375
1772709219905891300,1.129891357421875,-0.9934539794921875,0.0705413818359375,-0.050994873046875
1772709219915916500,1.13991650390625,-0.9931182861328125,0.0683135986328125,-0.0512237548828125
1772709219925941500,1.14994140625,-0.993621826171875,0.066162109375,-0.048858642578125
1772709219935966200,1.15996630859375,-0.9956817626953125,0.0646820068359375,-0.05010986328125
1772709219945991200,1.1699912109375,-0.9959564208984375,0.0667572021484375,-0.0507354736328125
1772709219956016400,1.180016357421875,-0.9943695068359375,0.0676116943359375,-0.05059814453125
1772709219966040300,1.190040283203125,-0.99267578125,0.06842041015625,-0.04766845703125
1772709219976065300,1.200065185546875,-0.993560791015625,0.0682373046875,-0.0470733642578125
1772709219986090500,1.210090576171875,-0.9951629638671875,0.069854736328125,-0.0498809814453125
1772709219996115500,1.220115478515625,-0.993499755859375,0.068359375,-0.0525970458984375
1772709220006140400,1.230140380859375,-0.9918975830078125,0.0670928955078125,-0.05206298828125
1772709220016165400,1.240165283203125,-0.9920501708984375,0.0680694580078125,-0.04913330078125
1772709220026190300,1.2501904296875,-0.99383544921875,0.0720062255859375,-0.0497283935546875
1772709220036215300,1.26021533203125,-0.9967498779296875,0.07293701171875,-0.0504302978515625
1772709220046239500,1.270239501953125,-0.9955902099609375,0.07269287109375,-0.0528106689453125
1772709220056264400,1.280264404296875,-0.991485595703125,0.067230224609375,-0.05169677734375
1772709220066289400,1.290289306640625,-0.98553466796875,0.0637359619140625,-0.050018310546875
1772709220076314400,1.300314453125,-0.987152099609375,0.0676116943359375,-0.051361083984375
1772709220086339300,1.31033935546875,-0.995147705078125,0.0703125,-0.0550384521484375
1772709220096364300,1.3203642578125,-0.9980010986328125,0.069549560546875,-0.0562286376953125
1772709220106389200,1.33038916015625,-0.9997100830078125,0.0691375732421875,-0.0522308349609375
1772709220116414200,1.340414306640625,-0.997467041015625,0.06805419921875,-0.0501708984375
1772709220126439400,1.350439453125,-0.995880126953125,0.0657501220703125,-0.050140380859375
1772709220136463000,1.360463134765625,-0.992645263671875,0.070953369140625,-0.0498199462890625
1772709220146488000,1.370488037109375,-0.996124267578125,0.0722808837890625,-0.048126220703125
1772709220156513300,1.38051318359375,-0.999237060546875,0.065338134765625,-0.048004150390625
1772709220166538200,1.390538330078125,-0.993438720703125,0.0620269775390625,-0.0476226806640625
1772709220176563200,1.400563232421875,-0.9918212890625,0.0648651123046875,-0.0472412109375
1772709220186588200,1.410588134765625,-0.9934539794921875,0.06646728515625,-0.0469970703125
1772709220196613400,1.42061328125,-0.9952850341796875,0.06475830078125,-0.0472564697265625
1772709220206638300,1.430638427734375,-0.9931488037109375,0.062957763671875,-0.0490875244140625
1772709220216662300,1.440662353515625,-0.99237060546875,0.063873291015625,-0.048736572265625
1772709220226687200,1.450687255859375,-0.994354248046875,0.0656585693359375,-0.04840087890625
1772709220236712200,1.460712158203125,-0.9943084716796875,0.0677032470703125,-0.0483245849609375
1772709220246737200,1.470737060546875,-0.99267578125,0.0666656494140625,-0.0491790771484375
1772709220256762400,1.480762451171875,-0.9911651611328125,0.0664825439453125,-0.048309326171875
1772709220266787300,1.490787353515625,-0.9917755126953125,0.0678253173828125,-0.049041748046875
1772709220276812300,1.500812255859375,-0.9940643310546875,0.067474365234375,-0.04742431640625
1772709220286837200,1.510837158203125,-0.992919921875,0.0676422119140625,-0.04718017578125
1772709220296861200,1.520861083984375,-0.994354248046875,0.069183349609375,-0.0483856201171875
1772709220306886100,1.53088623046875,-0.9954986572265625,0.069671630859375,-0.0492401123046875
1772709220316911000,1.5409111328125,-0.9947509765625,0.0684661865234375,-0.0493011474609375
1772709220326936300,1.550936279296875,-0.9943389892578125,0.068206787109375,-0.0469818115234375
1772709220336961300,1.560961181640625,-0.994140625,0.0667266845703125,-0.0464630126953125
1772709220346986200,1.570986328125,-0.9951934814453125,0.0678558349609375,-0.0467071533203125
1772709220357011200,1.58101123046875,-0.99383544921875,0.0669708251953125,-0.0474700927734375
1772709220367036400,1.591036376953125,-0.99359130859375,0.0646514892578125,-0.046142578125
1772709220377060000,1.60106005859375,-0.991790771484375,0.0639190673828125,-0.0463104248046875
1772709220387085300,1.611085205078125,-0.9927978515625,0.0666656494140625,-0.0485382080078125
1772709220397110300,1.6211103515625,-0.9932708740234375,0.068603515625,-0.0508575439453125
1772709220407135200,1.63113525390625,-0.99267578125,0.06878662109375,-0.0506439208984375
1772709220417160200,1.64116015625,-0.9930572509765625,0.0669097900390625,-0.0477447509765625
1772709220427185400,1.651185302734375,-0.9936676025390625,0.06597900390625,-0.0480194091796875
1772709220437210400,1.66121044921875,-0.99249267578125,0.0684814453125,-0.049835205078125
1772709220447235300,1.6712353515625,-0.9940338134765625,0.068695068359375,-0.0496063232421875
1772709220457260300,1.68126025390625,-0.994140625,0.06561279296875,-0.049560546875
1772709220467284200,1.6912841796875,-0.993988037109375,0.0654754638671875,-0.0499267578125
1772709220477309200,1.70130908203125,-0.994293212890625,0.0658111572265625,-0.0516204833984375
1772709220487334100,1.711334228515625,-0.9945068359375,0.0678253173828125,-0.0508575439453125
1772709220497359400,1.721359375,-0.9952545166015625,0.06695556640625,-0.04815673828125
1772709220507384300,1.73138427734375,-0.9947967529296875,0.0670166015625,-0.047576904296875
1772709220517409300,1.7414091796875,-0.995513916015625,0.0666046142578125,-0.05035400390625
1772709220527434200,1.751434326171875,-0.994049072265625,0.0674591064453125,-0.047943115234375
1772709220537459500,1.76145947265625,-0.993438720703125,0.0671539306640625,-0.0482635498046875
1772709220547483100,1.771483154296875,-0.9927520751953125,0.0658111572265625,-0.0487060546875
1772709220557508400,1.78150830078125,-0.9947967529296875,0.065765380859375,-0.0483856201171875
1772709220567533300,1.791533203125,-0.99560546875,0.0649566650390625,-0.0485382080078125
1772709220577558300,1.801558349609375,-0.9957122802734375,0.06829833984375,-0.049530029296875
1772709220587583200,1.811583251953125,-0.993865966796875,0.071136474609375,-0.0488128662109375
1772709220597608400,1.8216083984375,-0.992919921875,0.06817626953125,-0.0497283935546875
1772709220607633400,1.83163330078125,-0.99456787109375,0.0671234130859375,-0.05059814453125
1772709220617658400,1.841658447265625,-0.9949951171875,0.0677947998046875,-0.0496826171875
1772709220627682300,1.851682373046875,-0.996063232421875,0.06634521484375,-0.0491943359375
1772709220637707300,1.861707275390625,-0.994720458984375,0.0657501220703125,-0.0488739013671875
1772709220647732200,1.871732177734375,-0.991424560546875,0.065032958984375,-0.050201416015625
1772709220657757200,1.881757080078125,-0.9923553466796875,0.0666961669921875,-0.0500030517578125
1772709220667782400,1.891782470703125,-0.9958343505859375,0.0680389404296875,-0.0493927001953125
1772709220677807400,1.901807373046875,-0.9958343505859375,0.064697265625,-0.0475921630859375
1772709220687832300,1.911832275390625,-0.993438720703125,0.0618896484375,-0.0478973388671875
1772709220697857300,1.921857177734375,-0.9910736083984375,0.063018798828125,-0.048919677734375
1772709220707881200,1.931881103515625,-0.9927215576171875,0.066619873046875,-0.0511932373046875
1772709220717906200,1.94190625,-0.994659423828125,0.066864013671875,-0.051788330078125
1772709220727931100,1.95193115234375,-0.9958038330078125,0.0666046142578125,-0.0505523681640625
1772709220737956400,1.961956298828125,-0.9941864013671875,0.0641021728515625,-0.05035400390625
1772709220747981300,1.971981201171875,-0.9947662353515625,0.067138671875,-0.049652099609375
1772709220758006300,1.98200634765625,-0.9941864013671875,0.068389892578125,-0.0496063232421875
1772709220768031200,1.99203125,-0.992889404296875,0.0657196044921875,-0.04815673828125
1772709220778056400,2.002056396484375,-0.992919921875,0.0663909912109375,-0.0482635498046875
1772709220788080000,2.012080078125,-0.9931488037109375,0.0665740966796875,-0.0499420166015625
1772709220798105300,2.022105224609375,-0.9940643310546875,0.0691680908203125,-0.0500335693359375
1772709220808130300,2.03213037109375,-0.9949493408203125,0.0677947998046875,-0.0494537353515625
1772709220818155300,2.0421552734375,-0.9945526123046875,0.0663604736328125,-0.049468994140625
1772709220828180200,2.05218017578125,-0.9942169189453125,0.06634521484375,-0.048858642578125
1772709220838205400,2.062205322265625,-0.994110107421875,0.0667572021484375,-0.0501861572265625
1772709220848230400,2.07223046875,-0.994293212890625,0.0660552978515625,-0.04962158203125
1772709220858255400,2.08225537109375,-0.993804931640625,0.06695556640625,-0.0504913330078125
1772709220868279300,2.092279296875,-0.9948577880859375,0.0672607421875,-0.0496063232421875
1772709220878304300,2.10230419921875,-0.9951629638671875,0.06549072265625,-0.04986572265625
1772709220888329200,2.1123291015625,-0.9944305419921875,0.066131591796875,-0.0492095947265625
1772709220898354200,2.122354248046875,-0.99420166015625,0.064056396484375,-0.049407958984375
1772709220908379400,2.13237939453125,-0.9935150146484375,0.065765380859375,-0.0517578125
1772709220918404400,2.142404296875,-0.9947052001953125,0.0684661865234375,-0.05072021484375
1772709220928429300,2.15242919921875,-0.997406005859375,0.06817626953125,-0.051055908203125
1772709220938454300,2.162454345703125,-0.9951019287109375,0.067657470703125,-0.0493316650390625
1772709220948478200,2.172478271484375,-0.9938201904296875,0.066680908203125,-0.0493316650390625
1772709220958503200,2.182503173828125,-0.992584228515625,0.0673980712890625,-0.05084228515625
1772709220968528400,2.1925283203125,-0.99212646484375,0.067596435546875,-0.05157470703125
1772709220978553300,2.20255322265625,-0.99365234375,0.06683349609375,-0.051025390625
1772709220988578300,2.212578369140625,-0.99517822265625,0.0672760009765625,-0.051361083984375
1772709220998603300,2.222603271484375,-0.994110107421875,0.0665283203125,-0.052337646484375
1772709221008628500,2.23262841796875,-0.994354248046875,0.06610107421875,-0.0526580810546875
1772709221018653200,2.242653076171875,-0.9935302734375,0.0668487548828125,-0.0509490966796875
1772709221028677000,2.252677001953125,-0.995391845703125,0.0660552978515625,-0.0484619140625
1772709221038702300,2.262702392578125,-0.994781494140625,0.0662994384765625,-0.0509490966796875
1772709221048727300,2.272727294921875,-0.99481201171875,0.066192626953125,-0.052703857421875
1772709221058752300,2.282752197265625,-0.99365234375,0.0694732666015625,-0.051361083984375
1772709221068777200,2.292777099609375,-0.9938507080078125,0.0697479248046875,-0.0503997802734375
1772709221078802400,2.302802490234375,-0.994476318359375,0.068115234375,-0.0489349365234375
1772709221088827400,2.312827392578125,-0.9949188232421875,0.06707763671875,-0.0492706298828125
1772709221098852000,2.32285205078125,-0.993408203125,0.066436767578125,-0.0497283935546875
1772709221108876300,2.332876220703125,-0.994903564453125,0.067840576171875,-0.050628662109375
1772709221118901500,2.342901611328125,-0.9940185546875,0.06903076171875,-0.051910400390625
1772709221128926500,2.352926513671875,-0.9944000244140625,0.0692291259765625,-0.0509490966796875
1772709221138951400,2.362951416015625,-0.9948883056640625,0.068695068359375,-0.0503387451171875
1772709221148976600,2.3729765625,-0.9945068359375,0.0670318603515625,-0.0504608154296875
1772709221159001600,2.383001708984375,-0.994659423828125,0.0664825439453125,-0.04791259765625
1772709221169026600,2.393026611328125,-0.9917144775390625,0.064453125,-0.0479583740234375
1772709221179051500,2.403051513671875,-0.9920501708984375,0.06756591796875,-0.04974365234375
1772709221189076700,2.41307666015625,-0.9953765869140625,0.070465087890625,-0.0511016845703125
1772709221199100400,2.423100341796875,-0.997283935546875,0.0687103271484375,-0.0498046875
1772709221209125600,2.433125732421875,-0.9953155517578125,0.0670623779296875,-0.048614501953125
1772709221219150600,2.443150634765625,-0.991241455078125,0.0645294189453125,-0.048797607421875
1772709221229175600,2.453175537109375,-0.99249267578125,0.066375732421875,-0.0497589111328125
1772709221239200500,2.463200439453125,-0.995391845703125,0.068206787109375,-0.05108642578125
1772709221249225700,2.473225830078125,-0.995574951171875,0.0673980712890625,-0.0501556396484375
1772709221259250700,2.483250732421875,-0.993682861328125,0.0665435791015625,-0.050048828125
1772709221269274600,2.493274658203125,-0.9932098388671875,0.0666656494140625,-0.050048828125
1772709221279299600,2.503299560546875,-0.9935760498046875,0.0659637451171875,-0.0490875244140625
1772709221289324500,2.513324462890625,-0.9925384521484375,0.0660858154296875,-0.0485992431640625
1772709221299349500,2.523349609375,-0.99346923828125,0.067901611328125,-0.0477294921875
1772709221309374500,2.53337451171875,-0.994049072265625,0.06817626953125,-0.05059814453125
1772709221319399700,2.543399658203125,-0.9932708740234375,0.0673980712890625,-0.0500030517578125
1772709221329424600,2.553424560546875,-0.993621826171875,0.069091796875,-0.0504302978515625
1772709221339449600,2.56344970703125,-0.9951171875,0.0664825439453125,-0.0501861572265625
1772709221349473800,2.573473876953125,-0.995452880859375,0.065826416015625,-0.0490875244140625
1772709221359498500,2.58349853515625,-0.992950439453125,0.066864013671875,-0.0490264892578125
1772709221369523500,2.5935234375,-0.9929351806640625,0.0662384033203125,-0.04864501953125
1772709221379548700,2.603548583984375,-0.9939422607421875,0.0651702880859375,-0.0486297607421875
1772709221389573600,2.61357373046875,-0.9938507080078125,0.0653076171875,-0.050445556640625
1772709221399598600,2.6235986328125,-0.9950408935546875,0.0665130615234375,-0.049835205078125
1772709221409623600,2.63362353515625,-0.9939727783203125,0.066070556640625,-0.0489044189453125
1772709221419648800,2.643648681640625,-0.9944610595703125,0.0651397705078125,-0.0498809814453125
1772709221429673700,2.653673828125,-0.993072509765625,0.0647735595703125,-0.0484619140625
1772709221439697400,2.663697509765625,-0.9945220947265625,0.06640625,-0.0503692626953125
1772709221449722600,2.67372265625,-0.9943389892578125,0.06646728515625,-0.0496826171875
1772709221459747600,2.68374755859375,-0.992919921875,0.0650787353515625,-0.0497283935546875
1772709221469772500,2.6937724609375,-0.994415283203125,0.06622314453125,-0.050262451171875
1772709221479797500,2.703797607421875,-0.995269775390625,0.0665283203125,-0.049346923828125
1772709221489822700,2.71382275390625,-0.994049072265625,0.06866455078125,-0.050628662109375
1772709221499847700,2.72384765625,-0.9949493408203125,0.0672607421875,-0.0488433837890625
1772709221509871600,2.73387158203125,-0.994049072265625,0.065216064453125,-0.047637939453125
1772709221519896600,2.743896484375,-0.9935302734375,0.0649566650390625,-0.049346923828125
1772709221529921500,2.753921630859375,-0.9939117431640625,0.0655517578125,-0.0501861572265625
1772709221539946500,2.763946533203125,-0.9941558837890625,0.066070556640625,-0.0492095947265625
1772709221549971500,2.773971435546875,-0.9943084716796875,0.0660400390625,-0.048370361328125
1772709221559996700,2.78399658203125,-0.9937591552734375,0.064453125,-0.049346923828125
1772709221570021600,2.794021728515625,-0.9948577880859375,0.0650482177734375,-0.0501861572265625
1772709221580046600,2.804046630859375,-0.9952239990234375,0.0668182373046875,-0.0501251220703125
1772709221590070500,2.814070556640625,-0.994293212890625,0.06549072265625,-0.0478515625
1772709221600095500,2.824095458984375,-0.9940643310546875,0.064239501953125,-0.0474700927734375
1772709221610120400,2.834120361328125,-0.9947509765625,0.0652923583984375,-0.0495147705078125
1772709221620145700,2.844145751953125,-0.9944915771484375,0.0657196044921875,-0.048797607421875
1772709221630170600,2.854170654296875,-0.9942474365234375,0.0671844482421875,-0.049652099609375
1772709221640195600,2.864195556640625,-0.993011474609375,0.067535400390625,-0.049957275390625
1772709221650220500,2.874220458984375,-0.9942779541015625,0.06787109375,-0.050262451171875
1772709221660245800,2.884245849609375,-0.9944915771484375,0.0679779052734375,-0.0505828857421875
1772709221670269400,2.89426953125,-0.9938201904296875,0.065521240234375,-0.050079345703125
1772709221680294400,2.90429443359375,-0.9947509765625,0.062896728515625,-0.0480499267578125
1772709221690319600,2.914319580078125,-0.99273681640625,0.0633544921875,-0.0494537353515625
1772709221700344600,2.924344482421875,-0.9944610595703125,0.066009521484375,-0.049468994140625
1772709221710369500,2.93436962890625,-0.995361328125,0.0690155029296875,-0.051849365234375
1772709221720394500,2.94439453125,-0.9966583251953125,0.0656890869140625,-0.0489959716796875
1772709221730419700,2.954419677734375,-0.9937591552734375,0.0651397705078125,-0.047027587890625
1772709221740444700,2.964444580078125,-0.9925079345703125,0.0647735595703125,-0.0476226806640625
1772709221750468600,2.974468505859375,-0.9940032958984375,0.0650482177734375,-0.0498199462890625
1772709221760493600,2.98449365234375,-0.994720458984375,0.065887451171875,-0.05181884765625
1772709221770518500,2.9945185546875,-0.9939422607421875,0.0665435791015625,-0.0492706298828125
1772709221780543500,3.00454345703125,-0.996612548828125,0.0650482177734375,-0.0489654541015625
1772709221790568700,3.014568603515625,-0.9949798583984375,0.0658721923828125,-0.0504608154296875
1772709221800593700,3.02459375,-0.9928436279296875,0.06732177734375,-0.0504150390625
1772709221810618600,3.03461865234375,-0.993011474609375,0.0669403076171875,-0.0487213134765625
1772709221820643600,3.0446435546875,-0.993408203125,0.06829833984375,-0.0481719970703125
1772709221830667500,3.05466748046875,-0.9937286376953125,0.0682220458984375,-0.05059814453125
1772709221840692500,3.0646923828125,-0.993255615234375,0.06890869140625,-0.04986572265625
1772709221850717400,3.074717529296875,-0.9930572509765625,0.0666656494140625,-0.0480194091796875
1772709221860742700,3.08474267578125,-0.992156982421875,0.065093994140625,-0.0469818115234375
1772709221870767600,3.094767578125,-0.9956817626953125,0.0649871826171875,-0.0492095947265625
1772709221880792600,3.10479248046875,-0.99395751953125,0.065765380859375,-0.051727294921875
1772709221890817500,3.114817626953125,-0.99346923828125,0.0654144287109375,-0.050140380859375
1772709221900842800,3.1248427734375,-0.995513916015625,0.0644989013671875,-0.050384521484375
1772709221910866400,3.134866455078125,-0.994384765625,0.0648956298828125,-0.0516357421875
1772709221920891600,3.1448916015625,-0.9938812255859375,0.0660552978515625,-0.05035400390625
1772709221930916600,3.15491650390625,-0.993377685546875,0.064453125,-0.0501861572265625
1772709221940941600,3.164941650390625,-0.9941864013671875,0.0649261474609375,-0.05010986328125
1772709221950966500,3.174966552734375,-0.99395751953125,0.0664825439453125,-0.0492706298828125
1772709221960991700,3.18499169921875,-0.9938201904296875,0.0666046142578125,-0.0514068603515625
1772709221971016700,3.1950166015625,-0.9943695068359375,0.06640625,-0.0513916015625
1772709221981041700,3.205041748046875,-0.995025634765625,0.0663299560546875,-0.0487213134765625
1772709221991065600,3.215065673828125,-0.9944610595703125,0.06634521484375,-0.0484466552734375
1772709222001090600,3.225090576171875,-0.994659423828125,0.06683349609375,-0.049774169921875
1772709222011115500,3.235115478515625,-0.9944915771484375,0.0670318603515625,-0.04931640625
1772709222021140500,3.245140380859375,-0.993865966796875,0.0665283203125,-0.0489959716796875
1772709222031165700,3.255165771484375,-0.992340087890625,0.065338134765625,-0.0488433837890625
1772709222041190700,3.265190673828125,-0.9933929443359375,0.0653228759765625,-0.049957275390625
1772709222051215600,3.275215576171875,-0.995330810546875,0.067047119140625,-0.0501861572265625
1772709222061240600,3.285240478515625,-0.994232177734375,0.066314697265625,-0.0493011474609375
1772709222071264500,3.295264404296875,-0.99639892578125,0.066314697265625,-0.0484466552734375
1772709222081289500,3.30528955078125,-0.9933929443359375,0.065155029296875,-0.048858642578125
1772709222091314400,3.315314453125,-0.993072509765625,0.06512451171875,-0.04852294921875
1772709222101339600,3.325339599609375,-0.9938507080078125,0.065765380859375,-0.0488128662109375
1772709222111364600,3.335364501953125,-0.99359130859375,0.0665130615234375,-0.048828125
1772709222121389300,3.345389404296875,-0.995208740234375,0.064849853515625,-0.04833984375
1772709222131414500,3.35541455078125,-0.9949798583984375,0.065277099609375,-0.0483551025390625
1772709222141439500,3.365439453125,-0.9932098388671875,0.0650177001953125,-0.048675537109375
1772709222151463400,3.37546337890625,-0.9944000244140625,0.0650787353515625,-0.0496978759765625
1772709222161488600,3.385488525390625,-0.993499755859375,0.067108154296875,-0.0503387451171875
1772709222171513600,3.395513671875,-0.99407958984375,0.067840576171875,-0.0507049560546875
1772709222181538600,3.40553857421875,-0.9968414306640625,0.0680389404296875,-0.052154541015625
1772709222191563300,3.415563232421875,-0.9972381591796875,0.0663909912109375,-0.0489654541015625
1772709222201588500,3.42558837890625,-0.99420166015625,0.065948486328125,-0.0491943359375
1772709222211613400,3.435613525390625,-0.992706298828125,0.0650787353515625,-0.04815673828125
1772709222221638400,3.445638427734375,-0.99163818359375,0.0643768310546875,-0.050994873046875
1772709222231662600,3.45566259765625,-0.9929656982421875,0.0655059814453125,-0.05145263671875
1772709222241687600,3.4656875,-0.9959869384765625,0.069915771484375,-0.0486297607421875
1772709222251712500,3.47571240234375,-0.996002197265625,0.067596435546875,-0.047607421875
1772709222261737500,3.485737548828125,-0.9935760498046875,0.0643463134765625,-0.0503387451171875
1772709222271762400,3.495762451171875,-0.9911956787109375,0.0632781982421875,-0.04986572265625
1772709222281787400,3.505787353515625,-0.99322509765625,0.0666351318359375,-0.0505523681640625
1772709222291812400,3.515812255859375,-0.996612548828125,0.0670013427734375,-0.0508880615234375
1772709222301837600,3.525837646484375,-0.9953765869140625,0.0672760009765625,-0.05133056640625
1772709222311861500,3.535861572265625,-0.9940948486328125,0.0677490234375,-0.049224853515625
1772709222321886500,3.545886474609375,-0.9945068359375,0.0687713623046875,-0.0505218505859375
1772709222331911700,3.55591162109375,-0.9945831298828125,0.068115234375,-0.049560546875
1772709222341936600,3.5659365234375,-0.9930572509765625,0.06768798828125,-0.0492706298828125
1772709222351961300,3.57596142578125,-0.9937286376953125,0.0692138671875,-0.050048828125
1772709222361986300,3.585986328125,-0.9925689697265625,0.068115234375,-0.0503387451171875
1772709222372011500,3.596011474609375,-0.992523193359375,0.0668487548828125,-0.050018310546875
1772709222382036500,3.606036376953125,-0.9940643310546875,0.0656585693359375,-0.04949951171875
1772709222392060400,3.616060302734375,-0.994415283203125,0.06658935546875,-0.049072265625
1772709222402085600,3.626085693359375,-0.9950408935546875,0.0666046142578125,-0.05010986328125
1772709222412110600,3.636110595703125,-0.9957427978515625,0.0653076171875,-0.0494384765625
1772709222422135600,3.646135498046875,-0.994659423828125,0.06585693359375,-0.050689697265625
1772709222432160300,3.65616015625,-0.9949188232421875,0.06646728515625,-0.0496826171875
1772709222442185500,3.666185546875,-0.9944000244140625,0.0660858154296875,-0.0496063232421875
1772709222452210400,3.67621044921875,-0.9943389892578125,0.0671844482421875,-0.049835205078125
1772709222462235400,3.6862353515625,-0.9939422607421875,0.066986083984375,-0.049224853515625
1772709222472259600,3.696259521484375,-0.995574951171875,0.0672149658203125,-0.0513763427734375
1772709222482284500,3.706284423828125,-0.9938812255859375,0.0677642822265625,-0.050628662109375
1772709222492309500,3.7163095703125,-0.993743896484375,0.068695068359375,-0.0505523681640625
1772709222502334700,3.726334716796875,-0.9933624267578125,0.0681304931640625,-0.0478973388671875
1772709222512359400,3.736359375,-0.9933624267578125,0.06658935546875,-0.0487060546875
1772709222522384400,3.74638427734375,-0.9927825927734375,0.068084716796875,-0.0491790771484375
1772709222532409300,3.756409423828125,-0.994293212890625,0.070098876953125,-0.0502471923828125
1772709222542433500,3.76643359375,-0.995208740234375,0.0688018798828125,-0.0512542724609375
1772709222552458500,3.77645849609375,-0.99456787109375,0.0673675537109375,-0.0491943359375
1772709222562483500,3.7864833984375,-0.994171142578125,0.067352294921875,-0.049591064453125
1772709222572508700,3.7965087890625,-0.9931640625,0.0681610107421875,-0.0508270263671875
1772709222582533600,3.80653369140625,-0.993194580078125,0.0690765380859375,-0.04852294921875
1772709222592558300,3.816558349609375,-0.99365234375,0.0684051513671875,-0.0504150390625
1772709222602583300,3.826583251953125,-0.9940185546875,0.0680999755859375,-0.04925537109375
1772709222612608500,3.8366083984375,-0.99346923828125,0.06805419921875,-0.05120849609375
1772709222622633500,3.846633544921875,-0.993621826171875,0.06787109375,-0.0506591796875
1772709222632657400,3.856657470703125,-0.9942169189453125,0.0679473876953125,-0.0496978759765625
1772709222642682600,3.8666826171875,-0.993743896484375,0.067657470703125,-0.05047607421875
1772709222652707600,3.87670751953125,-0.9940185546875,0.06866455078125,-0.0493621826171875
1772709222662732300,3.886732177734375,-0.995361328125,0.0700836181640625,-0.0519866943359375
1772709222672757500,3.896757568359375,-0.994171142578125,0.0696563720703125,-0.0518341064453125
1772709222682782500,3.906782470703125,-0.9923553466796875,0.07061767578125,-0.050811767578125
1772709222692807400,3.916807373046875,-0.99365234375,0.06951904296875,-0.0507965087890625
1772709222702832400,3.926832275390625,-0.9954681396484375,0.0689697265625,-0.0506591796875
1772709222712856600,3.936856689453125,-0.9935760498046875,0.068756103515625,-0.0497589111328125
1772709222722881500,3.946881591796875,-0.9940032958984375,0.06719970703125,-0.0499420166015625
1772709222732906500,3.956906494140625,-0.9940948486328125,0.064300537109375,-0.0491180419921875
1772709222742931500,3.966931396484375,-0.99139404296875,0.0663604736328125,-0.049163818359375
1772709222752956400,3.976956298828125,-0.9940948486328125,0.0709991455078125,-0.0506591796875
1772709222762981400,3.9869814453125,-0.998199462890625,0.07025146484375,-0.051727294921875
1772709222773006300,3.99700634765625,-0.9965362548828125,0.06610107421875,-0.04925537109375
1772709222783031600,4.007031494140625,-0.9905242919921875,0.063232421875,-0.0482635498046875
1772709222793055500,4.017055419921875,-0.9915313720703125,0.065643310546875,-0.0501861572265625
1772709222803080400,4.02708056640625,-0.99542236328125,0.0688629150390625,-0.05078125
1772709222813105700,4.037105712890625,-0.9941253662109375,0.068572998046875,-0.05364990234375
1772709222823130400,4.04713037109375,-0.9931488037109375,0.0670928955078125,-0.052337646484375
1772709222833155300,4.0571552734375,-0.9947967529296875,0.0716705322265625,-0.048583984375
1772709222843180500,4.0671806640625,-0.9961700439453125,0.0721435546875,-0.0496673583984375
1772709222853205500,4.07720556640625,-0.9945068359375,0.0715179443359375,-0.0505218505859375
1772709222863230500,4.08723046875,-0.9940643310546875,0.070831298828125,-0.0486907958984375
1772709222873254700,4.097254638671875,-0.9930267333984375,0.0709991455078125,-0.04815673828125
1772709222883279600,4.107279541015625,-0.99285888671875,0.0704193115234375,-0.0501251220703125
1772709222893304600,4.1173046875,-0.994598388671875,0.0699920654296875,-0.0487213134765625
1772709222903329300,4.127329345703125,-0.995574951171875,0.0681915283203125,-0.0482940673828125
1772709222913354500,4.1373544921875,-0.9949951171875,0.0711669921875,-0.04937744140625
1772709222923379500,4.14737939453125,-0.99407958984375,0.07012939453125,-0.0508575439453125
1772709222933404400,4.157404296875,-0.993682861328125,0.069122314453125,-0.0505218505859375
1772709222943429400,4.167429443359375,-0.992645263671875,0.0693511962890625,-0.0521240234375
1772709222953453600,4.17745361328125,-0.9946746826171875,0.0692901611328125,-0.0528106689453125
1772709222963478500,4.187478515625,-0.9952239990234375,0.0696868896484375,-0.051116943359375
1772709222973503500,4.19750341796875,-0.995452880859375,0.067718505859375,-0.0517425537109375
1772709222983528400,4.207528564453125,-0.9942169189453125,0.065399169921875,-0.051177978515625
1772709222993553400,4.217553466796875,-0.993194580078125,0.065216064453125,-0.0521697998046875
1772709223003578400,4.227578369140625,-0.992523193359375,0.064910888671875,-0.0518798828125
1772709223013603300,4.237603271484375,-0.9954071044921875,0.0650482177734375,-0.0508575439453125
1772709223023628500,4.247628662109375,-0.996368408203125,0.06463623046875,-0.05072021484375
1772709223033653500,4.257653564453125,-0.995330810546875,0.064727783203125,-0.0485687255859375
1772709223043677700,4.267677734375,-0.9936065673828125,0.067840576171875,-0.0496673583984375
1772709223053702700,4.27770263671875,-0.993194580078125,0.0696563720703125,-0.04986572265625
1772709223063727400,4.287727294921875,-0.9951171875,0.0674896240234375,-0.04827880859375
1772709223073752300,4.29775244140625,-0.99468994140625,0.0666656494140625,-0.048614501953125
1772709223083777500,4.307777587890625,-0.994232177734375,0.0651397705078125,-0.049896240234375
1772709223093802500,4.317802490234375,-0.9939117431640625,0.0659332275390625,-0.0489501953125
1772709223103827500,4.327827392578125,-0.9946136474609375,0.0680694580078125,-0.0493621826171875
1772709223113852400,4.337852294921875,-0.9942779541015625,0.0677032470703125,-0.0496978759765625
1772709223123877400,4.34787744140625,-0.99505615234375,0.067535400390625,-0.04913330078125
1772709223133902300,4.35790234375,-0.99468994140625,0.06939697265625,-0.0485382080078125
1772709223143927300,4.36792724609375,-0.9935760498046875,0.068145751953125,-0.048583984375
1772709223153952300,4.3779521484375,-0.9925537109375,0.067962646484375,-0.04864501953125
1772709223163977500,4.3879775390625,-0.9918365478515625,0.066070556640625,-0.0480194091796875
1772709223174002400,4.39800244140625,-0.995025634765625,0.066162109375,-0.048675537109375
1772709223184027400,4.40802734375,-0.9946746826171875,0.0663299560546875,-0.0508575439453125
1772709223194052400,4.41805224609375,-0.9934844970703125,0.066558837890625,-0.0500640869140625
1772709223204077300,4.428077392578125,-0.9934844970703125,0.065765380859375,-0.0514373779296875
1772709223214101200,4.438101318359375,-0.99285888671875,0.0671234130859375,-0.051971435546875
1772709223224126500,4.44812646484375,-0.9933319091796875,0.0666351318359375,-0.051177978515625
1772709223234151400,4.4581513671875,-0.9953155517578125,0.0666046142578125,-0.0506744384765625
1772709223244176400,4.46817626953125,-0.9949798583984375,0.066497802734375,-0.051300048828125
1772709223254201300,4.478201416015625,-0.9934234619140625,0.0644378662109375,-0.0495452880859375
1772709223264226600,4.4882265625,-0.9926910400390625,0.0630950927734375,-0.0493621826171875
1772709223274251500,4.49825146484375,-0.9923095703125,0.067901611328125,-0.051055908203125
1772709223284276200,4.508276123046875,-0.9981689453125,0.0702667236328125,-0.0511474609375
1772709223294300400,4.518300537109375,-0.998382568359375,0.0666656494140625,-0.049072265625
1772709223304325400,4.528325439453125,-0.993255615234375,0.0648345947265625,-0.0489501953125
1772709223314350300,4.538350341796875,-0.9930877685546875,0.0655059814453125,-0.0516815185546875
1772709223324375300,4.548375244140625,-0.992706298828125,0.0662078857421875,-0.0523834228515625
1772709223334400500,4.558400390625,-0.994598388671875,0.066253662109375,-0.0513153076171875
1772709223344425500,4.568425537109375,-0.99395751953125,0.0651702880859375,-0.05126953125
1772709223354450400,4.578450439453125,-0.994873046875,0.0644989013671875,-0.0496368408203125
1772709223364475100,4.58847509765625,-0.993316650390625,0.0655059814453125,-0.049591064453125
1772709223374500400,4.598500244140625,-0.9928436279296875,0.0665130615234375,-0.0502777099609375
1772709223384524300,4.608524169921875,-0.9946136474609375,0.066192626953125,-0.0490570068359375
1772709223394549200,4.61854931640625,-0.995697021484375,0.065765380859375,-0.0490264892578125
1772709223404574500,4.628574462890625,-0.9936065673828125,0.0662689208984375,-0.050262451171875
1772709223414599400,4.638599365234375,-0.99322509765625,0.0656280517578125,-0.049713134765625
1772709223424624400,4.648624267578125,-0.993743896484375,0.0665435791015625,-0.0496826171875
1772709223434649300,4.6586494140625,-0.9942474365234375,0.0646820068359375,-0.0498046875
1772709223444674300,4.66867431640625,-0.995086669921875,0.065399169921875,-0.04998779296875
1772709223454699300,4.67869921875,-0.995758056640625,0.067169189453125,-0.05078125
1772709223464723500,4.688723388671875,-0.994171142578125,0.066619873046875,-0.0479736328125
1772709223474748400,4.69874853515625,-0.9933013916015625,0.0654144287109375,-0.0483245849609375
1772709223484773400,4.7087734375,-0.9951324462890625,0.06658935546875,-0.0486602783203125
1772709223494798300,4.71879833984375,-0.9950103759765625,0.066558837890625,-0.0498199462890625
1772709223504823600,4.728823486328125,-0.993621826171875,0.0645294189453125,-0.0506744384765625
1772709223514848500,4.7388486328125,-0.993194580078125,0.063873291015625,-0.04864501953125
1772709223524873200,4.748873291015625,-0.9945831298828125,0.0654144287109375,-0.0489654541015625
1772709223534898200,4.758898193359375,-0.994293212890625,0.0653839111328125,-0.049896240234375
1772709223544923400,4.76892333984375,-0.9937591552734375,0.0653076171875,-0.0498046875
1772709223554947300,4.778947265625,-0.994110107421875,0.0646514892578125,-0.04876708984375
1772709223564972300,4.78897216796875,-0.9926605224609375,0.065521240234375,-0.0493011474609375
1772709223574997500,4.79899755859375,-0.9920806884765625,0.0677337646484375,-0.05157470703125
1772709223585022500,4.8090224609375,-0.9930267333984375,0.067108154296875,-0.051971435546875
1772709223595047200,4.819047119140625,-0.9951171875,0.065765380859375,-0.05084228515625
1772709223605072400,4.829072265625,-0.9935150146484375,0.06585693359375,-0.0516357421875
1772709223615097300,4.839097412109375,-0.9935760498046875,0.0646820068359375,-0.0506134033203125
1772709223625122300,4.849122314453125,-0.99493408203125,0.0659637451171875,-0.0496673583984375
1772709223635146500,4.859146484375,-0.9951629638671875,0.0654296875,-0.0482635498046875
1772709223645171500,4.86917138671875,-0.993927001953125,0.0645904541015625,-0.04815673828125
1772709223655196400,4.879196533203125,-0.9951171875,0.064666748046875,-0.049346923828125
1772709223665221400,4.889221435546875,-0.9933013916015625,0.0653228759765625,-0.049224853515625
1772709223675246300,4.899246337890625,-0.992218017578125,0.066680908203125,-0.0490264892578125
1772709223685271300,4.909271240234375,-0.9934844970703125,0.0652008056640625,-0.0496978759765625
1772709223695296300,4.919296142578125,-0.994873046875,0.064453125,-0.04925537109375
1772709223705321200,4.9293212890625,-0.9957122802734375,0.064666748046875,-0.0493927001953125
1772709223715346400,4.939346435546875,-0.9941253662109375,0.0640411376953125,-0.049102783203125
1772709223725370400,4.949370361328125,-0.9930419921875,0.068023681640625,-0.0498046875
1772709223735395300,4.959395263671875,-0.993988037109375,0.066070556640625,-0.0505828857421875
1772709223745420500,4.969420654296875,-0.9939727783203125,0.0653839111328125,-0.0496063232421875
1772709223755445200,4.9794453125,-0.99395751953125,0.0679168701171875,-0.0501708984375
1772709223765470200,4.98947021484375,-0.9942626953125,0.0653839111328125,-0.0489501953125
1772709223775495200,4.9994951171875,-0.9957275390625,0.0642242431640625,-0.0473785400390625
1772709223785520400,5.009520263671875,-0.9925537109375,0.0642547607421875,-0.048583984375
1772709223795545300,5.01954541015625,-0.9927215576171875,0.0646514892578125,-0.0510101318359375
1772709223805570300,5.0295703125,-0.9942626953125,0.0685882568359375,-0.0518035888671875
1772709223815594500,5.039594482421875,-0.997344970703125,0.0662994384765625,-0.048095703125
1772709223825619500,5.049619384765625,-0.993743896484375,0.064056396484375,-0.0478057861328125
1772709223835644200,5.05964404296875,-0.991363525390625,0.0650177001953125,-0.0477752685546875
1772709223845669400,5.06966943359375,-0.9946441650390625,0.0641021728515625,-0.051544189453125
1772709223855694300,5.0796943359375,-0.994964599609375,0.0671234130859375,-0.051177978515625
1772709223865719300,5.08971923828125,-0.9949188232421875,0.067962646484375,-0.0500640869140625
1772709223875744300,5.099744140625,-0.9938201904296875,0.0663909912109375,-0.0498046875
1772709223885769500,5.10976953125,-0.9960784912109375,0.064483642578125,-0.050994873046875
1772709223895793400,5.11979345703125,-0.9942779541015625,0.064300537109375,-0.0496063232421875
1772709223905818400,5.129818359375,-0.9934234619140625,0.0646820068359375,-0.0476226806640625
1772709223915843300,5.13984326171875,-0.99517822265625,0.06640625,-0.048431396484375
1772709223925868300,5.149868408203125,-0.9941558837890625,0.0673675537109375,-0.04962158203125
1772709223935893200,5.159893310546875,-0.99420166015625,0.0667266845703125,-0.0494842529296875
1772709223945918200,5.169918212890625,-0.99371337890625,0.065460205078125,-0.0482177734375
1772709223955943400,5.179943359375,-0.9944305419921875,0.0642242431640625,-0.0497589111328125
1772709223965968400,5.189968505859375,-0.9941253662109375,0.0645904541015625,-0.0496063232421875
1772709223975993300,5.199993408203125,-0.9955902099609375,0.0655975341796875,-0.0490875244140625
1772709223986017500,5.210017578125,-0.9945068359375,0.065399169921875,-0.049041748046875
1772709223996042200,5.220042236328125,-0.9940185546875,0.065277099609375,-0.0487060546875
1772709224006067200,5.230067138671875,-0.994293212890625,0.0657196044921875,-0.0493621826171875
1772709224016092400,5.240092529296875,-0.993743896484375,0.0654754638671875,-0.05084228515625
1772709224026117400,5.250117431640625,-0.993194580078125,0.0636138916015625,-0.050506591796875
1772709224036142300,5.260142333984375,-0.994964599609375,0.0644683837890625,-0.051422119140625
1772709224046167300,5.270167236328125,-0.9939727783203125,0.0662994384765625,-0.0501556396484375
1772709224056192500,5.280192626953125,-0.994903564453125,0.066253662109375,-0.0511016845703125
1772709224066217500,5.290217529296875,-0.9941864013671875,0.0663299560546875,-0.049713134765625
1772709224076241200,5.3002412109375,-0.993682861328125,0.0651092529296875,-0.0473785400390625
1772709224086266400,5.310266357421875,-0.993255615234375,0.0659027099609375,-0.0491943359375
1772709224100676400,5.32467626953125,-0.9947662353515625,0.0672607421875,-0.0496978759765625
1772709224110701300,5.334701416015625,-0.994476318359375,0.0662384033203125,-0.0501861572265625
1772709224120726300,5.344726318359375,-0.9932403564453125,0.065582275390625,-0.049957275390625
1772709224130751200,5.354751220703125,-0.9932861328125,0.0643157958984375,-0.0486907958984375
1772709224140776000,5.36477587890625,-0.9931640625,0.065338134765625,-0.0496673583984375
1772709224150801000,5.37480078125,-0.99444580078125,0.0653076171875,-0.05047607421875
1772709224160825900,5.384825927734375,-0.9945068359375,0.066162109375,-0.049346923828125
1772709224170850000,5.39485009765625,-0.99432373046875,0.0651702880859375,-0.0494384765625
1772709224180875000,5.404875,-0.99359130859375,0.0654449462890625,-0.0492401123046875
1772709224190900000,5.41489990234375,-0.994781494140625,0.066192626953125,-0.049957275390625
1772709224200925200,5.42492529296875,-0.99371337890625,0.067138671875,-0.0479736328125
1772709224210950100,5.4349501953125,-0.9940338134765625,0.06695556640625,-0.0489044189453125
1772709224220974800,5.444974853515625,-0.9947357177734375,0.06524658203125,-0.0509185791015625
1772709224231000000,5.455,-0.993011474609375,0.065948486328125,-0.051513671875
1772709224241025000,5.46502490234375,-0.992889404296875,0.0659637451171875,-0.0521697998046875
1772709224251050000,5.475050048828125,-0.9938201904296875,0.065399169921875,-0.050689697265625
1772709224261074200,5.48507421875,-0.9944610595703125,0.0667572021484375,-0.0516357421875
1772709224271099100,5.49509912109375,-0.992645263671875,0.0665283203125,-0.0516357421875
1772709224281124000,5.5051240234375,-0.9939422607421875,0.0664520263671875,-0.052703857421875
1772709224291149000,5.515149169921875,-0.994537353515625,0.0644989013671875,-0.0519866943359375
1772709224301174000,5.525174072265625,-0.994384765625,0.0642852783203125,-0.048553466796875
1772709224311199000,5.535198974609375,-0.9934234619140625,0.0628509521484375,-0.0493927001953125
1772709224321224000,5.545223876953125,-0.992706298828125,0.06396484375,-0.0494842529296875
1772709224331249000,5.555248779296875,-0.994415283203125,0.065765380859375,-0.0492401123046875
1772709224341274000,5.565274169921875,-0.995819091796875,0.0681304931640625,-0.0490875244140625
1772709224351298000,5.575298095703125,-0.9954071044921875,0.06622314453125,-0.045684814453125
1772709224361323000,5.585322998046875,-0.992523193359375,0.0664215087890625,-0.048126220703125
1772709224371348000,5.595347900390625,-0.992889404296875,0.0664215087890625,-0.049713134765625
1772709224381373000,5.605373046875,-0.9942626953125,0.0662994384765625,-0.0520477294921875
1772709224391398000,5.61539794921875,-0.9946441650390625,0.0664520263671875,-0.050933837890625
1772709224401423000,5.625423095703125,-0.9951171875,0.063690185546875,-0.0501708984375
1772709224411448000,5.635447998046875,-0.9938507080078125,0.0649261474609375,-0.051025390625
1772709224421473000,5.64547314453125,-0.9936370849609375,0.0676116943359375,-0.0487213134765625
1772709224431498000,5.655498046875,-0.9934234619140625,0.066925048828125,-0.04974365234375
1772709224441522200,5.665522216796875,-0.993133544921875,0.0638427734375,-0.0498046875
1772709224452174800,5.6761748046875,-0.9943695068359375,0.0655059814453125,-0.0504150390625
1772709224462199800,5.68619970703125,-0.9933929443359375,0.0663909912109375,-0.0502777099609375
1772709224472225000,5.69622509765625,-0.99493408203125,0.0648956298828125,-0.0501708984375
1772709224482249000,5.7062490234375,-0.9939117431640625,0.0647430419921875,-0.05096435546875
1772709224492274000,5.71627392578125,-0.99456787109375,0.06378173828125,-0.050201416015625
1772709224502299100,5.726299072265625,-0.9944915771484375,0.064971923828125,-0.0499114990234375
1772709224512324000,5.736323974609375,-0.993194580078125,0.0650787353515625,-0.0508575439453125
1772709224522349000,5.74634912109375,-0.99407958984375,0.065399169921875,-0.0501861572265625
1772709224532374000,5.7563740234375,-0.9938201904296875,0.0661163330078125,-0.0489349365234375
1772709224542399000,5.76639892578125,-0.995819091796875,0.0667266845703125,-0.0489654541015625
1772709224552424000,5.776423828125,-0.993896484375,0.0639190673828125,-0.0513916015625
1772709224562449000,5.786448974609375,-0.993743896484375,0.06427001953125,-0.0490875244140625
1772709224572474000,5.79647412109375,-0.9930419921875,0.065185546875,-0.0500640869140625
1772709224582498000,5.806498046875,-0.99407958984375,0.0662384033203125,-0.0511627197265625
1772709224592523000,5.81652294921875,-0.995361328125,0.06671142578125,-0.0521087646484375
1772709224602548200,5.82654833984375,-0.994293212890625,0.0668182373046875,-0.0506134033203125
1772709224612573000,5.836572998046875,-0.9933319091796875,0.0676727294921875,-0.048828125
1772709224622598000,5.846597900390625,-0.9940643310546875,0.067535400390625,-0.04949951171875
1772709224632622800,5.856622802734375,-0.9940185546875,0.0673370361328125,-0.0513763427734375
1772709224642648000,5.86664794921875,-0.9960784912109375,0.0646209716796875,-0.051727294921875
1772709224652673000,5.876673095703125,-0.99530029296875,0.064300537109375,-0.05010986328125
1772709224662698000,5.886697998046875,-0.9938507080078125,0.0656585693359375,-0.0501251220703125
1772709224672722200,5.89672216796875,-0.99462890625,0.0664825439453125,-0.0511322021484375
1772709224682747100,5.9067470703125,-0.9942779541015625,0.06707763671875,-0.049713134765625
1772709224692771800,5.916771728515625,-0.993560791015625,0.0655670166015625,-0.04864501953125
1772709224702797000,5.926797119140625,-0.995147705078125,0.0663604736328125,-0.049713134765625
1772709224712822000,5.936822021484375,-0.9936676025390625,0.06756591796875,-0.050445556640625
1772709224722847000,5.946846923828125,-0.993499755859375,0.06585693359375,-0.0497283935546875
1772709224732872000,5.956871826171875,-0.9944610595703125,0.065765380859375,-0.0500030517578125
1772709224742897200,5.966897216796875,-0.994873046875,0.066070556640625,-0.0490264892578125
1772709224752922000,5.976922119140625,-0.9951324462890625,0.065765380859375,-0.05108642578125
1772709224762947000,5.986947021484375,-0.9951171875,0.0655975341796875,-0.050537109375
1772709224772971000,5.996970947265625,-0.9941558837890625,0.065460205078125,-0.0511932373046875
1772709224782996000,6.006995849609375,-0.9923095703125,0.0674285888671875,-0.0506439208984375
1772709224793021000,6.01702099609375,-0.9938201904296875,0.0673675537109375,-0.0499267578125
1772709224803046000,6.0270458984375,-0.9929351806640625,0.068206787109375,-0.05029296875
1772709224813071000,6.037071044921875,-0.994171142578125,0.0688629150390625,-0.050750732421875
1772709224823096000,6.047095947265625,-0.9952392578125,0.0671844482421875,-0.050506591796875
1772709224833121000,6.05712109375,-0.9943084716796875,0.0652313232421875,-0.04949951171875
1772709224843146000,6.06714599609375,-0.99163818359375,0.0658721923828125,-0.0504608154296875
1772709224853171200,6.077171142578125,-0.9916839599609375,0.068695068359375,-0.050811767578125
1772709224863195000,6.08719482421875,-0.9954833984375,0.070831298828125,-0.0513458251953125
1772709224873219800,6.0972197265625,-0.997711181640625,0.069183349609375,-0.049224853515625
1772709224883245000,6.1072451171875,-0.995208740234375,0.0669097900390625,-0.04730224609375
1772709224893270000,6.11727001953125,-0.992431640625,0.0646820068359375,-0.0490875244140625
1772709224903295000,6.127294921875,-0.993438720703125,0.0663909912109375,-0.0526580810546875
1772709224913320200,6.1373203125,-0.9945526123046875,0.0675506591796875,-0.052978515625
1772709224923345200,6.14734521484375,-0.99334716796875,0.0664520263671875,-0.0527496337890625
1772709224933370000,6.1573701171875,-0.993621826171875,0.0662994384765625,-0.0501861572265625
1772709224943395000,6.16739501953125,-0.9959259033203125,0.0681915283203125,-0.0511474609375
1772709224953420000,6.177419921875,-0.9951324462890625,0.06829833984375,-0.0490570068359375
1772709224963444000,6.18744384765625,-0.99200439453125,0.067901611328125,-0.0487518310546875
1772709224973469000,6.197468994140625,-0.991058349609375,0.0669097900390625,-0.0494842529296875
1772709224983494100,6.207494140625,-0.9937896728515625,0.0684661865234375,-0.051055908203125
1772709224993519000,6.21751904296875,-0.993865966796875,0.067657470703125,-0.0497894287109375
1772709225003544000,6.2275439453125,-0.993988037109375,0.0659027099609375,-0.0496063232421875
1772709225013569000,6.237569091796875,-0.9939117431640625,0.0678253173828125,-0.0487823486328125
1772709225023594000,6.247593994140625,-0.9941864013671875,0.0673828125,-0.0489501953125
1772709225033619000,6.257618896484375,-0.992218017578125,0.0674591064453125,-0.05047607421875
1772709225043644000,6.267643798828125,-0.99432373046875,0.0661163330078125,-0.050445556640625
1772709225053668000,6.277668212890625,-0.9948883056640625,0.0672607421875,-0.0500946044921875
1772709225063693000,6.287693115234375,-0.993438720703125,0.0678558349609375,-0.0506591796875
1772709225073718000,6.297718017578125,-0.9935455322265625,0.0675506591796875,-0.04974365234375
1772709225083743000,6.307742919921875,-0.9931793212890625,0.06768798828125,-0.050323486328125
1772709225093768200,6.317768310546875,-0.99493408203125,0.068359375,-0.050994873046875
1772709225103793000,6.32779296875,-0.995147705078125,0.0689544677734375,-0.0516510009765625
1772709225113817900,6.33781787109375,-0.9945526123046875,0.0685272216796875,-0.0496826171875
1772709225123842600,6.347842529296875,-0.9938507080078125,0.0676116943359375,-0.050323486328125
1772709225133867500,6.357867431640625,-0.9925689697265625,0.0681610107421875,-0.049591064453125
1772709225143892500,6.367892578125,-0.992279052734375,0.067718505859375,-0.0505828857421875
1772709225153916700,6.377916748046875,-0.9936981201171875,0.068695068359375,-0.0517578125
1772709225163941600,6.387941650390625,-0.9938201904296875,0.06707763671875,-0.0511322021484375
1772709225173966300,6.39796630859375,-0.99395751953125,0.06689453125,-0.0506439208984375
1772709225183991600,6.407991455078125,-0.993316650390625,0.06689453125,-0.050323486328125
1772709225194016500,6.4180166015625,-0.9945068359375,0.066436767578125,-0.051666259765625
1772709225204041500,6.42804150390625,-0.994140625,0.067413330078125,-0.0498046875
1772709225214066400,6.43806640625,-0.9939117431640625,0.06744384765625,-0.04931640625
1772709225224091600,6.448091552734375,-0.9943695068359375,0.067413330078125,-0.0507965087890625
1772709225234116600,6.45811669921875,-0.9935150146484375,0.068450927734375,-0.0522918701171875
1772709225244140500,6.468140625,-0.9949493408203125,0.0678253173828125,-0.0493621826171875
1772709225254165500,6.47816552734375,-0.99224853515625,0.06829833984375,-0.048858642578125
1772709225264190500,6.4881904296875,-0.993896484375,0.0692291259765625,-0.050048828125
1772709225274215400,6.49821533203125,-0.996337890625,0.0688018798828125,-0.0510711669921875
1772709225284240400,6.508240478515625,-0.993896484375,0.066162109375,-0.051788330078125
1772709225294265600,6.518265625,-0.9941558837890625,0.0686187744140625,-0.0483856201171875
1772709225304290600,6.52829052734375,-0.9942626953125,0.068328857421875,-0.0504913330078125
1772709225314315500,6.5383154296875,-0.993865966796875,0.0670318603515625,-0.052337646484375
1772709225324340500,6.548340576171875,-0.9933319091796875,0.068359375,-0.0505828857421875
1772709225334364400,6.558364501953125,-0.99432373046875,0.067169189453125,-0.048583984375
1772709225344389400,6.568389404296875,-0.9965362548828125,0.066436767578125,-0.0474090576171875
1772709225354414300,6.578414306640625,-0.99365234375,0.067108154296875,-0.050262451171875
1772709225364439600,6.588439453125,-0.9937896728515625,0.064422607421875,-0.0476531982421875
1772709225374464500,6.598464599609375,-0.9913330078125,0.065399169921875,-0.049530029296875
1772709225384489500,6.608489501953125,-0.9935302734375,0.0703582763671875,-0.0516357421875
1772709225394514700,6.6185146484375,-0.9991302490234375,0.068572998046875,-0.05078125
1772709225404539600,6.62853955078125,-0.9963836669921875,0.06427001953125,-0.048095703125
1772709225414564600,6.638564697265625,-0.99169921875,0.0633087158203125,-0.0464324951171875
1772709225424588500,6.648588623046875,-0.992919921875,0.0648345947265625,-0.0516357421875
1772709225434613500,6.658613525390625,-0.993255615234375,0.0686798095703125,-0.0527191162109375
1772709225444638500,6.668638427734375,-0.9941864013671875,0.0669708251953125,-0.0516815185546875
1772709225454663400,6.678663330078125,-0.9951019287109375,0.0660400390625,-0.05267333984375
1772709225464688600,6.688688720703125,-0.995269775390625,0.0670928955078125,-0.0501708984375
1772709225474713600,6.698713623046875,-0.994049072265625,0.0677032470703125,-0.0492401123046875
1772709225484738600,6.708738525390625,-0.994171142578125,0.0687103271484375,-0.05029296875
1772709225494763500,6.718763427734375,-0.9936370849609375,0.0673980712890625,-0.0498809814453125
1772709225504788700,6.728788818359375,-0.993743896484375,0.067718505859375,-0.0493927001953125
1772709225514813400,6.7388134765625,-0.99664306640625,0.0667724609375,-0.049530029296875
1772709225524837400,6.74883740234375,-0.9947052001953125,0.068267822265625,-0.049224853515625
1772709225534862600,6.758862548828125,-0.9927520751953125,0.0668792724609375,-0.0493316650390625
1772709225544887600,6.768887451171875,-0.9922027587890625,0.0650177001953125,-0.049163818359375
1772709225554912500,6.77891259765625,-0.9935760498046875,0.0666961669921875,-0.05072021484375
1772709225564937500,6.7889375,-0.9949188232421875,0.0652923583984375,-0.050567626953125
1772709225574962700,6.798962646484375,-0.9937591552734375,0.064697265625,-0.0501708984375
1772709225584987400,6.8089873046875,-0.992889404296875,0.0648345947265625,-0.050750732421875
1772709225595012400,6.819012451171875,-0.993682861328125,0.067230224609375,-0.0499114990234375
1772709225605037600,6.82903759765625,-0.9936676025390625,0.0663604736328125,-0.0500335693359375
1772709225615061500,6.8390615234375,-0.994842529296875,0.0654296875,-0.0502471923828125
1772709225625086500,6.84908642578125,-0.99566650390625,0.0659942626953125,-0.0502471923828125
1772709225635111700,6.859111572265625,-0.99481201171875,0.0652618408203125,-0.049407958984375
1772709225645136600,6.86913671875,-0.992431640625,0.0660552978515625,-0.0513763427734375
1772709225655161600,6.87916162109375,-0.9928131103515625,0.06524658203125,-0.0489044189453125
1772709225665186300,6.889186279296875,-0.9925689697265625,0.0649261474609375,-0.0493011474609375
1772709225675211500,6.89921142578125,-0.9947662353515625,0.066619873046875,-0.0503997802734375
1772709225685236500,6.909236572265625,-0.99334716796875,0.0671539306640625,-0.0510101318359375
1772709225695261400,6.919261474609375,-0.9918670654296875,0.0654449462890625,-0.05145263671875
1772709225705286400,6.929286376953125,-0.993743896484375,0.0659332275390625,-0.0504302978515625
1772709225715310600,6.939310546875,-0.994110107421875,0.065704345703125,-0.0489349365234375
1772709225725335600,6.94933544921875,-0.994415283203125,0.0658111572265625,-0.05108642578125
1772709225735360500,6.959360595703125,-0.9950103759765625,0.0671844482421875,-0.049896240234375
1772709225745385500,6.969385498046875,-0.9947357177734375,0.065887451171875,-0.0493621826171875
1772709225755410400,6.979410400390625,-0.9943695068359375,0.065032958984375,-0.048828125
1772709225765435400,6.989435302734375,-0.9944305419921875,0.0651092529296875,-0.0499420166015625
1772709225775460600,6.999460693359375,-0.9936370849609375,0.06671142578125,-0.048980712890625
1772709225785485600,7.009485595703125,-0.9948577880859375,0.0655059814453125,-0.0503387451171875
1772709225795510500,7.019510498046875,-0.9953460693359375,0.0660858154296875,-0.0497283935546875
1772709225805534700,7.02953466796875,-0.995269775390625,0.06640625,-0.047821044921875
1772709225815559700,7.0395595703125,-0.993988037109375,0.0653076171875,-0.0483856201171875
1772709225825584400,7.04958447265625,-0.994842529296875,0.064666748046875,-0.0489959716796875
1772709225835609300,7.059609375,-0.9925689697265625,0.067474365234375,-0.049591064453125
1772709225845634600,7.069634521484375,-0.993988037109375,0.06695556640625,-0.05084228515625
1772709225855659500,7.079659423828125,-0.994537353515625,0.0657501220703125,-0.052093505859375
1772709225865684500,7.0896845703125,-0.9944610595703125,0.066864013671875,-0.0517120361328125
1772709225875709400,7.09970947265625,-0.9941558837890625,0.0656890869140625,-0.05133056640625
1772709225885734700,7.109734619140625,-0.993377685546875,0.0640869140625,-0.048492431640625
1772709225895759600,7.119759521484375,-0.99261474609375,0.06561279296875,-0.0499267578125
1772709225905783300,7.129783203125,-0.9921875,0.065093994140625,-0.049346923828125
1772709225915808500,7.13980859375,-0.9947357177734375,0.0679931640625,-0.0512542724609375
1772709225925833500,7.14983349609375,-0.9968109130859375,0.0664825439453125,-0.0510406494140625
1772709225935858400,7.1598583984375,-0.993988037109375,0.064910888671875,-0.04876708984375
1772709225945883400,7.16988330078125,-0.9928436279296875,0.0642547607421875,-0.0470428466796875
1772709225955908600,7.17990869140625,-0.9929351806640625,0.0653228759765625,-0.0495758056640625
1772709225965933600,7.18993359375,-0.9933929443359375,0.0658416748046875,-0.051513671875
1772709225975958500,7.19995849609375,-0.9933013916015625,0.0635833740234375,-0.052398681640625
1772709225985983500,7.2099833984375,-0.9951324462890625,0.0653533935546875,-0.050994873046875
1772709225996008700,7.2200087890625,-0.9940338134765625,0.06622314453125,-0.0500030517578125
1772709226006032400,7.230032470703125,-0.993255615234375,0.067596435546875,-0.051177978515625
1772709226016057600,7.2400576171875,-0.991607666015625,0.0652618408203125,-0.0503387451171875
1772709226026082600,7.25008251953125,-0.9930877685546875,0.0665130615234375,-0.048583984375
1772709226036107500,7.260107421875,-0.993804931640625,0.0674591064453125,-0.049713134765625
1772709226046132500,7.270132568359375,-0.9946746826171875,0.067230224609375,-0.0492095947265625
1772709226056157700,7.28015771484375,-0.9941253662109375,0.0658416748046875,-0.04913330078125
1772709226066182700,7.2901826171875,-0.9928436279296875,0.064788818359375,-0.048614501953125
1772709226076207600,7.30020751953125,-0.994293212890625,0.064453125,-0.049407958984375
1772709226086232300,7.310232421875,-0.9945831298828125,0.0651092529296875,-0.0492401123046875
1772709226096257500,7.320257568359375,-0.9943084716796875,0.064666748046875,-0.0488128662109375
1772709226106281500,7.330281494140625,-0.99407958984375,0.0638427734375,-0.0489959716796875
1772709226116306400,7.340306396484375,-0.9936981201171875,0.0638275146484375,-0.0493011474609375
1772709226126331600,7.35033154296875,-0.9945831298828125,0.0634307861328125,-0.0496826171875
1772709226136356600,7.360356689453125,-0.994415283203125,0.06317138671875,-0.0507049560546875
1772709226146381600,7.370381591796875,-0.9949188232421875,0.0647430419921875,-0.04998779296875
1772709226156406500,7.380406494140625,-0.9944305419921875,0.0647125244140625,-0.0505218505859375
1772709226166431500,7.390431396484375,-0.9933319091796875,0.065460205078125,-0.0498199462890625
1772709226176456400,7.40045654296875,-0.99346923828125,0.0660400390625,-0.04974365234375
1772709226186481400,7.4104814453125,-0.994903564453125,0.0672454833984375,-0.05010986328125
1772709226196506600,7.420506591796875,-0.9942779541015625,0.0640716552734375,-0.0498199462890625
1772709226206530600,7.430530517578125,-0.9936065673828125,0.0641632080078125,-0.0482025146484375
1772709226216555500,7.440555419921875,-0.9950714111328125,0.0665283203125,-0.0503082275390625
1772709226226580700,7.450580810546875,-0.9945831298828125,0.0659942626953125,-0.0512542724609375
1772709226236605400,7.46060546875,-0.9928741455078125,0.064697265625,-0.0501708984375
1772709226246630400,7.47063037109375,-0.9936370849609375,0.0647430419921875,-0.0490570068359375
1772709226256655400,7.4806552734375,-0.9947052001953125,0.0639495849609375,-0.0501861572265625
1772709226266680600,7.4906806640625,-0.99493408203125,0.0653076171875,-0.0489044189453125
1772709226276705500,7.50070556640625,-0.9945831298828125,0.0637359619140625,-0.05096435546875
1772709226286730500,7.51073046875,-0.993316650390625,0.0643310546875,-0.04888916015625
1772709226296754700,7.520754638671875,-0.9945526123046875,0.06585693359375,-0.0499114990234375
1772709226306779600,7.530779541015625,-0.9938812255859375,0.0648193359375,-0.0498199462890625
1772709226316804400,7.540804443359375,-0.9930877685546875,0.06451416015625,-0.049713134765625
1772709226326829300,7.550829345703125,-0.993743896484375,0.0649566650390625,-0.04852294921875
1772709226336854500,7.5608544921875,-0.9957427978515625,0.0649871826171875,-0.049163818359375
1772709226346879500,7.57087939453125,-0.995208740234375,0.0644683837890625,-0.0496063232421875
1772709226356904400,7.580904541015625,-0.9933624267578125,0.063751220703125,-0.048431396484375
1772709226366929400,7.590929443359375,-0.994232177734375,0.0648193359375,-0.0497283935546875
1772709226376954600,7.60095458984375,-0.993865966796875,0.0656890869140625,-0.0499267578125
1772709226386979600,7.6109794921875,-0.99420166015625,0.066558837890625,-0.0512237548828125
1772709226397003500,7.62100341796875,-0.993743896484375,0.065032958984375,-0.0494842529296875
1772709226407028500,7.631028564453125,-0.9936981201171875,0.06402587890625,-0.0496978759765625
1772709226417053400,7.641053466796875,-0.9951629638671875,0.06549072265625,-0.0489959716796875
1772709226427078400,7.651078369140625,-0.9939727783203125,0.064605712890625,-0.0487823486328125
1772709226437103600,7.661103515625,-0.9941253662109375,0.062957763671875,-0.0504302978515625
1772709226447128600,7.671128662109375,-0.99310302734375,0.0655059814453125,-0.0508270263671875
1772709226457153500,7.681153564453125,-0.994537353515625,0.0665130615234375,-0.05145263671875
1772709226467178500,7.691178466796875,-0.9974365234375,0.06536865234375,-0.0500030517578125
1772709226477203700,7.70120361328125,-0.9951629638671875,0.0646820068359375,-0.0469818115234375
1772709226487228700,7.711228759765625,-0.9924774169921875,0.0643463134765625,-0.049285888671875
1772709226497252400,7.72125244140625,-0.992401123046875,0.063873291015625,-0.0500335693359375
1772709226507277600,7.731277587890625,-0.993988037109375,0.06402587890625,-0.0515594482421875
1772709226517302500,7.741302490234375,-0.994873046875,0.0647430419921875,-0.0507354736328125
1772709226527327500,7.751327392578125,-0.9947662353515625,0.0649566650390625,-0.0492095947265625
1772709226537352400,7.7613525390625,-0.9919281005859375,0.065338134765625,-0.05169677734375
1772709226547377700,7.771377685546875,-0.9933013916015625,0.0665283203125,-0.0501251220703125
1772709226557402600,7.781402587890625,-0.991424560546875,0.0645904541015625,-0.048828125
1772709226567427600,7.791427490234375,-0.9935302734375,0.0664825439453125,-0.05059814453125
1772709226577452500,7.80145263671875,-0.994903564453125,0.0672454833984375,-0.05010986328125
1772709226587477500,7.8114775390625,-0.9941558837890625,0.066009521484375,-0.0500640869140625
1772709226597501400,7.82150146484375,-0.9940032958984375,0.0648345947265625,-0.04937744140625
1772709226607526700,7.831526611328125,-0.992584228515625,0.063995361328125,-0.049896240234375
1772709226617551600,7.841551513671875,-0.9957275390625,0.06463623046875,-0.050018310546875
1772709226627576600,7.85157666015625,-0.994537353515625,0.066070556640625,-0.0508880615234375
1772709226637601500,7.8616015625,-0.993255615234375,0.0653839111328125,-0.0489349365234375
1772709226647626800,7.871626708984375,-0.9937591552734375,0.0651397705078125,-0.0496826171875
1772709226657651500,7.8816513671875,-0.9951019287109375,0.066497802734375,-0.0493927001953125
1772709226667676400,7.891676513671875,-0.9920654296875,0.066680908203125,-0.0479583740234375
1772709226677701400,7.901701416015625,-0.98040771484375,0.066009521484375,-0.048797607421875
1772709226687725600,7.9117255859375,-0.984466552734375,0.0625762939453125,-0.0558013916015625
1772709226697750500,7.92175048828125,-1.018157958984375,0.0611419677734375,-0.04736328125
1772709226707775500,7.931775390625,-1.0189971923828125,0.074981689453125,-0.0533599853515625
1772709226717800700,7.94180078125,-0.9953460693359375,0.0679168701171875,-0.05401611328125
1772709226727825400,7.951825439453125,-0.973175048828125,0.0579376220703125,-0.051513671875
1772709226737850400,7.961850341796875,-0.9739227294921875,0.059906005859375,-0.049285888671875
1772709226747875300,7.971875244140625,-0.998046875,0.0642547607421875,-0.0481414794921875
1772709226757900500,7.981900634765625,-1.015228271484375,0.068756103515625,-0.0523223876953125
1772709226767925500,7.991925537109375,-1.0048675537109375,0.066314697265625,-0.0574951171875
1772709226777950500,8.001950439453125,-0.986724853515625,0.065032958984375,-0.0474853515625
