time,seconds_elapsed,z,y,x
1772709218828216800,0.052216796875,0.006274407263845205,0.018068749457597733,-0.004656536970287561
1772709218838241800,0.06224169921875,0.008734636008739471,0.007207845337688923,-0.014307034201920033
1772709218848266800,0.072266845703125,0.007095193490386009,0.00945155881345272,-0.016051670536398888
1772709218858291700,0.082291748046875,0.004494084510952234,0.019152922555804253,-0.02183392643928528
1772709218868316700,0.092316650390625,0.005583050660789013,0.020177440717816353,-0.030716367065906525
1772709218878341600,0.102341552734375,0.0037172401789575815,0.015091334469616413,-0.0290023572742939
1772709218888366600,0.11236669921875,0.0032085764687508345,0.015178686939179897,-0.021279456093907356
1772709218898391800,0.122391845703125,0.0021694109309464693,0.016381369903683662,-0.017838118597865105
1772709218908415700,0.132415771484375,0.003287672298029065,0.013821539469063282,-0.012402607128024101
1772709218918440700,0.142440673828125,0.0036618465092033148,0.008786567486822605,-0.010855576954782009
1772709218928466000,0.1524658203125,0.002659965306520462,0.01673157513141632,-0.013393037021160126
1772709218938490600,0.16249072265625,0.0041585261933505535,0.013744840398430824,-0.025909360498189926
1772709218948515600,0.172515625,0.005086637567728758,0.008804943412542343,-0.03250680863857269
1772709218958540800,0.182540771484375,0.004859736189246178,0.013882526196539402,-0.023372700437903404
1772709218968565800,0.192565673828125,0.005823001731187105,0.018449047580361366,-0.01691107265651226
1772709218978590700,0.2025908203125,0.005901298485696316,0.013550695963203907,-0.018448781222105026
1772709218988615000,0.212614990234375,0.003882356220856309,0.006027532275766134,-0.0131496237590909
1772709218998639900,0.222639892578125,0.004278101958334446,0.006037652492523193,-0.00771784083917737
1772709219008664800,0.232664794921875,0.005154015496373177,0.010874751955270767,-0.006220611743628979
1772709219018689500,0.242689453125,0.005077316425740719,0.011034541763365269,-0.008380701765418053
1772709219028714800,0.25271484375,0.00541340745985508,0.006962568499147892,-0.007953263819217682
1772709219038739700,0.26273974609375,0.004292749334126711,0.007275223266333342,-0.011427091434597969
1772709219048764700,0.2727646484375,0.006489857099950314,0.011275291442871094,-0.010816162452101707
1772709219058789600,0.28278955078125,0.006852313410490751,0.017242370173335075,-0.008341552689671516
1772709219068814800,0.29281494140625,0.005904227960854769,0.02425394020974636,-0.005024053156375885
1772709219078838800,0.3028388671875,0.005428853910416365,0.019715914502739906,-0.010633735917508602
1772709219088863500,0.312863525390625,0.005362540949136019,0.01458932925015688,-0.022219019010663033
1772709219098888700,0.322888671875,0.002502838848158717,0.014304370619356632,-0.03127030283212662
1772709219108913700,0.33291357421875,-0.001249821507371962,0.0212435033172369,-0.028489431366324425
1772709219118938400,0.3429384765625,0.0010865697404369712,0.0224994495511055,-0.026428410783410072
1772709219128963600,0.352963623046875,0.0003025351034011692,0.013062538579106331,-0.022967100143432617
1772709219138988300,0.36298828125,0.00008655273268232122,0.011554124765098095,-0.018665030598640442
1772709219149013200,0.37301318359375,-0.0007803061744198203,0.010150372050702572,-0.012742427177727222
1772709219159037400,0.383037353515625,0.0007222492713481188,0.009402822703123093,-0.006425675004720688
1772709219169062400,0.3930625,-0.0001776328426785767,0.01073626708239317,-0.005554288625717163
1772709219179087400,0.40308740234375,0.0016311861108988523,0.007955927401781082,-0.008808138780295849
1772709219189112300,0.4131123046875,0.0035606464371085167,0.0062728095799684525,-0.009738114662468433
1772709219199137500,0.423137451171875,0.004733768757432699,0.009214004501700401,-0.006393184419721365
1772709219209162200,0.433162353515625,0.005263471510261297,0.01317945122718811,-0.005602492019534111
1772709219219187200,0.443187255859375,0.0033422671258449554,0.009364207275211811,-0.008315986953675747
1772709219229212200,0.453212158203125,0.001916144392453134,0.0022892532870173454,-0.0068296766839921474
1772709219239237400,0.4632373046875,0.0025350630749017,-0.00031558459158986807,-0.002335858531296253
1772709219249261300,0.47326123046875,0.0002790992730297148,0.0010226538870483637,-0.0009584716754034162
1772709219259286500,0.48328662109375,-0.0025443839840590954,0.0004540689697023481,-0.0041044638492167
1772709219269311500,0.4933115234375,-0.0017033577896654606,-0.007977765053510666,-0.007134874816983938
1772709219279336400,0.50333642578125,-0.004280765075236559,-0.01161377876996994,-0.0041183121502399445
1772709219289361200,0.513361083984375,-0.004006193019449711,-0.006286924239248037,0.0033161682076752186
1772709219299386400,0.523386474609375,-0.002073537092655897,-0.0046906257048249245,0.0075487298890948296
1772709219309411300,0.533411376953125,-0.00047404266661033034,-0.00794474221765995,0.006512494292110205
1772709219319436300,0.543436279296875,-0.0006048039067536592,-0.008008391596376896,0.009288573637604713
1772709219329460500,0.55346044921875,-0.001469532260671258,-0.005793174263089895,0.011007643304765224
1772709219339485400,0.5634853515625,0.0021576930303126574,-0.004999818746000528,0.013428190723061562
1772709219349510400,0.573510498046875,0.002332396572455764,-0.0049129994586110115,0.01404631044715643
1772709219359535400,0.583535400390625,0.004546548705548048,-0.0023638217244297266,0.013140835799276829
1772709219369560300,0.593560302734375,0.005097024142742157,0.0013587448047474027,0.009640643373131752
1772709219379585300,0.603585205078125,0.005193963181227446,-0.0003174488083459437,0.00586641114205122
1772709219389610200,0.6136103515625,0.003522030543535948,-0.00213558878749609,0.0036461339332163334
1772709219399635200,0.62363525390625,0.005570001434534788,0.002151035238057375,0.00005352953667170368
1772709219409660400,0.633660400390625,0.002201901515945792,0.0041153826750814915,-0.0049164616502821445
1772709219419684400,0.643684326171875,0.003002181416377425,0.004430434666574001,-0.008873919025063515
1772709219429709300,0.653709228515625,0.0018897791160270572,0.0025422535836696625,-0.010266219265758991
1772709219439734500,0.663734619140625,0.0018551580142229795,0.00945129245519638,-0.015234612859785557
1772709219449759200,0.67375927734375,0.0023763386998325586,0.01324283517897129,-0.018247978761792183
1772709219459784200,0.6837841796875,0.0026056368369609118,0.012359997257590294,-0.01966904290020466
1772709219469809400,0.693809326171875,0.0003534014686010778,0.013322995975613594,-0.018084194511175156
1772709219479834400,0.70383447265625,0.0001174454009742476,0.013365340419113636,-0.01702478900551796
1772709219489859300,0.713859375,0.001442900625988841,0.01571051962673664,-0.011532019823789597
1772709219499883500,0.723883544921875,0.003425091505050659,0.012194082140922546,-0.007585748098790646
1772709219509908500,0.733908447265625,0.0030117689166218042,0.008444351144134998,-0.004058657679706812
1772709219519933400,0.743933349609375,0.0030333404429256916,0.007463508751243353,0.0003603257064241916
1772709219529958100,0.753958251953125,0.00350418733432889,0.01053200289607048,0.003097256412729621
1772709219539983400,0.7639833984375,0.004600344225764275,0.009632120840251446,0.0012399677652865648
1772709219550008300,0.77400830078125,0.004006725735962391,0.006351905409246683,-0.0012207929976284504
1772709219560033300,0.784033203125,0.003878627670928836,0.008431301452219486,-0.002287921728566289
1772709219570058200,0.794058349609375,0.002689260058104992,0.006361226551234722,-0.002156361471861601
1772709219580083500,0.80408349609375,0.003728425595909357,0.004631769843399525,-0.003114566905423999
1772709219590107400,0.814107421875,0.00503949960693717,0.0031414648983627558,-0.006661098450422287
1772709219600132400,0.82413232421875,0.0026160231791436672,0.008739429526031017,-0.005375057924538851
1772709219610157300,0.8341572265625,0.001059405505657196,0.012780776247382164,-0.004772651009261608
1772709219620182300,0.844182373046875,0.0004958806093782187,0.0068302094005048275,-0.00830666534602642
1772709219630207200,0.854207275390625,-0.0021797972731292248,0.001856223214417696,-0.013398096896708012
1772709219640232400,0.864232421875,0.0007238471880555153,0.005780923645943403,-0.009555954486131668
1772709219650257400,0.87425732421875,0.0010479538468644023,0.010117881931364536,-0.005842176266014576
1772709219660282400,0.884282470703125,0.001151018193922937,0.009762349538505077,-0.004833370912820101
1772709219670306600,0.894306640625,0.00299259414896369,0.0073199644684791565,-0.008521050214767456
1772709219680331500,0.90433154296875,0.002602973720058799,0.009691243059933186,-0.00347409350797534
1772709219690356200,0.914356201171875,0.001919073867611587,0.010977549478411674,0.0009824400767683983
1772709219700381200,0.924381103515625,0.0029816750902682543,0.01092615071684122,0.0019038938917219639
1772709219710406400,0.934406494140625,0.0037649108562618494,0.007280283607542515,-0.00036698358599096537
1772709219720431400,0.944431396484375,0.005052549298852682,0.0070616379380226135,-0.004674113821238279
1772709219730456300,0.954456298828125,0.0024410535115748644,0.00968565046787262,-0.0015345134306699038
1772709219740481300,0.964481201171875,0.002296443795785308,0.007748999632894993,-0.003469299990683794
1772709219750506500,0.974506591796875,0.0029403960797935724,0.008901349268853664,-0.0073258234187960625
1772709219760530400,0.984530517578125,0.00276063266210258,0.009661415591835976,-0.010061422362923622
1772709219770555100,0.99455517578125,0.0023401195649057627,0.007554056588560343,-0.010271013714373112
1772709219780580400,1.004580322265625,0.0028304075822234154,0.010965831577777863,-0.010642257519066334
1772709219790605300,1.014605224609375,0.0035712989047169685,0.01011122390627861,-0.011798336170613766
1772709219800630300,1.02463037109375,0.0043870252557098866,0.008205199614167213,-0.013495302759110928
1772709219810655200,1.0346552734375,0.003929760307073593,0.008862733840942383,-0.012761867605149746
1772709219820680400,1.044680419921875,0.002469282830134034,0.007889880798757076,-0.0070943948812782764
1772709219830705400,1.054705322265625,0.0034107104875147343,0.006558300461620092,-0.007667240686714649
1772709219840729300,1.064729248046875,0.003568103304132819,0.00782543234527111,-0.00697934627532959
1772709219850754300,1.07475439453125,0.003991013392806053,0.006877879612147808,-0.008065116591751575
1772709219860779300,1.084779296875,0.0016109461430460215,0.009949569590389729,-0.0073596457950770855
1772709219870804200,1.09480419921875,0.0023907197173684835,0.0113975303247571,-0.0055122110061347485
1772709219880829400,1.104829345703125,0.0017893778858706355,0.01107342354953289,-0.0075726984068751335
1772709219890854400,1.1148544921875,0.0022945795208215714,0.00866006687283516,-0.009987653233110905
1772709219900879400,1.12487939453125,0.00433056615293026,0.011408449150621891,-0.00694845337420702
1772709219910904300,1.134904296875,0.0041617220267653465,0.014251107349991798,-0.006515157409012318
1772709219920929500,1.144929443359375,0.004081028047949076,0.012240953743457794,-0.009089901112020016
1772709219930953200,1.154953125,0.0037468012887984514,0.012117116712033749,-0.01128274854272604
1772709219940978200,1.164978271484375,0.003906058380380273,0.013059609569609165,-0.012920325621962547
1772709219951003400,1.17500341796875,0.003266899613663554,0.014429006725549698,-0.012632171623408794
1772709219961028400,1.1850283203125,0.0023044333793222904,0.014990135096013546,-0.015409848652780056
1772709219971053300,1.19505322265625,0.0010351707460358739,0.01248995866626501,-0.015842080116271973
1772709219981078300,1.205078369140625,0.0026429209392517805,0.010801780968904495,-0.01702132821083069
1772709219991103500,1.215103515625,0.0008420915110036731,0.012459066696465015,-0.013466274365782738
1772709220001127200,1.225127197265625,0.0011789813870564103,0.015455389395356178,-0.012587164528667927
1772709220011152400,1.23515234375,0.0023238742724061012,0.013879596255719662,-0.014342187903821468
1772709220021177300,1.24517724609375,0.0025350630749017,0.008698150515556335,-0.014909174293279648
1772709220031202300,1.255202392578125,0.0007821703911758959,0.0065590995363891125,-0.009037703275680542
1772709220041227300,1.265227294921875,0.003995274193584919,0.006362025626003742,0.0016884441720321774
1772709220051252500,1.27525244140625,0.0031305458396673203,0.007677094545215368,0.01212750282138586
1772709220061277400,1.28527734375,0.00515854312106967,0.0013741911388933659,0.014276407659053802
1772709220071302400,1.295302490234375,0.007425958290696144,-0.006299174856394529,0.0158319603651762
1772709220081327400,1.305327392578125,0.006882939953356981,-0.0010908307740464807,0.019409118220210075
1772709220091351300,1.315351318359375,0.008864598348736763,0.007112504448741674,0.021271999925374985
1772709220101376300,1.325376220703125,0.011303520761430264,0.012245480902493,0.01521996594965458
1772709220111401200,1.335401123046875,0.012949620373547077,0.009256615303456783,0.010846522636711597
1772709220121426400,1.345426513671875,0.012630308046936989,0.014459100551903248,0.006746585946530104
1772709220131451400,1.355451416015625,0.013042831793427467,0.016594955697655678,0.0010410296963527799
1772709220141476000,1.36547607421875,0.011453989893198013,0.01799657754600048,0.0012740562669932842
1772709220151501000,1.3755009765625,0.009134909138083458,0.020952686667442322,0.005468268413096666
1772709220161526300,1.3855263671875,0.010323744267225266,0.01811428926885128,0.0003818972909357399
1772709220171550200,1.39555029296875,0.009518137201666832,0.013846307061612606,-0.009785518981516361
1772709220181575400,1.405575439453125,0.009257148019969463,0.017656758427619934,-0.00827790331095457
1772709220191600400,1.415600341796875,0.00686190091073513,0.01714622974395752,-0.006156163290143013
1772709220201625300,1.425625244140625,0.006265885196626186,0.012588762678205967,-0.009336776100099087
1772709220211650300,1.435650390625,0.005036570131778717,0.012869992293417454,-0.011456652544438839
1772709220221675300,1.44567529296875,0.003209908027201891,0.01293577253818512,-0.010973555035889149
1772709220231700200,1.4557001953125,0.005946306046098471,0.01062334980815649,-0.007654723711311817
1772709220241725200,1.46572509765625,0.004661330953240395,0.006639793049544096,-0.0038280277512967587
1772709220251750100,1.475750244140625,0.006970291491597891,0.006139385048300028,-0.0011209244839847088
1772709220261774300,1.4857744140625,0.0062275356613099575,0.006915430538356304,0.0010759170399978757
1772709220271799300,1.49579931640625,0.006461894139647484,0.0068387314677238464,0.003175020683556795
1772709220281824300,1.50582421875,0.006991863250732422,0.005054413340985775,0.0025473134592175484
1772709220291849500,1.515849365234375,0.006988667417317629,0.003933222498744726,0.00005193164179218002
1772709220301874200,1.525874267578125,0.0073655047453939915,0.0073173013515770435,0.0017219999572262168
1772709220311899100,1.535899169921875,0.00815033819526434,0.00977300200611353,0.0008756473544053733
1772709220321924000,1.545924072265625,0.008458998054265976,0.012445484288036823,-0.0028668928425759077
1772709220331949300,1.55594921875,0.006535930093377829,0.007232080213725567,-0.004643221385776997
1772709220341973200,1.56597314453125,0.005511145573109388,0.00561048137024045,-0.007278152741491795
1772709220351998200,1.575998291015625,0.005842708982527256,0.012071576900780201,-0.00618066405877471
1772709220362023400,1.5860234375,0.003483681008219719,0.012085691094398499,-0.007437409833073616
1772709220372048400,1.59604833984375,0.0032676986884325743,0.00836791843175888,-0.009642506949603558
1772709220382073000,1.606072998046875,0.001882854849100113,0.003626692807301879,-0.008521316573023796
1772709220392098300,1.616098388671875,0.0015169365797191858,0.008246212266385555,-0.006325806491076946
1772709220402123300,1.626123291015625,0.0016857809387147427,0.01053226925432682,-0.0027321369852870703
1772709220412148200,1.636148193359375,-0.0003177151083946228,0.005613410845398903,-0.0005560680292546749
1772709220422172400,1.64617236328125,0.0018852517241612077,0.0013227921444922686,0.0019078885670751333
1772709220432197400,1.656197265625,0.0018852517241612077,0.003620034782215953,0.002688993699848652
1772709220442222300,1.666222412109375,0.0017544905422255397,0.006204632576555014,0.006007292307913303
1772709220452247300,1.676247314453125,0.002814695006236434,0.003704190719872713,0.005328985396772623
1772709220462272300,1.686272216796875,0.003976366017013788,0.0017590179340913892,0.006682670209556818
1772709220472297200,1.696297119140625,0.003489806316792965,0.00390339526347816,0.0036706349346786737
1772709220482322200,1.706322265625,0.00318886898458004,0.006671750918030739,0.0034493261482566595
1772709220492347100,1.71634716796875,0.0028999161440879107,0.005393433850258589,0.003032541600987315
1772709220502371300,1.726371337890625,0.0029888655990362167,0.003323625074699521,0.0021654162555933
1772709220512396300,1.736396240234375,0.004895422607660294,0.006302903406322002,0.003175287041813135
1772709220522421200,1.746421142578125,0.004607801325619221,0.0063092950731515884,0.0009986853692680597
1772709220532446500,1.756446533203125,0.0024865935556590557,0.0064773401245474815,0.0008660599705763161
1772709220542471200,1.76647119140625,0.0031406658235937357,0.00566960358992219,-0.0010122675448656082
1772709220552496000,1.77649609375,0.0014298511669039726,0.006577474996447563,-0.003261040663346648
1772709220562521300,1.786521240234375,0.0019297265680506825,0.00714632635936141,-0.006963633466511965
1772709220572546300,1.79654638671875,0.002983805723488331,0.006432066671550274,-0.006608900614082813
1772709220582570200,1.8065703125,0.0018133464036509395,0.006717024836689234,-0.006833937484771013
1772709220592595500,1.816595458984375,0.0024351945612579584,0.005856557283550501,-0.0033212280832231045
1772709220602620400,1.826620361328125,0.0032557144295424223,0.010054231621325016,-0.004542287439107895
1772709220612645400,1.836645263671875,0.0031286815647035837,0.00782623142004013,-0.0037470676470547915
1772709220622670000,1.846670166015625,0.0032985913567245007,0.007241401355713606,-0.0007344998302869499
1772709220632695300,1.8566953125,0.0010189254535362124,0.0032621060963720083,0.0019241338595747948
1772709220642720300,1.86672021484375,0.001811748486943543,0.003451723139733076,0.0003403519804123789
1772709220652745200,1.8767451171875,0.0017478326335549355,0.0009249158320017159,-0.0029284118209034204
1772709220662770200,1.886770263671875,0.0013265205780044198,0.0019688750617206097,0.000639424950350076
1772709220672794400,1.89679443359375,0.002127599436789751,0.005812349263578653,0.0025390577502548695
1772709220682819300,1.9068193359375,0.0019502328941598535,-0.0007150587625801563,0.0017638115677982569
1772709220692844000,1.916843994140625,-0.00003888214996550232,-0.0029430591966956854,-0.0041092573665082455
1772709220702869200,1.926869140625,-0.00009560748003423214,0.002029062481597066,-0.003114566905423999
1772709220712894200,1.936894287109375,0.00039787625428289175,0.0011406318517401814,-0.0002996056282427162
1772709220722919200,1.946919189453125,0.0016636766958981752,0.0027915253303945065,-0.0021427792962640524
1772709220732944100,1.956944091796875,0.001324123702943325,0.0016639430541545153,-0.004992628004401922
1772709220742969300,1.96696923828125,0.001745968358591199,0.005135905928909779,-0.006219546310603619
1772709220752993300,1.9769931640625,0.001290834159590304,0.00407570181414485,-0.004496214911341667
1772709220763018500,1.9870185546875,0.00018269284919369966,0.00039414784987457097,-0.0021920478902757168
1772709220773043200,1.997043212890625,0.0010950918076559901,-0.0001675128296483308,-0.003307912265881896
1772709220783068200,2.007068115234375,0.002484729280695319,-0.00046365635353140533,-0.0026724820490926504
1772709220793093000,2.017093017578125,0.000278300343779847,0.002138518262654543,-0.0014868428697809577
1772709220803118300,2.027118408203125,0.0007928230334073305,0.0008644621120765805,-0.0015193333383649588
1772709220813143300,2.037143310546875,0.0014588796766474843,0.0014719291357323527,-0.0015403723809868097
1772709220823168300,2.047168212890625,-0.00017710021347738802,0.001472728094086051,-0.0033369408920407295
1772709220833192400,2.0571923828125,0.0011464908020570874,0.0030418625101447105,-0.0038951393216848373
1772709220843217400,2.067217529296875,0.0003888215287588537,0.0032344090286642313,-0.00398701848462224
1772709220853242000,2.0772421875,0.0003656520275399089,0.003346794517710805,-0.004512193612754345
1772709220863267000,2.08726708984375,-0.000023435817638528533,0.004689826630055904,-0.0054368432611227036
1772709220873292300,2.097292236328125,0.0008218514849431813,0.005751096177846193,-0.00634977500885725
1772709220883317200,2.107317138671875,0.00021065604232717305,0.005948702804744244,-0.00780679052695632
1772709220893342200,2.11734228515625,-0.0008578042034059763,0.004495948553085327,-0.007474428042769432
1772709220903367200,2.1273671875,0.0009217200567945838,0.006277869455516338,-0.01041269302368164
1772709220913391400,2.137391357421875,0.0016495619202032685,0.008080563507974148,-0.011757589876651764
1772709220923416300,2.147416259765625,0.000835966260638088,0.009424926713109016,-0.011197526939213276
1772709220933441300,2.157441162109375,0.002837331732735038,0.0086014773696661,-0.00944782979786396
1772709220943466200,2.16746630859375,0.003055977402254939,0.006908772513270378,-0.007654191460460424
1772709220953491200,2.1774912109375,0.0023582291323691607,0.005889314226806164,-0.006858971435576677
1772709220963516200,2.18751611328125,0.0025923210196197033,0.00863183755427599,-0.007246727589517832
1772709220973541400,2.197541259765625,0.0019169433508068323,0.008725847117602825,-0.00691995769739151
1772709220983566300,2.20756640625,0.0032567796297371387,0.008533034473657608,-0.005979329347610474
1772709220993590300,2.21759033203125,0.004071706905961037,0.007780957501381636,-0.007487210910767317
1772709221003615500,2.227615478515625,0.003035204717889428,0.009562079794704914,-0.004844822455197573
1772709221013640200,2.23764013671875,0.00264824740588665,0.009399094618856907,-0.007478955201804638
1772709221023665200,2.2476650390625,0.003138535423204303,0.009408948011696339,-0.008375908248126507
1772709221033690000,2.257690185546875,0.0014540859265252948,0.006223008502274752,-0.00782596506178379
1772709221043715300,2.26771533203125,0.0029728866647928953,0.006627808790653944,-0.006351905409246683
1772709221053740300,2.277740234375,0.003117496380582452,0.011983426287770271,-0.006009689066559076
1772709221063765200,2.28776513671875,0.004536961205303669,0.009579923003911972,-0.003668237943202257
1772709221073789400,2.29778955078125,0.0016000272007659078,0.010486196726560593,-0.0031129689887166023
1772709221083814400,2.307814453125,0.003964914008975029,0.010647584684193134,-0.005210208240896463
1772709221093839000,2.317839111328125,0.003100185887888074,0.011973305605351925,-0.007198790553957224
1772709221103864300,2.3278642578125,0.004773716442286968,0.011522699147462845,-0.005246427375823259
1772709221113889300,2.33788916015625,0.005577724426984787,0.014024472795426846,-0.005343100056052208
1772709221123914800,2.347914794921875,0.005694371182471514,0.01372433453798294,-0.004745486658066511
1772709221133939500,2.357939453125,0.0070730894804000854,0.01477601658552885,-0.001329716295003891
1772709221143964400,2.36796435546875,0.007538343779742718,0.015870574861764908,0.00016964336100500077
1772709221153988600,2.377988525390625,0.006006227340549231,0.014595188200473785,-0.0005411543534137309
1772709221164013600,2.388013671875,0.005902896635234356,0.008867793716490269,-0.0031201594974845648
1772709221174038500,2.39803857421875,0.006892526987940073,0.009366869926452637,-0.005459214095026255
1772709221184063700,2.408063720703125,0.005258677992969751,0.011148790828883648,-0.0036250948905944824
1772709221194088700,2.418088623046875,0.005549228750169277,0.014444719068706036,-0.0013696637470275164
1772709221204113700,2.42811376953125,0.004749481566250324,0.01423193234950304,0.0020690099336206913
1772709221214138600,2.438138671875,0.004772118292748928,0.010327205993235111,-0.0027920580469071865
1772709221224163600,2.44816357421875,0.0043990095146000385,0.010230799205601215,-0.00558278476819396
1772709221234187500,2.4581875,0.002796585438773036,0.014194915071129799,-0.003138535423204303
1772709221244212700,2.468212646484375,0.006551376078277826,0.014670022763311863,-0.0010546117555350065
1772709221254237700,2.47823779296875,0.006015548016875982,0.011529623530805111,-0.0016551546286791563
1772709221264262700,2.4882626953125,0.00455613574013114,0.011444934643805027,-0.004492220003157854
1772709221274287600,2.49828759765625,0.00430260319262743,0.01266972254961729,-0.0041308291256427765
1772709221284312600,2.5083125,0.005315136630088091,0.010713630355894566,-0.0018245317041873932
1772709221294337500,2.518337646484375,0.0035744947381317616,0.010146377608180046,-0.0012767193838953972
1772709221304362500,2.528362548828125,0.005016596522182226,0.008726646192371845,-0.0009598032338544726
1772709221314386700,2.53838671875,0.004493019077926874,0.007989216595888138,0.0008732505375519395
1772709221324411600,2.54841162109375,0.005682120565325022,0.009001750499010086,0.002977147698402405
1772709221334436600,2.5584365234375,0.00509968725964427,0.008629441261291504,0.0014298511669039726
1772709221344461600,2.568461669921875,0.004628307651728392,0.008228901773691177,0.004324440844357014
1772709221354486800,2.57848681640625,0.004532434046268463,0.007059241179376841,0.003326820908114314
1772709221364511500,2.588511474609375,0.002576075727120042,0.008310394361615181,0.0032945964485406876
1772709221374536400,2.598536376953125,0.004671450704336166,0.00669385539367795,0.0017068199813365936
1772709221384561700,2.608561767578125,0.0057076867669820786,0.007869907654821873,0.002612827345728874
1772709221394585600,2.618585693359375,0.0049343048594892025,0.006558300461620092,0.004824582487344742
1772709221404610600,2.628610595703125,0.004823251161724329,0.0076882797293365,0.0027081684675067663
1772709221414635800,2.6386357421875,0.005434180144220591,0.007227553054690361,0.002216815249994397
1772709221424660700,2.64866064453125,0.004234692547470331,0.006326605565845966,0.0004820321628358215
1772709221434685700,2.658685791015625,0.004126834217458963,0.003876763628795743,0.000046072687837295234
1772709221444710400,2.66871044921875,0.002058357233181596,0.005562278442084789,0.003005110891535878
1772709221454735600,2.678735595703125,0.00407383730635047,0.005242698825895786,0.0020785972010344267
1772709221464760600,2.688760498046875,0.0024615598376840353,0.004367051646113396,0.0010982876410707831
1772709221474784500,2.698784423828125,0.0036450685001909733,0.00361737166531384,-0.0003217098710592836
1772709221484809700,2.708809814453125,0.004214984830468893,0.007006510626524687,0.002147306688129902
1772709221494834700,2.718834716796875,0.0051659997552633286,0.01005183532834053,0.002540122950449586
1772709221504859600,2.728859619140625,0.0038280277512967587,0.005987851414829493,0.0041587925516068935
1772709221514884600,2.738884521484375,0.004277835600078106,0.006915430538356304,0.0027092336677014828
1772709221524909600,2.74890966796875,0.004176635295152664,0.007489341776818037,0.0023313311394304037
1772709221534934500,2.7589345703125,0.004530569538474083,0.009518403559923172,0.0002271676348755136
1772709221544959500,2.76895947265625,0.004364654887467623,0.007998538203537464,0.0008543420699425042
1772709221554983700,2.778983642578125,0.005495166406035423,0.006535663735121489,-0.0012607404496520758
1772709221565008600,2.789008544921875,0.0031100395135581493,0.006428870838135481,-0.0043532028794288635
1772709221575033600,2.79903369140625,0.0029670277144759893,0.007017695810645819,-0.004081028047949076
1772709221585058800,2.809058837890625,0.002689792774617672,0.008057660423219204,-0.0043838294222950935
1772709221595083800,2.819083740234375,0.0036940707359462976,0.008621717803180218,-0.004727110732346773
1772709221605108500,2.8291083984375,0.0028810077346861362,0.008382565341889858,-0.007816111668944359
1772709221615133400,2.839133544921875,0.003802727675065398,0.006797452457249165,-0.008146876469254494
1772709221625158700,2.84915869140625,0.003257312346249819,0.006967894732952118,-0.006021673325449228
1772709221635182600,2.8591826171875,0.002877279184758663,0.007951932959258556,-0.004027498420327902
1772709221645207600,2.86920751953125,0.0022924491204321384,0.008331699296832085,-0.004086087923496962
1772709221655232800,2.879232666015625,0.0046639940701425076,0.006726612336933613,-0.0013273194199427962
1772709221665257700,2.8892578125,0.0026932547334581614,0.007465106900781393,-0.0021374530624598265
1772709221675282700,2.89928271484375,0.0041215079836547375,0.007839813828468323,-0.0016447682864964008
1772709221685307400,2.909307373046875,0.002386458683758974,0.005100485868752003,-0.003287672298029065
1772709221695332600,2.91933251953125,0.00276063266210258,0.004458131734281778,-0.004370247479528189
1772709221705357600,2.929357666015625,0.004689027555286884,0.007724498864263296,-0.003619768423959613
1772709221715381500,2.939381591796875,0.0015355786308646202,0.010548514313995838,-0.001368598430417478
1772709221725406700,2.94940673828125,0.0026431872975081205,0.006431267596781254,-0.0030221552588045597
1772709221735431700,2.959431640625,0.0012471582740545273,0.004579837899655104,-0.008707204833626747
1772709221745456600,2.96945654296875,0.002776611829176545,0.008562062866985798,-0.005693572107702494
1772709221755481600,2.979481689453125,0.003357979701831937,0.011845207773149014,-0.006332997232675552
1772709221765506600,2.989506591796875,0.002971288748085499,0.01124865934252739,-0.007639011368155479
1772709221775531500,2.999531494140625,0.003041330026462674,0.008782838471233845,-0.0070187607780098915
1772709221785556500,3.009556396484375,0.002130528911948204,0.01005316711962223,-0.007589476183056831
1772709221795580700,3.01958056640625,0.003067162586376071,0.011441206559538841,-0.007845140062272549
1772709221805605600,3.029605712890625,0.005364405456930399,0.009372728876769543,-0.008255799300968647
1772709221815630600,3.039630615234375,0.004600344225764275,0.006558034103363752,-0.005215002223849297
1772709221825655800,3.04965576171875,0.002686863299459219,0.007219030521810055,-0.003754524514079094
1772709221835680800,3.0596806640625,0.0041217743419110775,0.010220146737992764,-0.000990429543890059
1772709221845705500,3.06970556640625,0.005822202656418085,0.008414790034294128,0.0005672533297911286
1772709221855730400,3.07973046875,0.0035366779193282127,0.004207528196275234,-0.000987500068731606
1772709221865755600,3.089755615234375,0.004000067710876465,0.005287440028041601,0.0009475527331233025
1772709221875779600,3.099779541015625,0.004805141594260931,0.00833596009761095,-0.00014807176194153726
1772709221885804500,3.109804443359375,0.0036754286848008633,0.008533034473657608,-0.0014378406340256333
1772709221895829800,3.119829833984375,0.004299673717468977,0.007448861375451088,-0.0038360171020030975
1772709221905854700,3.129854736328125,0.005801163613796234,0.006614226847887039,-0.0021947110071778297
1772709221915879400,3.13987939453125,0.005344964098185301,0.008184959180653095,-0.003946538548916578
1772709221925904600,3.149904541015625,0.0032676986884325743,0.008355401456356049,-0.002366218715906143
1772709221935929600,3.1599296875,0.0037015276029706,0.006442452780902386,-0.004515922162681818
1772709221945954600,3.16995458984375,0.002722017001360655,0.007714112289249897,-0.003890878288075328
1772709221955978800,3.179978759765625,0.004920456558465958,0.0073774890042841434,-0.005014466121792793
1772709221966003700,3.190003662109375,0.0051721250638365746,0.010063819587230682,-0.004826180636882782
1772709221976028700,3.200028564453125,0.004465588368475437,0.00806112214922905,-0.004866394214332104
1772709221986053600,3.2100537109375,0.0036932716611772776,0.005828860681504011,-0.004111121874302626
1772709221996078600,3.22007861328125,0.003637611633166671,0.00672235107049346,-0.0029638318810611963
1772709222006103600,3.230103515625,0.0038629150949418545,0.007936752401292324,-0.001535312389023602
1772709222016128500,3.24012841796875,0.003406715579330921,0.00688986387103796,-0.00010226538870483637
1772709222026152700,3.250152587890625,0.0034461303148418665,0.004179564770311117,0.0016735304379835725
1772709222036177700,3.260177734375,0.0031675638165324926,0.00461765518411994,0.00007909588020993397
1772709222046202600,3.27020263671875,0.002776079112663865,0.006758037488907576,-0.0014892396284267306
1772709222056227600,3.2802275390625,0.0020751350093632936,0.0049135321751236916,-0.000928377965465188
1772709222066252800,3.290252685546875,0.0038831550627946854,0.00484162662178278,-0.002370745874941349
1772709222076277500,3.300277587890625,0.0029611687641590834,0.004850415047258139,-0.0029137644451111555
1772709222086302500,3.310302490234375,0.0031435952987521887,0.007986021228134632,-0.005756688769906759
1772709222096327400,3.320327392578125,0.002540655666962266,0.006324741058051586,-0.0051566786132752895
1772709222106351600,3.3303515625,0.0010612696642056108,0.00523604080080986,-0.006222209427505732
1772709222116376600,3.34037646484375,0.0015395734226331115,0.005080512259155512,-0.006585464812815189
1772709222126401500,3.350401611328125,0.001407214323990047,0.005575860384851694,-0.006975884083658457
1772709222136426500,3.360426513671875,0.00301762786693871,0.0041468082927167416,-0.009560748003423214
1772709222146451500,3.370451416015625,0.0016487629618495703,0.005356415640562773,-0.007789480034261942
1772709222156476400,3.380476318359375,0.00430260319262743,0.005428853910416365,-0.007794539909809828
1772709222166501600,3.390501708984375,0.0028035095892846584,0.007214769721031189,-0.007254716940224171
1772709222176526600,3.400526611328125,0.0006617955514229834,0.00481366366147995,-0.007377754896879196
1772709222186550300,3.41055029296875,0.0014450311427935958,0.010149572975933552,-0.005563609767705202
1772709222196575500,3.420575439453125,0.0012719257501885295,0.0020397149492055178,-0.0054094125516712666
1772709222206600400,3.430600341796875,0.0001960086519829929,0.003722566645592451,-0.005687446799129248
1772709222216625400,3.44062548828125,0.0023041670210659504,0.004926049150526524,-0.005101284943521023
1772709222226650400,3.450650390625,0.0009707222343422472,0.004258926957845688,-0.006597449071705341
1772709222236675600,3.460675537109375,0.0007787083159200847,0.006069610361009836,-0.005900233518332243
1772709222246700500,3.470700439453125,0.0009062737226486206,0.006232596002519131,-0.0033483924344182014
1772709222256725500,3.4807255859375,-0.0005558017292059958,0.003959587775170803,-0.003096457337960601
1772709222266749400,3.49074951171875,0.0006303702248260379,0.006043511442840099,-0.010892328806221485
1772709222276774400,3.5007744140625,0.000975782226305455,0.0068091703578829765,-0.0118502676486969
1772709222286799400,3.51079931640625,0.002894589677453041,0.00848749466240406,-0.007709585130214691
1772709222296824600,3.520824462890625,0.0041542649269104,0.007650729268789291,-0.009408948011696339
1772709222306849500,3.530849609375,0.003311108099296689,0.005816610064357519,-0.00965449120849371
1772709222316874500,3.54087451171875,0.0013227921444922686,0.009470733813941479,-0.010809504427015781
1772709222326899500,3.5508994140625,0.0025720810517668724,0.008711732923984528,-0.008787366561591625
1772709222336924700,3.560924560546875,0.0011653993278741837,0.005913815461099148,-0.007428621407598257
1772709222346948400,3.5709482421875,0.0033888723701238632,0.004674912896007299,-0.006058158818632364
1772709222356973300,3.580973388671875,0.0024487765040248632,0.005633384454995394,-0.0036762275267392397
1772709222366998500,3.59099853515625,0.003227751236408949,0.008131695911288261,-0.0031318773981183767
1772709222377023500,3.6010234375,0.004823251161724329,0.004877579398453236,-0.0022799321450293064
1772709222387048400,3.61104833984375,0.0013406352372840047,0.004287955816835165,-0.005593969952315092
1772709222397073400,3.621073486328125,0.0018602180061861873,0.005864547099918127,-0.006340187508612871
1772709222407098600,3.6310986328125,0.0029763488564640284,0.0059753344394266605,-0.0075908079743385315
1772709222417123600,3.64112353515625,0.0027305390685796738,0.00923451129347086,-0.009824134409427643
1772709222427147300,3.651147216796875,0.003108441596850753,0.007349525578320026,-0.009637979790568352
1772709222437172500,3.66117236328125,0.003865312086418271,0.007187871728092432,-0.010672084987163544
1772709222447197400,3.671197509765625,0.0013409015955403447,0.006880542729049921,-0.009779127314686775
1772709222457222400,3.681222412109375,0.001359543763101101,0.008762865327298641,-0.012402074411511421
1772709222467247400,3.691247314453125,0.0022887205705046654,0.008217450231313705,-0.011982893571257591
1772709222477272600,3.7012724609375,0.0033688987605273724,0.00902518630027771,-0.010686732828617096
1772709222487297500,3.711297607421875,0.002496713539585471,0.010251572355628014,-0.010160491801798344
1772709222497322500,3.721322509765625,0.0031878037843853235,0.009822270832955837,-0.008772985078394413
1772709222507346400,3.731346435546875,0.003084739437326789,0.005820604972541332,-0.010068346746265888
1772709222517371400,3.741371337890625,0.003519101068377495,0.00433163158595562,-0.009587113745510578
1772709222527396400,3.751396240234375,0.0014237258583307266,0.007303719408810139,-0.006581469904631376
1772709222537421600,3.761421630859375,0.0033095101825892925,0.007634750101715326,-0.0043654534965753555
1772709222547446500,3.771446533203125,0.002255697501823306,0.008011853322386742,-0.007798002101480961
1772709222557471500,3.781471435546875,0.0025569009594619274,0.005347893573343754,-0.007903196848928928
1772709222567496400,3.791496337890625,0.002287655370309949,0.00683074165135622,-0.007670702878385782
1772709222577521700,3.801521728515625,0.0008668589289300144,0.007950601167976856,-0.007690410129725933
1772709222587545300,3.81154541015625,0.002010420197620988,0.005497563164681196,-0.007645935285836458
1772709222597570300,3.8215703125,0.0015725966077297926,0.007266434840857983,-0.00791571382433176
1772709222607595500,3.831595458984375,-0.00038695731200277805,0.004801146686077118,-0.006803844124078751
1772709222617620500,3.841620361328125,0.002114816103130579,0.008035555481910706,-0.006640592124313116
1772709222627645400,3.8516455078125,0.002435993403196335,0.006013151258230209,-0.004276504274457693
1772709222637670400,3.86167041015625,0.0008266451768577099,0.005042162723839283,-0.005148955620825291
1772709222647695600,3.871695556640625,0.0004146541759837419,0.004924184642732143,-0.008846222423017025
1772709222657720600,3.881720458984375,0.0016194682102650404,0.007032076828181744,-0.00566907087340951
1772709222667744500,3.89174462890625,0.0030900659039616585,0.006893059704452753,-0.004653341136872768
1772709222677769500,3.90176953125,0.0035398737527430058,0.006410228554159403,-0.005910885985940695
1772709222687794400,3.91179443359375,0.005042429082095623,0.006202502176165581,-0.004507932811975479
1772709222697819400,3.9218193359375,0.0038365498185157776,0.007306382525712252,-0.002130795270204544
1772709222707844600,3.9318447265625,0.0051928977482020855,0.008739695884287357,-0.002889529801905155
1772709222717869600,3.94186962890625,0.004715126473456621,0.008327704854309559,-0.0041004689410328865
1772709222727894500,3.95189453125,0.0025569009594619274,0.003709516953676939,-0.0015385081060230732
1772709222737919500,3.96191943359375,0.002694852650165558,0.003936951048672199,-0.002496180823072791
1772709222747943400,3.971943359375,0.004402471706271172,0.005011270288378,-0.007800398860126734
1772709222757968400,3.981968505859375,0.0015752597246319056,0.004969991277903318,-0.00424348097294569
1772709222767993300,3.991993408203125,0.0007640608819201589,0.01281832717359066,-0.0003861583536490798
1772709222778018600,4.0020185546875,0.0033329459838569164,0.008205732330679893,-0.008706672117114067
1772709222788043500,4.01204345703125,0.0028005801141262054,0.0028783443849533796,-0.015211177058517933
1772709222798068500,4.022068359375,0.0015872439835220575,0.007728493306785822,-0.008654740639030933
1772709222808093400,4.032093505859375,0.0016263924771919847,0.012154134921729565,-0.007233412005007267
1772709222818118700,4.04211865234375,0.003772367723286152,0.014700382947921753,-0.011327489279210567
1772709222828142300,4.052142333984375,0.004551874939352274,0.0108297448605299,-0.011549863032996655
1772709222838167600,4.06216748046875,0.005063201766461134,0.009575662203133106,-0.00746271014213562
1772709222848192500,4.072192626953125,0.005304484162479639,0.010509099811315536,-0.006199839059263468
1772709222858217500,4.082217529296875,0.0065287393517792225,0.00971281435340643,-0.004393683280795813
1772709222868242400,4.092242431640625,0.0048978193663060665,0.008683769032359123,-0.002915895078331232
1772709222878267600,4.102267578125,0.005612878128886223,0.008375641889870167,-0.001580053474754095
1772709222888292600,4.112292724609375,0.0046301716938614845,0.010342918336391449,0.0007856325246393681
1772709222898317600,4.122317626953125,0.004276237916201353,0.007979629561305046,0.000441818410763517
1772709222908342300,4.13234228515625,0.0015337144723162055,0.005382515024393797,0.0018405106384307146
1772709222918366500,4.142366455078125,0.005122057627886534,0.003772634081542492,0.007722101639956236
1772709222928391400,4.152391357421875,0.003763312939554453,0.004306064918637276,0.00806138850748539
1772709222938416400,4.16241650390625,0.005495432764291763,0.002360093407332897,0.010876350104808807
1772709222948441600,4.172441650390625,0.006819556467235088,0.003099653171375394,0.011663313955068588
1772709222958466600,4.182466552734375,0.006683468818664551,0.0027425233274698257,0.01332699041813612
1772709222968491500,4.192491455078125,0.007244597189128399,0.0036187032237648964,0.01404684316366911
1772709222978516500,4.2025166015625,0.007336209993809462,0.004159324802458286,0.015794143080711365
1772709222988541400,4.21254150390625,0.009150887839496136,0.003777960315346718,0.01315148826688528
1772709222998565400,4.2225654296875,0.008237689733505249,0.004496214911341667,0.011579956859350204
1772709223008590300,4.23259033203125,0.008886169642210007,0.008009723387658596,0.00920574925839901
1772709223018615600,4.242615478515625,0.007673099637031555,0.007778294384479523,0.007077616639435291
1772709223028640500,4.252640625,0.008234494365751743,0.005922337528318167,0.0029971215408295393
1772709223038665500,4.26266552734375,0.004825115203857422,0.004187554586678743,0.001847701147198677
1772709223048690400,4.2726904296875,0.0043920851312577724,0.0054184673354029655,0.0033047166652977467
1772709223058715600,4.282715576171875,0.005940447095781565,0.00896739587187767,0.004564125556498766
1772709223068740400,4.292740234375,0.005830192007124424,0.007662180811166763,0.004509264137595892
1772709223078764500,4.3027646484375,0.0067937239073216915,0.0076304893009364605,0.0018365158466622233
1772709223088789500,4.31278955078125,0.00660517206415534,0.00833649281412363,0.0011795139871537685
1772709223098814500,4.322814453125,0.003846936160698533,0.009899768978357315,-0.0010572749888524413
1772709223108839400,4.33283935546875,0.004832572303712368,0.008810802362859249,-0.0037915424909442663
1772709223118864600,4.34286474609375,0.004125769250094891,0.009411078877747059,-0.001020257011987269
1772709223128890400,4.352890380859375,0.005274123977869749,0.008598814718425274,0.0005305017111822963
1772709223138915300,4.362915283203125,0.004613393917679787,0.0089404983446002,0.0013763216556981206
1772709223148940300,4.372940185546875,0.005987851414829493,0.008665925823152065,0.0009688580175861716
1772709223158965200,4.38296533203125,0.004248540848493576,0.005902896635234356,0.0011265170760452747
1772709223168989400,4.392989501953125,0.004059989005327225,0.005417402368038893,0.000838895735796541
1772709223179014400,4.403014404296875,0.004293015692383051,0.007701595313847065,0.0000774979853304103
1772709223189039400,4.413039306640625,0.005381449591368437,0.007715710438787937,-0.0005629922379739583
1772709223199064300,4.423064208984375,0.00481446273624897,0.007458182517439127,-0.001961684552952647
1772709223209089300,4.43308935546875,0.005795304663479328,0.008076036348938942,-0.0018895127577707171
1772709223219114200,4.4431142578125,0.004671717062592506,0.008387359790503979,-0.0008165251929312944
1772709223229139500,4.453139404296875,0.005516471806913614,0.011268633417785168,-0.0006759102689102292
1772709223239164400,4.463164306640625,0.0059630838222801685,0.012152270413935184,-0.0010985539993271232
1772709223249189400,4.473189453125,0.0024682176299393177,0.009004414081573486,-0.002258094260469079
1772709223259213600,4.483213623046875,0.0037731665652245283,0.006138852797448635,-0.005134041886776686
1772709223269238500,4.493238525390625,0.0037646444980055094,0.0075695025734603405,-0.006650978233665228
1772709223279263200,4.50326318359375,0.00564110791310668,0.011302988044917583,-0.00270736962556839
1772709223289288200,4.5132880859375,0.004462925251573324,0.013575996272265911,0.0021949773654341698
1772709223299313400,4.5233134765625,0.003494866192340851,0.006962302140891552,-0.0010072075529024005
1772709223309338400,4.53333837890625,0.004506068304181099,0.004964132327586412,-0.004403270315378904
1772709223319363300,4.54336328125,0.002395513467490673,0.010662764310836792,-0.003965979442000389
1772709223329388300,4.55338818359375,0.004472512751817703,0.012133361771702766,-0.0005520732956938446
1772709223339412500,4.56341259765625,0.004501807503402233,0.011546934023499489,-0.0007768440991640091
1772709223349437200,4.573437255859375,0.006048571318387985,0.008128500543534756,-0.0010021475609391928
1772709223359462100,4.583462158203125,0.006325273774564266,0.010509898886084557,-0.0016077503096312284
1772709223369487400,4.5934873046875,0.004437092691659927,0.00999377854168415,-0.0004780374001711607
1772709223379512300,4.60351220703125,0.00640676636248827,0.008866461925208569,-0.0007166566210798919
1772709223389537300,4.613537353515625,0.004491953644901514,0.00923184771090746,-0.0003837615076918155
1772709223399562200,4.623562255859375,0.005301021970808506,0.00945155881345272,0.0006157228490337729
1772709223409587500,4.63358740234375,0.0043899547308683395,0.00734313391149044,0.0020474381744861603
1772709223419611400,4.643611328125,0.004294613376259804,0.008128234185278416,0.0016421051695942879
1772709223429636400,4.65363623046875,0.0037846181076020002,0.007553790230304003,0.0003483414766378701
1772709223439661300,4.663661376953125,0.004911135416477919,0.006878145970404148,-0.0014024205738678575
1772709223449686300,4.673686279296875,0.004078631289303303,0.008035821840167046,-0.001141963410191238
1772709223459711200,4.683711181640625,0.0026165556628257036,0.009033442474901676,-0.0011648666113615036
1772709223469736400,4.693736328125,0.0031217574141919613,0.007597998715937138,-0.0025592977181077003
1772709223479761400,4.703761474609375,0.00367116741836071,0.0057409764267504215,-0.004833104554563761
1772709223489786400,4.713786376953125,0.003614974906668067,0.006739661563187838,-0.0015504923649132252
1772709223499811300,4.723811279296875,0.0044352286495268345,0.009556753560900688,-0.0007864314829930663
1772709223509835300,4.733835205078125,0.0049510826356709,0.009242766536772251,-0.002853044541552663
1772709223519860200,4.743860107421875,0.004419249482452869,0.0064922538585960865,-0.0014977618120610714
1772709223529885200,4.75388525390625,0.004250671248883009,0.008052067831158638,-0.0016793893883004785
1772709223539910400,4.763910400390625,0.005530852824449539,0.010009224526584148,-0.003084739437326789
1772709223549935400,4.773935302734375,0.003923634998500347,0.008040616288781166,-0.0022240057587623596
1772709223559960300,4.783960205078125,0.0034165694378316402,0.004434163216501474,-0.002217081608250737
1772709223569985300,4.7939853515625,0.005975867155939341,0.006220079027116299,-0.00018908442871179432
1772709223580010500,4.804010498046875,0.004530835896730423,0.008170577697455883,0.001019990653730929
1772709223590035500,4.814035400390625,0.003686613868921995,0.010119479149580002,0.0022921827621757984
1772709223600059400,4.824059326171875,0.003608316881582141,0.006759635638445616,-0.00016937704640440643
1772709223610084400,4.83408447265625,0.003462375607341528,0.006352438125759363,0.0005227785441093147
1772709223620109300,4.844109375,0.005804625805467367,0.0075998627580702305,-0.0008080030675046146
1772709223630134300,4.85413427734375,0.0037404096219688654,0.00962413102388382,-0.0013696637470275164
1772709223640159500,4.864159423828125,0.004679706413298845,0.006668821442872286,0.00009454221435589716
1772709223650184400,4.874184326171875,0.005116997752338648,0.006193713750690222,-0.0036517265252768993
1772709223660209400,4.88420947265625,0.0032144354190677404,0.0072808158583939075,-0.0016021577175706625
1772709223670234400,4.894234375,0.003023486817255616,0.00818096473813057,-0.001303084660321474
1772709223680258300,4.90425830078125,0.003570233704522252,0.006070409435778856,-0.002397643867880106
1772709223690283300,4.914283203125,0.002694586291909218,0.006490389816462994,-0.003096723696216941
1772709223700308200,4.92430810546875,0.0012447615154087543,0.007863249629735947,-0.0037936728913336992
1772709223710333400,4.93433349609375,0.0016266588354483247,0.00512685114517808,-0.005397961009293795
1772709223720358400,4.9443583984375,0.003916977439075708,0.005887183826416731,-0.0031281490810215473
1772709223730383400,4.95438330078125,0.0010458233300596476,0.006148173473775387,-0.002999251941218972
1772709223740408300,4.964408203125,0.0010165285784751177,0.007399060297757387,-0.0018959043081849813
1772709223750433500,4.97443359375,0.002787530655041337,0.007125287316739559,-0.004110855516046286
1772709223760458500,4.98445849609375,0.003319630166515708,0.00815060455352068,-0.004574245307594538
1772709223770482200,4.994482177734375,0.0007313040550798178,0.00956527516245842,-0.00395692465826869
1772709223780507400,5.00450732421875,0.0028695559594780207,0.004037352278828621,-0.007187871728092432
1772709223790532400,5.014532470703125,0.002921487670391798,0.003468234557658434,-0.008743423968553543
1772709223800557300,5.024557373046875,0.0028759476263076067,0.007921572774648666,-0.008972988463938236
1772709223810582300,5.034582275390625,0.0007755124825052917,0.0120689133182168,-0.003344131400808692
1772709223820607500,5.044607421875,0.0012008192716166377,0.010154899209737778,-0.003459446132183075
1772709223830632400,5.054632568359375,0.0014016216155141592,0.0036911412607878447,-0.006402771919965744
1772709223840657400,5.064657470703125,0.000734766130335629,0.00663340138271451,-0.006617422681301832
1772709223850682400,5.074682373046875,0.003406981937587261,0.010247577913105488,-0.004487692844122648
1772709223860706300,5.084706298828125,0.0034288198221474886,0.007035805378109217,-0.0026493126060813665
1772709223870731300,5.094731201171875,0.001973136095330119,0.005469067487865686,-0.0037406759802252054
1772709223880756500,5.104756591796875,0.004041346721351147,0.009837716817855835,-0.0028756812680512667
1772709223890781400,5.114781494140625,0.004809935111552477,0.011237474158406258,-0.0026075011119246483
1772709223900806400,5.124806396484375,0.005763080436736345,0.009820139966905117,-0.0033159018494188786
1772709223910831400,5.134831298828125,0.0043321643024683,0.0064893243834376335,-0.0035238948184996843
1772709223920856300,5.144856201171875,0.003090332029387355,0.007179083302617073,-0.003605920122936368
1772709223930881300,5.15488134765625,0.0043534692376852036,0.009522132575511932,-0.001407214323990047
1772709223940905200,5.1649052734375,0.0034519892651587725,0.007512777578085661,-0.002033855998888612
1772709223950930400,5.174930419921875,0.005103948060423136,0.007101851515471935,-0.002210689941421151
1772709223960955400,5.184955322265625,0.004191815387457609,0.007209177128970623,-0.0015542207984253764
1772709223970980400,5.19498046875,0.004573712591081858,0.00833782460540533,-0.0009432916413061321
1772709223981005300,5.20500537109375,0.0028122980147600174,0.007679224945604801,-0.0033156354911625385
1772709223991030500,5.215030517578125,0.003858387703076005,0.008313589729368687,-0.003385676769539714
1772709224001055200,5.22505517578125,0.0035414716694504023,0.007428887765854597,-0.004817125853151083
1772709224011080200,5.235080078125,0.00387410051189363,0.007417169865220785,-0.001913481275551021
1772709224021105400,5.24510546875,0.004018443636596203,0.008520783856511116,-0.004228300880640745
1772709224031129300,5.25512939453125,0.004622981417924166,0.006928213406354189,-0.0019206717843189836
1772709224041154300,5.265154296875,0.0054544201120734215,0.00848563015460968,-0.003732952754944563
1772709224051179500,5.275179443359375,0.004064250271767378,0.008074171841144562,-0.0034381409641355276
1772709224061204500,5.28520458984375,0.004211789462715387,0.008653675206005573,-0.0028778119012713432
1772709224071229400,5.2952294921875,0.004488491453230381,0.008915464393794537,-0.002360093407332897
1772709224081254100,5.305254150390625,0.003718571737408638,0.0054602790623903275,-0.0033507891930639744
1772709224091279400,5.315279296875,0.003034672001376748,0.00472631212323904,-0.004322044085711241
1772709224101929500,5.325929443359375,0.0026735474821180105,0.008022240363061428,-0.0017177389236167073
1772709224111954400,5.335954345703125,0.004201935604214668,0.007006244268268347,0.0006468818173743784
1772709224121979100,5.345979248046875,0.004522047471255064,0.006325273774564266,-0.0012442287988960743
1772709224132004000,5.356004150390625,0.002175003755837679,0.0033779535442590714,-0.0015049523208290339
1772709224142029000,5.366029052734375,0.004275971557945013,0.005282380152493715,-0.0005408879951573908
1772709224152054000,5.376053955078125,0.0028730181511491537,0.008518919348716736,-0.001407480682246387
1772709224162079000,5.386078857421875,0.0034194989129900932,0.005516471806913614,-0.0037816886324435472
1772709224172104200,5.396104248046875,0.0032831449061632156,0.004479969386011362,-0.0044112601317465305
1772709224182127900,5.4061279296875,0.004238420631736517,0.005898901727050543,-0.004742557182908058
1772709224192153000,5.416153076171875,0.0019744676537811756,0.00863396842032671,-0.0031212246976792812
1772709224202178000,5.426177978515625,0.0026703516487032175,0.0054666707292199135,-0.002987001556903124
1772709224212203000,5.436203125,0.0018378474051132798,0.003920705523341894,-0.0032597091048955917
1772709224222228000,5.44622802734375,0.0034144388046115637,0.004482100252062082,-0.0030397321097552776
1772709224232253200,5.456253173828125,0.001969673903658986,0.006135923322290182,-0.004596083424985409
1772709224242278100,5.466278076171875,0.001986984396353364,0.006019276566803455,-0.0038373488932847977
1772709224252303000,5.47630322265625,0.0039292280562222,0.004424575716257095,-0.0015813850332051516
1772709224262327800,5.486327880859375,0.0046607982367277145,0.004547081422060728,0.0004748416249640286
1772709224272352000,5.49635205078125,0.004771585576236248,0.007821704261004925,-0.0007816377910785377
1772709224282377000,5.506376953125,0.004959871061146259,0.007910920307040215,-0.002826146548613906
1772709224292402000,5.51640185546875,0.004311657976359129,0.007714911364018917,-0.004730572924017906
1772709224302427100,5.52642724609375,0.0025925873778760433,0.0068083712831139565,-0.0035116442013531923
1772709224312452000,5.5364521484375,0.002569950418546796,0.0054909056052565575,-0.005644835997372866
1772709224322477000,5.54647705078125,0.005298891570419073,0.006616090890020132,-0.007851798087358475
1772709224332502000,5.556501953125,0.004515123087912798,0.00818203017115593,-0.0060022324323654175
1772709224342527000,5.56652685546875,0.0024045680183917284,0.009141034446656704,-0.00361763802357018
1772709224352552000,5.576552001953125,0.0026043052785098553,0.004094077739864588,-0.004087153356522322
1772709224362576100,5.586576171875,0.002778742229565978,0.004180097486823797,-0.006857639644294977
1772709224372601000,5.59660107421875,0.002118544653058052,0.0068243504501879215,-0.006646983791142702
1772709224382626000,5.6066259765625,0.002802977105602622,0.008065915666520596,-0.004524444229900837
1772709224392651000,5.616651123046875,0.0036037894897162914,0.006707703694701195,-0.005018194206058979
1772709224402676200,5.62667626953125,0.0049284459091722965,0.005330583080649376,-0.0062493737787008286
1772709224412701200,5.636701171875,0.002620816696435213,0.009443835355341434,-0.007442203816026449
1772709224422726000,5.646725830078125,0.0035752938129007816,0.0075455340556800365,-0.006838465109467506
1772709224432750800,5.656750732421875,0.004269047174602747,0.004364122170954943,-0.00529489666223526
1772709224442776000,5.666776123046875,0.0029973878990858793,0.0032000544015318155,-0.003615241264924407
1772709224462199800,5.68619970703125,0.002294047037139535,0.006111688446253538,-0.0038687740452587605
1772709224472225000,5.69622509765625,0.003980626817792654,0.006548180244863033,-0.003921770956367254
1772709224482249000,5.7062490234375,0.004054662771522999,0.0044983453117311,-0.004868258256465197
1772709224492274000,5.71627392578125,0.002298840554431081,0.005785451270639896,-0.005203816574066877
1772709224502299100,5.726299072265625,0.0024535702541470528,0.006440855097025633,-0.00466532539576292
1772709224512324000,5.736323974609375,0.003317233407869935,0.008123972453176975,-0.005853627808392048
1772709224522349000,5.74634912109375,0.0023065637797117233,0.007656055502593517,-0.005210208240896463
1772709224532374000,5.7563740234375,0.0015896408585831523,0.005844839382916689,-0.008673649281263351
1772709224542399000,5.76639892578125,0.0024522386956959963,0.006848584860563278,-0.008389489725232124
1772709224552424000,5.776423828125,0.0007922904333099723,0.00675217853859067,-0.006382265593856573
1772709224562449000,5.786448974609375,0.0021054951939731836,0.007018228527158499,-0.008024370297789574
1772709224572474000,5.79647412109375,0.002554770326241851,0.005243231542408466,-0.009100819937884808
1772709224582498000,5.806498046875,0.0035747610963881016,0.006412891671061516,-0.0068214209750294685
1772709224592523000,5.81652294921875,0.0006900250446051359,0.007281082216650248,-0.005798500496894121
1772709224602548200,5.82654833984375,0.0025840650778263807,0.00920361839234829,-0.005241899751126766
1772709224612573000,5.836572998046875,0.0021635519806295633,0.002722283359616995,-0.004570250865072012
1772709224622598000,5.846597900390625,0.002561428351327777,0.005530586466193199,-0.003641606541350484
1772709224632622800,5.856622802734375,0.002670884132385254,0.0070741549134254456,-0.0020216056145727634
1772709224642648000,5.86664794921875,0.0024264061357825994,0.007023554760962725,-0.0028122980147600174
1772709224652673000,5.876673095703125,0.0018727348651736975,0.00615270109847188,-0.003762780223041773
1772709224662698000,5.886697998046875,0.0018375811632722616,0.004223507363349199,-0.004797152243554592
1772709224672722200,5.89672216796875,0.004007258452475071,0.0063154203817248344,-0.004991030320525169
1772709224682747100,5.9067470703125,0.00361763802357018,0.008311726152896881,-0.005983057431876659
1772709224692771800,5.916771728515625,0.0013145363191142678,0.006880809087306261,-0.006711964961141348
1772709224702797000,5.926797119140625,0.0018168084789067507,0.00487331859767437,-0.005873601883649826
1772709224712822000,5.936822021484375,0.0029638318810611963,0.008304269053041935,-0.008252603933215141
1772709224722847000,5.946846923828125,0.002969158347696066,0.006888798903673887,-0.00546294217929244
1772709224732872000,5.956871826171875,0.0021489046048372984,0.006759102921932936,-0.008035821840167046
1772709224742897200,5.966897216796875,0.0026703516487032175,0.00777669670060277,-0.009136772714555264
1772709224752922000,5.976922119140625,0.0013488910626620054,0.008556736633181572,-0.009738381020724773
1772709224762947000,5.986947021484375,0.0021222729701548815,0.008531169965863228,-0.009555688127875328
1772709224772971000,5.996970947265625,0.002971288748085499,0.0059966398403048515,-0.010214820504188538
1772709224782996000,6.006995849609375,0.002231196267530322,0.007813448086380959,-0.009436111897230148
1772709224793021000,6.01702099609375,0.0029033781029284,0.008526909165084362,-0.009237440302968025
1772709224803046000,6.0270458984375,0.0037862160243093967,0.008460862562060356,-0.00797563511878252
1772709224813071000,6.037071044921875,0.0034916705917567015,0.007160973735153675,-0.00777589762583375
1772709224823096000,6.047095947265625,0.003132942598313093,0.009377256035804749,-0.006849117577075958
1772709224833121000,6.05712109375,0.002956907730549574,0.004009655211120844,-0.007099454756826162
1772709224843146000,6.06714599609375,0.002810966456308961,0.0046120621263980865,-0.007493868935853243
1772709224853171200,6.077171142578125,0.0022301310673356056,0.004157460760325193,-0.008438225835561752
1772709224863195000,6.08719482421875,0.002201635157689452,0.011100588366389275,-0.005431517027318478
1772709224873219800,6.0972197265625,0.0018048242200165987,0.010690993629395962,-0.0018170748371630907
1772709224883245000,6.1072451171875,0.0020058928057551384,0.003981958609074354,-0.007554056588560343
1772709224893270000,6.11727001953125,0.002606435678899288,0.0038599856197834015,-0.011262241750955582
1772709224903295000,6.127294921875,0.0025939189363271,0.009198025800287724,-0.009606022387742996
1772709224913320200,6.1373203125,0.0027116306591778994,0.010419883765280247,-0.010008958168327808
1772709224923345200,6.14734521484375,0.0035417377948760986,0.008804410696029663,-0.009652627632021904
1772709224933370000,6.1573701171875,0.0062797339633107185,0.008343417197465897,-0.009619603864848614
1772709224943395000,6.16739501953125,0.0036666402593255043,0.01022787019610405,-0.008441687561571598
1772709224953420000,6.177419921875,0.003748931922018528,0.00884941779077053,-0.007105047348886728
1772709224963444000,6.18744384765625,0.003337739733979106,0.008440090343356133,-0.00752156600356102
1772709224973469000,6.197468994140625,0.0027949875220656395,0.004299673717468977,-0.00580755528062582
1772709224983494100,6.207494140625,0.005166532471776009,0.0060331248678267,-0.0034107104875147343
1772709224993519000,6.21751904296875,0.003614175831899047,0.009680057875812054,-0.004205930046737194
1772709225003544000,6.2275439453125,0.003355582943186164,0.00869016069918871,-0.0057380469515919685
1772709225013569000,6.237569091796875,0.0028778119012713432,0.007464840542525053,-0.004994492046535015
1772709225023594000,6.247593994140625,0.003183010034263134,0.008727178908884525,-0.006506368983536959
1772709225033619000,6.257618896484375,0.0023342606145888567,0.00803022924810648,-0.008417453616857529
1772709225043644000,6.267643798828125,0.002989398315548897,0.007666441611945629,-0.006461627781391144
1772709225053668000,6.277668212890625,0.002481799805536866,0.008361793123185635,-0.00618226220831275
1772709225063693000,6.287693115234375,0.0025001754984259605,0.007783354725688696,-0.005055212415754795
1772709225073718000,6.297718017578125,0.002094842493534088,0.005887982901185751,-0.005820604972541332
1772709225083743000,6.307742919921875,0.0006878945278003812,0.006549245677888393,-0.004257595632225275
1772709225093768200,6.317768310546875,0.0025662221014499664,0.00640703272074461,-0.0046813045628368855
1772709225103793000,6.32779296875,0.002883670851588249,0.0075758942402899265,-0.0036309538409113884
1772709225113817900,6.33781787109375,0.0025515747256577015,0.006937001831829548,-0.0026197514962404966
1772709225123842600,6.347842529296875,0.001999767730012536,0.0052144695073366165,-0.0020010992884635925
1772709225133867500,6.357867431640625,0.0016421051695942879,0.004848284646868706,-0.0024146882351487875
1772709225143892500,6.367892578125,0.0027110979426652193,0.004171575419604778,-0.00027297402266412973
1772709225153916700,6.377916748046875,0.002175003755837679,0.005803826730698347,0.0003784351865760982
1772709225163941600,6.387941650390625,0.002368349116295576,0.007764179725199938,0.000538491178303957
1772709225173966300,6.39796630859375,0.00492098880931735,0.008067247457802296,-0.00028815402765758336
1772709225183991600,6.407991455078125,0.004801945760846138,0.006265885196626186,-0.0005571332876570523
1772709225194016500,6.4180166015625,0.004200071096420288,0.008223309181630611,-0.0010871023405343294
1772709225204041500,6.42804150390625,0.004445348400622606,0.008730640634894371,-0.0014026869321241975
1772709225214066400,6.43806640625,0.005142297595739365,0.0075812204740941525,-0.001745968358591199
1772709225224091600,6.448091552734375,0.0049247173592448235,0.006048038601875305,-0.0008966863388195634
1772709225234116600,6.45811669921875,0.004252802114933729,0.0065527078695595264,0.0008293083519674838
1772709225244140500,6.468140625,0.005078115500509739,0.01375096570700407,-0.0019137475173920393
1772709225254165500,6.47816552734375,0.002584597794339061,-0.0002402171230642125,-0.0012932310346513987
1772709225264190500,6.4881904296875,0.005148689262568951,0.007770571392029524,-0.0022306637838482857
1772709225274215400,6.49821533203125,0.0032887374982237816,0.010122142732143402,-0.0004082625964656472
1772709225284240400,6.508240478515625,0.004551874939352274,0.010392187163233757,-0.00227806787006557
1772709225294265600,6.518265625,0.005113269202411175,0.005894108209758997,-0.0008455536444671452
1772709225304290600,6.52829052734375,0.0051960935816168785,0.004001932218670845,0.00020479709201026708
1772709225314315500,6.5383154296875,0.006521016359329224,0.010872354730963707,0.0010495517635717988
1772709225324340500,6.548340576171875,0.005076251458376646,0.011424694210290909,-0.0007925567333586514
1772709225334364400,6.558364501953125,0.0054640076123178005,0.007882158271968365,-0.000720118754543364
1772709225344389400,6.568389404296875,0.0033864756114780903,0.0076123797334730625,0.0018839201657101512
1772709225354414300,6.578414306640625,0.003727360162883997,0.0076027922332286835,0.001005609636195004
1772709225364439600,6.588439453125,0.004803011193871498,0.005736182443797588,-0.0006269080913625658
1772709225374464500,6.598464599609375,0.004900216590613127,0.006336458958685398,-0.0028812738601118326
1772709225384489500,6.608489501953125,0.004333229269832373,0.009415073320269585,0.001731587341055274
1772709225394514700,6.6185146484375,0.004240817856043577,0.011885154992341995,0.006316485349088907
1772709225404539600,6.62853955078125,0.002590989461168647,0.006933007389307022,0.0018615495646372437
1772709225414564600,6.638564697265625,0.004898618441075087,0.006229932885617018,-0.0035236284602433443
1772709225424588500,6.648588623046875,0.00301736150868237,0.007241401355713606,-0.003948402591049671
1772709225434613500,6.658613525390625,0.00561021501198411,0.010150372050702572,-0.00008388957212446257
1772709225444638500,6.668638427734375,0.006642456166446209,0.00817856751382351,-0.0003981425834354013
1772709225454663400,6.678663330078125,0.00535508431494236,0.008825182914733887,-0.00005379585491027683
1772709225464688600,6.688688720703125,0.005733519326895475,0.008674714714288712,0.0018471685471013188
1772709225474713600,6.698713623046875,0.0046544065698981285,0.007029946427792311,0.002002430846914649
1772709225484738600,6.708738525390625,0.004481567535549402,0.00700810831040144,0.0024077638518065214
1772709225494763500,6.718763427734375,0.005363073665648699,0.006215019151568413,0.0023901870008558035
1772709225504788700,6.728788818359375,0.006331665441393852,0.007384945638477802,0.0007843009079806507
1772709225514813400,6.7388134765625,0.005425125360488892,0.00669252360239625,0.004994758404791355
1772709225524837400,6.74883740234375,0.0059873186983168125,0.0065348646603524685,0.0028189560398459435
1772709225534862600,6.758862548828125,0.004992628004401922,0.008348210714757442,0.0026130937039852142
1772709225544887600,6.768887451171875,0.004577174782752991,0.007873369380831718,-0.0009060074225999415
1772709225554912500,6.77891259765625,0.005281314719468355,0.008706938475370407,0.00009693906031316146
1772709225564937500,6.7889375,0.0046882289461791515,0.006624347064644098,0.0012128035305067897
1772709225574962700,6.798962646484375,0.004697549622505903,0.008123706094920635,0.00043835630640387535
1772709225584987400,6.8089873046875,0.003326554549857974,0.007302387617528439,-0.002046106616035104
1772709225595012400,6.819012451171875,0.0030072415247559547,0.007515440694987774,-0.0006836334359832108
1772709225605037600,6.82903759765625,0.004746019374579191,0.00703900121152401,0.00012250541476532817
1772709225615061500,6.8390615234375,0.0030248183757066727,0.007959655486047268,-0.0002942793071269989
1772709225625086500,6.84908642578125,0.004196609370410442,0.007892278023064137,-0.0007006776868365705
1772709225635111700,6.859111572265625,0.004516721237450838,0.00848296657204628,-0.00047164582065306604
1772709225645136600,6.86913671875,0.005261607468128204,0.008493886329233646,-0.0002735066518653184
1772709225655161600,6.87916162109375,0.003087935270741582,0.010295514017343521,-0.00046046054922044277
1772709225665186300,6.889186279296875,0.004781972151249647,0.004194478504359722,-0.002428004052489996
1772709225675211500,6.89921142578125,0.0037209687288850546,0.00666535971686244,-0.0008394283941015601
1772709225685236500,6.909236572265625,0.006357231643050909,0.00942119862884283,0.001525991247035563
1772709225695261400,6.919261474609375,0.005375324282795191,0.010494452901184559,0.0014215953415259719
1772709225705286400,6.929286376953125,0.005814746022224426,0.00968671590089798,0.0021704763639718294
1772709225715310600,6.939310546875,0.005637379363179207,0.007680024020373821,-0.002014148747548461
1772709225725335600,6.94933544921875,0.00421418622136116,0.009308280423283577,-0.00044128578156232834
1772709225735360500,6.959360595703125,0.004442685283720493,0.010896323248744011,-0.0017832526937127113
1772709225745385500,6.969385498046875,0.004024568945169449,0.009866212494671345,-0.0022306637838482857
1772709225755410400,6.979410400390625,0.0034402713645249605,0.00863130483776331,-0.003709516953676939
1772709225765435400,6.989435302734375,0.00427304208278656,0.0101977763697505,-0.0021883193403482437
1772709225775460600,6.999460693359375,0.005137237720191479,0.008805476129055023,-0.002129996195435524
1772709225785485600,7.009485595703125,0.0036581179592758417,0.009430785663425922,-0.0026676885318011045
1772709225795510500,7.019510498046875,0.006167614832520485,0.008551144041121006,-0.0031462584156543016
1772709225805534700,7.02953466796875,0.004220843780785799,0.009600695222616196,-0.003920173272490501
1772709225815559700,7.0395595703125,0.003183010034263134,0.009921073913574219,-0.005233377683907747
1772709225825584400,7.04958447265625,0.004286357667297125,0.006416886579245329,-0.004238154739141464
1772709225835609300,7.059609375,0.003054911969229579,0.007240335922688246,-0.00458836043253541
1772709225845634600,7.069634521484375,0.004144677426666021,0.007398261222988367,-0.0011848403373733163
1772709225855659500,7.079659423828125,0.0046852994710206985,0.008643289096653461,0.00003834952076431364
1772709225865684500,7.0896845703125,0.0060056946240365505,0.009439840912818909,-0.0004511394945438951
1772709225875709400,7.09970947265625,0.005601160228252411,0.008844091556966305,0.00043276368523947895
1772709225885734700,7.109734619140625,0.00449754623696208,0.008414523676037788,0.0014823154779151082
1772709225895759600,7.119759521484375,0.004988100845366716,0.006402505561709404,-0.0014745922526344657
1772709225905783300,7.129783203125,0.005269064102321863,0.006903179921209812,-0.0028429245576262474
1772709225915808500,7.13980859375,0.004236290231347084,0.008169246837496758,-0.0013869742397218943
1772709225925833500,7.14983349609375,0.0036309538409113884,0.010342918336391449,0.001511343871243298
1772709225935858400,7.1598583984375,0.003894340479746461,0.00692049041390419,-0.0002324939559912309
1772709225945883400,7.16988330078125,0.0033396040089428425,0.005499694030731916,-0.002498843939974904
1772709225955908600,7.17990869140625,0.002668221015483141,0.0075844163075089455,-0.004983040504157543
1772709225965933600,7.18993359375,0.002630936913192272,0.008006527088582516,-0.0021049624774605036
1772709225975958500,7.19995849609375,0.003915912006050348,0.007904262281954288,-0.0033904702868312597
1772709225985983500,7.2099833984375,0.002585396869108081,0.0073228939436376095,-0.0027688886038959026
1772709225996008700,7.2200087890625,0.004163053352385759,0.008729043416678905,-0.0011981561547145247
1772709226006032400,7.230032470703125,0.003939347807317972,0.008245679549872875,-0.001071123406291008
1772709226016057600,7.2400576171875,0.005851231049746275,0.005810484755784273,-0.001064998097717762
1772709226026082600,7.25008251953125,0.005811017472296953,0.00541394017636776,-0.0009456885163672268
1772709226036107500,7.260107421875,0.0025739450938999653,0.005437109619379044,-0.00017736652807798237
1772709226046132500,7.270132568359375,0.005348959006369114,0.00800013542175293,0.0026117621455341578
1772709226056157700,7.28015771484375,0.004840561654418707,0.007526093162596226,0.002936934120953083
1772709226066182700,7.2901826171875,0.005662679206579924,0.006142048165202141,0.0007699198904447258
1772709226076207600,7.30020751953125,0.0041276332922279835,0.007387076038867235,0.0002364887041039765
1772709226086232300,7.310232421875,0.005116731394082308,0.008477373979985714,0.00015632755821570754
1772709226096257500,7.320257568359375,0.006478405557572842,0.008228102698922157,-0.002609098795801401
1772709226106281500,7.330281494140625,0.004707403481006622,0.008419849909842014,-0.0019528960110619664
1772709226116306400,7.340306396484375,0.004522846546024084,0.007199855986982584,-0.0022572954185307026
1772709226126331600,7.35033154296875,0.004323375876992941,0.0057132793590426445,-0.00427277572453022
1772709226136356600,7.360356689453125,0.0034021881874650717,0.0065460498444736,-0.0031257520895451307
1772709226146381600,7.370381591796875,0.002797118155285716,0.008227836340665817,-0.0040826257318258286
1772709226156406500,7.380406494140625,0.003960653208196163,0.0062219430692493916,-0.003910585772246122
1772709226166431500,7.390431396484375,0.0017715347930788994,0.006650445982813835,-0.00449807895347476
1772709226176456400,7.40045654296875,0.005016330163925886,0.008525044657289982,-0.0030003173742443323
1772709226186481400,7.4104814453125,0.003862382611259818,0.0073135728016495705,-0.003644269658252597
1772709226196506600,7.420506591796875,0.004941761493682861,0.007473628968000412,-0.0020029633305966854
1772709226206530600,7.430530517578125,0.003079413203522563,0.006317018065601587,-0.0019076223252341151
1772709226216555500,7.440555419921875,0.00446878420189023,0.0065468489192426205,-0.0007038734620437026
1772709226226580700,7.450580810546875,0.003665308468043804,0.006490922532975674,0.0007882956997491419
1772709226236605400,7.46060546875,0.004436826333403587,0.00589543953537941,0.0007238471880555153
1772709226246630400,7.47063037109375,0.005316468421369791,0.005770004820078611,-0.003070358419790864
1772709226256655400,7.4806552734375,0.0027385284192860126,0.007186274044215679,-0.0011235876008868217
1772709226266680600,7.4906806640625,0.0030860709957778454,0.007714112289249897,-0.0020210728980600834
1772709226276705500,7.50070556640625,0.0034354778472334146,0.008823052980005741,-0.0022599585354328156
1772709226286730500,7.51073046875,0.003483681008219719,0.006840062793344259,-0.0015536881983280182
1772709226296754700,7.520754638671875,0.0030658310279250145,0.006380667444318533,-0.002784334821626544
1772709226306779600,7.530779541015625,0.003531617810949683,0.008628642186522484,-0.003447994589805603
1772709226316804400,7.540804443359375,0.0026314693968743086,0.007440072949975729,-0.003967843484133482
1772709226326829300,7.550829345703125,0.0025718146935105324,0.006175071466714144,-0.0049617355689406395
1772709226336854500,7.5608544921875,0.004579039290547371,0.008085090667009354,-0.0057343184016644955
1772709226346879500,7.57087939453125,0.003425357863306999,0.007131945341825485,-0.0062493737787008286
1772709226356904400,7.580904541015625,0.002037850907072425,0.006336991675198078,-0.004237622022628784
1772709226366929400,7.590929443359375,0.0030687605030834675,0.006820089183747768,-0.0036333505995571613
1772709226376954600,7.60095458984375,0.004252802114933729,0.00737322773784399,-0.0036037894897162914
1772709226386979600,7.6109794921875,0.0038008634001016617,0.0062736086547374725,-0.0022628880105912685
1772709226397003500,7.62100341796875,0.003063700394704938,0.0078531289473176,-0.0027417242527008057
1772709226407028500,7.631028564453125,0.0037731665652245283,0.007672034204006195,-0.004496747627854347
1772709226417053400,7.641053466796875,0.0012567456578835845,0.008027832955121994,-0.006400641519576311
1772709226427078400,7.651078369140625,0.003236273303627968,0.005230714567005634,-0.003064499469473958
1772709226437103600,7.661103515625,0.003001915058121085,0.005093029234558344,-0.007778827100992203
1772709226447128600,7.671128662109375,0.00401657959446311,0.004853078629821539,-0.007734884973615408
1772709226457153500,7.681153564453125,0.002924683503806591,0.009210276417434216,-0.00501153664663434
1772709226467178500,7.691178466796875,0.0015480954898521304,0.009447298012673855,-0.0019022959750145674
1772709226477203700,7.70120361328125,0.0007366303470917046,0.00555109279230237,-0.00643632747232914
1772709226487228700,7.711228759765625,0.00279072648845613,0.0036578518338501453,-0.007444334216415882
1772709226497252400,7.72125244140625,0.0027166905347257853,0.0076001291163265705,-0.006678408943116665
1772709226507277600,7.731277587890625,0.003200853243470192,0.008621717803180218,-0.008874185383319855
1772709226517302500,7.741302490234375,0.0029912625905126333,0.007036071736365557,-0.00785499345511198
1772709226527327500,7.751327392578125,0.004535363521426916,0.00826964806765318,-0.0076057217083871365
1772709226537352400,7.7613525390625,0.0027539748698472977,0.009399360977113247,-0.006958573590964079
1772709226547377700,7.771377685546875,0.003154514357447624,0.008476841263473034,-0.006731139495968819
1772709226557402600,7.781402587890625,0.0025979136116802692,0.00561128044500947,-0.005075985100120306
1772709226567427600,7.791427490234375,0.003832821501418948,0.002817624481394887,-0.003239202778786421
1772709226577452500,7.80145263671875,0.0033318807836622,0.007139668334275484,-0.0033928672783076763
1772709226587477500,7.8114775390625,0.004772651009261608,0.007445931900292635,-0.0003001382574439049
1772709226597501400,7.82150146484375,0.004990231245756149,0.006418484263122082,-0.00207699928432703
1772709226607526700,7.831526611328125,0.0027105652261525393,0.005964149255305529,-0.0038400120101869106
1772709226617551600,7.841551513671875,0.003516171593219042,0.005340703297406435,-0.004805674310773611
1772709226627576600,7.85157666015625,0.00221974472515285,0.007926366291940212,-0.0037617150228470564
1772709226637601500,7.8616015625,0.001427987008355558,0.005281847435981035,-0.00592553336173296
1772709226647626800,7.871626708984375,0.002037318190559745,0.004775580484420061,-0.007224090863019228
1772709226657651500,7.8816513671875,-0.00033635724685154855,0.0041611893102526665,-0.004723116289824247
1772709226667676400,7.891676513671875,-0.007283213082700968,-0.013485714793205261,0.035469576716423035
1772709226677701400,7.901701416015625,-0.0009392969077453017,0.0052107409574091434,0.005524727515876293
1772709226687725600,7.9117255859375,0.0014367754338309169,0.006471747532486916,-0.01913001947104931
1772709226697750500,7.92175048828125,0.0021345235873013735,-0.005597432143986225,-0.007831557653844357
1772709226707775500,7.931775390625,0.004195277579128742,0.003923901356756687,0.0018053569365292788
1772709226717800700,7.94180078125,0.0021321268286556005,0.017463412135839462,0.004446680191904306
1772709226727825400,7.951825439453125,0.006872287020087242,0.01618882268667221,-0.007817708887159824
1772709226737850400,7.961850341796875,0.005173723213374615,0.00703900121152401,-0.020229104906320572
1772709226747875300,7.971875244140625,0.004028031136840582,0.0014836470363661647,-0.014281733892858028
1772709226757900500,7.981900634765625,0.007399326656013727,0.009939982555806637,-0.010351973585784435
1772709226767925500,7.991925537109375,0.006006493698805571,0.02672162465751171,-0.014815697446465492
1772709226777950500,8.001950439453125,0.0026194851379841566,0.0032048479188233614,0.0009795106016099453
