time,seconds_elapsed,z,y,x
1772708060078472400,0.016472412109375,-0.03406422585248947,-0.16182191669940948,0.1493852287530899
1772708060088498400,0.02649853515625,-0.029265210032463074,-0.08842973411083221,0.09166866540908813
1772708060098524400,0.0365244140625,-0.020719924941658974,-0.030339529737830162,0.037941258400678635
1772708060108550400,0.04655029296875,-0.002020540414378047,-0.0021848573815077543,0.009896839037537575
1772708060118576400,0.056576416015625,0.04036952555179596,-0.019879432395100594,-0.0010333064710721374
1772708060128602400,0.066602294921875,0.11728188395500183,-0.07337301969528198,0.026033198460936546
1772708060138628400,0.07662841796875,0.2110467255115509,-0.08431541174650192,0.09535155445337296
1772708060148654300,0.086654296875,0.29932358860969543,-0.07233677804470062,0.19316652417182922
1772708060158680300,0.096680419921875,0.3669396638870239,-0.06148919463157654,0.3103932738304138
1772708060168706300,0.106706298828125,0.41228583455085754,-0.05700229853391647,0.4428434669971466
1772708060178732300,0.116732177734375,0.4174973666667938,-0.04194958135485649,0.595950186252594
1772708060188758300,0.12675830078125,0.3752031624317169,-0.0477246455848217,0.7159383893013
1772708060198784300,0.1367841796875,0.33514469861984253,-0.11348448693752289,0.7502723932266235
1772708060208810200,0.146810302734375,0.32478979229927063,-0.23040364682674408,0.7194196581840515
1772708060218836200,0.156836181640625,0.3508230149745941,-0.3335942029953003,0.6551845073699951
1772708060228862200,0.1668623046875,0.3963761031627655,-0.39407700300216675,0.6105006337165833
1772708060238888200,0.17688818359375,0.42862191796302795,-0.404815673828125,0.5799808502197266
1772708060248914200,0.1869140625,0.4219139516353607,-0.3991500437259674,0.5456367135047913
1772708060258940200,0.196940185546875,0.4068268835544586,-0.39949119091033936,0.5043273568153381
1772708060268966400,0.20696630859375,0.40246647596359253,-0.32510513067245483,0.4788573980331421
1772708060278992400,0.216992431640625,0.4084138572216034,-0.21254688501358032,0.45400503277778625
1772708060289018400,0.227018310546875,0.41694557666778564,-0.17408178746700287,0.3902582824230194
1772708060299044400,0.23704443359375,0.39915376901626587,-0.23266173899173737,0.3125302195549011
1772708060309070300,0.2470703125,0.27174603939056396,-0.30913519859313965,0.29661035537719727
1772708060319096300,0.257096435546875,0.10397140681743622,-0.3489856719970703,0.34022068977355957
1772708060329122300,0.267122314453125,-0.060032978653907776,-0.36404213309288025,0.39084872603416443
1772708060339148300,0.277148193359375,-0.21821382641792297,-0.3852131962776184,0.38338547945022583
1772708060349174300,0.28717431640625,-0.36242106556892395,-0.4600118100643158,0.30455511808395386
1772708060359200300,0.2972001953125,-0.4635674059391022,-0.5258816480636597,0.16795384883880615
1772708060369226200,0.307226318359375,-0.5152894258499146,-0.5167816281318665,0.0005201153689995408
1772708060379252500,0.31725244140625,-0.5224536061286926,-0.4315050542354584,-0.1722969263792038
1772708060389278500,0.327278564453125,-0.4931870698928833,-0.29726895689964294,-0.32542097568511963
1772708060399304400,0.337304443359375,-0.4500039219856262,-0.13467232882976532,-0.44362059235572815
1772708060409330400,0.347330322265625,-0.4172568917274475,0.027514182031154633,-0.5264411568641663
1772708060419356400,0.3573564453125,-0.40392857789993286,0.1760687679052353,-0.5798303484916687
1772708060429382400,0.36738232421875,-0.4092250466346741,0.2341882586479187,-0.6154272556304932
1772708060439408400,0.377408447265625,-0.4180832505226135,0.2557092607021332,-0.6175428628921509
1772708060449434400,0.387434326171875,-0.42620882391929626,0.2597080171108246,-0.6029074192047119
1772708060459460400,0.39746044921875,-0.4343796670436859,0.22909337282180786,-0.5832381248474121
1772708060469486300,0.407486328125,-0.43963995575904846,0.17601577937602997,-0.5593423843383789
1772708060479512300,0.41751220703125,-0.4419585168361664,0.11186421662569046,-0.5228192806243896
1772708060489538300,0.427538330078125,-0.44181308150291443,0.04970843344926834,-0.4682060778141022
1772708060499564300,0.437564208984375,-0.4487663507461548,-0.027295537292957306,-0.4074748158454895
1772708060509590300,0.44759033203125,-0.4703563153743744,-0.11688081175088882,-0.3496229946613312
1772708060519616300,0.4576162109375,-0.4885587692260742,-0.18092450499534607,-0.29812970757484436
1772708060529642200,0.467642333984375,-0.4935721755027771,-0.211578831076622,-0.24563346803188324
1772708060539668200,0.477668212890625,-0.4851800203323364,-0.21629954874515533,-0.1947668194770813
1772708060549694200,0.487694091796875,-0.46544837951660156,-0.20561201870441437,-0.15443484485149384
1772708060559720200,0.49772021484375,-0.4408205449581146,-0.1871941238641739,-0.12289822846651077
1772708060569746200,0.50774609375,-0.4143042266368866,-0.1692579984664917,-0.10096096992492676
1772708060579772200,0.517772216796875,-0.38175615668296814,-0.18975315988063812,-0.08310926705598831
1772708060589798100,0.527798095703125,-0.3495897054672241,-0.21926631033420563,-0.059900350868701935
1772708060599824400,0.537824462890625,-0.30838847160339355,-0.2565052807331085,-0.020862670615315437
1772708060609850400,0.547850341796875,-0.2664348781108856,-0.32196179032325745,0.02136787213385105
1772708060619876400,0.55787646484375,-0.2216852605342865,-0.4152643084526062,0.04532833397388458
1772708060629902300,0.56790234375,-0.17512761056423187,-0.5133588910102844,0.05482703074812889
1772708060639928300,0.57792822265625,-0.13834962248802185,-0.5866437554359436,0.05029246583580971
1772708060649954300,0.587954345703125,-0.1235155463218689,-0.6467217803001404,0.03537982702255249
1772708060659980300,0.597980224609375,-0.14258058369159698,-0.6290271878242493,0.003980360459536314
1772708060670006300,0.60800634765625,-0.18195408582687378,-0.5324753522872925,-0.04712090641260147
1772708060680032300,0.6180322265625,-0.24140436947345734,-0.42737582325935364,-0.12563063204288483
1772708060690058200,0.628058349609375,-0.3131091892719269,-0.35129332542419434,-0.21236951649188995
1772708060700084500,0.63808447265625,-0.402355432510376,-0.29892757534980774,-0.28704535961151123
1772708060710110500,0.6481103515625,-0.49767157435417175,-0.2817741632461548,-0.34349051117897034
1772708060720136400,0.658136474609375,-0.5851790308952332,-0.2990919053554535,-0.3546915054321289
1772708060730162400,0.668162353515625,-0.654746413230896,-0.31412172317504883,-0.31283512711524963
1772708060740188400,0.6781884765625,-0.7118669748306274,-0.32530513405799866,-0.2374250739812851
1772708060750214400,0.68821435546875,-0.747772216796875,-0.32000675797462463,-0.13323742151260376
1772708060760240400,0.698240478515625,-0.7592917084693909,-0.2882877290248871,-0.004746285732835531
1772708060770266400,0.708266357421875,-0.7615309357643127,-0.2625003159046173,0.13016678392887115
1772708060780292400,0.718292236328125,-0.7565465569496155,-0.2539590299129486,0.2563723921775818
1772708060790318300,0.728318359375,-0.747394859790802,-0.2592608630657196,0.3800216317176819
1772708060800344300,0.73834423828125,-0.7377550005912781,-0.29096606373786926,0.49144989252090454
1772708060810370600,0.74837060546875,-0.7179219126701355,-0.3103637397289276,0.5860741138458252
1772708060820396500,0.758396484375,-0.6947808861732483,-0.2742216885089874,0.6635891795158386
1772708060830422500,0.768422607421875,-0.6656597852706909,-0.19597643613815308,0.7436823844909668
1772708060840448300,0.7784482421875,-0.6430689692497253,-0.1436370611190796,0.8291565775871277
1772708060850474200,0.78847412109375,-0.6322110295295715,-0.20687249302864075,0.9526907205581665
1772708060860500200,0.798500244140625,-0.6176485419273376,-0.38921940326690674,1.1499689817428589
1772708060870526200,0.808526123046875,-0.5748827457427979,-0.5940942168235779,1.4347662925720215
1772708060880552200,0.81855224609375,-0.5182026624679565,-0.6897360682487488,1.7975109815597534
1772708060890578200,0.828578125,-0.4737001955509186,-0.598561704158783,2.1802310943603516
1772708060900604200,0.838604248046875,-0.4977205693721771,-0.28212782740592957,2.5155014991760254
1772708060910630100,0.848630126953125,-0.5632798671722412,0.15665511786937714,2.7087199687957764
1772708060920656400,0.858656494140625,-0.6228516101837158,0.4144669473171234,2.6273298263549805
1772708060930682400,0.868682373046875,-0.6154314875602722,0.37780269980430603,2.2058401107788086
1772708060940708400,0.878708251953125,-0.5110523700714111,0.18280842900276184,1.5709326267242432
1772708060950734300,0.888734375,-0.3326604962348938,-0.016476178541779518,0.8784729838371277
1772708060960760300,0.89876025390625,-0.18415652215480804,-0.19722118973731995,0.2218937873840332
1772708060970786300,0.908786376953125,-0.14534388482570648,-0.39712923765182495,-0.3310101628303528
1772708060980812300,0.918812255859375,-0.18041051924228668,-0.47962066531181335,-0.6443033218383789
1772708060990837800,0.928837646484375,-0.2580435276031494,-0.2865220308303833,-0.6823822855949402
1772708061000863700,0.93886376953125,-0.3936910927295685,0.039142075926065445,-0.5390722751617432
1772708061010889700,0.9488896484375,-0.5444864630699158,0.3787587583065033,-0.35763058066368103
1772708061020915700,0.958915771484375,-0.6236545443534851,0.7114682793617249,-0.2478787750005722
1772708061030941700,0.968941650390625,-0.5755490660667419,1.0276496410369873,-0.260127991437912
1772708061040967700,0.9789677734375,-0.4527248740196228,1.334447979927063,-0.4049150049686432
1772708061050993700,0.98899365234375,-0.36282506585121155,1.580657958984375,-0.6820584535598755
1772708061061020000,0.99902001953125,-0.3689727187156677,1.7659196853637695,-1.041635513305664
1772708061071046000,1.0090458984375,-0.49306750297546387,1.9445075988769531,-1.3860677480697632
1772708061081071900,1.01907177734375,-0.7255212664604187,2.1151158809661865,-1.5826146602630615
1772708061091097900,1.029097900390625,-1.0408130884170532,2.1373660564422607,-1.5736075639724731
1772708061101123800,1.039123779296875,-1.4117417335510254,1.8888778686523438,-1.4636634588241577
1772708061111149800,1.04914990234375,-1.7927018404006958,1.3865492343902588,-1.355674386024475
1772708061121175800,1.05917578125,-2.1065709590911865,0.9163721799850464,-1.241373896598816
1772708061131201800,1.069201904296875,-2.2920494079589844,0.5329983830451965,-1.1003209352493286
1772708061141227800,1.079227783203125,-2.3196470737457275,0.0674075335264206,-1.0170601606369019
1772708061151253800,1.089253662109375,-2.1474385261535645,-0.20529669523239136,-1.0057672262191772
1772708061161279700,1.09927978515625,-1.7460341453552246,-0.21769610047340393,-0.998678982257843
1772708061171306000,1.109305908203125,-1.2013378143310547,-0.20104655623435974,-0.9561118483543396
1772708061181332000,1.11933203125,-0.6009388566017151,0.04388516768813133,-0.778103768825531
1772708061191358000,1.12935791015625,-0.06849783658981323,0.31290891766548157,-0.4944307804107666
1772708061201384000,1.139384033203125,0.3148908317089081,0.38804760575294495,-0.17484238743782043
1772708061211410000,1.149409912109375,0.5507078766822815,0.40701916813850403,0.20890234410762787
1772708061221436000,1.159435791015625,0.6655066609382629,0.36727920174598694,0.6174216866493225
1772708061231462000,1.1694619140625,0.659229040145874,0.20912311971187592,0.9703310132026672
1772708061241486800,1.17948681640625,0.560007631778717,0.03192970156669617,1.2051118612289429
1772708061251512800,1.189512939453125,0.4060199558734894,-0.10564147680997849,1.3038322925567627
1772708061261538800,1.199538818359375,0.2350308895111084,-0.1463838368654251,1.2833720445632935
1772708061271564800,1.209564697265625,0.12066729366779327,-0.06724774837493896,1.20659601688385
1772708061281590800,1.2195908203125,0.10613495856523514,0.07298632711172104,1.1318594217300415
1772708061291616800,1.22961669921875,0.1746937781572342,0.1905217468738556,1.0847188234329224
1772708061301643000,1.23964306640625,0.301261305809021,0.2297956496477127,1.094519019126892
1772708061311669000,1.2496689453125,0.45485273003578186,0.21841169893741608,1.1825729608535767
1772708061321695000,1.259695068359375,0.5829411745071411,0.15706445276737213,1.311887502670288
1772708061331720700,1.269720703125,0.6450807452201843,0.10747452825307846,1.4381029605865479
1772708061341746700,1.27974658203125,0.6184829473495483,0.016745956614613533,1.550980567932129
1772708061351772700,1.289772705078125,0.4869920313358307,-0.10393225401639938,1.6329240798950195
1772708061361798700,1.299798583984375,0.302944153547287,-0.21984261274337769,1.6868799924850464
1772708061371824600,1.30982470703125,0.1591382622718811,-0.3933826982975006,1.7229557037353516
1772708061381850600,1.3198505859375,0.1277712732553482,-0.5380706787109375,1.704081654548645
1772708061391876600,1.329876708984375,0.24041207134723663,-0.48818352818489075,1.5510276556015015
1772708061401902600,1.339902587890625,0.4956238567829132,-0.16939648985862732,1.2789013385772705
1772708061411928800,1.3499287109375,0.8385418057441711,0.3368384838104248,0.9537293910980225
1772708061421954800,1.359954833984375,1.2023613452911377,0.7437276840209961,0.6220963001251221
1772708061431980800,1.369980712890625,1.503014087677002,0.8710781931877136,0.29507210850715637
1772708061442006800,1.3800068359375,1.654544711112976,0.5534557104110718,0.02214471623301506
1772708061452032800,1.39003271484375,1.5319805145263672,-0.23035064339637756,-0.15488864481449127
1772708061462058800,1.400058837890625,1.2571009397506714,-1.4290401935577393,-0.03718625009059906
1772708061472084700,1.410084716796875,0.6439025402069092,-2.1514227390289307,0.5305286049842834
1772708061482110700,1.42011083984375,-0.4362660050392151,-2.108241558074951,1.4071227312088013
1772708061492136700,1.43013671875,-1.556748628616333,-2.2019057273864746,2.25148606300354
1772708061502162700,1.44016259765625,-2.484628677368164,-3.0429961681365967,2.883787155151367
1772708061512188700,1.450188720703125,-3.1764047145843506,-4.300623893737793,3.3987197875976562
1772708061522215000,1.46021484375,-3.635713577270508,-5.454095363616943,3.847608804702759
1772708061532241000,1.470240966796875,-3.89925479888916,-6.264105796813965,4.238839149475098
1772708061542267000,1.480266845703125,-4.12676477432251,-6.15468168258667,4.467377185821533
1772708061552292900,1.49029296875,-3.4496383666992188,-3.2419166564941406,0.41462913155555725
1772708061562318800,1.50031884765625,-2.3034489154815674,-0.9944366216659546,-2.3871939182281494
1772708061572344800,1.5103447265625,-1.181654453277588,1.141088843345642,-4.086240768432617
1772708061582370800,1.520370849609375,-0.2171568125486374,1.1422436237335205,-5.094140529632568
1772708061592396800,1.530396728515625,0.5103657841682434,1.725428819656372,-5.703257083892822
1772708061602422800,1.5404228515625,1.0726443529129028,2.280923366546631,-5.7771453857421875
1772708061612448800,1.55044873046875,1.533586859703064,2.6331043243408203,-5.320265769958496
1772708061622474800,1.560474853515625,1.6404629945755005,2.3738853931427,-4.387434482574463
1772708061632501000,1.5705009765625,1.4904268980026245,1.464016079902649,-3.212733745574951
1772708061642527000,1.58052685546875,1.3274643421173096,0.3904492259025574,-2.184424877166748
1772708061652553000,1.590552978515625,1.1118292808532715,-0.6519114971160889,-1.6909235715866089
1772708061662579000,1.600578857421875,0.8133150339126587,-1.6513532400131226,-1.9075253009796143
1772708061672604700,1.610604736328125,0.7511736154556274,-2.2156693935394287,-2.401214361190796
1772708061682630700,1.620630615234375,1.0387600660324097,-2.133868455886841,-2.773026466369629
1772708061692656600,1.63065673828125,1.6064813137054443,-1.440704345703125,-2.9462311267852783
1772708061702681900,1.640681884765625,2.2551329135894775,-0.5959824323654175,-3.015183448791504
1772708061712707800,1.650707763671875,2.445603609085083,0.062191735953092575,-3.0988693237304688
1772708061722733800,1.66073388671875,1.8303157091140747,0.4120416045188904,-3.383509874343872
1772708061732759800,1.670759765625,1.039692997932434,0.5697199106216431,-3.585772752761841
1772708061742785800,1.680785888671875,0.3865349292755127,0.5984759330749512,-3.412299871444702
1772708061752812000,1.69081201171875,-0.22321204841136932,0.178893581032753,-3.0412628650665283
1772708061762837800,1.700837646484375,-0.6265895962715149,-0.4264698326587677,-2.6097676753997803
1772708061772863700,1.71086376953125,-0.887721061706543,-1.0053737163543701,-2.2236833572387695
1772708061782889700,1.7208896484375,-0.9312858581542969,-1.4110479354858398,-1.823983073234558
1772708061792915700,1.730915771484375,-0.6439558267593384,-1.61099112033844,-1.395183801651001
1772708061802941700,1.740941650390625,-0.1278088241815567,-1.6730598211288452,-1.02102530002594
1772708061812967700,1.7509677734375,0.3780900537967682,-1.6396582126617432,-0.7433801293373108
1772708061822993700,1.76099365234375,0.7073640823364258,-1.583181381225586,-0.6064954996109009
1772708061833019600,1.77101953125,0.837888240814209,-1.5303151607513428,-0.7024691700935364
1772708061843045600,1.781045654296875,0.7680444717407227,-1.4546172618865967,-1.0175821781158447
1772708061853071600,1.791071533203125,0.5788455009460449,-1.31742262840271,-1.4150139093399048
1772708061863097900,1.801097900390625,0.37196290493011475,-1.1228456497192383,-1.6984258890151978
1772708061873123800,1.811123779296875,0.19408851861953735,-0.7235749959945679,-1.7746477127075195
1772708061883149800,1.82114990234375,0.04550010710954666,-0.15950177609920502,-1.7495636940002441
1772708061893175800,1.83117578125,-0.09306975454092026,0.2494945228099823,-1.8218977451324463
1772708061903201800,1.841201904296875,-0.1931726485490799,0.400896281003952,-1.9596633911132812
1772708061913227800,1.851227783203125,-0.27891018986701965,0.36787548661231995,-2.0232226848602295
1772708061923253800,1.861253662109375,-0.34576353430747986,0.2232850193977356,-1.9190605878829956
1772708061933279700,1.87127978515625,-0.36454465985298157,0.016590427607297897,-1.6591448783874512
1772708061943305700,1.8813056640625,-0.3178589344024658,-0.17526182532310486,-1.281485915184021
1772708061953331700,1.891331787109375,-0.2653488516807556,-0.34099406003952026,-0.8509715795516968
1772708061963357700,1.901357666015625,-0.29191920161247253,-0.4840756058692932,-0.4628816246986389
1772708061973384000,1.911384033203125,-0.4004369080066681,-0.5094531178474426,-0.17083245515823364
1772708061983410000,1.921409912109375,-0.570844292640686,-0.46013617515563965,-0.032286833971738815
1772708061993436200,1.931436279296875,-0.7692077159881592,-0.45180368423461914,-0.0862019956111908
1772708062003462100,1.941462158203125,-0.9449153542518616,-0.5452761054039001,-0.26124146580696106
1772708062013488000,1.951488037109375,-1.0223667621612549,-0.6802176833152771,-0.46273088455200195
1772708062023514400,1.961514404296875,-0.9457119107246399,-0.812546968460083,-0.6091131567955017
1772708062033540400,1.971540283203125,-0.8211889266967773,-0.8288159370422363,-0.6326110363006592
1772708062043565300,1.9815654296875,-0.6754317283630371,-0.8210139274597168,-0.5476455092430115
1772708062053591300,1.99159130859375,-0.5174095630645752,-0.735733151435852,-0.37765488028526306
1772708062063617300,2.0016171875,-0.3920346200466156,-0.5958074331283569,-0.14429938793182373
1772708062073643300,2.011643310546875,-0.3084776699542999,-0.48790523409843445,0.09205669164657593
1772708062083669200,2.021669189453125,-0.32242146134376526,-0.6330595016479492,0.2583998739719391
1772708062093695200,2.0316953125,-0.4186917841434479,-1.0394001007080078,0.4437558650970459
1772708062103721200,2.04172119140625,-0.5120481252670288,-1.4052997827529907,0.7697219848632812
1772708062113747200,2.051747314453125,-0.6145433187484741,-1.5918710231781006,1.1758183240890503
1772708062123773200,2.061773193359375,-0.7575721144676208,-1.6690269708633423,1.5104302167892456
1772708062133799200,2.071799072265625,-0.8250065445899963,-1.3461229801177979,1.7374374866485596
1772708062143825200,2.0818251953125,-0.7095635533332825,-0.509489893913269,1.8483426570892334
1772708062153851400,2.091851318359375,-0.5113061666488647,0.7821230292320251,2.033630847930908
1772708062163877400,2.10187744140625,-0.22003063559532166,1.9992547035217285,2.3532583713531494
1772708062173903000,2.111903076171875,0.09587539732456207,2.1910037994384766,2.507004976272583
1772708062183929000,2.12192919921875,0.3557959198951721,1.1487891674041748,2.270449638366699
1772708062193955000,2.131955078125,0.48327958583831787,-0.4608645439147949,1.5487173795700073
1772708062203981000,2.14198095703125,0.6287656426429749,-1.6038613319396973,0.4585702419281006
1772708062214007000,2.152007080078125,0.5589421391487122,-1.5750815868377686,-0.6632384061813354
1772708062224033000,2.162032958984375,0.3096952736377716,-1.0895655155181885,-1.7336840629577637
1772708062234059000,2.17205908203125,0.1574346274137497,-0.025290975347161293,-2.236210823059082
1772708062244085000,2.1820849609375,0.4026734232902527,1.7777953147888184,-1.8086416721343994
1772708062254111000,2.192111083984375,1.14114511013031,3.1590723991394043,-0.8624705672264099
1772708062264137200,2.20213720703125,2.1877574920654297,3.1825826168060303,0.07143769413232803
1772708062274163200,2.2121630859375,2.7461600303649902,2.196734666824341,0.8025462627410889
1772708062284189200,2.222189208984375,2.4717957973480225,0.6059666275978088,1.1192669868469238
1772708062294215200,2.232215087890625,1.692185640335083,-0.9572634100914001,1.00223970413208
1772708062304241200,2.2422412109375,1.0693566799163818,-1.8353606462478638,0.6790208220481873
1772708062314267100,2.25226708984375,0.8587090969085693,-1.5808300971984863,0.09729539602994919
1772708062324293000,2.262293212890625,0.7585234045982361,-0.2583226263523102,-0.724082350730896
1772708062334319000,2.272319091796875,0.7505493760108948,1.3787035942077637,-1.5265188217163086
1772708062344345000,2.282344970703125,0.7703135013580322,2.8677432537078857,-2.0757296085357666
1772708062354370000,2.2923701171875,0.7578964829444885,3.949676036834717,-2.373868703842163
1772708062364396000,2.30239599609375,0.6369788646697998,4.3883256912231445,-2.5376760959625244
1772708062374422000,2.312422119140625,0.36846885085105896,4.110365390777588,-2.538611888885498
1772708062384448000,2.322447998046875,0.058346930891275406,3.320563793182373,-2.269056558609009
1772708062394474200,2.33247412109375,-0.1470741331577301,2.289701461791992,-1.6807867288589478
1772708062404500200,2.342500244140625,-0.21561351418495178,1.2154347896575928,-0.8199694752693176
1772708062414526200,2.352526123046875,-0.18040679395198822,0.2532663643360138,0.19291672110557556
1772708062424552200,2.36255224609375,-0.15448437631130219,-0.6119182705879211,1.0876269340515137
1772708062434578200,2.372578125,-0.17687144875526428,-1.3484524488449097,1.6771880388259888
1772708062444604200,2.382604248046875,-0.1952642947435379,-1.7955713272094727,1.9113306999206543
1772708062454630100,2.392630126953125,-0.13730326294898987,-1.9017374515533447,1.8155882358551025
1772708062464656100,2.40265625,0.007779359817504883,-1.7536473274230957,1.496971845626831
1772708062474682000,2.41268212890625,0.17472361028194427,-1.3510929346084595,1.1222223043441772
1772708062484708000,2.4227080078125,0.40073728561401367,-0.8595400452613831,0.7839126586914062
1772708062494734000,2.432734130859375,0.6010786294937134,-0.39104312658309937,0.546258807182312
1772708062504760300,2.44276025390625,0.7617737650871277,0.00765871861949563,0.4906594753265381
1772708062514786300,2.452786376953125,0.9213309288024902,0.29161614179611206,0.6561837196350098
1772708062524812300,2.462812255859375,1.057343602180481,0.3137781620025635,1.0005568265914917
1772708062534838300,2.47283837890625,1.18793785572052,0.2299535721540451,1.4744594097137451
1772708062544864300,2.4828642578125,1.296134352684021,0.1548822522163391,1.9310295581817627
1772708062554890200,2.49289013671875,1.238820195198059,-0.012976518832147121,2.2040445804595947
1772708062564916200,2.502916259765625,1.0107442140579224,-0.30624860525131226,2.2429020404815674
1772708062574942200,2.512942138671875,0.726256251335144,-0.5973393321037292,2.1209115982055664
1772708062584968200,2.52296826171875,0.4743151068687439,-0.7873209714889526,1.8853212594985962
1772708062594994200,2.532994140625,0.2755860388278961,-0.8881370425224304,1.6113759279251099
1772708062605020200,2.543020263671875,0.12197250872850418,-0.8747003674507141,1.3387277126312256
1772708062615046100,2.553046142578125,0.004699147772043943,-0.7669578790664673,1.0626606941223145
1772708062625072000,2.563072021484375,-0.06843604892492294,-0.6605384945869446,0.8338335752487183
1772708062635097300,2.573097412109375,-0.10006188601255417,-0.5871870517730713,0.6675940155982971
1772708062645123300,2.583123291015625,-0.15863864123821259,-0.5087875723838806,0.5449948906898499
1772708062655149300,2.5931494140625,-0.2622835338115692,-0.34171631932258606,0.45573022961616516
1772708062665175300,2.60317529296875,-0.4594948887825012,-0.15234266221523285,0.32850784063339233
1772708062675201300,2.613201171875,-0.730812132358551,-0.06193021312355995,0.10435516387224197
1772708062685227300,2.623227294921875,-0.9797031879425049,-0.012209261767566204,-0.11744406819343567
1772708062695253200,2.633253173828125,-1.127548098564148,0.1443883329629898,-0.22019122540950775
1772708062705279200,2.643279296875,-1.1864827871322632,0.38543903827667236,-0.13905668258666992
1772708062715305200,2.65330517578125,-1.1427315473556519,0.6174682974815369,0.10125871002674103
1772708062725331000,2.6633310546875,-1.035210132598877,0.8221753239631653,0.44312018156051636
1772708062735357000,2.67335693359375,-0.946753203868866,0.9365959167480469,0.7906877398490906
1772708062745383200,2.683383056640625,-0.9185982942581177,0.9193586111068726,1.0478603839874268
1772708062755409200,2.6934091796875,-0.9615896940231323,0.8081564903259277,1.1396476030349731
1772708062765435100,2.70343505859375,-1.01083505153656,0.6391062140464783,1.0729840993881226
1772708062775461000,2.713461181640625,-0.9927899837493896,0.2981856167316437,0.8862648606300354
1772708062785487000,2.723487060546875,-0.8823976516723633,-0.21080145239830017,0.5087133049964905
1772708062795513000,2.73351318359375,-0.6861488223075867,-0.555298388004303,-0.30006447434425354
1772708062805539000,2.7435390625,-0.8406597971916199,-0.7187754511833191,-1.7365658283233643
1772708062815565000,2.75356494140625,-1.194350004196167,-0.7353986501693726,-3.3765182495117188
1772708062825591000,2.763591064453125,-1.3971984386444092,-0.719371497631073,-4.381189346313477
1772708062835617000,2.773616943359375,-1.3392645120620728,-0.7702088356018066,-4.345312595367432
1772708062845643300,2.783643310546875,-0.8605762720108032,-0.9292240142822266,-3.8004417419433594
1772708062855669200,2.793669189453125,-0.04922666773200035,-0.5875934958457947,-3.2269134521484375
1772708062865695200,2.8036953125,0.8867053389549255,0.13531175255775452,-2.578352451324463
1772708062875721200,2.81372119140625,1.6061159372329712,0.3964530825614929,-1.8685787916183472
1772708062885747200,2.823747314453125,1.8162246942520142,0.15483245253562927,-1.4926732778549194
1772708062895772200,2.833772216796875,1.3899282217025757,-0.11060906946659088,-1.4830670356750488
1772708062905798100,2.843798095703125,0.8178548812866211,0.11052358150482178,-1.8832484483718872
1772708062915824000,2.85382421875,0.3636799454689026,0.565832793712616,-2.509079694747925
1772708062925850000,2.86385009765625,0.2387835532426834,0.8866496682167053,-2.6836516857147217
1772708062935876000,2.8738759765625,0.39550498127937317,0.8884909749031067,-2.3788273334503174
1772708062945902000,2.883902099609375,0.5557553768157959,0.46590912342071533,-1.9720441102981567
1772708062955928000,2.893927978515625,0.5241681337356567,-0.12984535098075867,-1.6302918195724487
1772708062965954000,2.9039541015625,0.291845440864563,-0.4529570937156677,-1.3669638633728027
1772708062975980300,2.913980224609375,0.006719155237078667,-0.3862408995628357,-1.1352440118789673
1772708062986006300,2.92400634765625,-0.2115926742553711,-0.10138467699289322,-0.900114893913269
1772708062996032000,2.934031982421875,-0.29557785391807556,0.19149751961231232,-0.6028754711151123
1772708063006058000,2.94405810546875,-0.15717896819114685,0.2897481918334961,-0.19626618921756744
1772708063016084000,2.954083984375,0.15687189996242523,0.27209118008613586,0.32779011130332947
1772708063026110000,2.96410986328125,0.4501676857471466,0.23618297278881073,0.9422266483306885
1772708063036136000,2.974135986328125,0.5774268507957458,0.013569604605436325,1.5318281650543213
1772708063046162000,2.984161865234375,0.5373044610023499,-0.33564963936805725,1.959774136543274
1772708063056188000,2.99418798828125,0.39253610372543335,-0.7240453362464905,2.219869613647461
1772708063066214000,3.0042138671875,0.2065712809562683,-0.9004797339439392,2.3754019737243652
1772708063076240100,3.014240234375,0.11205623298883438,-0.8384422063827515,2.517118453979492
1772708063086266000,3.02426611328125,0.11198592185974121,-0.6729006171226501,2.6655828952789307
1772708063096292000,3.0342919921875,0.13514956831932068,-0.37021559476852417,2.709386110305786
1772708063106318000,3.044318115234375,0.14816203713417053,0.019602196291089058,2.6428322792053223
1772708063116344000,3.054343994140625,0.13774614036083221,0.41208717226982117,2.492725372314453
1772708063126370000,3.0643701171875,0.08238249272108078,0.7323961853981018,2.249879837036133
1772708063136395000,3.07439501953125,0.026583140715956688,0.9968896508216858,2.0064852237701416
1772708063146421000,3.0844208984375,0.028626851737499237,1.1845207214355469,1.843055009841919
1772708063156447000,3.094447021484375,0.08310899883508682,1.2475790977478027,1.7658827304840088
1772708063166473000,3.104472900390625,0.1382015496492386,1.2086892127990723,1.7081190347671509
1772708063176499000,3.1144990234375,0.14867337048053741,1.1291123628616333,1.5947799682617188
1772708063186525000,3.12452490234375,0.11644751578569412,1.0704373121261597,1.4667551517486572
1772708063196551000,3.134551025390625,0.0959523618221283,1.0303878784179688,1.3629124164581299
1772708063206577200,3.1445771484375,0.11873117834329605,0.9039919376373291,1.268183946609497
1772708063216603100,3.15460302734375,0.1489628553390503,0.6378430724143982,1.1739426851272583
1772708063226629000,3.164629150390625,0.08186157792806625,0.24989531934261322,0.9778943657875061
1772708063236655000,3.174655029296875,0.03239735588431358,-0.2694226801395416,0.6241610646247864
1772708063246681000,3.18468115234375,-0.10590752214193344,-0.5769914388656616,0.22766804695129395
1772708063256707000,3.19470703125,-0.4700399339199066,-0.6998417377471924,-0.0674315020442009
1772708063266733000,3.204733154296875,-0.7300826907157898,-0.7069960236549377,-0.2143796682357788
1772708063276758800,3.2147587890625,-0.7463013529777527,-0.6596513986587524,-0.2499520480632782
1772708063286784800,3.22478466796875,-0.633837103843689,-0.6304232478141785,-0.2389420121908188
1772708063296810800,3.234810791015625,-0.4760877192020416,-0.8371511101722717,-0.20770472288131714
1772708063306836700,3.244836669921875,-0.3426726758480072,-1.3187084197998047,-0.1830904632806778
1772708063316863000,3.254863037109375,-0.1851584017276764,-2.003278970718384,-0.12961232662200928
1772708063326889000,3.264888916015625,-0.047863930463790894,-2.570338726043701,0.0028703550342470407
1772708063336915000,3.2749150390625,-0.08274547755718231,-2.6708011627197266,0.10695014894008636
1772708063346941000,3.28494091796875,-0.16674557328224182,-2.509077787399292,0.13735492527484894
1772708063356967000,3.294966796875,-0.2663573920726776,-2.363752841949463,0.16594849526882172
1772708063366993000,3.304992919921875,-0.3919736444950104,-2.1900339126586914,0.2544218897819519
1772708063377017900,3.315017822265625,-0.6332813501358032,-1.8389928340911865,0.294532835483551
1772708063387043800,3.3250439453125,-1.0430296659469604,-1.156613826751709,0.3127323389053345
1772708063397069800,3.33506982421875,-1.3428646326065063,0.07539542019367218,0.4765375256538391
1772708063407095800,3.345095703125,-1.2275441884994507,1.4933470487594604,0.752478837966919
1772708063417121800,3.355121826171875,-0.5335033535957336,2.377211332321167,0.7644065618515015
1772708063427147800,3.365147705078125,0.270739883184433,2.230957269668579,-0.2312220335006714
1772708063437173800,3.375173828125,0.7500692009925842,1.4011896848678589,-2.0094735622406006
1772708063447200000,3.385199951171875,0.6425874829292297,0.24333275854587555,-3.727602005004883
1772708063457226000,3.39522607421875,0.03160959109663963,0.02576155588030815,-4.294981002807617
1772708063467252000,3.405251953125,-0.08637537062168121,1.2606104612350464,-3.6442127227783203
1772708063477278000,3.41527783203125,0.2259572297334671,3.1286416053771973,-2.190004348754883
1772708063487304000,3.425303955078125,0.8669830560684204,3.8585338592529297,-0.7909992933273315
1772708063497330000,3.435329833984375,1.304132342338562,3.018998861312866,0.09068942070007324
1772708063507356000,3.44535595703125,1.2355173826217651,1.0219089984893799,0.6836156249046326
1772708063517382000,3.4553818359375,0.8059151768684387,-1.1461377143859863,1.3269399404525757
1772708063527407900,3.465407958984375,0.49555328488349915,-2.6311638355255127,1.9843533039093018
1772708063537433900,3.475433837890625,0.5856248736381531,-3.3800997734069824,2.372183322906494
1772708063547459800,3.4854599609375,1.0285253524780273,-3.203930616378784,2.2822136878967285
1772708063557486000,3.495486083984375,1.4346747398376465,-2.0732181072235107,1.6616220474243164
1772708063567512000,3.505511962890625,1.565264344215393,-0.5017856359481812,0.49135586619377136
1772708063577538000,3.5155380859375,1.1584042310714722,0.8577573299407959,-1.1059178113937378
1772708063587564000,3.52556396484375,0.4181133508682251,1.9287859201431274,-2.8107075691223145
1772708063597590000,3.535590087890625,-0.376163512468338,2.6500566005706787,-4.142332077026367
1772708063607615000,3.545614990234375,-1.0188004970550537,3.1218101978302,-4.647786617279053
1772708063617641000,3.555640869140625,-1.3718723058700562,3.459477663040161,-4.266745567321777
1772708063627667000,3.5656669921875,-1.3878650665283203,3.360860824584961,-3.2820074558258057
1772708063637693000,3.57569287109375,-1.0542969703674316,2.8257930278778076,-2.0320820808410645
1772708063647719000,3.585718994140625,-0.6032331585884094,1.9530731439590454,-0.628070592880249
1772708063657745000,3.595744873046875,-0.13050927221775055,0.9153830409049988,0.7873563766479492
1772708063667771000,3.60577099609375,0.20895880460739136,-0.05467949062585831,1.9399604797363281
1772708063677796900,3.615796875,0.3858523666858673,-0.7729689478874207,2.658250093460083
1772708063687823000,3.625822998046875,0.43436184525489807,-1.1680430173873901,2.915476083755493
1772708063697849000,3.63584912109375,0.3395106792449951,-1.1667729616165161,2.8378453254699707
1772708063707875000,3.645875,0.186570405960083,-0.700616180896759,2.6001205444335938
1772708063717901000,3.655901123046875,0.09630336612462997,0.09758114814758301,2.2898435592651367
1772708063727927000,3.665927001953125,0.04071973264217377,0.9894905686378479,1.9541610479354858
1772708063737953000,3.675953125,-0.04697922617197037,1.7129247188568115,1.6407705545425415
1772708063747979000,3.68597900390625,-0.1135563924908638,2.0413401126861572,1.4085032939910889
1772708063758005000,3.6960048828125,-0.12674835324287415,1.8888294696807861,1.2607487440109253
1772708063768031000,3.706031005859375,-0.12222018092870712,1.4036509990692139,1.168442964553833
1772708063778057000,3.716056884765625,-0.10346034914255142,0.8478807210922241,1.1252171993255615
1772708063788083000,3.7260830078125,-0.06694813817739487,0.3145749866962433,1.0771421194076538
1772708063798109000,3.73610888671875,-0.023372434079647064,-0.1284083127975464,0.9801628589630127
1772708063808135000,3.746135009765625,-0.06304128468036652,-0.5382171273231506,0.7719305753707886
1772708063818161000,3.756160888671875,-0.1342635303735733,-0.8438745141029358,0.4410991072654724
1772708063828186000,3.76618603515625,-0.17298856377601624,-1.0061835050582886,0.03731647878885269
1772708063838212000,3.776212158203125,-0.21145418286323547,-0.9918434619903564,-0.3749352693557739
1772708063848238000,3.786238037109375,-0.2653381824493408,-0.8045550584793091,-0.7249550819396973
1772708063858264000,3.79626416015625,-0.2938377559185028,-0.5080291032791138,-0.9578050971031189
1772708063868290000,3.8062900390625,-0.3009486496448517,-0.1931699961423874,-1.0480433702468872
1772708063878316000,3.81631591796875,-0.27071112394332886,-0.022356171160936356,-1.0013309717178345
1772708063888342000,3.826342041015625,-0.2531774044036865,-0.06955910474061966,-0.8395493030548096
1772708063898368000,3.836367919921875,-0.20410199463367462,-0.22338807582855225,-0.5895636677742004
1772708063908394000,3.84639404296875,-0.09991807490587234,-0.39813166856765747,-0.3192507028579712
1772708063918419700,3.856419677734375,-0.018912438303232193,-0.5348926782608032,-0.07899974286556244
1772708063928446000,3.866446044921875,0.05928409472107887,-0.6097714900970459,0.11021359264850616
1772708063938472000,3.876471923828125,0.13900874555110931,-0.7327136397361755,0.20699605345726013
1772708063948498000,3.886497802734375,0.11844462156295776,-0.9241917133331299,0.23446044325828552
1772708063958524000,3.89652392578125,-0.017718542367219925,-1.1161646842956543,0.19041575491428375
1772708063968550000,3.9065498046875,-0.1935524195432663,-1.2545092105865479,0.037529800087213516
1772708063978576000,3.916575927734375,-0.2812279462814331,-1.1855822801589966,-0.15006273984909058
1772708063988601900,3.926601806640625,-0.2595924139022827,-0.8290899991989136,-0.3273831903934479
1772708063998628400,3.93662841796875,-0.29815927147865295,-0.19813172519207,-0.41082215309143066
1772708064008654300,3.946654296875,-0.47136858105659485,0.5127516984939575,-0.30873146653175354
1772708064018680300,3.956680419921875,-0.5758451819419861,1.453165054321289,0.3383048176765442
1772708064028705300,3.966705322265625,-0.3495803773403168,2.31207537651062,1.1079282760620117
1772708064038731300,3.976731201171875,-0.5703252553939819,2.2002546787261963,0.8178314566612244
1772708064048757200,3.98675732421875,-1.4883477687835693,0.931805431842804,-0.5608050227165222
1772708064058783200,3.996783203125,-2.525092363357544,-0.9139736890792847,-2.437424659729004
1772708064068809200,4.006809326171875,-2.9153482913970947,-1.1919512748718262,-3.543443441390991
1772708064078835200,4.016835205078125,-2.537421464920044,0.4815565049648285,-3.3577311038970947
1772708064088861200,4.026861083984375,-1.630203127861023,3.258800506591797,-1.8705776929855347
1772708064098887200,4.03688720703125,-0.5056906342506409,4.320061206817627,-0.3141757845878601
1772708064108913200,4.0469130859375,0.5184277296066284,2.995772361755371,0.8383095860481262
1772708064118939400,4.056939453125,1.089835524559021,0.61866694688797,1.6614582538604736
1772708064128965400,4.06696533203125,1.380784273147583,-1.620972990989685,2.1780669689178467
1772708064138991400,4.076991455078125,1.4985761642456055,-3.2507970333099365,2.070868492126465
1772708064149017300,4.087017333984375,1.6355191469192505,-3.8788819313049316,1.6234205961227417
1772708064159043300,4.097043212890625,1.4980685710906982,-3.444934606552124,0.980141818523407
1772708064169069300,4.1070693359375,1.1408809423446655,-2.2521119117736816,0.2450592815876007
1772708064179095300,4.11709521484375,0.5887375473976135,-0.7345392107963562,-0.5699124932289124
1772708064189121300,4.127121337890625,-0.08130497485399246,0.38980209827423096,-1.407300591468811
1772708064199147300,4.137147216796875,-0.4920344650745392,0.7851930856704712,-2.083735704421997
1772708064209173200,4.14717333984375,-0.6418644189834595,0.7143053412437439,-2.466881275177002
1772708064219199200,4.15719921875,-0.46579113602638245,0.5317083597183228,-2.6434080600738525
1772708064229225500,4.1672255859375,-0.1407400667667389,0.48327717185020447,-2.5251805782318115
1772708064239250200,4.177250244140625,0.2625517249107361,0.4359424114227295,-2.1402323246002197
1772708064249276400,4.1872763671875,0.5237569808959961,0.4221611022949219,-1.611515998840332
1772708064259302400,4.197302490234375,0.5849944949150085,0.3718806207180023,-0.8567426204681396
1772708064269328400,4.207328369140625,0.46310001611709595,0.01679549179971218,0.03849839046597481
1772708064279354400,4.217354248046875,0.2598382234573364,-0.44782623648643494,0.8228651285171509
1772708064289380400,4.22738037109375,0.10764044523239136,-0.823602020740509,1.357239842414856
1772708064299406300,4.23740625,0.04102626442909241,-1.0525723695755005,1.627853512763977
1772708064309432300,4.247432373046875,0.06178773194551468,-1.2068727016448975,1.6456106901168823
1772708064319458300,4.257458251953125,0.19226105511188507,-1.1806831359863281,1.5328567028045654
1772708064329484300,4.267484375,0.4252767264842987,-0.8716353178024292,1.4154090881347656
1772708064339510300,4.27751025390625,0.6711999177932739,-0.4182529151439667,1.3233643770217896
1772708064349536300,4.287536376953125,0.814720630645752,-0.00788588635623455,1.2466315031051636
1772708064359562500,4.2975625,0.8366714715957642,0.2844727337360382,1.2018342018127441
1772708064369588500,4.30758837890625,0.802238941192627,0.40063637495040894,1.1639374494552612
1772708064379614500,4.317614501953125,0.6999596953392029,0.15304973721504211,1.1170059442520142
1772708064389640400,4.327640380859375,0.4816851317882538,-0.5106491446495056,0.9810723066329956
1772708064399666400,4.33766650390625,0.18473203480243683,-1.3832069635391235,0.7343107461929321
1772708064409692200,4.347692138671875,-0.08315933495759964,-1.9503593444824219,0.23932470381259918
1772708064419718100,4.35771826171875,-0.32258498668670654,-1.9226653575897217,-0.4752826392650604
1772708064429743400,4.367743408203125,-0.4673781096935272,-1.4820643663406372,-1.2292016744613647
1772708064439769300,4.377769287109375,-0.5105292797088623,-0.6834928393363953,-1.991963267326355
1772708064449795300,4.38779541015625,-0.6004354953765869,0.3202342092990875,-2.548133373260498
1772708064459821300,4.3978212890625,-0.6326776146888733,0.9755526781082153,-2.780231237411499
1772708064469847300,4.407847412109375,-0.5814074873924255,1.15444815158844,-2.7094290256500244
1772708064479873300,4.417873291015625,-0.5752057433128357,1.014593243598938,-2.356379985809326
1772708064489899500,4.4278994140625,-0.5871955752372742,0.6703115105628967,-1.8052266836166382
1772708064499925200,4.43792529296875,-0.63614422082901,0.1590474396944046,-1.1343414783477783
1772708064509951200,4.447951171875,-0.673438310623169,-0.4148879945278168,-0.3770782947540283
1772708064519977200,4.457977294921875,-0.5565087795257568,-0.8492919206619263,0.4652310609817505
1772708064530003200,4.468003173828125,-0.2503105103969574,-0.9778373837471008,1.303296446800232
1772708064540029200,4.478029296875,0.1346835047006607,-0.7159777879714966,2.073256731033325
1772708064550055200,4.48805517578125,0.44585177302360535,-0.29221534729003906,2.6724140644073486
1772708064560081200,4.4980810546875,0.6409709453582764,0.056534383445978165,3.1164984703063965
1772708064570107100,4.508107177734375,0.7056897282600403,0.2383662313222885,3.3991620540618896
1772708064580133000,4.518133056640625,0.6259278059005737,0.2099071592092514,3.4743361473083496
1772708064590159000,4.5281591796875,0.38340145349502563,0.008360727690160275,3.3185794353485107
1772708064600185300,4.538185302734375,0.0151592455804348,-0.039388153702020645,3.0479846000671387
1772708064610211300,4.54821142578125,-0.3651188611984253,0.17241917550563812,2.7404446601867676
1772708064620236300,4.558236328125,-0.6803987622261047,0.5941030383110046,2.286267042160034
1772708064630262300,4.56826220703125,-0.8164266347885132,1.1884976625442505,1.6468173265457153
1772708064640288300,4.578288330078125,-0.8157321214675903,1.9807641506195068,1.1038272380828857
1772708064650314200,4.588314208984375,-0.6516541838645935,2.6410508155822754,0.8263242840766907
1772708064660340200,4.59834033203125,-0.5289607644081116,2.1306235790252686,0.17539659142494202
1772708064670366200,4.6083662109375,-0.9660356044769287,-0.20889675617218018,-1.5431015491485596
1772708064680392200,4.61839208984375,-1.4739811420440674,-4.155105113983154,-3.85612416267395
1772708064690418200,4.628418212890625,-1.8773671388626099,-8.346395492553711,-6.456040859222412
1772708064700444200,4.638444091796875,-2.1572866439819336,-9.293133735656738,-7.964890480041504
1772708064710470100,4.64847021484375,-1.5479106903076172,-6.380669593811035,-7.583004951477051
1772708064720496000,4.65849609375,-0.13808304071426392,-2.154081106185913,-6.158312797546387
1772708064730522400,4.6685224609375,0.7025365829467773,1.4302303791046143,-4.395834922790527
1772708064740548400,4.67854833984375,0.7784334421157837,2.8743398189544678,-2.5337719917297363
1772708064750574300,4.68857421875,0.6234015226364136,1.9460642337799072,-0.9559432864189148
1772708064760600300,4.698600341796875,0.44591090083122253,-0.48469078540802,0.09812124073505402
1772708064770626300,4.708626220703125,0.36733272671699524,-2.5447330474853516,0.6883701682090759
1772708064780652300,4.71865234375,0.32969534397125244,-3.205156087875366,0.8654088377952576
1772708064790678300,4.72867822265625,0.48293575644493103,-3.0192315578460693,0.7879542708396912
1772708064800703200,4.738703125,0.7186720967292786,-2.447519302368164,0.5631930232048035
1772708064810729200,4.748729248046875,0.8468971848487854,-1.6870219707489014,0.3441200852394104
1772708064820755200,4.758755126953125,0.7309303879737854,-0.5877372622489929,0.12838833034038544
1772708064830781200,4.76878125,0.3883914053440094,0.6882622838020325,0.09547299146652222
1772708064840807200,4.77880712890625,-0.006066414527595043,1.5865066051483154,0.2775719463825226
1772708064850833200,4.788833251953125,-0.28317978978157043,1.9955947399139404,0.5186511278152466
1772708064860859400,4.798859375,-0.39590099453926086,2.127227783203125,0.8219018578529358
1772708064870885400,4.808885498046875,-0.3873695731163025,2.0629656314849854,1.1101703643798828
1772708064880911400,4.818911376953125,-0.23843175172805786,1.867860198020935,1.3690067529678345
1772708064890937300,4.828937255859375,0.03706028312444687,1.5763870477676392,1.5241034030914307
1772708064900963300,4.83896337890625,0.35626304149627686,1.3251186609268188,1.4709386825561523
1772708064910989300,4.8489892578125,0.5905271768569946,1.309657335281372,1.2427420616149902
1772708064921015300,4.859015380859375,0.7544863224029541,1.5765087604522705,1.028773546218872
1772708064931041300,4.869041259765625,0.8867356777191162,1.9293488264083862,0.922163188457489
1772708064941067300,4.8790673828125,0.9010219573974609,2.1300179958343506,0.9007402062416077
1772708064951093200,4.88909326171875,0.7445793747901917,2.136927604675293,0.9662497043609619
1772708064961119200,4.899119140625,0.5297765135765076,1.985916018486023,1.1376179456710815
1772708064971145500,4.9091455078125,0.4248325228691101,1.6822013854980469,1.3616441488265991
1772708064981170200,4.919170166015625,0.4688018262386322,1.2884578704833984,1.5081305503845215
1772708064991196400,4.929196533203125,0.6024262309074402,0.9961575269699097,1.5360287427902222
1772708065001221600,4.9392216796875,0.7948992252349854,0.7685192823410034,1.4471582174301147
1772708065011247600,4.94924755859375,0.9793897271156311,0.568449079990387,1.264818787574768
1772708065021273600,4.959273681640625,1.0978103876113892,0.3795097768306732,1.0088824033737183
1772708065031299600,4.969299560546875,1.1386278867721558,0.26368382573127747,0.7841722965240479
1772708065041325600,4.97932568359375,1.1030677556991577,0.1692364364862442,0.6503173112869263
1772708065051351600,4.9893515625,1.0239430665969849,0.06125536933541298,0.5531971454620361
1772708065061377800,4.999377685546875,0.909541666507721,0.03416196629405022,0.4350145757198334
1772708065071403800,5.00940380859375,0.768462061882019,0.05999729037284851,0.2693249583244324
1772708065081429800,5.0194296875,0.6595363616943359,0.05543183162808418,0.08425362408161163
1772708065091455700,5.029455810546875,0.5720152854919434,0.033477798104286194,-0.0860254317522049
1772708065101481700,5.039481689453125,0.45686954259872437,-0.026188727468252182,-0.25220853090286255
1772708065111507700,5.0495078125,0.3088041841983795,-0.03201518952846527,-0.37176981568336487
1772708065121533700,5.05953369140625,0.20487165451049805,0.13127866387367249,-0.4243278503417969
1772708065131559700,5.0695595703125,0.12978169322013855,0.3806418776512146,-0.48553767800331116
1772708065141585700,5.079585693359375,0.07690756767988205,0.7068647146224976,-0.5162338018417358
1772708065151610600,5.089610595703125,0.09697075188159943,1.0716201066970825,-0.47756069898605347
1772708065161636600,5.09963671875,0.17026866972446442,1.3763033151626587,-0.40707242488861084
1772708065171662600,5.10966259765625,0.2649371325969696,1.5583209991455078,-0.3058091998100281
1772708065181688600,5.1196884765625,0.34744396805763245,1.5797306299209595,-0.18391577899456024
1772708065191714800,5.12971484375,0.36640968918800354,1.3409769535064697,-0.06478512287139893
1772708065201740800,5.13974072265625,0.3572041988372803,0.8452457785606384,0.027696609497070312
1772708065211766800,5.149766845703125,0.3398022949695587,0.27320730686187744,0.16610188782215118
1772708065221792800,5.159792724609375,0.315607488155365,-0.040111467242240906,0.31469881534576416
1772708065231818800,5.16981884765625,0.3349103331565857,0.17518992722034454,0.5420997738838196
1772708065241844700,5.1798447265625,0.36925581097602844,1.0657161474227905,0.9034374356269836
1772708065251870700,5.18987060546875,0.4071912169456482,2.4696691036224365,1.3791254758834839
1772708065261896700,5.199896728515625,0.561497688293457,3.4653842449188232,1.725988507270813
1772708065271922700,5.209922607421875,0.08398917317390442,2.8508307933807373,1.1335785388946533
1772708065281948700,5.21994873046875,-1.099097728729248,0.2873156666755676,-0.5535670518875122
1772708065291974700,5.229974609375,-2.2921741008758545,-3.127504348754883,-2.8525843620300293
1772708065302000600,5.240000732421875,-2.966201066970825,-4.441263198852539,-4.314093112945557
1772708065312026600,5.250026611328125,-2.8585798740386963,-2.5803568363189697,-4.026664733886719
1772708065322051800,5.2600517578125,-1.8195956945419312,0.598483681678772,-2.690901041030884
1772708065332077800,5.270077880859375,-0.4431518614292145,2.6285815238952637,-1.2629122734069824
1772708065342729500,5.2807294921875,0.4042356312274933,2.3404970169067383,-0.29481247067451477
1772708065352755500,5.29075537109375,0.6117283701896667,0.5756428241729736,0.2891010344028473
1772708065362780700,5.30078076171875,0.47529035806655884,-0.9529386758804321,0.8498775362968445
1772708065372806700,5.310806640625,0.23665115237236023,-1.7982821464538574,0.9123278856277466
1772708065382832600,5.32083251953125,0.08471062779426575,-1.8225140571594238,0.4646798074245453
1772708065392858600,5.330858642578125,-0.05403047800064087,-1.2389177083969116,-0.2662026584148407
1772708065402884600,5.340884521484375,-0.4235808253288269,-0.5359121561050415,-1.1225959062576294
1772708065412910600,5.35091064453125,-0.9893060326576233,0.15315254032611847,-1.9336442947387695
1772708065422936600,5.3609365234375,-1.5587348937988281,0.7055153250694275,-2.5562803745269775
1772708065432962600,5.370962646484375,-2.023425579071045,1.1050184965133667,-2.9713528156280518
1772708065442988500,5.380988525390625,-2.1780107021331787,1.2633122205734253,-3.1257827281951904
1772708065453014500,5.3910146484375,-1.9131816625595093,0.975963830947876,-3.075087785720825
1772708065463040500,5.40104052734375,-1.3965845108032227,0.2567835748195648,-2.751847505569458
1772708065473066500,5.41106640625,-0.6983168125152588,-1.0817962884902954,-1.9550763368606567
1772708065483092500,5.421092529296875,-0.004061054438352585,-2.570345163345337,-0.6718984842300415
1772708065493118700,5.43111865234375,0.4670984745025635,-3.6844072341918945,0.9401645660400391
1772708065503144700,5.441144775390625,0.710853636264801,-4.191401481628418,2.504246234893799
1772708065513170700,5.451170654296875,0.7630758285522461,-4.049959182739258,3.6734018325805664
1772708065523195600,5.461195556640625,0.7136054635047913,-3.4279215335845947,4.3160576820373535
1772708065533221600,5.4712216796875,0.7029591798782349,-2.5562779903411865,4.411818027496338
1772708065543247600,5.48124755859375,0.7472302913665771,-1.7064251899719238,3.9674971103668213
1772708065553273600,5.491273681640625,0.8294971585273743,-0.9945279359817505,3.1310505867004395
1772708065563299600,5.501299560546875,0.897650420665741,-0.4028310775756836,2.17368483543396
1772708065573325600,5.51132568359375,0.885466456413269,-0.05891285091638565,1.2114930152893066
1772708065583351600,5.5213515625,0.8097594380378723,0.20134642720222473,0.49006345868110657
1772708065593377500,5.53137744140625,0.7546178698539734,0.5524618625640869,0.23700669407844543
1772708065603403500,5.541403564453125,0.7139798998832703,0.9098585844039917,0.2585870921611786
1772708065613429500,5.551429443359375,0.6999524831771851,1.132035255432129,0.3524504601955414
1772708065623455700,5.561455810546875,0.6776536107063293,1.2015546560287476,0.5066067576408386
1772708065633481700,5.571481689453125,0.6560375094413757,1.0801045894622803,0.6947503089904785
1772708065643507700,5.5815078125,0.6412196755409241,0.8532901406288147,0.8550336956977844
1772708065653533700,5.59153369140625,0.5916928648948669,0.5583988428115845,0.9060587882995605
1772708065663559700,5.6015595703125,0.4906056821346283,0.21865005791187286,0.7914003729820251
1772708065673584600,5.611584716796875,0.3846456706523895,-0.10737652331590652,0.5431407690048218
1772708065693011700,5.63101171875,0.18202705681324005,-0.4272083342075348,-0.11547226458787918
1772708065703037700,5.64103759765625,0.18015405535697937,-0.366188108921051,-0.5028721690177917
1772708065713063700,5.651063720703125,0.1671929806470871,-0.18206354975700378,-0.8543524742126465
1772708065723089700,5.661089599609375,0.08630559593439102,0.07134342193603516,-1.1071546077728271
1772708065733115600,5.67111572265625,0.0028871328104287386,0.28461068868637085,-1.2046928405761719
1772708065743141600,5.6811416015625,-0.016269518062472343,0.4517173767089844,-1.0864977836608887
1772708065753166600,5.69116650390625,-0.005873868241906166,0.5767677426338196,-0.7964345812797546
1772708065763192600,5.701192626953125,0.0010452907299622893,0.6806206107139587,-0.39478567242622375
1772708065773218600,5.711218505859375,0.00021411814668681473,0.868133008480072,0.12880192697048187
1772708065783244500,5.72124462890625,0.017785921692848206,0.9812347888946533,0.7099225521087646
1772708065793270500,5.7312705078125,0.016208797693252563,0.9730231761932373,1.2397725582122803
1772708065803296500,5.741296630859375,-0.0030573089607059956,0.8683231472969055,1.678369402885437
1772708065813322800,5.75132275390625,0.00950641930103302,0.7484670281410217,2.0054867267608643
1772708065823348700,5.7613486328125,0.04560903087258339,0.6420639157295227,2.189812660217285
1772708065833374700,5.771374755859375,0.05254070460796356,0.5891724824905396,2.222445011138916
1772708065843400700,5.781400634765625,-0.011966381222009659,0.48672598600387573,2.0644054412841797
1772708065853426700,5.7914267578125,-0.13854455947875977,0.3203471302986145,1.664319634437561
1772708065863452700,5.80145263671875,-0.30587443709373474,0.23703810572624207,1.0884672403335571
1772708065873478700,5.811478759765625,-0.41703131794929504,0.3673039674758911,0.5835018157958984
1772708065883504600,5.821504638671875,-0.3338291049003601,0.8856560587882996,0.44321686029434204
1772708065893530600,5.831530517578125,-0.030312364920973778,1.8031467199325562,0.6996662020683289
1772708065903556600,5.841556640625,0.2012939602136612,2.143747091293335,0.6481923460960388
1772708065913581600,5.85158154296875,-0.1719464659690857,0.6606892347335815,-0.27670350670814514
1772708065923607600,5.861607666015625,-0.9136842489242554,-2.275697708129883,-1.656164526939392
1772708065933633500,5.871633544921875,-1.4697376489639282,-5.12002420425415,-3.2476890087127686
1772708065943659800,5.88165966796875,-1.5123404264450073,-5.687678813934326,-4.442108631134033
1772708065953685800,5.891685791015625,-0.890852153301239,-3.181515693664551,-4.410682678222656
1772708065963711700,5.901711669921875,-0.006156429648399353,0.6538259983062744,-2.9974758625030518
1772708065973737700,5.91173779296875,1.078330159187317,2.6950771808624268,-1.4807699918746948
1772708065983763700,5.921763671875,1.6865838766098022,2.2666046619415283,-0.4324270486831665
1772708065993789700,5.931789794921875,1.5660427808761597,0.5371497273445129,0.4107007086277008
1772708066003816000,5.94181591796875,0.8711423277854919,-1.4876772165298462,0.6903608441352844
1772708066013842000,5.951842041015625,0.16319824755191803,-2.592531442642212,0.2168755829334259
1772708066023868000,5.961867919921875,-0.11482059210538864,-2.411440372467041,-0.49060460925102234
1772708066033894000,5.971893798828125,0.02636662684381008,-1.638258695602417,-1.2209943532943726
1772708066043920000,5.981919921875,0.16320917010307312,-0.7225803136825562,-1.841945767402649
1772708066053945900,5.99194580078125,0.15335999429225922,-0.11897299438714981,-2.1589698791503906
1772708066063971800,6.001971923828125,-0.04153093323111534,0.09230329841375351,-2.020738124847412
1772708066073997800,6.011997802734375,-0.3028469681739807,-0.027215640991926193,-1.6585594415664673
1772708066084022800,6.022022705078125,-0.5780143141746521,-0.2858565151691437,-1.3205196857452393
1772708066094048800,6.032048828125,-0.7700173258781433,-0.42090168595314026,-0.969230592250824
1772708066104074800,6.04207470703125,-0.7894389629364014,-0.2246653288602829,-0.5640303492546082
1772708066114100700,6.052100830078125,-0.6934804916381836,0.29778242111206055,-0.19293271005153656
1772708066124126700,6.062126708984375,-0.5161629319190979,0.9166752099990845,0.18831637501716614
1772708066134153000,6.072153076171875,-0.3120758831501007,1.3519026041030884,0.5145900845527649
1772708066144179000,6.082178955078125,-0.13610617816448212,1.5129942893981934,0.7555433511734009
1772708066154205000,6.092204833984375,-0.008489091880619526,1.4429680109024048,0.9442104697227478
1772708066164231000,6.10223095703125,0.09412117302417755,1.131301999092102,1.0722304582595825
1772708066174257000,6.1122568359375,0.17030754685401917,0.6402140855789185,1.1305313110351562
1772708066184283000,6.122282958984375,0.18120867013931274,0.12941817939281464,1.1211870908737183
1772708066194308900,6.132308837890625,0.14976099133491516,-0.24526141583919525,1.0867995023727417
1772708066204334800,6.1423349609375,0.11408849060535431,-0.44276943802833557,1.0757328271865845
1772708066214360800,6.15236083984375,0.10831023007631302,-0.47691115736961365,1.079500675201416
1772708066224386800,6.16238671875,0.10489445924758911,-0.3684600591659546,1.112760066986084
1772708066234412800,6.172412841796875,0.11236196011304855,-0.20817823708057404,1.1668275594711304
1772708066244437800,6.182437744140625,0.14637719094753265,-0.04752277955412865,1.237457275390625
1772708066254463700,6.192463623046875,0.185150146484375,0.08815009891986847,1.263100028038025
1772708066264490000,6.202489990234375,0.20963898301124573,0.15964505076408386,1.1741714477539062
1772708066274516000,6.212515869140625,0.22833436727523804,0.15367531776428223,0.9737803339958191
1772708066284542000,6.2225419921875,0.22948779165744781,0.09271768480539322,0.6698105931282043
1772708066294568000,6.23256787109375,0.18639729917049408,0.028557607904076576,0.30752745270729065
1772708066304594000,6.242593994140625,0.09048089385032654,-0.10885031521320343,-0.042686209082603455
1772708066314620000,6.252619873046875,-0.06402212381362915,-0.3704153299331665,-0.37090376019477844
1772708066324645600,6.262645751953125,-0.18375837802886963,-0.6330288648605347,-0.664234459400177
1772708066334671600,6.272671630859375,-0.2346644401550293,-0.7697912454605103,-0.9355099201202393
1772708066344697600,6.282697509765625,-0.23025637865066528,-0.7691611051559448,-1.1427507400512695
1772708066354723600,6.2927236328125,-0.19108474254608154,-0.6253240704536438,-1.2364341020584106
1772708066364749800,6.302749755859375,-0.11259792000055313,-0.36226686835289,-1.1965547800064087
1772708066374775800,6.31277587890625,-0.014822888188064098,-0.041554901748895645,-1.0229792594909668
1772708066384801800,6.3228017578125,0.056837983429431915,0.20945975184440613,-0.7258051633834839
1772708066394827800,6.332827880859375,0.0893288105726242,0.3949284255504608,-0.3133496642112732
1772708066404853000,6.34285302734375,0.1264607310295105,0.5297970175743103,0.20269931852817535
1772708066414878700,6.352878662109375,0.17093952000141144,0.5824424028396606,0.753516674041748
1772708066424904700,6.36290478515625,0.2073715627193451,0.5168998837471008,1.2471847534179688
1772708066434930700,6.3729306640625,0.25014644861221313,0.34307214617729187,1.6155797243118286
1772708066444956700,6.382956787109375,0.26805809140205383,0.18986207246780396,1.8435535430908203
1772708066454982700,6.392982666015625,0.2289985567331314,0.13230983912944794,1.9565114974975586
1772708066465008600,6.403008544921875,0.16564622521400452,0.21087361872196198,1.9318701028823853
1772708066475034600,6.41303466796875,0.1149233877658844,0.5126404166221619,1.7662153244018555
1772708066485060600,6.423060546875,0.1017223671078682,1.062096118927002,1.5919662714004517
1772708066495086800,6.4330869140625,0.3406555950641632,1.775140404701233,1.6317307949066162
1772708066505112800,6.44311279296875,0.5919709205627441,2.2564704418182373,1.515798807144165
1772708066515138800,6.453138916015625,-0.0461677610874176,1.9454032182693481,0.5211430788040161
1772708066525164800,6.463164794921875,-1.4085618257522583,0.5990362763404846,-1.421657681465149
1772708066535190800,6.473190673828125,-2.480236291885376,-0.969464123249054,-3.9836177825927734
1772708066545216800,6.483216796875,-2.560199022293091,-0.9048976302146912,-5.466095447540283
1772708066555241700,6.49324169921875,-2.1135900020599365,1.1520971059799194,-5.625784397125244
1772708066565267700,6.503267822265625,-0.7384530305862427,3.8643741607666016,-4.291985988616943
1772708066575293700,6.513293701171875,0.7439905405044556,4.768679618835449,-2.38127064704895
1772708066585319700,6.523319580078125,1.4777427911758423,3.1498405933380127,-0.9855917096138
1772708066595345700,6.533345703125,1.6483789682388306,0.5610648989677429,0.03947710245847702
1772708066605371600,6.54337158203125,1.3336386680603027,-1.7134407758712769,0.8539894819259644
1772708066615397600,6.553397705078125,0.9759691953659058,-2.9634127616882324,1.0942896604537964
1772708066625424000,6.563423828125,0.6805351376533508,-2.9701035022735596,0.6415451169013977
1772708066635449900,6.573449951171875,0.4924917221069336,-2.234879970550537,-0.3078784644603729
1772708066645475800,6.583475830078125,0.3270697295665741,-1.2397041320800781,-1.500475525856018
1772708066655501800,6.593501708984375,0.026255838572978973,-0.3024866282939911,-2.5885965824127197
1772708066665527800,6.60352783203125,-0.4185090959072113,0.24598686397075653,-3.2186477184295654
1772708066675553800,6.6135537109375,-0.9129981994628906,0.20077411830425262,-3.5474424362182617
1772708066685579800,6.623579833984375,-1.2829948663711548,-0.0519939586520195,-3.3480775356292725
1772708066695605800,6.633605712890625,-1.4790937900543213,-0.452564537525177,-2.8790204524993896
1772708066705630700,6.643630615234375,-1.3550586700439453,-0.7958649396896362,-2.2950081825256348
1772708066715656700,6.65365673828125,-0.9235429763793945,-1.1364156007766724,-1.6018972396850586
1772708066725682700,6.6636826171875,-0.3483835458755493,-1.4333652257919312,-0.900355875492096
1772708066735708700,6.673708740234375,0.2237342894077301,-1.5294299125671387,-0.23197464644908905
1772708066745734700,6.683734619140625,0.6984710097312927,-1.3987526893615723,0.492764949798584
1772708066755761000,6.693760986328125,1.0473743677139282,-1.1521857976913452,1.2410359382629395
1772708066765787000,6.703786865234375,1.2465202808380127,-0.8778705596923828,1.9183423519134521
1772708066775812900,6.713812744140625,1.2786800861358643,-0.567406952381134,2.531583070755005
1772708066785838800,6.7238388671875,1.2466238737106323,-0.3562425374984741,3.013868808746338
1772708066795864800,6.73386474609375,1.229638934135437,-0.22308555245399475,3.3320930004119873
1772708066805890800,6.743890869140625,1.2290786504745483,-0.14042875170707703,3.457710027694702
1772708066815916800,6.753916748046875,1.1528456211090088,-0.06839024275541306,3.3081507682800293
1772708066825942800,6.76394287109375,0.9873768091201782,0.04917100816965103,2.92840576171875
1772708066835968800,6.77396875,0.766296923160553,0.15462899208068848,2.414691686630249
1772708066845994800,6.783994873046875,0.5359920859336853,0.28050702810287476,1.8875724077224731
1772708066856019700,6.794019775390625,0.3487268388271332,0.5367414951324463,1.4464173316955566
1772708066866045700,6.804045654296875,0.2021206021308899,0.895868718624115,1.0910602807998657
1772708066876071700,6.81407177734375,0.12879154086112976,1.255038857460022,0.8170876502990723
1772708066886098000,6.824097900390625,0.12865011394023895,1.5663528442382812,0.645106852054596
1772708066896124000,6.8341240234375,0.1824457049369812,1.779632568359375,0.5991454720497131
1772708066906150000,6.84414990234375,0.2568829357624054,1.8615858554840088,0.652126133441925
1772708066916176000,6.85417578125,0.2883814573287964,1.7846691608428955,0.738501250743866
1772708066926201900,6.864201904296875,0.2119133174419403,1.4980688095092773,0.8220778703689575
1772708066936227800,6.874227783203125,0.005665342323482037,1.039772629737854,0.8950521945953369
1772708066946253800,6.88425390625,-0.2080189734697342,0.5568214654922485,0.9703530669212341
1772708066956279800,6.89427978515625,-0.3678581714630127,0.16995388269424438,1.005224585533142
1772708066966305800,6.904305908203125,-0.47058242559432983,-0.1348198652267456,0.9230902194976807
1772708066976331800,6.914331787109375,-0.515859067440033,-0.32673898339271545,0.7121843695640564
1772708066986356700,6.924356689453125,-0.5268427729606628,-0.3980797231197357,0.46313169598579407
1772708066996382700,6.9343828125,-0.4839770495891571,-0.4100692868232727,0.2605905830860138
1772708067006408700,6.94440869140625,-0.3765893578529358,-0.33765366673469543,0.14257125556468964
1772708067016434700,6.9544345703125,-0.2606390416622162,-0.18956007063388824,0.12600161135196686
1772708067026460700,6.964460693359375,-0.17036373913288116,-0.04057565703988075,0.20596860349178314
1772708067036486700,6.974486572265625,-0.12150140106678009,0.027760790660977364,0.32291626930236816
1772708067046512600,6.9845126953125,-0.12057914584875107,0.04283534735441208,0.4483194649219513
1772708067056538600,6.99453857421875,-0.1196044310927391,-0.023036610335111618,0.5912723541259766
1772708067066564600,7.004564697265625,-0.13717836141586304,-0.13906706869602203,0.688971221446991
1772708067076590800,7.0145908203125,-0.16132470965385437,-0.29900720715522766,0.7404916882514954
1772708067086616800,7.024616943359375,-0.21236951649188995,-0.45950448513031006,0.7066593766212463
1772708067096642800,7.034642822265625,-0.27795279026031494,-0.5539012551307678,0.5873526930809021
1772708067106668800,7.044668701171875,-0.3208235502243042,-0.5587290525436401,0.40480315685272217
1772708067116694800,7.05469482421875,-0.3477252125740051,-0.4126461446285248,0.21230053901672363
1772708067126720800,7.064720703125,-0.2912597954273224,-0.010421748273074627,0.11205542832612991
1772708067136745700,7.074745849609375,-0.06107667088508606,0.849243700504303,0.2898043990135193
1772708067146771700,7.084771728515625,0.2819749712944031,1.9424140453338623,0.5894883275032043
1772708067156797700,7.094797607421875,0.2950526773929596,2.3618392944335938,0.2971552312374115
1772708067166823700,7.10482373046875,-0.6104521751403809,1.3156399726867676,-1.1185261011123657
1772708067176849700,7.114849609375,-2.3746910095214844,-1.3268259763717651,-3.2707130908966064
1772708067186875600,7.124875732421875,-3.8936684131622314,-3.9157044887542725,-5.467041492462158
1772708067196901600,7.134901611328125,-4.003040313720703,-3.432994842529297,-6.635840892791748
1772708067206928000,7.144927978515625,-3.103548526763916,-0.10562789440155029,-6.37061882019043
1772708067216953900,7.154953857421875,-1.340413212776184,3.4185640811920166,-4.9830427169799805
1772708067226979800,7.164979736328125,0.46647876501083374,5.243968486785889,-3.1362719535827637
1772708067237005800,7.175005859375,1.6213034391403198,4.601180076599121,-1.4014464616775513
1772708067247031800,7.18503173828125,2.1397111415863037,2.0639266967773438,0.14276248216629028
1772708067257056800,7.195056884765625,2.2439024448394775,-0.6861661076545715,1.6751941442489624
1772708067267082800,7.205082763671875,2.198920249938965,-2.654157876968384,3.035116672515869
1772708067277108700,7.215108642578125,2.1727280616760254,-3.641289472579956,3.898756265640259
1772708067287134700,7.225134765625,2.1757214069366455,-3.785632610321045,4.186362266540527
1772708067297160700,7.23516064453125,2.0885708332061768,-3.425861120223999,3.9715659618377686
1772708067307186700,7.245186767578125,1.7469955682754517,-2.895212411880493,3.4039018154144287
1772708067317212700,7.255212646484375,1.144095540046692,-2.512202262878418,2.700970411300659
1772708067327238700,7.26523876953125,0.44155582785606384,-2.138477325439453,1.9705601930618286
1772708067337265000,7.275264892578125,-0.1985597014427185,-1.9275155067443848,1.3037611246109009
1772708067347291000,7.285290771484375,-0.7211571335792542,-1.7588106393814087,0.6277139782905579
1772708067357316600,7.295316650390625,-1.0495078563690186,-1.519525170326233,0.13671816885471344
1772708067367342600,7.305342529296875,-1.1780892610549927,-1.1579922437667847,-0.15269820392131805
1772708067377368600,7.31536865234375,-1.136825680732727,-0.7296816110610962,-0.3205399215221405
1772708067387394600,7.32539453125,-0.9639719128608704,-0.34171152114868164,-0.41538310050964355
1772708067397419800,7.335419677734375,-0.6874260306358337,-0.011756790801882744,-0.4068966507911682
1772708067407445800,7.34544580078125,-0.39519447088241577,0.2786625325679779,-0.33814290165901184
1772708067417471700,7.3554716796875,-0.13209597766399384,0.49590083956718445,-0.2304140329360962
1772708067427497700,7.365497802734375,0.0619797483086586,0.6627806425094604,-0.08766460418701172
1772708067437523700,7.375523681640625,0.10039930790662766,0.7950060367584229,0.04282602667808533
1772708067447549700,7.3855498046875,0.025019599124789238,1.0375111103057861,0.1738000214099884
1772708067457575700,7.39557568359375,0.00974690355360508,1.3243976831436157,0.2976934611797333
1772708067467601700,7.4056015625,0.11670424789190292,1.4755460023880005,0.410348117351532
1772708067477627600,7.415627685546875,0.2574291527271271,1.8442842960357666,0.5837801098823547
1772708067487653600,7.425653564453125,0.4612184762954712,2.2467129230499268,0.7247044444084167
1772708067497679600,7.4356796875,0.8028738498687744,2.0882933139801025,0.6418023705482483
1772708067507705600,7.44570556640625,1.1826773881912231,1.611878514289856,0.4186049699783325
1772708067517731600,7.455731689453125,1.5257515907287598,1.160040259361267,0.17158906161785126
1772708067527756800,7.4657568359375,1.7555198669433594,0.8658019304275513,0.02424142323434353
1772708067537782800,7.47578271484375,1.8347874879837036,0.721987783908844,0.09113577008247375
1772708067547808800,7.485808837890625,1.703460931777954,0.7763287425041199,0.4728469252586365
1772708067557834800,7.495834716796875,1.4818997383117676,0.4948744475841522,0.901084303855896
1772708067567860500,7.505860595703125,1.188450574874878,-0.08736766129732132,1.3461072444915771
1772708067577886500,7.515886474609375,0.8308172821998596,-0.6252627968788147,1.8051656484603882
1772708067587912400,7.525912353515625,0.42104098200798035,-0.8249298334121704,2.276195526123047
1772708067597938700,7.535938720703125,-0.026632942259311676,-0.6463590264320374,2.7402822971343994
1772708067607964700,7.545964599609375,-0.478415310382843,-0.24086028337478638,3.1622238159179688
1772708067617990700,7.55599072265625,-0.8651031255722046,-0.009617473930120468,3.5103118419647217
1772708067628016600,7.5660166015625,-1.1308610439300537,-0.7034478783607483,3.281231641769409
1772708067638042600,7.576042724609375,-1.203468918800354,-1.9496251344680786,2.5423953533172607
1772708067648067800,7.58606787109375,-0.9953157305717468,-2.382768392562866,1.8146454095840454
1772708067658093600,7.596093505859375,-0.6605475544929504,-2.058035373687744,1.4835439920425415
1772708067668119600,7.60611962890625,-0.3532305061817169,-1.2981927394866943,1.2137748003005981
1772708067678145500,7.6161455078125,-0.11030280590057373,-0.5388402938842773,0.8769381642341614
1772708067688171500,7.626171630859375,0.08194945752620697,0.029924608767032623,0.49535542726516724
1772708067698197500,7.636197509765625,0.20153658092021942,0.3767954707145691,0.18126140534877777
1772708067708223500,7.646223388671875,0.24207787215709686,0.4166281223297119,-0.019702864810824394
1772708067718249500,7.65624951171875,0.22274333238601685,0.28677716851234436,-0.10899598896503448
1772708067728275700,7.666275634765625,0.18713021278381348,0.047509461641311646,-0.1574828326702118
1772708067738301700,7.6763017578125,0.15326519310474396,-0.27358362078666687,-0.217164546251297
1772708067748327700,7.68632763671875,0.10668063908815384,-0.6658397912979126,-0.2862109839916229
1772708067758353700,7.696353759765625,0.09802296757698059,-1.088782787322998,-0.35412052273750305
1772708067768379600,7.706379638671875,0.1681373417377472,-1.427172303199768,-0.37989991903305054
1772708067778404600,7.716404541015625,0.2854730188846588,-1.5091865062713623,-0.37655311822891235
1772708067788430600,7.7264306640625,0.4226316809654236,-1.307173728942871,-0.3751419186592102
1772708067798456600,7.73645654296875,0.5968471765518188,-0.9683676958084106,-0.31338587403297424
1772708067808482600,7.746482666015625,0.7214162349700928,-0.6885488629341125,-0.05639243498444557
1772708067818508500,7.756508544921875,0.8144569993019104,-0.6745664477348328,0.06277310103178024
1772708067828534500,7.766534423828125,0.7875542640686035,-0.5944226384162903,0.2805136740207672
1772708067838560500,7.776560546875,0.6205272078514099,-0.611778974533081,0.3904130160808563
1772708067848586500,7.78658642578125,0.3940860629081726,-0.593700110912323,0.4167407751083374
1772708067858612700,7.79661279296875,0.1827133595943451,-0.3784831166267395,0.4086783230304718
1772708067868638700,7.806638671875,0.04253494367003441,0.06828504800796509,0.5167757272720337
1772708067878664700,7.816664794921875,-0.04945063963532448,0.5022865533828735,0.634123682975769
1772708067888690700,7.826690673828125,-0.03779930993914604,0.8814011216163635,0.6651167273521423
1772708067898715600,7.836715576171875,0.07359672337770462,1.3170369863510132,0.7230607271194458
1772708067908741600,7.84674169921875,0.16650189459323883,1.5977137088775635,0.7912960052490234
1772708067918767600,7.856767578125,0.22005300223827362,1.597679853439331,0.8305448889732361
1772708067928793600,7.866793701171875,0.20589376986026764,1.2179349660873413,0.8039284348487854
1772708067938819600,7.876819580078125,0.10797174274921417,0.6111302375793457,0.7408463954925537
1772708067948845600,7.886845458984375,-0.0015164038632065058,0.033423203974962234,0.6379746198654175
1772708067958871600,7.89687158203125,-0.0829492136836052,-0.37760987877845764,0.5023547410964966
1772708067968897500,7.9068974609375,-0.09303886443376541,-0.5545646548271179,0.36876899003982544
1772708067978923500,7.916923583984375,-0.058399658650159836,-0.5178556442260742,0.22535856068134308
1772708067988949800,7.92694970703125,-0.012869193218648434,-0.374673992395401,0.05979755520820618
1772708067998975700,7.936975830078125,0.030733412131667137,-0.17761926352977753,-0.08994720131158829
1772708068009002000,7.947001953125,0.07904741168022156,0.062252454459667206,-0.17151956260204315
1772708068019027000,7.95702685546875,0.13946548104286194,0.26951083540916443,-0.17824457585811615
1772708068029053000,7.967052978515625,0.18929162621498108,0.387485146522522,-0.11590902507305145
1772708068039079000,7.977078857421875,0.22259685397148132,0.41242510080337524,0.004406998865306377
1772708068049105000,7.98710498046875,0.22653673589229584,0.33007511496543884,0.15571476519107819
1772708068059131000,7.997130859375,0.21966977417469025,0.18309685587882996,0.31166866421699524
1772708068069156900,8.007156982421876,0.2068820744752884,0.030647391453385353,0.45092323422431946
1772708068079182800,8.017182861328125,0.18095166981220245,-0.07456611096858978,0.5498135685920715
1772708068089208800,8.027208740234375,0.1432010978460312,-0.04164278507232666,0.6247456073760986
1772708068099235000,8.037235107421875,0.0827750414609909,0.08100563287734985,0.6530619263648987
1772708068109261000,8.047260986328125,0.01386894378811121,0.20741550624370575,0.6277406215667725
1772708068119287000,8.057287109375,-0.04065554961562157,0.322963684797287,0.5627733469009399
1772708068129313000,8.06731298828125,-0.06090889126062393,0.4182582199573517,0.4559134542942047
1772708068139338000,8.077337890625,-0.04891694337129593,0.4877683222293854,0.3394608795642853
1772708068149364000,8.087364013671875,-0.00826938170939684,0.4903412163257599,0.2518484890460968
1772708068159390000,8.097389892578125,0.042326416820287704,0.4306944012641907,0.20261728763580322
1772708068169416000,8.107416015625,0.07918589562177658,0.3564944565296173,0.17014695703983307
1772708068179442000,8.11744189453125,0.06805761158466339,0.2881803810596466,0.13860447704792023
1772708068189468000,8.127468017578124,0.028308603912591934,0.2402922362089157,0.138580784201622
1772708068199494000,8.137493896484376,-0.01594727486371994,0.2253447026014328,0.16837356984615326
1772708068209519900,8.147519775390625,-0.03236566111445427,0.2187938690185547,0.1721605807542801
1772708068219545900,8.1575458984375,0.0049529471434652805,0.22003808617591858,0.140619695186615
1772708068229572000,8.167572021484375,0.09019940346479416,0.25721102952957153,0.10177216678857803
1772708068239598000,8.17759814453125,0.16168344020843506,0.2687249481678009,0.05054200440645218
1772708068249624000,8.1876240234375,0.20876039564609528,0.22562487423419952,-0.014128335751593113
1772708068259649000,8.19764892578125,0.2146097719669342,0.17915163934230804,-0.07834194600582123
1772708068269675000,8.207675048828126,0.18486039340496063,0.20297947525978088,-0.14077416062355042
1772708068279701000,8.217700927734375,0.13775627315044403,0.21016868948936462,-0.1966390311717987
1772708068289727000,8.22772705078125,0.07637520134449005,0.14557024836540222,-0.18112558126449585
1772708068299753000,8.2377529296875,0.02474023401737213,0.015333415940403938,-0.08186610043048859
1772708068309779000,8.247779052734375,-0.006207295693457127,-0.18996381759643555,0.06071740761399269
1772708068319805000,8.257804931640624,-0.014584003016352654,-0.34739577770233154,0.2665477991104126
1772708068329831000,8.267830810546876,-0.036381710320711136,-0.5481424927711487,0.3313601016998291
1772708068339857000,8.27785693359375,0.020366789773106575,-0.5282028317451477,0.2838338613510132
1772708068349883000,8.2878828125,0.05844839662313461,-0.17528846859931946,0.3353463113307953
1772708068359909000,8.2979091796875,0.0756114050745964,0.18171174824237823,0.285385400056839
1772708068369933800,8.307933837890625,0.0721982941031456,0.5419780611991882,0.1717134416103363
