time,seconds_elapsed,z,y,x
1772729568343965000,0.12496484375,0,0,0
1772729568353483300,0.134483154296875,0.004039764404296875,-0.0019099712371826172,0.02588975429534912
1772729568363001600,0.144001708984375,0.02645397186279297,-0.0035393238067626953,0.06682908535003662
1772729568382038000,0.1630380859375,0.09782981872558594,-0.02314901351928711,0.15075668692588806
1772729568391556400,0.172556396484375,0.20541954040527344,-0.0014324188232421875,0.15806274116039276
1772729568401074400,0.182074462890625,0.3309144973754883,0.012374162673950195,0.17095068097114563
1772729568410592800,0.1915927734375,0.47168827056884766,0.011106014251708984,0.1638329178094864
1772729568420111000,0.201111083984375,0.5929327011108398,-0.07653522491455078,0.18375998735427856
1772729568429629400,0.21062939453125,0.6918268203735352,-0.11333870887756348,0.21876749396324158
1772729568439147800,0.220147705078125,0.7974987030029297,-0.13605618476867676,0.2094755917787552
1772729568448666000,0.229666015625,0.8688249588012695,-0.06451153755187988,0.1642034351825714
1772729568458184200,0.23918408203125,0.8868188858032227,0.007092714309692383,0.1294490098953247
1772729568467702500,0.24870263671875,0.7615137100219727,0.042900800704956055,0.21686583757400513
1772729568477220900,0.258220947265625,0.5386714935302734,0.11818718910217285,0.24459990859031677
1772729568486739000,0.267739013671875,0.3140687942504883,0.21230030059814453,0.19055920839309692
1772729568496257300,0.27725732421875,0.06324195861816406,0.26392555236816406,0.11494796723127365
1772729568505775600,0.286775634765625,-0.2507209777832031,0.3874385356903076,-0.007916469126939774
1772729568515294000,0.2962939453125,-0.5589847564697266,0.46347761154174805,-0.09498009830713272
1772729568524812000,0.30581201171875,-0.8208189010620117,0.5441141128540039,-0.14059697091579437
1772729568534330400,0.315330322265625,-1.0720977783203125,0.5696432590484619,-0.14701475203037262
1772729568543848700,0.3248486328125,-1.2395315170288086,0.5786681175231934,-0.12716947495937347
1772729568553367000,0.334366943359375,-1.297884464263916,0.5385792255401611,-0.1761358678340912
1772729568562885400,0.343885498046875,-1.2589664459228516,0.5140843391418457,-0.2533251643180847
1772729568572403700,0.35340380859375,-1.2275958061218262,0.46345996856689453,-0.3120955228805542
1772729568581921800,0.362921875,-1.1182622909545898,0.3878457546234131,-0.32787254452705383
1772729568591440100,0.372440185546875,-0.965540885925293,0.28523778915405273,-0.24996131658554077
1772729568600958500,0.38195849609375,-0.8002443313598633,0.2318880558013916,-0.172720804810524
1772729568610476500,0.3914765625,-0.6150140762329102,0.24810576438903809,-0.09233996272087097
1772729568619995000,0.400994873046875,-0.4212818145751953,0.29149532318115234,-0.005931764841079712
1772729568629513200,0.41051318359375,-0.2463216781616211,0.28870487213134766,0.1062704473733902
1772729568639031600,0.420031494140625,-0.10982418060302734,0.31951189041137695,0.12237627804279327
1772729568648549600,0.429549560546875,-0.035778045654296875,0.3062252998352051,0.13424664735794067
1772729568658068000,0.43906787109375,0.054596900939941406,0.29387378692626953,0.11779201030731201
1772729568667586300,0.44858642578125,0.18440723419189453,0.30746936798095703,0.10251149535179138
1772729568677104600,0.458104736328125,0.2647132873535156,0.28946495056152344,0.0638081431388855
1772729568686623000,0.467623046875,0.3856191635131836,0.2866208553314209,0.03402453660964966
1772729568696141300,0.477141357421875,0.4228048324584961,0.27013707160949707,0.03907901048660278
1772729568705659400,0.486659423828125,0.3992948532104492,0.2568397521972656,0.04797463119029999
1772729568715177700,0.496177734375,0.2579689025878906,0.29162049293518066,0.013264581561088562
1772729568724696000,0.505696044921875,0.19518470764160156,0.36918163299560547,0.00844411551952362
1772729568734214100,0.515214111328125,0.24173831939697266,0.44911670684814453,-0.0036752820014953613
1772729568743732500,0.524732421875,0.2971525192260742,0.5685751438140869,-0.0660289004445076
1772729568753250800,0.534250732421875,0.41074085235595703,0.6300375461578369,-0.19698292016983032
1772729568762769200,0.54376904296875,0.48087120056152344,0.6811830997467041,-0.30015289783477783
1772729568772287200,0.553287353515625,0.5342197418212891,0.6381392478942871,-0.2874622344970703
1772729568781805600,0.5628056640625,0.5920925140380859,0.601586103439331,-0.22436949610710144
1772729568791324000,0.572323974609375,0.6354007720947266,0.565061092376709,-0.16560526192188263
1772729568800842200,0.58184228515625,0.5795993804931641,0.5368800163269043,-0.053259819746017456
1772729568810360600,0.591360595703125,0.5388517379760742,0.4848637580871582,-0.059954382479190826
1772729568819878700,0.600878662109375,0.6324710845947266,0.479691743850708,-0.15123577415943146
1772729568829397000,0.61039697265625,0.8608226776123047,0.4366464614868164,-0.2948119640350342
1772729568838915300,0.619915283203125,1.2128915786743164,0.4011545181274414,-0.397507905960083
1772729568848433700,0.62943359375,1.4198713302612305,0.3870432376861572,-0.46112513542175293
1772729568857951700,0.63895166015625,1.4549198150634766,0.2976877689361572,-0.48520368337631226
1772729568867470000,0.648469970703125,1.5544376373291016,0.16576457023620605,-0.4224500060081482
1772729568876988400,0.657988525390625,1.4518327713012695,-0.03862595558166504,-0.3354477286338806
1772729568886506800,0.6675068359375,1.3290462493896484,-0.15844082832336426,-0.346607506275177
1772729568896025000,0.677025146484375,1.319890022277832,-0.1350383758544922,-0.424527108669281
1772729568905543200,0.686543212890625,1.1720390319824219,-0.05309247970581055,-0.5101040005683899
1772729568915061500,0.6960615234375,1.0040292739868164,-0.007073402404785156,-0.49844372272491455
1772729568924579800,0.705579833984375,0.8571109771728516,-0.07567334175109863,-0.3414795696735382
1772729568934098200,0.71509814453125,0.802978515625,-0.16782903671264648,-0.19569364190101624
1772729568943616300,0.7246162109375,0.8092041015625,-0.3458077907562256,-0.1630445122718811
1772729568953134600,0.734134521484375,0.7193765640258789,-0.5750961303710938,-0.15385323762893677
1772729568962653000,0.74365283203125,0.6291561126708984,-0.8194386959075928,-0.17041105031967163
1772729568972171300,0.753171142578125,0.5853996276855469,-1.0616729259490967,-0.20847833156585693
1772729568981689300,0.762689453125,0.6441917419433594,-1.2532050609588623,-0.41595178842544556
1772729568991207700,0.772207763671875,0.7413511276245117,-1.302971363067627,-0.9003180265426636
1772729569000726000,0.78172607421875,0.7576885223388672,-1.3581273555755615,-1.3049535751342773
1772729569010244400,0.791244384765625,0.5046701431274414,-1.5178697109222412,-1.4705023765563965
1772729569019762700,0.8007626953125,-0.21329975128173828,-1.7640478610992432,-1.4188697338104248
1772729569029281000,0.810281005859375,-0.3257789611816406,-1.7611565589904785,-1.3653647899627686
1772729569038799000,0.819799072265625,-0.46084022521972656,-1.5462424755096436,-1.1439967155456543
1772729569048317400,0.8293173828125,-0.5319852828979492,-1.1085116863250732,-0.7763699293136597
1772729569057835800,0.838835693359375,-0.849517822265625,-0.7784204483032227,-1.1631065607070923
1772729569067354000,0.84835400390625,-0.8569040298461914,-0.6078310012817383,-0.9245087504386902
1772729569076872200,0.8578720703125,-0.8329143524169922,-0.6511960029602051,-0.6463819146156311
1772729569086390500,0.867390625,-1.0216894149780273,-0.7662715911865234,-0.4445362687110901
1772729569095908900,0.876908935546875,-1.1660242080688477,-0.9099264144897461,-0.42471808195114136
1772729569105427200,0.88642724609375,-1.2837371826171875,-1.049443244934082,-0.53575199842453
1772729569114945300,0.8959453125,-1.406113624572754,-1.1603584289550781,-0.6510133743286133
1772729569124463600,0.905463623046875,-1.5997371673583984,-1.2070555686950684,-0.7989685535430908
1772729569133982000,0.91498193359375,-1.4065661430358887,-1.2091922760009766,-1.1735904216766357
1772729569143500300,0.924500244140625,-1.0546588897705078,-1.1703267097473145,-1.4658602476119995
1772729569153018600,0.9340185546875,-0.5976505279541016,-1.074556827545166,-1.8456952571868896
1772729569162536700,0.94353662109375,0.0456695556640625,-0.8858416080474854,-2.1669044494628906
1772729569172055000,0.953054931640625,0.689417839050293,-0.8712267875671387,-2.044677257537842
1772729569181573400,0.962573486328125,1.2095661163330078,-1.0371160507202148,-1.5026304721832275
1772729569191091700,0.972091796875,1.345423698425293,-1.2426013946533203,-0.9235652089118958
1772729569200609800,0.98160986328125,1.3411293029785156,-1.4957103729248047,-0.29048460721969604
1772729569210128100,0.991128173828125,1.3354568481445312,-1.6806111335754395,0.17504718899726868
1772729569219646500,1.000646484375,1.1934051513671875,-1.6968896389007568,0.27829670906066895
1772729569229164800,1.010164794921875,0.9089212417602539,-1.5014257431030273,0.07276517152786255
1772729569238683000,1.019682861328125,0.6057405471801758,-1.1268632411956787,-0.32628774642944336
1772729569248201200,1.029201171875,0.2708721160888672,-0.7658126354217529,-0.6643424034118652
1772729569257719600,1.038719482421875,-0.10395336151123047,-0.5276215076446533,-0.8215067386627197
1772729569267238000,1.04823779296875,-0.5174465179443359,-0.3875110149383545,-0.6873173117637634
1772729569276756200,1.057756103515625,-0.8522214889526367,-0.2658655643463135,-0.43071281909942627
1772729569286274600,1.067274658203125,-1.2258892059326172,-0.18386530876159668,-0.18882262706756592
1772729569295792600,1.076792724609375,-1.508592128753662,-0.07248997688293457,0.02673870325088501
1772729569305311000,1.08631103515625,-1.5501036643981934,0.05268216133117676,0.1034972071647644
1772729569314829300,1.095829345703125,-1.4686450958251953,0.2130744457244873,0.1195530891418457
1772729569324347600,1.10534765625,-1.4498672485351562,0.25431036949157715,0.15479546785354614
1772729569333865700,1.11486572265625,-1.400406837463379,0.24119234085083008,0.23474258184432983
1772729569343384000,1.124384033203125,-1.256378173828125,0.1976332664489746,0.368937611579895
1772729569352902400,1.13390234375,-1.082387924194336,0.20870208740234375,0.45514899492263794
1772729569362420500,1.14342041015625,-0.8497591018676758,0.29392099380493164,0.42175179719924927
1772729569371938800,1.152938720703125,-0.5986518859863281,0.384751558303833,0.3765372931957245
1772729569381457200,1.16245703125,-0.4091606140136719,0.42278289794921875,0.36017942428588867
1772729569390975500,1.1719755859375,-0.23287677764892578,0.4100935459136963,0.3993540406227112
1772729569400493800,1.181493896484375,-0.16194915771484375,0.40856313705444336,0.44027775526046753
1772729569410012200,1.19101220703125,-0.18339157104492188,0.3751099109649658,0.4578514099121094
1772729569419530200,1.2005302734375,-0.10875225067138672,0.41828489303588867,0.39703845977783203
1772729569429048600,1.210048583984375,0.054439544677734375,0.47448110580444336,0.3094557523727417
1772729569438567000,1.21956689453125,0.18970775604248047,0.5280008316040039,0.2349623441696167
1772729569448085200,1.229085205078125,0.26894187927246094,0.5119442939758301,0.20289772748947144
1772729569457603300,1.238603271484375,0.3163423538208008,0.5407512187957764,0.22904521226882935
1772729569467121700,1.24812158203125,0.2985525131225586,0.5701041221618652,0.20662379264831543
1772729569476640000,1.257639892578125,0.21529865264892578,0.6279318332672119,0.20386159420013428
1772729569486158300,1.267158447265625,0.12781429290771484,0.6685607433319092,0.1872205138206482
1772729569495676400,1.276676513671875,0.12097549438476562,0.7289726734161377,0.12701630592346191
1772729569505194800,1.28619482421875,0.22246456146240234,0.8188598155975342,0.04684281349182129
1772729569514713000,1.295713134765625,0.4198589324951172,0.7999050617218018,-0.02106386423110962
1772729569524231400,1.3052314453125,0.5966997146606445,0.740957498550415,-0.05690982937812805
1772729569533749800,1.314749755859375,0.7155590057373047,0.6749424934387207,-0.0449446439743042
1772729569543268000,1.32426806640625,0.9313745498657227,0.5992381572723389,0.06010463833808899
1772729569552786200,1.3337861328125,1.0064277648925781,0.5702426433563232,0.11858570575714111
1772729569562304500,1.343304443359375,1.0393791198730469,0.589566707611084,0.08529683947563171
1772729569571822800,1.35282275390625,1.1018085479736328,0.5923552513122559,0.1102249026298523
1772729569581341200,1.362341064453125,1.202906608581543,0.6070723533630371,0.0344240665435791
1772729569590859300,1.371859375,1.2591314315795898,0.6077666282653809,-0.02190038561820984
1772729569600377600,1.381377685546875,1.2444067001342773,0.5811147689819336,-0.08160388469696045
1772729569609896000,1.39089599609375,1.1254873275756836,0.5262546539306641,-0.03361046314239502
1772729569619414300,1.400414306640625,1.0331220626831055,0.4875154495239258,0.06605508923530579
1772729569628932400,1.409932373046875,0.9329309463500977,0.4168705940246582,0.21611209213733673
1772729569638450700,1.41945068359375,0.833561897277832,0.35442018508911133,0.36171144247055054
1772729569647969000,1.428968994140625,0.8366146087646484,0.2750844955444336,0.5189318060874939
1772729569657487400,1.4384873046875,0.9413070678710938,0.19822978973388672,0.5897891521453857
1772729569667005700,1.448005615234375,1.1025362014770508,0.07966279983520508,0.636006236076355
1772729569676524000,1.45752392578125,1.3356428146362305,-0.09049797058105469,0.5962977409362793
1772729569686042000,1.4670419921875,1.4970149993896484,-0.3800840377807617,0.5458427667617798
1772729569695560400,1.476560546875,1.4676780700683594,-0.7425222396850586,0.5034527778625488
1772729569705078800,1.486078857421875,1.3070755004882812,-1.1446483135223389,0.5521498918533325
1772729569714596900,1.495596923828125,1.0357418060302734,-1.469095230102539,0.5750225186347961
1772729569724115200,1.505115234375,0.6998138427734375,-1.6146836280822754,0.5050754547119141
1772729569733633500,1.514633544921875,0.3232097625732422,-1.6054234504699707,0.3376913070678711
1772729569743151900,1.52415185546875,-0.061303138732910156,-1.4687058925628662,0.18893882632255554
1772729569752670000,1.533669921875,-0.4381294250488281,-1.3547277450561523,0.04171854257583618
1772729569762188300,1.543188232421875,-0.7658519744873047,-1.295928955078125,-0.04552355408668518
1772729569771706600,1.55270654296875,-1.1008834838867188,-1.265151023864746,-0.14265602827072144
1772729569781225000,1.562224853515625,-1.3280935287475586,-1.2356219291687012,-0.23490962386131287
1772729569790743300,1.571743408203125,-1.5140352249145508,-1.303995132446289,-0.22270646691322327
1772729569800261600,1.58126171875,-1.5940799713134766,-1.3715684413909912,-0.10799376666545868
1772729569809779700,1.59077978515625,-1.5726051330566406,-1.3744103908538818,-0.0009243786334991455
1772729569819298000,1.600298095703125,-1.441354751586914,-1.326401710510254,0.12522834539413452
1772729569828816400,1.60981640625,-1.2081727981567383,-1.2731757164001465,0.2213747501373291
1772729569838334700,1.619334716796875,-0.9015789031982422,-1.2564070224761963,0.2134494185447693
1772729569847852800,1.628852783203125,-0.5802955627441406,-1.2946200370788574,0.15803402662277222
1772729569857371100,1.63837109375,-0.2857780456542969,-1.3282430171966553,0.02127423882484436
1772729569866889500,1.647889404296875,0.009639739990234375,-1.3454749584197998,-0.11894169449806213
1772729569876407800,1.65740771484375,0.2857246398925781,-1.303525686264038,-0.328432559967041
1772729569885926000,1.66692578125,0.5056095123291016,-1.159714698791504,-0.5228378772735596
1772729569895444200,1.6764443359375,0.6992435455322266,-1.0286145210266113,-0.7550955414772034
1772729569904962600,1.685962646484375,0.8463420867919922,-0.8669910430908203,-0.8832722306251526
1772729569914481000,1.69548095703125,0.8527822494506836,-0.7146997451782227,-0.9566968679428101
1772729569923999200,1.704999267578125,0.8033304214477539,-0.5803694725036621,-1.0062464475631714
1772729569933517600,1.714517578125,0.6487827301025391,-0.4934577941894531,-0.9768436551094055
1772729569943035600,1.72403564453125,0.4660062789916992,-0.39464473724365234,-0.9911169409751892
1772729569952554000,1.733553955078125,0.26926708221435547,-0.2813405990600586,-0.9243693947792053
1772729569962072300,1.743072265625,-0.0059375762939453125,-0.18853425979614258,-0.8647997379302979
1772729569971590700,1.752590576171875,-0.20702266693115234,-0.02300262451171875,-0.7862372994422913
1772729569981108700,1.762108642578125,-0.5235023498535156,0.058043479919433594,-0.5568714737892151
1772729569990627000,1.771626953125,-0.8609886169433594,0.06064605712890625,-0.3347218930721283
1772729570000145400,1.7811455078125,-1.1806344985961914,0.12930774688720703,-0.19157005846500397
1772729570009663700,1.790663818359375,-1.448317527770996,0.2191004753112793,-0.17699916660785675
1772729570019181800,1.800181884765625,-1.5653562545776367,0.32230377197265625,-0.1965460330247879
1772729570028700200,1.8097001953125,-1.5903210639953613,0.37345218658447266,-0.2676531672477722
1772729570038218500,1.819218505859375,-1.5069656372070312,0.33930206298828125,-0.3549048900604248
1772729570047736800,1.82873681640625,-1.3799467086791992,0.3579726219177246,-0.39631399512290955
1772729570057255200,1.838255126953125,-1.266120433807373,0.2377772331237793,-0.3576067090034485
1772729570066773500,1.8477734375,-1.0983376502990723,0.10704946517944336,-0.27286475896835327
1772729570076291600,1.85729150390625,-0.8426332473754883,0.0447993278503418,-0.25349169969558716
1772729570085810000,1.866809814453125,-0.5768642425537109,0.05774736404418945,-0.2155131846666336
1772729570095328300,1.876328369140625,-0.3094367980957031,0.028660297393798828,-0.21418924629688263
1772729570104846600,1.8858466796875,-0.12762928009033203,-0.008417606353759766,-0.19717617332935333
1772729570114364700,1.89536474609375,-0.028092384338378906,-0.05472564697265625,-0.17987418174743652
1772729570123883000,1.904883056640625,0.049345970153808594,-0.0583648681640625,-0.1492771953344345
1772729570133401300,1.9144013671875,0.056792259216308594,-0.00908803939819336,-0.09988503158092499
1772729570142919700,1.923919677734375,-0.029767990112304688,0.11786317825317383,-0.05980120599269867
1772729570152437800,1.933437744140625,-0.18905353546142578,0.28067922592163086,0.010705649852752686
1772729570161956000,1.9429560546875,-0.2926750183105469,0.3614845275878906,0.12780378758907318
1772729570171474400,1.952474365234375,-0.3057270050048828,0.42864465713500977,0.22088798880577087
1772729570180992800,1.96199267578125,-0.31709766387939453,0.5044651031494141,0.1715935617685318
1772729570190511000,1.971510986328125,-0.3126230239868164,0.541496753692627,0.06673583388328552
1772729570200029400,1.981029541015625,-0.19954299926757812,0.5565977096557617,-0.059971749782562256
1772729570209547500,1.990547607421875,-0.06161212921142578,0.5305485725402832,-0.15042786300182343
1772729570219065900,2.00006591796875,0.1275491714477539,0.5295572280883789,-0.18833236396312714
1772729570228584200,2.009584228515625,0.3466615676879883,0.5240545272827148,-0.15685001015663147
1772729570238102500,2.0191025390625,0.4887981414794922,0.5346622467041016,-0.10719169676303864
1772729570247620600,2.02862060546875,0.5998630523681641,0.5844697952270508,0.013636276125907898
1772729570257139000,2.038138916015625,0.7422266006469727,0.6321673393249512,0.07834778726100922
1772729570266657300,2.0476572265625,0.9614038467407227,0.7386832237243652,0.08583246171474457
1772729570276175600,2.057175537109375,1.107468605041504,0.8192481994628906,0.01567821204662323
1772729570285693700,2.066693603515625,1.1334381103515625,0.787513256072998,0.08074086904525757
1772729570295212000,2.0762119140625,1.0899419784545898,0.7248873710632324,0.17418286204338074
1772729570304730400,2.08573046875,1.008225440979004,0.6983623504638672,0.19648995995521545
1772729570314248700,2.095248779296875,0.8453893661499023,0.7441301345825195,0.11671370267868042
1772729570323767000,2.10476708984375,0.6632814407348633,0.8155007362365723,-0.042002081871032715
1772729570333285400,2.114285400390625,0.5017576217651367,0.8665404319763184,-0.17121337354183197
1772729570342803500,2.123803466796875,0.4028167724609375,0.8847527503967285,-0.2693810760974884
1772729570352321800,2.13332177734375,0.39864635467529297,0.9077167510986328,-0.3669734597206116
1772729570361840000,2.142840087890625,0.4570322036743164,0.8916997909545898,-0.4169088304042816
1772729570371358500,2.1523583984375,0.5340557098388672,0.7073612213134766,-0.37449827790260315
1772729570380876500,2.16187646484375,0.6338233947753906,0.38991737365722656,-0.2261338233947754
1772729570390395000,2.171394775390625,0.8107748031616211,0.01899576187133789,-0.20216888189315796
1772729570399913200,2.180913330078125,0.9864253997802734,-0.33712196350097656,-0.3056705594062805
1772729570409431600,2.190431640625,1.2289714813232422,-0.6220712661743164,-0.4908219575881958
1772729570418949600,2.19994970703125,1.5020818710327148,-0.911973237991333,-0.6416923999786377
1772729570428468000,2.209468017578125,1.621962547302246,-1.1326475143432617,-0.7491534352302551
1772729570437986300,2.218986328125,1.6028060913085938,-1.2685966491699219,-0.7315860986709595
1772729570447504600,2.228504638671875,1.2577695846557617,-1.3332774639129639,-0.5806280374526978
1772729570457023000,2.23802294921875,0.8453435897827148,-1.3499054908752441,-0.3990289270877838
1772729570466541000,2.247541015625,0.44852161407470703,-1.221785545349121,-0.31840723752975464
1772729570476059400,2.257059326171875,0.05659008026123047,-1.0687928199768066,-0.30105602741241455
1772729570485577700,2.26657763671875,-0.3176288604736328,-0.9097690582275391,-0.3745342195034027
1772729570495096000,2.276095947265625,-0.6734724044799805,-0.8298430442810059,-0.40412837266921997
1772729570504614400,2.285614501953125,-0.9865617752075195,-0.7825615406036377,-0.3946462869644165
1772729570514132500,2.295132568359375,-1.268481731414795,-0.7952585220336914,-0.32838529348373413
1772729570523650800,2.30465087890625,-1.5236101150512695,-0.8546748161315918,-0.2850548028945923
1772729570533169200,2.314169189453125,-1.6581783294677734,-0.9604799747467041,-0.2692292630672455
1772729570542687500,2.3236875,-1.6995792388916016,-0.9754424095153809,-0.37070178985595703
1772729570552205600,2.33320556640625,-1.5932483673095703,-0.9787726402282715,-0.46665602922439575
1772729570561724000,2.342723876953125,-1.381962776184082,-1.009793996810913,-0.5944806337356567
1772729570571242200,2.3522421875,-1.148484230041504,-1.0606327056884766,-0.6419883966445923
1772729570580760600,2.361760498046875,-0.8630399703979492,-1.128662347793579,-0.6078462600708008
1772729570590279000,2.37127880859375,-0.4504423141479492,-1.1929173469543457,-0.5704762935638428
1772729570599797200,2.38079736328125,0.019292831420898438,-1.1619114875793457,-0.508071780204773
1772729570609315300,2.3903154296875,0.47192859649658203,-1.0664548873901367,-0.45386773347854614
1772729570618833700,2.399833740234375,0.8119220733642578,-1.0253772735595703,-0.26156285405158997
1772729570628352000,2.40935205078125,1.0887537002563477,-1.0201706886291504,-0.010044455528259277
1772729570637870300,2.418870361328125,1.2510986328125,-1.048126220703125,0.20187877118587494
1772729570647388400,2.428388427734375,1.2664461135864258,-0.9864335060119629,0.2743275761604309
1772729570656906800,2.43790673828125,1.1758861541748047,-0.9024844169616699,0.26354271173477173
1772729570666425000,2.447425048828125,0.9459505081176758,-0.7453935146331787,0.19575093686580658
1772729570675943400,2.456943359375,0.6618804931640625,-0.6229796409606934,0.1445232629776001
1772729570685461800,2.466461669921875,0.3893556594848633,-0.4586014747619629,0.14454776048660278
1772729570694979800,2.475979736328125,-0.027910232543945312,-0.3231844902038574,0.15062019228935242
1772729570704498200,2.485498291015625,-0.4692859649658203,-0.22030901908874512,0.2156902402639389
1772729570714016500,2.4950166015625,-0.8861103057861328,-0.1776599884033203,0.28861135244369507
1772729570723534800,2.504534912109375,-1.189112663269043,-0.08057260513305664,0.2967838943004608
1772729570733053200,2.51405322265625,-1.4437589645385742,0.03637123107910156,0.22894158959388733
1772729570742571500,2.523571533203125,-1.581531047821045,0.15241527557373047,0.19719061255455017
1772729570752089600,2.533089599609375,-1.59356689453125,0.2703666687011719,0.26107585430145264
1772729570761608000,2.54260791015625,-1.5491142272949219,0.3848433494567871,0.3932991027832031
1772729570771126300,2.552126220703125,-1.5075035095214844,0.4832267761230469,0.5010369420051575
1772729570780644600,2.56164453125,-1.394209384918213,0.5501179695129395,0.6218463182449341
1772729570790162700,2.57116259765625,-1.2446670532226562,0.5272946357727051,0.7451385259628296
1772729570799681000,2.580680908203125,-1.0439929962158203,0.5161046981811523,0.7714728116989136
1772729570809199400,2.590199462890625,-0.8655290603637695,0.4672584533691406,0.7162322998046875
1772729570818717700,2.5997177734375,-0.6466388702392578,0.42243432998657227,0.5929574966430664
1772729570828235800,2.60923583984375,-0.4465494155883789,0.3422508239746094,0.4274957478046417
1772729570837754000,2.618754150390625,-0.3529071807861328,0.29972410202026367,0.18496133387088776
1772729570847272400,2.6282724609375,-0.2889289855957031,0.2609696388244629,0.007291853427886963
1772729570856790800,2.637790771484375,-0.2262582778930664,0.2598438262939453,-0.0993170440196991
1772729570866309000,2.64730908203125,-0.24172687530517578,0.29947757720947266,-0.14582809805870056
1772729570875827500,2.656827392578125,-0.2167491912841797,0.34789228439331055,-0.13007166981697083
1772729570885345500,2.666345458984375,-0.1022195816040039,0.4758467674255371,-0.07118532061576843
1772729570894864000,2.67586376953125,0.053511619567871094,0.5887584686279297,-0.04893982410430908
1772729570904382200,2.68538232421875,0.3600044250488281,0.6702916622161865,0.060763463377952576
1772729570913900500,2.694900634765625,0.721928596496582,0.6650075912475586,0.12936130166053772
1772729570923418600,2.704418701171875,1.066065788269043,0.6073851585388184,0.09574879705905914
1772729570932937000,2.71393701171875,1.36920166015625,0.5083544254302979,0.07560861110687256
1772729570942455300,2.723455322265625,1.562479019165039,0.4224669933319092,0.09536036103963852
1772729570951973600,2.7329736328125,1.7680540084838867,0.432584285736084,0.09892237931489944
1772729570961491700,2.74249169921875,1.9816360473632812,0.5299246311187744,0.03404775261878967
1772729570971010000,2.752010009765625,2.108626365661621,0.6575226783752441,-0.05410045385360718
1772729570980528400,2.7615283203125,2.1023483276367188,0.6467885971069336,-0.09304940700531006
1772729570990046700,2.771046630859375,2.0090370178222656,0.53531813621521,-0.07531596720218658
1772729570999565000,2.78056494140625,1.8242130279541016,0.43321704864501953,-0.054252415895462036
1772729571009083400,2.79008349609375,1.5427923202514648,0.4253578186035156,-0.028682664036750793
1772729571018601500,2.7996015625,1.3095283508300781,0.4779505729675293,-0.008997440338134766
1772729571028119800,2.809119873046875,1.0823545455932617,0.6128449440002441,0.012284412980079651
1772729571037638100,2.81863818359375,0.8405351638793945,0.6688041687011719,0.1156664565205574
1772729571047156500,2.828156494140625,0.5632467269897461,0.6403875350952148,0.326943576335907
1772729571056674600,2.837674560546875,0.3680267333984375,0.48874378204345703,0.5785984992980957
1772729571066193000,2.84719287109375,0.30352115631103516,0.3264007568359375,0.7714822888374329
1772729571075711200,2.856711181640625,0.3979501724243164,0.16534042358398438,0.7423391342163086
1772729571085229600,2.8662294921875,0.6686840057373047,-0.03506183624267578,0.5402532815933228
1772729571094747600,2.87574755859375,1.0455999374389648,-0.3313479423522949,0.392370343208313
1772729571104266000,2.885265869140625,1.3973188400268555,-0.6594548225402832,0.27770936489105225
1772729571113784300,2.894784423828125,1.6262407302856445,-1.0080664157867432,0.2823410928249359
1772729571123302700,2.904302734375,1.7633857727050781,-1.3602080345153809,0.36739540100097656
1772729571132821000,2.913821044921875,1.743642807006836,-1.6522407531738281,0.4502922594547272
1772729571142339300,2.92333935546875,1.6255159378051758,-1.7930669784545898,0.4922151565551758
1772729571151857700,2.932857666015625,1.4047279357910156,-1.8049023151397705,0.5003922581672668
1772729571161375700,2.942375732421875,1.0599565505981445,-1.7589707374572754,0.5359134078025818
1772729571170894000,2.95189404296875,0.6599826812744141,-1.7225143909454346,0.617888331413269
1772729571180412400,2.961412353515625,0.2275390625,-1.689990520477295,0.7192732095718384
1772729571189930800,2.9709306640625,-0.21754741668701172,-1.6740944385528564,0.7887445092201233
1772729571199448800,2.98044873046875,-0.6106348037719727,-1.6009364128112793,0.8619255423545837
1772729571208967200,2.98996728515625,-1.0116686820983887,-1.4893698692321777,0.947719931602478
1772729571218485500,2.999485595703125,-1.4162588119506836,-1.3531861305236816,1.032126545906067
1772729571228003800,3.00900390625,-1.709916114807129,-1.2167749404907227,1.0542932748794556
1772729571237522000,3.01852197265625,-1.8205928802490234,-1.0990996360778809,1.0065388679504395
1772729571247040300,3.028040283203125,-1.7874760627746582,-1.0329437255859375,0.893474817276001
1772729571256558600,3.03755859375,-1.6057796478271484,-1.019092082977295,0.820756196975708
1772729571266077000,3.047076904296875,-1.3555564880371094,-1.1078267097473145,0.7248756289482117
1772729571275595300,3.05659521484375,-1.0348701477050781,-1.2025957107543945,0.6489469408988953
1772729571285113600,3.066113525390625,-0.6555452346801758,-1.267932415008545,0.48911958932876587
1772729571294631700,3.075631591796875,-0.35338497161865234,-1.2830314636230469,0.29950955510139465
1772729571304150000,3.08514990234375,-0.09676361083984375,-1.2372126579284668,0.1730373352766037
1772729571313668400,3.09466845703125,0.20295143127441406,-1.0697202682495117,0.11202588677406311
1772729571323186700,3.104186767578125,0.16508865356445312,-1.0220518112182617,0.17890599370002747
1772729571332704800,3.113704833984375,0.046311378479003906,-0.9063756465911865,0.31837397813796997
1772729571342223000,3.12322314453125,-0.15144634246826172,-0.7237672805786133,0.4616988003253937
1772729571351741400,3.132741455078125,-0.5020475387573242,-0.5021572113037109,0.62650066614151
1772729571361259800,3.142259765625,-0.9126644134521484,-0.29004907608032227,0.7685645818710327
1772729571370777900,3.15177783203125,-1.1562299728393555,-0.09271001815795898,0.8322687149047852
1772729571380296200,3.161296142578125,-1.380385398864746,0.09076595306396484,0.7459625601768494
1772729571389814500,3.170814453125,-1.5768799781799316,0.2366337776184082,0.6750709414482117
1772729571399332900,3.180332763671875,-1.6678037643432617,0.29388904571533203,0.6161542534828186
1772729571408851200,3.189851318359375,-1.5988759994506836,0.24185800552368164,0.590606689453125
1772729571418369500,3.19936962890625,-1.4558448791503906,0.23476648330688477,0.5464673638343811
1772729571427887900,3.208887939453125,-1.1396141052246094,0.14542055130004883,0.48584938049316406
1772729571437406000,3.218406005859375,-0.8257417678833008,0.11662721633911133,0.41194018721580505
1772729571446924300,3.22792431640625,-0.5705862045288086,0.10593414306640625,0.3835107684135437
1772729571456442600,3.237442626953125,-0.35423851013183594,0.11914205551147461,0.34892767667770386
1772729571465961000,3.2469609375,-0.1521463394165039,0.17640018463134766,0.2818242311477661
1772729571475479000,3.25647900390625,0.04581451416015625,0.2739896774291992,0.20344489812850952
1772729571484997400,3.265997314453125,0.23068904876708984,0.3866252899169922,0.14962661266326904
1772729571494515700,3.275515625,0.3481569290161133,0.4415431022644043,0.1478261798620224
1772729571504034000,3.285033935546875,0.3675498962402344,0.46241140365600586,0.15128876268863678
1772729571513552100,3.29455224609375,0.38931941986083984,0.4660329818725586,0.14982135593891144
1772729571523070500,3.304070556640625,0.3629131317138672,0.5321264266967773,0.07604280114173889
1772729571532588800,3.3135888671875,0.26418304443359375,0.5922627449035645,-0.012576274573802948
1772729571542107100,3.323107177734375,0.1645679473876953,0.680595874786377,-0.10796268284320831
1772729571551625500,3.33262548828125,0.09953022003173828,0.7237663269042969,-0.1995576024055481
1772729571561143800,3.342143798828125,0.0018777847290039062,0.7869501113891602,-0.3047272264957428
1772729571570662000,3.351661865234375,-0.028359413146972656,0.7990922927856445,-0.3356659710407257
1772729571580180200,3.36118017578125,0.020349502563476562,0.8204107284545898,-0.36515313386917114
1772729571589698600,3.370698486328125,0.12596416473388672,0.920804500579834,-0.3727106750011444
1772729571599217000,3.380216796875,0.25002288818359375,0.9834556579589844,-0.40702736377716064
1772729571608735200,3.3897353515625,0.37092113494873047,1.0253872871398926,-0.4529293179512024
1772729571618253300,3.39925341796875,0.5340309143066406,1.0275216102600098,-0.4633616507053375
1772729571627771600,3.408771728515625,0.7107830047607422,0.9800682067871094,-0.5150753259658813
1772729571637290000,3.4182900390625,0.920659065246582,0.9347801208496094,-0.46387332677841187
1772729571646808000,3.42780810546875,1.114023208618164,0.8594441413879395,-0.3811394274234772
1772729571656326400,3.437326416015625,1.2986984252929688,0.8005156517028809,-0.28744322061538696
1772729571665844700,3.4468447265625,1.4682331085205078,0.7421178817749023,-0.2420971840620041
1772729571675363000,3.456363037109375,1.5228824615478516,0.7286405563354492,-0.22812873125076294
1772729571684881400,3.46588134765625,1.4964160919189453,0.7217745780944824,-0.2579454481601715
1772729571694399700,3.475399658203125,1.4293155670166016,0.7080173492431641,-0.28837791085243225
1772729571703918000,3.48491796875,1.3688125610351562,0.7389130592346191,-0.38394954800605774
1772729571713436200,3.494436279296875,1.2640609741210938,0.8039865493774414,-0.562466025352478
1772729571722954500,3.50395458984375,1.185856819152832,0.8072004318237305,-0.7031913995742798
1772729571732472800,3.513472900390625,1.0522394180297852,0.7693314552307129,-0.8221753835678101
1772729571741991200,3.5229912109375,1.024928092956543,0.6107134819030762,-0.850764811038971
1772729571751509200,3.53250927734375,1.0794572830200195,0.4563331604003906,-0.8369995355606079
1772729571761027600,3.542027587890625,1.1845264434814453,0.28475427627563477,-0.8146582841873169
1772729571770546000,3.5515458984375,1.2949886322021484,0.0905308723449707,-0.8339325189590454
1772729571780064300,3.561064208984375,1.4785089492797852,-0.06360149383544922,-0.800539493560791
1772729571789582300,3.570582275390625,1.6001253128051758,-0.27811288833618164,-0.7840789556503296
1772729571799100700,3.5801005859375,1.661726951599121,-0.5204482078552246,-0.7374317646026611
1772729571808619000,3.589618896484375,1.696171760559082,-0.7794582843780518,-0.678032398223877
1772729571818137300,3.599137451171875,1.521073341369629,-1.0408048629760742,-0.6935226321220398
1772729571827655700,3.60865576171875,1.2116270065307617,-1.236238956451416,-0.7301716208457947
1772729571837174000,3.618174072265625,0.8539924621582031,-1.3890423774719238,-0.8144826292991638
1772729571846692000,3.627692138671875,0.40439319610595703,-1.44212007522583,-0.9312910437583923
1772729571856210400,3.63721044921875,-0.08348941802978516,-1.4427320957183838,-1.0435322523117065
1772729571865728800,3.646728759765625,-0.6546220779418945,-1.470454216003418,-1.087918758392334
1772729571875247000,3.6562470703125,-1.1797094345092773,-1.4879322052001953,-1.0601705312728882
1772729571884765400,3.665765380859375,-1.651820182800293,-1.4577159881591797,-1.0958937406539917
1772729571894283500,3.675283447265625,-2.070919990539551,-1.4004864692687988,-1.2012276649475098
1772729571903801900,3.6848017578125,-2.3314762115478516,-1.266256332397461,-1.3161437511444092
1772729571913320200,3.6943203125,-2.4804301261901855,-1.1206574440002441,-1.434078574180603
1772729571922838500,3.703838623046875,-2.4494009017944336,-1.0372610092163086,-1.5293864011764526
1772729571932356600,3.713356689453125,-2.3510007858276367,-0.9731869697570801,-1.5100719928741455
1772729571941875000,3.722875,-2.187331199645996,-0.9672455787658691,-1.3664909601211548
1772729571951393300,3.732393310546875,-1.8788166046142578,-0.920377254486084,-1.1459019184112549
1772729571960911600,3.74191162109375,-1.426640510559082,-0.8873443603515625,-0.9354683756828308
1772729571970430000,3.751429931640625,-0.9465727806091309,-0.8868932723999023,-0.718390703201294
1772729571979948300,3.7609482421875,-0.4345245361328125,-0.9191069602966309,-0.561453104019165
1772729571989466400,3.77046630859375,0.0946512222290039,-0.965510368347168,-0.46547847986221313
1772729571998984700,3.779984619140625,0.53302001953125,-0.9960923194885254,-0.42414408922195435
1772729572008503000,3.7895029296875,0.9088096618652344,-1.0646271705627441,-0.2999057471752167
1772729572018021400,3.799021484375,1.1399240493774414,-1.1526226997375488,-0.19679486751556396
1772729572027539500,3.80853955078125,1.2133169174194336,-1.1979331970214844,-0.1061190664768219
1772729572037057800,3.818057861328125,1.1560554504394531,-1.2063913345336914,-0.053102195262908936
1772729572046576000,3.827576171875,1.0019941329956055,-1.1230814456939697,-0.12269299477338791
1772729572056094500,3.837094482421875,0.7462949752807617,-0.9782521724700928,-0.317329466342926
1772729572065612800,3.84661279296875,0.3740415573120117,-0.7606396675109863,-0.556962788105011
1772729572075131000,3.856130859375,-0.032215118408203125,-0.5992069244384766,-0.7152210474014282
1772729572084649200,3.865649169921875,-0.4526481628417969,-0.4667806625366211,-0.6902014017105103
1772729572094167600,3.87516748046875,-0.8555560111999512,-0.33394956588745117,-0.6459037065505981
1772729572103686000,3.884685791015625,-1.1852984428405762,-0.2003178596496582,-0.6039177775382996
1772729572113204200,3.894204345703125,-1.4385385513305664,-0.08281517028808594,-0.5586864948272705
1772729572122722600,3.90372265625,-1.5591487884521484,0.03700971603393555,-0.49491551518440247
1772729572132240600,3.91324072265625,-1.5835261344909668,0.10474061965942383,-0.41581401228904724
1772729572141759000,3.922759033203125,-1.5260486602783203,0.12023258209228516,-0.36912089586257935
1772729572151277300,3.93227734375,-1.3886537551879883,0.12310647964477539,-0.3358500897884369
1772729572160795600,3.941795654296875,-1.215921401977539,0.12839984893798828,-0.3189737796783447
1772729572170313700,3.951313720703125,-0.9832324981689453,0.17755556106567383,-0.2590733468532562
1772729572179832000,3.96083203125,-0.7974114418029785,0.22612285614013672,-0.19024090468883514
1772729572189350400,3.970350341796875,-0.5693454742431641,0.3062310218811035,-0.15022531151771545
1772729572198868700,3.97986865234375,-0.37267494201660156,0.3907175064086914,-0.1810593456029892
1772729572208386800,3.98938671875,-0.1565408706665039,0.4736161231994629,-0.19229581952095032
1772729572217905200,3.9989052734375,0.015062332153320312,0.542081356048584,-0.24351909756660461
1772729572227423500,4.008423583984375,0.20965862274169922,0.5759387016296387,-0.3197754919528961
1772729572236941800,4.01794189453125,0.3799858093261719,0.6386680603027344,-0.462571382522583
1772729572246460200,4.027460205078125,0.5454139709472656,0.6008715629577637,-0.5671656131744385
1772729572255978500,4.036978515625,0.7132854461669922,0.634274959564209,-0.656783401966095
1772729572265496600,4.04649658203125,0.8071146011352539,0.6410198211669922,-0.6733551025390625
1772729572275015000,4.056014892578125,0.8457298278808594,0.6220602989196777,-0.6355351209640503
1772729572284533200,4.065533203125,0.8501863479614258,0.6502084732055664,-0.5740927457809448
1772729572294051600,4.075051513671875,0.8296070098876953,0.7264032363891602,-0.5318838357925415
1772729572303570000,4.08456982421875,0.905482292175293,0.7724919319152832,-0.4548450708389282
1772729572313088000,4.094087890625,1.0417680740356445,0.8554501533508301,-0.4025590121746063
1772729572322606300,4.1036064453125,1.123896598815918,0.9626326560974121,-0.3828730881214142
1772729572332124700,4.113124755859375,1.1352653503417969,0.969508171081543,-0.3467691242694855
1772729572341643000,4.12264306640625,1.1405668258666992,0.947608470916748,-0.2886778712272644
1772729572351161000,4.1321611328125,1.1063709259033203,0.9446096420288086,-0.2746071517467499
1772729572360679400,4.141679443359375,1.013535499572754,0.9534239768981934,-0.3418653905391693
1772729572370197800,4.15119775390625,0.8956584930419922,1.0074782371520996,-0.4794982373714447
1772729572379716000,4.160716064453125,0.8100767135620117,1.06156587600708,-0.6724724173545837
1772729572389234400,4.170234375,0.7373924255371094,1.0832409858703613,-0.8364478349685669
1772729572398752500,4.17975244140625,0.6914815902709961,1.0549259185791016,-0.914260983467102
1772729572408270800,4.189270751953125,0.6333637237548828,1.035839557647705,-0.9498636722564697
1772729572417789200,4.1987890625,0.624323844909668,1.0349526405334473,-0.9429488182067871
1772729572427307500,4.2083076171875,0.7042665481567383,0.934363842010498,-0.8338057994842529
1772729572436825900,4.217825927734375,0.8917732238769531,0.7900714874267578,-0.6420542597770691
1772729572446344000,4.227343994140625,1.1676206588745117,0.5920729637145996,-0.45686131715774536
1772729572455862300,4.2368623046875,1.5273990631103516,0.37904882431030273,-0.33578580617904663
1772729572465380600,4.246380615234375,1.8691949844360352,0.06693315505981445,-0.25303512811660767
1772729572474899000,4.25589892578125,2.1512489318847656,-0.31183576583862305,-0.14990127086639404
1772729572484417300,4.265417236328125,2.260300636291504,-0.7324557304382324,-0.11966896057128906
1772729572493935400,4.274935302734375,2.1549501419067383,-1.1623022556304932,-0.08897197246551514
1772729572503453700,4.28445361328125,1.9659042358398438,-1.5460889339447021,-0.17641854286193848
1772729572512972000,4.293971923828125,1.6704463958740234,-1.7483389377593994,-0.3668833374977112
1772729572522490400,4.303490478515625,1.1758956909179688,-1.786916732788086,-0.6476514339447021
1772729572532008700,4.3130087890625,0.6255855560302734,-1.764378547668457,-0.8766307234764099
1772729572541526800,4.32252685546875,0.18126296997070312,-1.7781367301940918,-1.035356044769287
1772729572551045000,4.332045166015625,-0.2947196960449219,-1.7484793663024902,-1.1812653541564941
1772729572560563500,4.3415634765625,-0.7612957954406738,-1.7386040687561035,-1.2572141885757446
1772729572570081800,4.351081787109375,-1.161208152770996,-1.6944735050201416,-1.199023962020874
1772729572579600100,4.36060009765625,-1.4880061149597168,-1.6263866424560547,-1.085227370262146
1772729572589118200,4.3701181640625,-1.7830581665039062,-1.4948344230651855,-0.906416118144989
1772729572598636500,4.379636474609375,-1.929147720336914,-1.3213510513305664,-0.7292253971099854
1772729572608155000,4.38915478515625,-1.820448875427246,-1.0998649597167969,-0.6235418915748596
1772729572617673200,4.398673095703125,-1.6366071701049805,-0.9717578887939453,-0.5107176899909973
1772729572627191300,4.40819140625,-1.3362350463867188,-0.8742265701293945,-0.40063178539276123
1772729572636709600,4.417709716796875,-0.9510154724121094,-0.8939828872680664,-0.2658582329750061
1772729572646228000,4.42722802734375,-0.528569221496582,-0.9657139778137207,-0.17548638582229614
1772729572655746300,4.436746337890625,-0.022970199584960938,-0.9871377944946289,-0.17055416107177734
1772729572665264600,4.4462646484375,0.31720924377441406,-1.0254786014556885,-0.2689272165298462
1772729572674783000,4.455782958984375,0.5227518081665039,-1.0964202880859375,-0.35013318061828613
1772729572684301300,4.46530126953125,0.6499729156494141,-1.2136845588684082,-0.4386714696884155
1772729572693819400,4.4748193359375,0.6663541793823242,-1.2560341358184814,-0.5828996896743774
1772729572703337700,4.484337646484375,0.5702133178710938,-1.1612401008605957,-0.8381174206733704
1772729572712856000,4.49385595703125,0.44324588775634766,-1.0100140571594238,-1.1435844898223877
1772729572722374400,4.50337451171875,0.2254629135131836,-0.8393988609313965,-1.4073362350463867
1772729572731892500,4.512892578125,-0.10799217224121094,-0.6615338325500488,-1.5423234701156616
1772729572741410800,4.522410888671875,-0.5298490524291992,-0.5380415916442871,-1.4582011699676514
1772729572750929200,4.53192919921875,-0.8698129653930664,-0.3415646553039551,-1.3348805904388428
1772729572760447500,4.541447509765625,-1.1271347999572754,-0.1461353302001953,-1.21351158618927
1772729572769965600,4.550965576171875,-1.2932453155517578,0.07610797882080078,-1.031359314918518
1772729572779484000,4.56048388671875,-1.2250652313232422,0.27275705337524414,-0.9600815176963806
1772729572789002200,4.570002197265625,-1.0612421035766602,0.4357447624206543,-0.8991919755935669
1772729572798520600,4.5795205078125,-0.909245491027832,0.46377038955688477,-0.8265804052352905
1772729572808039000,4.589038818359375,-0.738041877746582,0.35657691955566406,-0.6140614151954651
1772729572817557200,4.59855712890625,-0.5615358352661133,0.2087726593017578,-0.45306628942489624
1772729572827075600,4.60807568359375,-0.3672447204589844,0.14328384399414062,-0.4134981036186218
1772729572836593700,4.61759375,-0.21454238891601562,0.14711904525756836,-0.46996399760246277
1772729572846112000,4.627112060546875,-0.0741424560546875,0.17398357391357422,-0.5494471192359924
1772729572855630300,4.63663037109375,0.07858562469482422,0.14429378509521484,-0.643221378326416
1772729572865148700,4.646148681640625,0.1844921112060547,0.14816570281982422,-0.7339314818382263
1772729572874666800,4.655666748046875,0.20819091796875,0.10867977142333984,-0.8128663897514343
1772729572884185000,4.66518505859375,0.19991779327392578,0.07630395889282227,-0.8305531740188599
1772729572893703400,4.674703369140625,0.1812591552734375,0.0463714599609375,-0.859947681427002
1772729572903221800,4.6842216796875,0.18790435791015625,0.021435260772705078,-0.8362979888916016
1772729572912739800,4.69373974609375,0.17905044555664062,0.04914093017578125,-0.762502133846283
1772729572922258200,4.703258056640625,0.12630939483642578,0.06423473358154297,-0.7232272624969482
1772729572931776500,4.712776611328125,0.13271236419677734,0.044705867767333984,-0.6253648996353149
1772729572941294800,4.722294921875,0.050162315368652344,0.009539127349853516,-0.5089224576950073
1772729572950813200,4.731813232421875,-0.03289985656738281,-0.00025081634521484375,-0.41578859090805054
1772729572960331500,4.74133154296875,-0.08567333221435547,-0.007655620574951172,-0.29859459400177
1772729572969849600,4.750849609375,-0.15422534942626953,0.01971435546875,-0.20595288276672363
1772729572979368000,4.760367919921875,-0.22254085540771484,0.08079671859741211,-0.1378570795059204
1772729572988886300,4.76988623046875,-0.18619346618652344,0.15276861190795898,-0.06794631481170654
1772729572998404600,4.779404541015625,-0.10317039489746094,0.17183208465576172,-0.021522700786590576
1772729573007923000,4.7889228515625,-0.059760093688964844,0.1382150650024414,0.03709876537322998
1772729573017441000,4.79844091796875,0.056427001953125,0.09713506698608398,0.15595966577529907
1772729573026959400,4.80795947265625,0.21451282501220703,0.09793519973754883,0.2570905089378357
1772729573036477700,4.817477783203125,0.35749244689941406,0.13486623764038086,0.2864367961883545
1772729573045996000,4.82699609375,0.5408401489257812,0.21398305892944336,0.2440704107284546
1772729573055514000,4.83651416015625,0.7173595428466797,0.28886985778808594,0.17154860496520996
1772729573065032400,4.846032470703125,0.8733787536621094,0.32494497299194336,0.13795894384384155
1772729573074550800,4.85555078125,0.9545621871948242,0.34735727310180664,0.08249837160110474
1772729573084069000,4.865069091796875,0.951507568359375,0.33926868438720703,0.0378880500793457
1772729573093587500,4.87458740234375,0.9358081817626953,0.36792850494384766,-0.0857168436050415
1772729573103105800,4.884105712890625,0.8473777770996094,0.46264028549194336,-0.24640896916389465
1772729573112623900,4.893623779296875,0.6809463500976562,0.5532822608947754,-0.3694065809249878
1772729573122142200,4.90314208984375,0.5865278244018555,0.6297216415405273,-0.45231688022613525
1772729573131660500,4.91266064453125,0.5202932357788086,0.7391624450683594,-0.6018095016479492
1772729573141179000,4.922178955078125,0.4910898208618164,0.8615660667419434,-0.7684131860733032
1772729573150697200,4.931697265625,0.5891819000244141,0.8928737640380859,-0.8456302881240845
1772729573160215300,4.94121533203125,0.7949762344360352,0.8050861358642578,-0.8679467439651489
1772729573169733600,4.950733642578125,1.0439519882202148,0.5953273773193359,-0.8630033731460571
1772729573179252000,4.960251953125,1.3414268493652344,0.29793214797973633,-0.8358244299888611
1772729573188770300,4.969770263671875,1.7146062850952148,-0.07987356185913086,-0.8278177976608276
1772729573198288400,4.979288330078125,1.990626335144043,-0.43191051483154297,-0.8761355876922607
1772729573207806700,4.988806640625,2.1040945053100586,-0.7783489227294922,-0.9020758271217346
1772729573217325000,4.998324951171875,2.0277814865112305,-1.1647753715515137,-0.8985641598701477
1772729573226843400,5.007843505859375,1.8534116744995117,-1.4560165405273438,-0.9455283880233765
1772729573236361700,5.01736181640625,1.5004215240478516,-1.571023941040039,-1.111208438873291
1772729573245880000,5.026880126953125,1.007491111755371,-1.5446853637695312,-1.3624389171600342
1772729573255398100,5.036398193359375,0.5464572906494141,-1.5134272575378418,-1.5742995738983154
1772729573264916500,5.04591650390625,0.051766395568847656,-1.4718749523162842,-1.695758581161499
1772729573274434800,5.055434814453125,-0.4017162322998047,-1.323631763458252,-1.8126986026763916
1772729573283953200,5.064953125,-0.8713998794555664,-1.1387887001037598,-1.8555059432983398
1772729573293471200,5.07447119140625,-1.2454967498779297,-0.9200634956359863,-1.8482545614242554
1772729573302989600,5.083989501953125,-1.5027923583984375,-0.7425918579101562,-1.7512091398239136
1772729573312508000,5.0935078125,-1.6432523727416992,-0.6103315353393555,-1.598547101020813
1772729573322026200,5.103026123046875,-1.6588668823242188,-0.5022406578063965,-1.410762071609497
1772729573331544600,5.112544677734375,-1.385265827178955,-0.5232992172241211,-1.1509461402893066
1772729573341062700,5.122062744140625,-0.9750628471374512,-0.5673160552978516,-0.9474232196807861
1772729573350581000,5.1315810546875,-0.541895866394043,-0.6604599952697754,-0.7725804448127747
1772729573360099300,5.141099365234375,-0.09608078002929688,-0.7411952018737793,-0.5744989514350891
1772729573369617700,5.15061767578125,0.49347400665283203,-0.8326482772827148,-0.3842872679233551
1772729573379136000,5.160135986328125,1.1284456253051758,-0.8773717880249023,-0.3409362733364105
1772729573388654300,5.169654296875,1.6988134384155273,-0.9596679210662842,-0.29158085584640503
1772729573398172400,5.17917236328125,1.9917917251586914,-1.1391375064849854,-0.2014923095703125
1772729573407690800,5.188690673828125,2.045276641845703,-1.3517603874206543,-0.06468158960342407
1772729573417209000,5.198208984375,1.9351310729980469,-1.5585861206054688,0.012475430965423584
1772729573426727200,5.20772705078125,1.6556730270385742,-1.5214989185333252,-0.1110239028930664
1772729573436245500,5.21724560546875,1.3152399063110352,-1.288280963897705,-0.3384430706501007
1772729573445763800,5.226763916015625,0.7774114608764648,-1.0722918510437012,-0.5448704957962036
1772729573455282200,5.2362822265625,0.1966867446899414,-0.9137561321258545,-0.6115678548812866
1772729573464800500,5.245800537109375,-0.33307361602783203,-0.8377480506896973,-0.5884995460510254
1772729573474318600,5.255318603515625,-0.7252731323242188,-0.7813801765441895,-0.5259969830513
1772729573483837000,5.2648369140625,-1.0536680221557617,-0.6747574806213379,-0.5298147201538086
1772729573493355300,5.274355224609375,-1.3202428817749023,-0.5580167770385742,-0.48877036571502686
1772729573502873600,5.28387353515625,-1.4646434783935547,-0.40496063232421875,-0.4373572766780853
1772729573512392000,5.293391845703125,-1.6271286010742188,-0.24925661087036133,-0.36793556809425354
1772729573521910300,5.30291015625,-1.6753277778625488,-0.2010660171508789,-0.22732001543045044
1772729573531428600,5.3124287109375,-1.5431718826293945,-0.13062620162963867,-0.08519408106803894
1772729573540946700,5.32194677734375,-1.4124784469604492,-0.012063026428222656,-0.10017101466655731
1772729573550465000,5.331465087890625,-1.2227964401245117,0.07425832748413086,-0.21952557563781738
1772729573559983400,5.3409833984375,-0.9946937561035156,0.1098790168762207,-0.3013528883457184
1772729573569501700,5.350501708984375,-0.7746777534484863,0.1476459503173828,-0.4011586308479309
1772729573579019800,5.360019775390625,-0.5421552658081055,0.1708240509033203,-0.5037898421287537
1772729573588538000,5.3695380859375,-0.37226009368896484,0.2058696746826172,-0.5519065856933594
1772729573598056400,5.379056396484375,-0.273468017578125,0.23455810546875,-0.5788487195968628
1772729573607574800,5.38857470703125,-0.17823505401611328,0.30387020111083984,-0.6338942050933838
1772729573617092900,5.3980927734375,-0.014268875122070312,0.39353370666503906,-0.7143000960350037
1772729573626611200,5.407611083984375,0.18550395965576172,0.47129297256469727,-0.8229572772979736
1772729573636129500,5.417129638671875,0.3163108825683594,0.49576377868652344,-0.9190695881843567
1772729573645648000,5.42664794921875,0.34234142303466797,0.4122462272644043,-0.8698945045471191
1772729573655166200,5.436166259765625,0.41857337951660156,0.3291177749633789,-0.7745790481567383
1772729573664684500,5.4456845703125,0.48709678649902344,0.30931568145751953,-0.6706455945968628
1772729573674203000,5.455202880859375,0.49974822998046875,0.3917107582092285,-0.6750779747962952
1772729573683721000,5.464720947265625,0.5254049301147461,0.48877525329589844,-0.660758376121521
1772729573693239300,5.4742392578125,0.551600456237793,0.5228047370910645,-0.598618745803833
1772729573702757600,5.483757568359375,0.5088443756103516,0.5351295471191406,-0.5129666924476624
1772729573712276000,5.49327587890625,0.5906362533569336,0.5091824531555176,-0.4133685827255249
1772729573721794000,5.5027939453125,0.7875099182128906,0.5564618110656738,-0.3268703818321228
1772729573731312400,5.5123125,0.9755067825317383,0.5729703903198242,-0.232185959815979
1772729573740830700,5.521830810546875,1.119126319885254,0.5625138282775879,-0.11948198080062866
1772729573750349000,5.53134912109375,1.104146957397461,0.507533073425293,0.01274418830871582
1772729573759867100,5.5408671875,1.0743293762207031,0.46981143951416016,0.03611022233963013
1772729573769385500,5.550385498046875,0.9750757217407227,0.4514451026916504,0.010968565940856934
1772729573778903800,5.55990380859375,0.8160305023193359,0.505434513092041,-0.10596892237663269
1772729573788422100,5.569422119140625,0.6471271514892578,0.6064047813415527,-0.284479022026062
1772729573797940500,5.5789404296875,0.4485893249511719,0.6652231216430664,-0.40147700905799866
1772729573807458800,5.588458740234375,0.26985836029052734,0.7075405120849609,-0.4224068224430084
1772729573816977000,5.597976806640625,0.07419204711914062,0.7588858604431152,-0.35336655378341675
1772729573826495200,5.6074951171875,-0.17995166778564453,0.7898759841918945,-0.2541506588459015
1772729573836013600,5.617013671875,-0.3428230285644531,0.8210735321044922,-0.13371551036834717
1772729573845532000,5.626531982421875,-0.34871387481689453,0.8112893104553223,0.00007465481758117676
1772729573855050200,5.63605029296875,-0.23448562622070312,0.8145565986633301,0.09708470106124878
1772729573864568300,5.645568359375,0.02797698974609375,0.7335801124572754,0.12388408184051514
1772729573874086700,5.655086669921875,0.2976675033569336,0.4892897605895996,0.13521140813827515
1772729573883605000,5.66460498046875,0.5991239547729492,0.15178585052490234,0.11978721618652344
1772729573893123300,5.674123291015625,0.9809474945068359,-0.28612327575683594,0.16650712490081787
1772729573902641400,5.683641357421875,1.4256935119628906,-0.7854762077331543,0.1498153805732727
1772729573912159700,5.69315966796875,1.8016796112060547,-1.227050542831421,-0.05708146095275879
1772729573921678000,5.702677978515625,1.9728527069091797,-1.5774214267730713,-0.2784603238105774
1772729573931196400,5.712196533203125,1.9991302490234375,-1.8613970279693604,-0.4557412266731262
1772729573940714800,5.72171484375,1.824904441833496,-2.0083675384521484,-0.6204438805580139
1772729573950233000,5.731233154296875,1.4556465148925781,-1.9600529670715332,-0.7887483239173889
1772729573959751200,5.740751220703125,1.0342893600463867,-1.8047456741333008,-0.9250539541244507
1772729573969269500,5.75026953125,0.6428852081298828,-1.5913867950439453,-1.0994187593460083
1772729573978787800,5.759787841796875,0.2286396026611328,-1.3201532363891602,-1.1408495903015137
1772729573988306200,5.76930615234375,-0.13285064697265625,-1.1053228378295898,-1.0178046226501465
1772729573997824300,5.77882421875,-0.46422672271728516,-0.9727230072021484,-0.7626844048500061
1772729574007342600,5.788342529296875,-0.6777114868164062,-0.8778133392333984,-0.5393479466438293
1772729574016861000,5.79786083984375,-0.6988158226013184,-0.8833184242248535,-0.42042508721351624
1772729574026379300,5.807379150390625,-0.566889762878418,-0.9123334884643555,-0.38635385036468506
1772729574035897600,5.816897705078125,-0.32959747314453125,-0.9946556091308594,-0.43154919147491455
1772729574045415700,5.826415771484375,-0.0125579833984375,-1.1533689498901367,-0.5056362152099609
1772729574054934000,5.83593408203125,0.2662992477416992,-1.362452507019043,-0.6442700624465942
1772729574064452400,5.845452392578125,0.4904489517211914,-1.5589320659637451,-0.8772969841957092
1772729574073970700,5.854970703125,0.6461858749389648,-1.7233140468597412,-1.1055711507797241
1772729574083489000,5.864489013671875,0.7576608657836914,-1.8234896659851074,-1.317885398864746
1772729574093007400,5.87400732421875,0.7123374938964844,-1.8456134796142578,-1.5016107559204102
1772729574102525400,5.883525390625,0.5478620529174805,-1.8039021492004395,-1.6392894983291626
1772729574112043800,5.893043701171875,0.3533973693847656,-1.7277779579162598,-1.6494505405426025
1772729574121562000,5.90256201171875,0.08146286010742188,-1.595921516418457,-1.5554227828979492
1772729574131080400,5.91208056640625,-0.14143085479736328,-1.3985047340393066,-1.4388314485549927
1772729574140598500,5.9215986328125,-0.37310791015625,-1.20906400680542,-1.3163731098175049
1772729574150116900,5.931116943359375,-0.6694698333740234,-1.0118098258972168,-1.1466703414916992
1772729574159635200,5.94063525390625,-0.9819040298461914,-0.8422865867614746,-0.8984223008155823
1772729574169153500,5.950153564453125,-1.2575607299804688,-0.6515746116638184,-0.6061602234840393
1772729574178671600,5.959671630859375,-1.4294853210449219,-0.4575920104980469,-0.3976987302303314
1772729574188190000,5.96918994140625,-1.6337547302246094,-0.21154546737670898,-0.3116428256034851
1772729574197708300,5.978708251953125,-1.7406425476074219,-0.04203653335571289,-0.30748626589775085
1772729574207226600,5.9882265625,-1.614931583404541,0.05235910415649414,-0.3363945484161377
1772729574216745000,5.997744873046875,-1.3718681335449219,0.08856630325317383,-0.3412448763847351
1772729574226263300,6.00726318359375,-1.1285123825073242,0.05630779266357422,-0.30469468235969543
1772729574235781400,6.016781494140625,-0.8938283920288086,-0.0025396347045898438,-0.2735036015510559
1772729574245299700,6.0262998046875,-0.4800243377685547,-0.07333230972290039,-0.25294268131256104
1772729574254818000,6.035818115234375,-0.0597686767578125,-0.1541457176208496,-0.34650298953056335
1772729574264336400,6.04533642578125,0.2924041748046875,-0.19805431365966797,-0.5086750388145447
1772729574273854700,6.054854736328125,0.5209856033325195,-0.22723102569580078,-0.6651185750961304
1772729574283372800,6.064372802734375,0.7373533248901367,-0.31316471099853516,-0.7247597575187683
1772729574292891100,6.07389111328125,0.9281063079833984,-0.37845611572265625,-0.7288172245025635
1772729574302409500,6.083409423828125,1.0318632125854492,-0.3981437683105469,-0.7242699861526489
1772729574311927800,6.092927734375,1.1279497146606445,-0.33744096755981445,-0.7113681435585022
1772729574321446000,6.10244580078125,1.1806840896606445,-0.2685518264770508,-0.645099401473999
1772729574330964200,6.111964111328125,1.156712532043457,-0.22978973388671875,-0.5206189751625061
1772729574340482600,6.121482666015625,1.0916318893432617,-0.16797828674316406,-0.35401737689971924
1772729574350001000,6.1310009765625,0.9561557769775391,-0.10582542419433594,-0.14616620540618896
1772729574359519200,6.140519287109375,0.756688117980957,-0.06304502487182617,0.02237391471862793
1772729574369037600,6.15003759765625,0.6168651580810547,-0.03324317932128906,0.1643049716949463
1772729574378555600,6.1595556640625,0.5072183609008789,0.04701995849609375,0.28709131479263306
1772729574388074000,6.169073974609375,0.33369922637939453,0.15029287338256836,0.3962264657020569
1772729574397592300,6.17859228515625,0.2198190689086914,0.19648456573486328,0.6707590818405151
1772729574407110700,6.188110595703125,0.08130550384521484,0.3153700828552246,0.8595729470252991
1772729574416628700,6.197628662109375,-0.012517929077148438,0.42554330825805664,0.9530711770057678
1772729574426147000,6.20714697265625,-0.07332801818847656,0.533846378326416,0.9180088639259338
1772729574435665400,6.21666552734375,-0.11292076110839844,0.6926350593566895,0.8771136403083801
1772729574445183700,6.226183837890625,-0.13859844207763672,0.7709736824035645,0.8285457491874695
1772729574454701800,6.235701904296875,-0.023807525634765625,0.8216524124145508,0.7516928315162659
1772729574464220200,6.24522021484375,0.15511703491210938,0.9032688140869141,0.5892367362976074
1772729574473738500,6.254738525390625,0.24819278717041016,0.892153263092041,0.37023067474365234
1772729574483256800,6.2642568359375,0.30164146423339844,0.739234447479248,0.25915825366973877
1772729574492775200,6.273775146484375,0.35683155059814453,0.5559496879577637,0.14025664329528809
1772729574502293500,6.28329345703125,0.3832998275756836,0.4348306655883789,-0.08663088083267212
1772729574511811800,6.292811767578125,0.4245615005493164,0.40150976181030273,-0.45445671677589417
1772729574521330000,6.302329833984375,0.37059497833251953,0.39911508560180664,-0.8086516857147217
1772729574530848300,6.31184814453125,0.18018817901611328,0.37455320358276367,-1.0641918182373047
1772729574540366600,6.32136669921875,0.04127979278564453,0.34911346435546875,-1.2760422229766846
1772729574549885000,6.330885009765625,-0.10008811950683594,0.43972253799438477,-1.4771814346313477
1772729574559403000,6.340403076171875,-0.2572917938232422,0.5412230491638184,-1.6456917524337769
1772729574568921300,6.34992138671875,-0.27394866943359375,0.6655178070068359,-1.7038483619689941
1772729574578439700,6.359439697265625,-0.1535043716430664,0.819007396697998,-1.6720871925354004
1772729574587958000,6.3689580078125,0.11531639099121094,0.8810195922851562,-1.5935627222061157
1772729574597476000,6.37847607421875,0.5753765106201172,0.8519630432128906,-1.4932920932769775
1772729574606994400,6.387994384765625,1.1818618774414062,0.6590542793273926,-1.4208714962005615
1772729574616512800,6.3975126953125,1.9045352935791016,0.37177276611328125,-1.335597276687622
1772729574626031000,6.407031005859375,2.5485458374023438,-0.04701662063598633,-1.1897649765014648
1772729574635549400,6.416549560546875,3.146841049194336,-0.5384888648986816,-1.0645077228546143
1772729574645067800,6.42606787109375,3.412363052368164,-1.1397688388824463,-0.8549230098724365
1772729574654585900,6.4355859375,3.292356491088867,-1.7568087577819824,-0.6638984680175781
1772729574664104200,6.445104248046875,2.918045997619629,-2.1853137016296387,-0.579841673374176
1772729574673622500,6.45462255859375,2.303948402404785,-2.1935853958129883,-0.7784024477005005
1772729574683140900,6.464140869140625,1.6509628295898438,-1.8886163234710693,-1.1305068731307983
1772729574692659000,6.473658935546875,0.8309469223022461,-1.5449912548065186,-1.5860350131988525
1772729574702177300,6.48317724609375,0.2094888687133789,-1.1842942237854004,-1.9650384187698364
1772729574711695600,6.492695556640625,-0.36501598358154297,-0.9142308235168457,-2.1762733459472656
1772729574721214000,6.5022138671875,-0.7453813552856445,-0.7426118850708008,-2.1659739017486572
1772729574730732000,6.51173193359375,-1.0298662185668945,-0.6257543563842773,-1.9490529298782349
1772729574740250400,6.52125048828125,-1.1630735397338867,-0.6734275817871094,-1.5784308910369873
1772729574749768700,6.530768798828125,-1.0866732597351074,-0.7597103118896484,-1.0905624628067017
1772729574759287000,6.540287109375,-0.8823432922363281,-0.8990387916564941,-0.6854065656661987
1772729574768805400,6.549805419921875,-0.5519461631774902,-1.0069990158081055,-0.4723169803619385
1772729574778323700,6.55932373046875,-0.15162944793701172,-1.095916748046875,-0.29488638043403625
1772729574787841800,6.568841796875,0.21490764617919922,-1.2425668239593506,-0.14452117681503296
1772729574797360000,6.578360107421875,0.5973691940307617,-1.3855791091918945,-0.05132019519805908
1772729574806878500,6.58787841796875,0.8924751281738281,-1.5160634517669678,-0.030778616666793823
1772729574816396800,6.597396728515625,1.0423460006713867,-1.581709384918213,-0.09248042106628418
1772729574825915100,6.6069150390625,1.063054084777832,-1.5704259872436523,-0.21813739836215973
1772729574835433200,6.61643310546875,0.9822330474853516,-1.5530705451965332,-0.3020414113998413
1772729574844951600,6.62595166015625,0.8819208145141602,-1.5162630081176758,-0.3649134635925293
1772729574854470000,6.635469970703125,0.7099370956420898,-1.4462919235229492,-0.438663512468338
1772729574863988200,6.64498828125,0.5023975372314453,-1.3818068504333496,-0.5046567916870117
1772729574873506300,6.65450634765625,0.1945638656616211,-1.369950294494629,-0.4808809757232666
1772729574883024600,6.664024658203125,-0.20015716552734375,-1.3631987571716309,-0.36098408699035645
1772729574892543000,6.67354296875,-0.6521081924438477,-1.2728185653686523,-0.21164271235466003
1772729574902061300,6.683061279296875,-1.079239845275879,-1.0866246223449707,-0.11157264560461044
1772729574911579600,6.69257958984375,-1.4592523574829102,-0.8715319633483887,-0.0738091915845871
1772729574921098000,6.702097900390625,-1.690648078918457,-0.6832947731018066,-0.031248152256011963
1772729574930616000,6.711615966796875,-1.8002777099609375,-0.5335578918457031,-0.07626082003116608
1772729574940134400,6.721134521484375,-1.8958168029785156,-0.44624757766723633,-0.09425081312656403
1772729574949652700,6.73065283203125,-1.8505191802978516,-0.35491514205932617,-0.08555662631988525
1772729574959171000,6.740171142578125,-1.7959413528442383,-0.2668123245239258,-0.05148932337760925
1772729574968689200,6.749689208984375,-1.7201461791992188,-0.14370107650756836,0.042606934905052185
1772729574978207500,6.75920751953125,-1.5825281143188477,-0.0621342658996582,0.15381959080696106
1772729574987725800,6.768725830078125,-1.3256549835205078,0.018122196197509766,0.23421695828437805
1772729574997244200,6.778244140625,-0.9992313385009766,0.07442903518676758,0.260184109210968
1772729575006762200,6.78776220703125,-0.5736408233642578,0.1288290023803711,0.2672373652458191
1772729575016280600,6.797280517578125,-0.2341623306274414,0.11974143981933594,0.2659423053264618
1772729575025799000,6.806798828125,-0.0036678314208984375,0.07695913314819336,0.3802312910556793
1772729575035317200,6.816317138671875,0.20922565460205078,0.026013851165771484,0.5291500091552734
1772729575044835600,6.825835693359375,0.30680179595947266,0.0669565200805664,0.6007069945335388
1772729575054354000,6.83535400390625,0.29387474060058594,0.07585668563842773,0.5663905739784241
1772729575063872000,6.8448720703125,0.26320552825927734,0.07768774032592773,0.4545578956604004
1772729575073390300,6.854390380859375,0.30252742767333984,0.16900157928466797,0.22969946265220642
1772729575082908700,6.86390869140625,0.2535676956176758,0.2932758331298828,-0.0387304425239563
1772729575092427000,6.873427001953125,0.2114105224609375,0.3751049041748047,-0.20212382078170776
1772729575101945000,6.882945068359375,0.20436477661132812,0.4103527069091797,-0.26731568574905396
1772729575111463400,6.89246337890625,0.23003101348876953,0.35840511322021484,-0.2401837706565857
1772729575120981800,6.901981689453125,0.35805320739746094,0.34268999099731445,-0.15701133012771606
1772729575130500000,6.9115,0.5341043472290039,0.3568849563598633,-0.06439424306154251
1772729575140018200,6.92101806640625,0.7230491638183594,0.4425082206726074,0.09534679353237152
1772729575149536500,6.93053662109375,0.9111442565917969,0.46462059020996094,0.31434959173202515
1772729575159054800,6.940054931640625,1.0700836181640625,0.4991469383239746,0.5310103297233582
1772729575168573200,6.9495732421875,1.1428031921386719,0.5243077278137207,0.6285822987556458
1772729575178091500,6.959091552734375,1.0860776901245117,0.5911402702331543,0.7139911651611328
1772729575187609900,6.96860986328125,0.9420194625854492,0.6133761405944824,0.7843836545944214
1772729575197128000,6.9781279296875,0.7569904327392578,0.6393918991088867,0.8636850118637085
1772729575206646300,6.987646240234375,0.6275711059570312,0.681248664855957,0.8704140782356262
1772729575216164600,6.99716455078125,0.5932760238647461,0.7287073135375977,0.7990143299102783
1772729575225683000,7.006682861328125,0.6318902969360352,0.732666015625,0.8167167901992798
1772729575235201000,7.016200927734375,0.8074541091918945,0.6747689247131348,0.9273744821548462
1772729575244719400,7.02571923828125,1.0625972747802734,0.5478143692016602,1.1154792308807373
1772729575254237700,7.03523779296875,1.349696159362793,0.4351673126220703,1.2714824676513672
1772729575263756000,7.044756103515625,1.7104368209838867,0.2512321472167969,1.4788092374801636
1772729575273274000,7.054274169921875,2.1855220794677734,-0.008870124816894531,1.4993373155593872
1772729575282792400,7.06379248046875,2.581782341003418,-0.2938532829284668,1.3279876708984375
1772729575292310800,7.073310791015625,2.7131481170654297,-0.630826473236084,1.1485474109649658
1772729575301829000,7.0828291015625,2.591512680053711,-1.1050009727478027,1.0658037662506104
1772729575311347500,7.092347412109375,2.172848701477051,-1.53853178024292,1.0109518766403198
1772729575320865800,7.10186572265625,1.5459699630737305,-1.7416212558746338,0.8764519095420837
1772729575330384100,7.111384033203125,0.9372138977050781,-1.6613664627075195,0.642738938331604
1772729575339902200,7.120902099609375,0.34987735748291016,-1.4136621952056885,0.30104416608810425
1772729575349420500,7.130420654296875,-0.21349239349365234,-1.1755151748657227,-0.08496525883674622
1772729575358939000,7.13993896484375,-0.7772068977355957,-0.9631803035736084,-0.406733900308609
1772729575368457200,7.149457275390625,-1.2920012474060059,-0.8187532424926758,-0.48594915866851807
1772729575377975300,7.158975341796875,-1.6846046447753906,-0.7754755020141602,-0.4070450961589813
1772729575387493600,7.16849365234375,-1.9124536514282227,-0.7267889976501465,-0.28053343296051025
1772729575397012000,7.178011962890625,-2.0159378051757812,-0.7133708000183105,-0.11177122592926025
1772729575406530300,7.1875302734375,-1.9054174423217773,-0.7034049034118652,0.013559788465499878
1772729575416048400,7.19704833984375,-1.5378551483154297,-0.6910386085510254,0.02485644817352295
1772729575425566700,7.206566650390625,-1.1151752471923828,-0.6791300773620605,-0.0004661679267883301
1772729575435085000,7.2160849609375,-0.6326580047607422,-0.7815637588500977,-0.0684763491153717
1772729575444603400,7.225603271484375,-0.11135387420654297,-0.8978548049926758,-0.17763236165046692
1772729575454121700,7.235121826171875,0.3442344665527344,-0.9972102642059326,-0.36479347944259644
1772729575463640000,7.24464013671875,0.7036495208740234,-1.0942497253417969,-0.5438979864120483
1772729575473158100,7.254158203125,0.8880138397216797,-1.1258697509765625,-0.6806542873382568
1772729575482676500,7.263676513671875,0.9683904647827148,-1.1901655197143555,-0.7625502943992615
1772729575492194800,7.27319482421875,0.9385271072387695,-1.173628330230713,-0.8149905204772949
1772729575501713200,7.282713134765625,0.8464450836181641,-1.0407466888427734,-0.9424307346343994
1772729575511231200,7.292231201171875,0.5698690414428711,-0.8670086860656738,-0.9840896725654602
1772729575520749600,7.30174951171875,0.20333194732666016,-0.742957592010498,-0.9067771434783936
1772729575530268000,7.311267822265625,-0.17349529266357422,-0.5912036895751953,-0.7351133227348328
1772729575539786200,7.3207861328125,-0.545557975769043,-0.4182248115539551,-0.6624329686164856
1772729575549304300,7.33030419921875,-0.8593807220458984,-0.30019569396972656,-0.6175931692123413
1772729575558822700,7.33982275390625,-1.0996050834655762,-0.18461275100708008,-0.6425222158432007
1772729575568341000,7.349341064453125,-1.3081331253051758,-0.10519218444824219,-0.626178503036499
1772729575577859300,7.358859375,-1.4426488876342773,-0.05356311798095703,-0.5615751147270203
1772729575587377400,7.36837744140625,-1.3960638046264648,0.037499427795410156,-0.4832218885421753
1772729575596895700,7.377895751953125,-1.2712221145629883,0.16741943359375,-0.4271739721298218
1772729575606414000,7.3874140625,-1.1085968017578125,0.275601863861084,-0.32111531496047974
1772729575615932400,7.396932373046875,-0.9176416397094727,0.3446497917175293,-0.10250738263130188
1772729575625450800,7.40645068359375,-0.7650918960571289,0.35237693786621094,0.15217801928520203
1772729575634969000,7.415968994140625,-0.6939411163330078,0.36797189712524414,0.31254902482032776
1772729575644487200,7.425487060546875,-0.6132135391235352,0.38889312744140625,0.4235391616821289
1772729575654005500,7.435005615234375,-0.5202932357788086,0.41734743118286133,0.4752451181411743
1772729575663523800,7.44452392578125,-0.4145040512084961,0.45002079010009766,0.4287455081939697
1772729575673042000,7.4540419921875,-0.27347850799560547,0.4449644088745117,0.3219910264015198
1772729575682560300,7.463560302734375,-0.1248159408569336,0.3956170082092285,0.23422756791114807
1772729575692078600,7.47307861328125,0.020354270935058594,0.31249141693115234,0.15330058336257935
1772729575701597000,7.482596923828125,0.05282306671142578,0.22550106048583984,0.09193000197410583
1772729575711115300,7.492115234375,0.1212778091430664,0.17208051681518555,0.030290961265563965
1772729575720633600,7.501633544921875,0.12549877166748047,0.13525104522705078,-0.032541364431381226
1772729575730151700,7.511151611328125,0.07238197326660156,0.1420435905456543,-0.07084307074546814
1772729575739670000,7.520669921875,0.028316497802734375,0.15533161163330078,-0.06427717208862305
1772729575749188400,7.530188232421875,0.011615753173828125,0.23381996154785156,-0.04425439238548279
1772729575758706700,7.539706787109375,0.007080078125,0.39785289764404297,-0.026290088891983032
1772729575768224800,7.549224853515625,-0.02179431915283203,0.5362281799316406,0.01661178469657898
1772729575777743000,7.5587431640625,-0.013358116149902344,0.6497864723205566,0.09750142693519592
1772729575787261400,7.568261474609375,0.0465850830078125,0.7672615051269531,0.08526158332824707
1772729575796779800,7.57777978515625,0.19396209716796875,0.8499360084533691,0.06662365794181824
1772729575806297900,7.5872978515625,0.33580875396728516,0.880530834197998,0.01798996329307556
1772729575815816200,7.596816162109375,0.5084047317504883,0.8797512054443359,0.004506111145019531
1772729575825334500,7.60633447265625,0.6787853240966797,0.8394694328308105,-0.056719571352005005
1772729575834852900,7.615852783203125,0.8355903625488281,0.8016929626464844,-0.1058214008808136
1772729575844371200,7.62537109375,0.9648447036743164,0.7777953147888184,-0.17398492991924286
1772729575853889500,7.6348896484375,1.0693378448486328,0.7719063758850098,-0.25852471590042114
1772729575863407600,7.64440771484375,1.1684684753417969,0.8264493942260742,-0.3700941801071167
1772729575872926000,7.653926025390625,1.1285743713378906,0.8481721878051758,-0.46400660276412964
1772729575882444300,7.6634443359375,1.0022506713867188,0.8043885231018066,-0.4669185280799866
1772729575891962600,7.672962646484375,0.8343324661254883,0.823279857635498,-0.4542442262172699
1772729575901480700,7.682480712890625,0.6192846298217773,0.8920669555664062,-0.5960928201675415
1772729575910999000,7.6919990234375,0.44430065155029297,0.9843864440917969,-0.7542506456375122
1772729575920517400,7.701517333984375,0.3748035430908203,0.9976754188537598,-0.8104733228683472
1772729575930035700,7.71103564453125,0.4336843490600586,0.9621195793151855,-0.8652017712593079
1772729575939554000,7.720553955078125,0.7256078720092773,0.901726245880127,-0.9671726226806641
1772729575949072100,7.730072021484375,1.0214004516601562,0.7558012008666992,-1.0509579181671143
1772729575958590500,7.739590576171875,1.302800178527832,0.41069650650024414,-0.9875586628913879
1772729575968108800,7.74910888671875,1.6787843704223633,-0.06204652786254883,-0.9089058637619019
1772729575977627100,7.758627197265625,1.9677562713623047,-0.4712033271789551,-0.8338372111320496
1772729575987145500,7.7681455078125,1.9930963516235352,-0.8667025566101074,-0.7589830160140991
1772729575996663600,7.77766357421875,1.7543163299560547,-1.334245204925537,-0.6284855008125305
1772729576006182000,7.787181884765625,1.3550500869750977,-1.6896977424621582,-0.5724037885665894
1772729576015700200,7.7967001953125,0.8289251327514648,-1.7649011611938477,-0.6284955739974976
1772729576025218600,7.806218505859375,0.2758016586303711,-1.642038106918335,-0.9052290320396423
1772729576034736600,7.815736572265625,-0.3654670715332031,-1.4522340297698975,-1.0917912721633911
1772729576044255000,7.8252548828125,-0.9297118186950684,-1.38551664352417,-1.13360595703125
1772729576053773300,7.834773193359375,-1.347938060760498,-1.2686586380004883,-1.2446980476379395
1772729576063291600,7.844291748046875,-1.711352825164795,-1.1126046180725098,-1.3314471244812012
1772729576072810000,7.85381005859375,-2.067934513092041,-0.9497184753417969,-1.333561658859253
1772729576082328000,7.863328125,-2.2957592010498047,-0.8604893684387207,-1.289184808731079
1772729576091846400,7.872846435546875,-2.3370938301086426,-0.7707004547119141,-1.1347800493240356
1772729576101364700,7.88236474609375,-2.2764997482299805,-0.7413630485534668,-0.9630711078643799
1772729576110883000,7.891883056640625,-2.013491153717041,-0.7416996955871582,-0.794827938079834
1772729576120401200,7.901401123046875,-1.5638785362243652,-0.756619930267334,-0.6549864411354065
1772729576129919500,7.91091943359375,-1.1027402877807617,-0.7767949104309082,-0.4671502709388733
1772729576139437800,7.920437744140625,-0.5849456787109375,-0.867398738861084,-0.25882405042648315
1772729576148956200,7.9299560546875,0.022942543029785156,-0.9415569305419922,-0.10686767101287842
1772729576158474200,7.93947412109375,0.6186065673828125,-0.9612836837768555,-0.1279548555612564
1772729576167992600,7.94899267578125,1.023177146911621,-1.0123443603515625,-0.15579897165298462
1772729576177511000,7.958510986328125,1.2676925659179688,-1.1007370948791504,-0.12907932698726654
1772729576187029200,7.968029296875,1.406209945678711,-1.178704023361206,-0.09085328876972198
1772729576196547600,7.977547607421875,1.4349098205566406,-1.1572070121765137,-0.0995594710111618
1772729576206066000,7.98706591796875,1.3182668685913086,-1.0702342987060547,-0.18002766370773315
1772729576215584000,7.996583984375,1.0390214920043945,-0.9213073253631592,-0.2020573616027832
1772729576225102300,8.006102294921876,0.6724233627319336,-0.8177242279052734,-0.1830345094203949
1772729576234620700,8.01562060546875,0.2454671859741211,-0.6844577789306641,-0.10103106498718262
1772729576244139000,8.025138916015624,-0.14105606079101562,-0.5752453804016113,-0.02595466375350952
1772729576253657000,8.034656982421875,-0.4793424606323242,-0.4775257110595703,0.0516776442527771
1772729576263175400,8.044175537109375,-0.7372236251831055,-0.37485551834106445,0.15932059288024902
1772729576272693800,8.05369384765625,-0.972743034362793,-0.2922792434692383,0.19466915726661682
1772729576282212000,8.063212158203125,-1.1337265968322754,-0.20286321640014648,0.27395135164260864
1772729576291730200,8.072730224609375,-1.2252988815307617,-0.19228553771972656,0.3825058043003082
1772729576301248500,8.08224853515625,-1.3383827209472656,-0.11458635330200195,0.4468357563018799
1772729576310766800,8.091766845703125,-1.4515962600708008,0.04699897766113281,0.44475287199020386
1772729576320285200,8.10128515625,-1.5006136894226074,0.17763566970825195,0.44308149814605713
1772729576329803500,8.110803466796876,-1.4689769744873047,0.2581653594970703,0.4272562265396118
1772729576339321600,8.120321533203125,-1.2991209030151367,0.3162565231323242,0.37879055738449097
1772729576348840000,8.12983984375,-1.093048095703125,0.3408222198486328,0.34222161769866943
1772729576358358300,8.139358154296875,-0.9357728958129883,0.31860780715942383,0.3327944874763489
1772729576367876600,8.148876708984375,-0.7668619155883789,0.23918962478637695,0.4259119927883148
1772729576377394700,8.158394775390626,-0.5882625579833984,0.18526506423950195,0.48696333169937134
1772729576386913000,8.1679130859375,-0.4093904495239258,0.19694089889526367,0.4271673262119293
1772729576396431400,8.177431396484375,-0.25878238677978516,0.2903728485107422,0.3173202872276306
1772729576405949700,8.18694970703125,-0.09589004516601562,0.3650245666503906,0.20598986744880676
1772729576415467800,8.1964677734375,0.11264610290527344,0.40897560119628906,0.1523686647415161
1772729576424986000,8.205986083984374,0.2834501266479492,0.41724061965942383,0.1749967336654663
1772729576434504400,8.21550439453125,0.42877197265625,0.40399694442749023,0.2657444179058075
1772729576444022800,8.225022705078125,0.5558347702026367,0.4122343063354492,0.35755452513694763
1772729576453541000,8.234541015625,0.7027225494384766,0.4778327941894531,0.43491846323013306
1772729576463059500,8.2440595703125,0.8644809722900391,0.5529704093933105,0.39599373936653137
1772729576472577500,8.25357763671875,1.0004558563232422,0.6067099571228027,0.3627861738204956
1772729576482095900,8.263095947265626,1.0963354110717773,0.6203904151916504,0.3802145719528198
1772729576491614200,8.2726142578125,1.1451492309570312,0.6419754028320312,0.4125593900680542
1772729576501132300,8.28213232421875,1.2499074935913086,0.6399478912353516,0.446105420589447
1772729576510650600,8.291650634765626,1.3777179718017578,0.6943044662475586,0.42980483174324036
1772729576520169000,8.3011689453125,1.4216508865356445,0.7323508262634277,0.3965340256690979
1772729576529687300,8.310687255859374,1.4273767471313477,0.7466120719909668,0.431173175573349
1772729576539205400,8.320205322265625,1.4089469909667969,0.768704891204834,0.5072634220123291
1772729576548723700,8.3297236328125,1.3299798965454102,0.799809455871582,0.530340313911438
1772729576558242000,8.339241943359376,1.2421455383300781,0.8489170074462891,0.5416948795318604
1772729576567760400,8.348760498046875,1.1514711380004883,0.8418588638305664,0.5191566348075867
1772729576577278700,8.35827880859375,1.0136613845825195,0.7384562492370605,0.5202182531356812
1772729576586797000,8.367797119140626,0.8798770904541016,0.5918107032775879,0.5525195598602295
1772729576596315100,8.377315185546875,0.7943286895751953,0.39218568801879883,0.5799635648727417
1772729576605833500,8.38683349609375,0.8928060531616211,0.2690420150756836,0.5498305559158325
1772729576615351800,8.396351806640626,1.0748262405395508,0.15532970428466797,0.5369899272918701
1772729576624870000,8.405869873046875,1.3438282012939453,-0.005921840667724609,0.6353755593299866
1772729576634388200,8.41538818359375,1.608271598815918,-0.21543455123901367,0.7468484044075012
1772729576643906600,8.424906494140625,1.8512029647827148,-0.4296236038208008,0.8211771845817566
1772729576653425000,8.4344248046875,1.993779182434082,-0.6938018798828125,0.866726279258728
1772729576662943000,8.44394287109375,1.9906940460205078,-1.0028624534606934,0.8823513388633728
1772729576672461300,8.45346142578125,1.784292221069336,-1.290745496749878,0.9178972244262695
1772729576681979600,8.462979736328125,1.3807563781738281,-1.4492993354797363,0.8037906885147095
1772729576691498000,8.472498046875,1.0312223434448242,-1.483537197113037,0.6363658308982849
1772729576701016300,8.482016357421875,0.5411596298217773,-1.4726848602294922,0.42382439970970154
1772729576710534700,8.49153466796875,-0.009757041931152344,-1.3606810569763184,0.27420574426651
1772729576720052700,8.501052734375,-0.4924459457397461,-1.2699050903320312,0.2713015079498291
1772729576729571000,8.510571044921875,-0.9670228958129883,-1.1191728115081787,0.27335309982299805
1772729576739089400,8.52008935546875,-1.343012809753418,-0.9424076080322266,0.2015935778617859
1772729576748607700,8.529607666015625,-1.5873684883117676,-0.7784214019775391,0.16945034265518188
1772729576758125800,8.539125732421875,-1.7383522987365723,-0.6258907318115234,0.2247343361377716
1772729576767644200,8.54864404296875,-1.7496557235717773,-0.5277485847473145,0.3751866817474365
1772729576777162500,8.55816259765625,-1.6123542785644531,-0.4206061363220215,0.5435649156570435
1772729576786680600,8.5676806640625,-1.3212509155273438,-0.4125556945800781,0.7009717226028442
1772729576796199000,8.577198974609376,-0.9300155639648438,-0.47468090057373047,0.7926940321922302
1772729576805717200,8.58671728515625,-0.4152183532714844,-0.6057658195495605,0.8067305088043213
1772729576815235600,8.596235595703124,0.11106014251708984,-0.6983180046081543,0.7038956880569458
1772729576824754000,8.60575390625,0.5707645416259766,-0.7868571281433105,0.47277501225471497
1772729576834272300,8.615272216796875,0.995391845703125,-0.8839657306671143,0.25128263235092163
1772729576843790300,8.624790283203126,1.1600160598754883,-1.0028152465820312,0.08115988969802856
1772729576853308700,8.63430859375,1.0874462127685547,-1.0328116416931152,-0.07847505807876587
1772729576862827000,8.643826904296875,0.8568592071533203,-0.9981598854064941,-0.22024434804916382
1772729576872345000,8.653344970703126,0.5726137161254883,-0.8881411552429199,-0.36947357654571533
1772729576881863400,8.662863525390625,0.23810386657714844,-0.739081859588623,-0.47743332386016846
1772729576891381800,8.6723818359375,-0.04293537139892578,-0.5587756633758545,-0.5108553171157837
1772729576900900000,8.681900146484375,-0.2884788513183594,-0.39342308044433594,-0.5057095289230347
1772729576910418200,8.691418212890625,-0.5353641510009766,-0.24845314025878906,-0.33101457357406616
1772729576919936500,8.7009365234375,-0.772313117980957,-0.12207508087158203,-0.09676384925842285
1772729576929454800,8.710454833984375,-1.0262374877929688,-0.0406336784362793,0.12107610702514648
1772729576938973200,8.71997314453125,-1.2479233741760254,0.03209733963012695,0.3054155111312866
1772729576948491500,8.729491455078126,-1.4027152061462402,0.04364442825317383,0.46061617136001587
1772729576958009900,8.739009765625,-1.4440627098083496,0.07010126113891602,0.5438108444213867
1772729576967528000,8.74852783203125,-1.370589256286621,0.12710332870483398,0.566918671131134
1772729576977046300,8.75804638671875,-1.242201805114746,0.1695232391357422,0.59909987449646
1772729576986564600,8.767564697265625,-1.0797410011291504,0.22717809677124023,0.5509358644485474
1772729576996082700,8.777082763671874,-0.7651395797729492,0.21893596649169922,0.5584278106689453
1772729577005601000,8.78660107421875,-0.5023813247680664,0.11838197708129883,0.626777172088623
1772729577015119400,8.796119384765625,-0.3253288269042969,0.08952188491821289,0.6166191101074219
1772729577024637700,8.8056376953125,-0.1825551986694336,-0.027975082397460938,0.5544220209121704
1772729577034155800,8.81515576171875,-0.044762611389160156,-0.08517742156982422,0.4473356008529663
1772729577043674000,8.824674072265625,0.043186187744140625,-0.03817176818847656,0.2870361804962158
1772729577053192400,8.8341923828125,0.050811767578125,0.06176614761352539,0.03089308738708496
1772729577062710800,8.843710693359375,-0.0028905868530273438,0.06696033477783203,-0.07582640647888184
1772729577072229000,8.85322900390625,-0.02779388427734375,0.03574228286743164,-0.12022799253463745
1772729577081747200,8.862747314453125,-0.07726764678955078,0.017633914947509766,-0.14980578422546387
1772729577091265500,8.872265625,-0.1900196075439453,0.018920421600341797,-0.1249091625213623
1772729577100783900,8.881783935546874,-0.21616458892822266,0.07866287231445312,-0.24554169178009033
1772729577110302200,8.89130224609375,-0.17107295989990234,0.07604742050170898,-0.27530550956726074
1772729577119820300,8.9008203125,-0.12462043762207031,0.0954141616821289,-0.29202091693878174
1772729577129338600,8.910338623046876,-0.033939361572265625,0.1507582664489746,-0.39052319526672363
1772729577138857000,8.91985693359375,0.2417917251586914,0.18120241165161133,-0.5194333791732788
1772729577148375300,8.929375244140624,0.6577205657958984,0.14222955703735352,-0.5439087152481079
1772729577157893600,8.9388935546875,0.9262809753417969,0.14725828170776367,-0.4779201149940491
1772729577167411700,8.94841162109375,1.0944280624389648,0.06640052795410156,-0.31003665924072266
1772729577176930000,8.957929931640624,1.3639802932739258,-0.03462696075439453,-0.1609451174736023
1772729577186448400,8.967448486328125,1.5279207229614258,-0.027935504913330078,-0.16126638650894165
1772729577195966700,8.976966796875,1.5677728652954102,0.007009029388427734,-0.21966147422790527
1772729577205484800,8.98648486328125,1.392073631286621,0.10329771041870117,-0.24186193943023682
1772729577215003100,8.996003173828125,0.9893608093261719,0.23869991302490234,-0.24622702598571777
1772729577224521500,9.005521484375,0.6003437042236328,0.45345306396484375,-0.3748711347579956
1772729577234039800,9.015039794921876,0.500605583190918,0.6654014587402344,-0.5104680061340332
1772729577243558000,9.024557861328125,0.5695571899414062,0.806607723236084,-0.5375677347183228
1772729577253076200,9.034076171875,0.8127918243408203,0.8576569557189941,-0.5643817186355591
1772729577262594600,9.043594482421875,1.1347484588623047,0.5855236053466797,-0.47849321365356445
1772729577272113000,9.05311279296875,1.4747982025146484,0.1098785400390625,-0.274472713470459
1772729577281631200,9.06263134765625,1.847315788269043,-0.39186811447143555,-0.12457656860351562
1772729577291149300,9.0721494140625,2.2693891525268555,-0.8161077499389648,-0.12299460172653198
1772729577300667600,9.081667724609375,2.569911003112793,-1.225721836090088,-0.25924181938171387
1772729577310186000,9.09118603515625,2.642453193664551,-1.5996503829956055,-0.4229498505592346
1772729577319704000,9.1007041015625,2.399106979370117,-1.951416015625,-0.5906091928482056
1772729577329222400,9.110222412109374,2.0591230392456055,-2.0644779205322266,-0.8652498722076416
1772729577338740700,9.11974072265625,1.6204700469970703,-2.041438579559326,-1.0278818607330322
1772729577348259000,9.129259033203125,1.2425603866577148,-1.9003119468688965,-1.1272633075714111
1772729577357777200,9.138777099609374,0.9053955078125,-1.7201545238494873,-1.2414230108261108
1772729577367295500,9.14829541015625,0.3549022674560547,-1.5877535343170166,-1.2636781930923462
1772729577376813800,9.157813720703125,-0.21957683563232422,-1.4706611633300781,-1.1361947059631348
1772729577386332200,9.167332275390624,-0.6605300903320312,-1.329150676727295,-1.0194931030273438
1772729577395850500,9.1768505859375,-1.0013904571533203,-1.123985767364502,-0.9095114469528198
1772729577405368600,9.18636865234375,-1.3230266571044922,-0.9066641330718994,-0.833547830581665
1772729577414887000,9.195886962890626,-1.574821949005127,-0.7622284889221191,-0.6930196285247803
1772729577424405200,9.2054052734375,-1.6176156997680664,-0.6691031455993652,-0.5006766319274902
1772729577433923600,9.214923583984374,-1.5336322784423828,-0.6165008544921875,-0.37508583068847656
1772729577443441700,9.224441650390625,-1.4278583526611328,-0.6446256637573242,-0.26243460178375244
1772729577452960000,9.2339599609375,-1.232778549194336,-0.6890172958374023,-0.1225278377532959
1772729577462478300,9.243478271484374,-1.016855239868164,-0.769371509552002,-0.02254009246826172
1772729577471996400,9.252996337890625,-0.7522702217102051,-0.8063116073608398,0.03249979019165039
1772729577481514800,9.2625146484375,-0.4514760971069336,-0.7882885932922363,-0.0006756782531738281
1772729577491033000,9.272033203125,-0.18210220336914062,-0.7943825721740723,0.08364272117614746
1772729577500551400,9.281551513671875,0.009240150451660156,-0.7883539199829102,0.18954336643218994
1772729577510069800,9.29106982421875,0.1691265106201172,-0.6890978813171387,0.16659939289093018
1772729577519588000,9.300588134765626,0.2387523651123047,-0.546750545501709,0.0474858283996582
1772729577529106200,9.310106201171875,0.17303466796875,-0.4411764144897461,-0.01183629035949707
1772729577538624500,9.31962451171875,0.0339508056640625,-0.3459444046020508,0.016478776931762695
1772729577548142800,9.329142822265625,-0.13379478454589844,-0.22440338134765625,0.021827340126037598
1772729577557661000,9.338660888671875,-0.2283039093017578,-0.09707450866699219,0.0691831111907959
1772729577567179300,9.34817919921875,-0.33625030517578125,0.027731895446777344,0.11412012577056885
1772729577576697600,9.357697509765625,-0.3860616683959961,0.10773515701293945,0.12094283103942871
1772729577586216000,9.3672158203125,-0.4733543395996094,0.14382219314575195,0.14333975315093994
1772729577595734000,9.376734130859376,-0.5411577224731445,0.14905118942260742,0.21833515167236328
1772729577605252400,9.38625244140625,-0.592529296875,0.1794419288635254,0.24761289358139038
1772729577614770700,9.395770751953124,-0.7048807144165039,0.23381567001342773,0.3125188946723938
1772729577624289000,9.4052890625,-0.7451753616333008,0.3388676643371582,0.2585735321044922
1772729577633807400,9.414807373046875,-0.6732015609741211,0.44886016845703125,0.2146468162536621
1772729577643325400,9.424325439453124,-0.6198511123657227,0.5057315826416016,0.27087289094924927
1772729577652843800,9.43384375,-0.6367998123168945,0.40882205963134766,0.5191988348960876
1772729577662362000,9.443362060546875,-0.6372346878051758,0.24831724166870117,0.7651562094688416
1772729577671880200,9.452880126953126,-0.5318536758422852,0.16121196746826172,0.823811948299408
1772729577681398500,9.4623984375,-0.3675508499145508,0.1048884391784668,0.8014098405838013
1772729577690916900,9.471916748046874,-0.20084571838378906,0.07281160354614258,0.8149917125701904
1772729577700435200,9.481435302734376,-0.11710929870605469,-0.06009531021118164,0.7910010814666748
1772729577709953300,9.490953369140625,-0.1617603302001953,-0.1376185417175293,0.7691808342933655
1772729577719471600,9.5004716796875,-0.34040260314941406,-0.18689441680908203,0.7233714461326599
1772729577728990000,9.509989990234375,-0.43256378173828125,-0.14619731903076172,0.5642265677452087
1772729577738508300,9.51950830078125,-0.4712209701538086,-0.03727865219116211,0.32177966833114624
1772729577748026600,9.529026611328124,-0.5558338165283203,0.0893864631652832,0.16372722387313843
1772729577757544700,9.538544677734375,-0.5701694488525391,0.08502340316772461,0.1739802360534668
1772729577767063000,9.54806298828125,-0.4740438461303711,0.04381275177001953,0.24862641096115112
1772729577776581400,9.557581298828126,-0.1427469253540039,0.05798149108886719,0.3136070966720581
1772729577786099500,9.567099365234375,0.23162364959716797,0.03436422348022461,0.25892817974090576
1772729577795617800,9.57661767578125,0.4852409362792969,-0.08263874053955078,0.32203173637390137
1772729577805136100,9.58613623046875,0.568577766418457,-0.15190982818603516,0.4329848885536194
1772729577814654500,9.595654541015625,0.4408283233642578,-0.1290574073791504,0.3228239417076111
1772729577824172500,9.605172607421874,0.10117626190185547,-0.03613567352294922,0.13081765174865723
1772729577833691000,9.61469091796875,-0.1171426773071289,-0.06571531295776367,-0.09240919351577759
1772729577843209200,9.624209228515625,0.260284423828125,-0.04967069625854492,-0.16207551956176758
1772729577852727600,9.6337275390625,0.6359462738037109,0.23491191864013672,-0.32501769065856934
1772729577862246000,9.643245849609375,0.9397678375244141,0.42938804626464844,-0.4102270007133484
1772729577871764000,9.652763916015624,1.1571407318115234,0.45920419692993164,-0.6321855783462524
1772729577881282300,9.6622822265625,1.087442398071289,0.2039628028869629,-0.35249537229537964
1772729577900319000,9.681319091796874,1.3403167724609375,-0.5857410430908203,0.3857536017894745
1772729577909837000,9.690837158203125,1.897150993347168,-0.7608962059020996,0.4692981541156769
1772729577919355400,9.70035546875,2.5673980712890625,-0.8333959579467773,0.39938512444496155
