time,seconds_elapsed,z,y,x
1772729568343965000,0.12496484375,0.04581485688686371,-0.15638138353824615,0.015271619893610477
1772729568353483300,0.134483154296875,0.034208428114652634,-0.1692095398902893,-0.014049889519810677
1772729568363001600,0.144001708984375,0.015271619893610477,-0.19303326308727264,-0.046425722539424896
1772729568382038000,0.1630380859375,-0.021991131827235222,-0.2614501118659973,-0.1233946830034256
1772729568391556400,0.172556396484375,-0.039706211537122726,-0.32192572951316833,-0.16798780858516693
1772729568401074400,0.182074462890625,-0.0513126403093338,-0.3805687427520752,-0.21441353857517242
1772729568410592800,0.1915927734375,-0.056199558079242706,-0.4214966893196106,-0.25534147024154663
1772729568420111000,0.201111083984375,-0.0513126403093338,-0.4404335021972656,-0.2883281707763672
1772729568429629400,0.21062939453125,-0.03787361457943916,-0.43493571877479553,-0.3133736252784729
1772729568439147800,0.220147705078125,-0.0054977829568088055,-0.389120876789093,-0.3237583339214325
1772729568448666000,0.229666015625,0.04581485688686371,-0.30054548382759094,-0.31093016266822815
1772729568458184200,0.23918408203125,0.10384701192378998,-0.17898337543010712,-0.27366742491722107
1772729568467702500,0.24870263671875,0.15271618962287903,-0.040317077189683914,-0.22235478460788727
1772729568477220900,0.258220947265625,0.18814635276794434,0.08796452730894089,-0.15821397304534912
1772729568486739000,0.267739013671875,0.20708316564559937,0.16859868168830872,-0.08491020649671555
1772729568496257300,0.27725732421875,0.2162461280822754,0.1893680840730667,-0.011606430634856224
1772729568505775600,0.286775634765625,0.22174391150474548,0.16676609218120575,0.049480047076940536
1772729568515294000,0.2962939453125,0.22296564280986786,0.11423171311616898,0.09162971377372742
1772729568524812000,0.30581201171875,0.2211330533027649,0.047036588191986084,0.11484257876873016
1772729568534330400,0.315330322265625,0.21258094906806946,-0.023823726922273636,0.1178968995809555
1772729568543848700,0.3248486328125,0.19303326308727264,-0.09651663154363632,0.09957095980644226
1772729568553367000,0.334366943359375,0.17165300250053406,-0.17348559200763702,0.06841685622930527
1772729568562885400,0.343885498046875,0.15515965223312378,-0.235793799161911,0.025045456364750862
1772729568572403700,0.35340380859375,0.1490510106086731,-0.27000224590301514,-0.023823726922273636
1772729568581921800,0.362921875,0.15149445831775665,-0.2724456787109375,-0.07757982611656189
1772729568591440100,0.372440185546875,0.15638138353824615,-0.25473061203956604,-0.12767073512077332
1772729568600958500,0.38195849609375,0.16187916696071625,-0.22418737411499023,-0.17165300250053406
1772729568610476500,0.3914765625,0.16249002516269684,-0.1802051067352295,-0.20463970303535461
1772729568619995000,0.400994873046875,0.1539379209280014,-0.1337793916463852,-0.22846342623233795
1772729568629513200,0.41051318359375,0.1386663019657135,-0.1026252806186676,-0.24312418699264526
1772729568639031600,0.420031494140625,0.12034036219120026,-0.0818558782339096,-0.2522871494293213
1772729568648549600,0.429549560546875,0.10445787757635117,-0.07880155742168427,-0.25961753726005554
1772729568658068000,0.43906787109375,0.09101885557174683,-0.08674279600381851,-0.2626718580722809
1772729568667586300,0.44858642578125,0.08674279600381851,-0.08124501258134842,-0.25961753726005554
1772729568677104600,0.458104736328125,0.09285144507884979,-0.05925388261675835,-0.24434591829776764
1772729568686623000,0.467623046875,0.10201441496610641,-0.018325943499803543,-0.22174391150474548
1772729568696141300,0.477141357421875,0.1081230640411377,0.05558869615197182,-0.19425499439239502
1772729568705659400,0.486659423828125,0.11362084746360779,0.1588248461484909,-0.1692095398902893
1772729568715177700,0.496177734375,0.12767073512077332,0.28405213356018066,-0.15210533142089844
1772729568724696000,0.505696044921875,0.15027274191379547,0.3860665261745453,-0.14110976457595825
1772729568734214100,0.515214111328125,0.17531819641590118,0.44470956921577454,-0.1331685185432434
1772729568743732500,0.524732421875,0.20952661335468292,0.4673115611076355,-0.12217295914888382
1772729568753250800,0.534250732421875,0.24312418699264526,0.45387253165245056,-0.10140355676412582
1772729568762769200,0.54376904296875,0.26450446248054504,0.4251618981361389,-0.07574722915887833
1772729568772287200,0.553287353515625,0.2675587832927704,0.38789913058280945,-0.05192350596189499
1772729568781805600,0.5628056640625,0.258395791053772,0.3488037884235382,-0.03237583488225937
1772729568791324000,0.572323974609375,0.24373504519462585,0.33658650517463684,-0.021380268037319183
1772729568800842200,0.58184228515625,0.2315177470445633,0.3426951467990875,-0.0256563201546669
1772729568810360600,0.591360595703125,0.22724169492721558,0.34636032581329346,-0.039706211537122726
1772729568819878700,0.600878662109375,0.23762640357017517,0.32009315490722656,-0.05253437161445618
1772729568829397000,0.61039697265625,0.2712239623069763,0.2510654330253601,-0.046425722539424896
1772729568838915300,0.619915283203125,0.32131487131118774,0.1698204129934311,-0.015271619893610477
1772729568848433700,0.62943359375,0.39217519760131836,0.16615521907806396,0.043371398001909256
1772729568857951700,0.63895166015625,0.4679224193096161,0.23212862014770508,0.12705987691879272
1772729568867470000,0.648469970703125,0.5302306413650513,0.33169957995414734,0.22724169492721558
1772729568876988400,0.657988525390625,0.573602020740509,0.4514290690422058,0.32681265473365784
1772729568886506800,0.6675068359375,0.6017017960548401,0.5418370366096497,0.41783151030540466
1772729568896025000,0.677025146484375,0.6194168925285339,0.5662716627120972,0.4935787320137024
1772729568905543200,0.686543212890625,0.6255255341529846,0.5247328281402588,0.5424479246139526
1772729568915061500,0.6960615234375,0.6059778332710266,0.40805765986442566,0.5595521330833435
1772729568924579800,0.705579833984375,0.5577195286750793,0.25534147024154663,0.5436696410179138
1772729568934098200,0.71509814453125,0.49113526940345764,0.10751219838857651,0.5051851868629456
1772729568943616300,0.7246162109375,0.4269944727420807,0.002443459117785096,0.4557051360607147
1772729568953134600,0.734134521484375,0.3707949221134186,-0.03848448023200035,0.40255987644195557
1772729568962653000,0.74365283203125,0.3194822669029236,-0.028099779039621353,0.34636032581329346
1772729568972171300,0.753171142578125,0.27550002932548523,0.001832594396546483,0.2834412455558777
1772729568981689300,0.762689453125,0.2712239623069763,0.025045456364750862,0.22785256803035736
1772729568991207700,0.772207763671875,0.32681265473365784,0.05742128938436508,0.19792018830776215
1772729569000726000,0.78172607421875,0.4379900395870209,0.15577052533626556,0.20647229254245758
1772729569010244400,0.791244384765625,0.5699368119239807,0.37201663851737976,0.2419024556875229
1772729569019762700,0.8007626953125,0.6719512343406677,0.6603448390960693,0.30054548382759094
1772729569029281000,0.810281005859375,0.7165443897247314,0.7666352987289429,0.36835145950317383
1772729569038799000,0.819799072265625,0.7159335017204285,0.676227331161499,0.41905322670936584
1772729569048317400,0.8293173828125,0.6866120100021362,0.5137372612953186,0.45326167345046997
1772729569057835800,0.838835693359375,0.6768381595611572,0.3958403766155243,0.4819723069667816
1772729569067354000,0.84835400390625,0.6426297426223755,0.24251331388950348,0.47525280714035034
1772729569076872200,0.8578720703125,0.5852084755897522,0.14172062277793884,0.4422661066055298
1772729569086390500,0.867390625,0.5137372612953186,0.17348559200763702,0.3811796307563782
1772729569095908900,0.876908935546875,0.44409868121147156,0.2822195291519165,0.29504770040512085
1772729569105427200,0.88642724609375,0.38789913058280945,0.4159989058971405,0.18753549456596375
1772729569114945300,0.8959453125,0.35735589265823364,0.5864301919937134,0.0665842592716217
1772729569124463600,0.905463623046875,0.3536907136440277,0.7128791809082031,-0.06352993845939636
1772729569133982000,0.91498193359375,0.36712974309921265,0.6212494969367981,-0.19608759880065918
1772729569143500300,0.924500244140625,0.3952295184135437,0.33047783374786377,-0.32192572951316833
1772729569153018600,0.9340185546875,0.4514290690422058,-0.07086031138896942,-0.41905322670936584
1772729569162536700,0.94353662109375,0.5247328281402588,-0.45326167345046997,-0.4740310609340668
1772729569172055000,0.953054931640625,0.5864301919937134,-0.7024945020675659,-0.48502662777900696
1772729569181573400,0.962573486328125,0.6267472505569458,-0.7098248600959778,-0.45020735263824463
1772729569191091700,0.972091796875,0.6450732350349426,-0.44959646463394165,-0.3787361681461334
1772729569200609800,0.98160986328125,0.638353705406189,-0.05742128938436508,-0.2926042377948761
1772729569210128100,0.991128173828125,0.6206386089324951,0.3439168632030487,-0.20158538222312927
1772729569219646500,1.000646484375,0.6145299673080444,0.6927206516265869,-0.10690133273601532
1772729569229164800,1.010164794921875,0.6340776681900024,0.9425643682479858,-0.015271619893610477
1772729569238683000,1.019682861328125,0.6817250847816467,1.0512982606887817,0.06902772188186646
1772729569248201200,1.029201171875,0.7452550530433655,1.0238093137741089,0.13988803327083588
1772729569257719600,1.038719482421875,0.8087849617004395,0.9144645929336548,0.1905898153781891
1772729569267238000,1.04823779296875,0.8497129082679749,0.7544180154800415,0.21930044889450073
1772729569276756200,1.057756103515625,0.8588758707046509,0.5790998339653015,0.2205221801996231
1772729569286274600,1.067274658203125,0.8460476994514465,0.4379900395870209,0.19914191961288452
1772729569295792600,1.076792724609375,0.8155044913291931,0.31642794609069824,0.1545487940311432
1772729569305311000,1.08631103515625,0.7800742983818054,0.20280711352825165,0.09651663154363632
1772729569314829300,1.095829345703125,0.7483093738555908,0.12767073512077332,0.0360410213470459
1772729569324347600,1.10534765625,0.7257073521614075,0.09590577334165573,-0.025045456364750862
1772729569333865700,1.11486572265625,0.7031053900718689,0.08674279600381851,-0.0824667438864708
1772729569343384000,1.124384033203125,0.6701186895370483,0.07819069176912308,-0.13561198115348816
1772729569352902400,1.13390234375,0.6316341757774353,0.06902772188186646,-0.18203771114349365
1772729569362420500,1.14342041015625,0.5913171172142029,0.04764745384454727,-0.21319180727005005
1772729569371938800,1.152938720703125,0.5522217750549316,0.026878049597144127,-0.22724169492721558
1772729569381457200,1.16245703125,0.5186241865158081,0.011606430634856224,-0.22479823231697083
1772729569390975500,1.1719755859375,0.481361448764801,0.004886918235570192,-0.21319180727005005
1772729569400493800,1.181493896484375,0.44409868121147156,0.01282816007733345,-0.19914191961288452
1772729569410012200,1.19101220703125,0.4153880476951599,0.0360410213470459,-0.18264856934547424
1772729569419530200,1.2005302734375,0.4043924808502197,0.05864302068948746,-0.15821397304534912
1772729569429048600,1.210048583984375,0.40866854786872864,0.07330377399921417,-0.12034036219120026
1772729569438567000,1.21956689453125,0.41844236850738525,0.0824667438864708,-0.06719512492418289
1772729569448085200,1.229085205078125,0.4159989058971405,0.07086031138896942,-0.007330377586185932
1772729569457603300,1.238603271484375,0.39339691400527954,0.04581485688686371,0.05436696484684944
1772729569467121700,1.24812158203125,0.3659079968929291,0.024434590712189674,0.10323614627122879
1772729569476640000,1.257639892578125,0.34086254239082336,-0.007330377586185932,0.13072505593299866
1772729569486158300,1.267158447265625,0.3231474757194519,-0.06536252796649933,0.13439024984836578
1772729569495676400,1.276676513671875,0.31154105067253113,-0.13622283935546875,0.1233946830034256
1772729569505194800,1.28619482421875,0.30482152104377747,-0.2107483446598053,0.1081230640411377
1772729569514713000,1.295713134765625,0.30054548382759094,-0.27000224590301514,0.0977383628487587
1772729569524231400,1.3052314453125,0.29993459582328796,-0.28954991698265076,0.09712749719619751
1772729569533749800,1.314749755859375,0.29565855860710144,-0.29016077518463135,0.10384701192378998
1772729569543268000,1.32426806640625,0.28527384996414185,-0.287106454372406,0.11423171311616898
1772729569552786200,1.3337861328125,0.27550002932548523,-0.24312418699264526,0.13194678723812103
1772729569562304500,1.343304443359375,0.268169641494751,-0.17592905461788177,0.1539379209280014
1772729569571822800,1.35282275390625,0.2577849328517914,-0.14110976457595825,0.1802051067352295
1772729569581341200,1.362341064453125,0.24434591829776764,-0.15577052533626556,0.20830489695072174
1772729569590859300,1.371859375,0.2315177470445633,-0.1893680840730667,0.23335035145282745
1772729569600377600,1.381377685546875,0.22724169492721558,-0.20708316564559937,0.24862197041511536
1772729569609896000,1.39089599609375,0.2254091054201126,-0.20280711352825165,0.24862197041511536
1772729569619414300,1.400414306640625,0.22296564280986786,-0.205861434340477,0.23273947834968567
1772729569628932400,1.409932373046875,0.20891575515270233,-0.22479823231697083,0.19425499439239502
1772729569638450700,1.41945068359375,0.1795942485332489,-0.2767217457294464,0.13439024984836578
1772729569647969000,1.428968994140625,0.13622283935546875,-0.3695732057094574,0.0616973415017128
1772729569657487400,1.4384873046875,0.08979712426662445,-0.46975502371788025,-0.014049889519810677
1772729569667005700,1.448005615234375,0.05192350596189499,-0.546113133430481,-0.07391463965177536
1772729569676524000,1.45752392578125,0.036651886999607086,-0.5809323787689209,-0.09896009415388107
1772729569686042000,1.4670419921875,0.043982263654470444,-0.5400044918060303,-0.07757982611656189
1772729569695560400,1.476560546875,0.06230820715427399,-0.4153880476951599,-0.008552107028663158
1772729569705078800,1.486078857421875,0.06963858753442764,-0.24251331388950348,0.09407317638397217
1772729569714596900,1.495596923828125,0.06291907280683517,-0.07452550530433655,0.2156352698802948
1772729569724115200,1.505115234375,0.04214967042207718,0.05253437161445618,0.34208428859710693
1772729569733633500,1.514633544921875,0.01649334840476513,0.11728604137897491,0.4575377106666565
1772729569743151900,1.52415185546875,-0.014660755172371864,0.1130099818110466,0.5485565662384033
1772729569752670000,1.533669921875,-0.05192350596189499,0.047036588191986084,0.6084213256835938
1772729569762188300,1.543188232421875,-0.09651663154363632,-0.0616973415017128,0.6334667801856995
1772729569771706600,1.55270654296875,-0.14233149588108063,-0.17837251722812653,0.6236929297447205
1772729569781225000,1.562224853515625,-0.18753549456596375,-0.29077163338661194,0.5809323787689209
1772729569790743300,1.571743408203125,-0.23457208275794983,-0.3799578845500946,0.500298261642456
1772729569800261600,1.58126171875,-0.2828303873538971,-0.42943793535232544,0.3836230933666229
1772729569809779700,1.59077978515625,-0.33108872175216675,-0.42455101013183594,0.2406807243824005
1772729569819298000,1.600298095703125,-0.379347026348114,-0.3848448097705841,0.0873536616563797
1772729569828816400,1.60981640625,-0.4251618981361389,-0.33169957995414734,-0.06475166976451874
1772729569838334700,1.619334716796875,-0.46486809849739075,-0.2809978127479553,-0.20219624042510986
1772729569847852800,1.628852783203125,-0.49541133642196655,-0.23823726177215576,-0.3139844834804535
1772729569857371100,1.63837109375,-0.5106829404830933,-0.19730933010578156,-0.39400777220726013
1772729569866889500,1.647889404296875,-0.5082395076751709,-0.16004657745361328,-0.44409868121147156
1772729569876407800,1.65740771484375,-0.4862483739852905,-0.10445787757635117,-0.46608981490135193
1772729569885926000,1.66692578125,-0.43982264399528503,-0.02932151034474373,-0.4618137776851654
1772729569895444200,1.6764443359375,-0.3707949221134186,0.049480047076940536,-0.4312705397605896
1772729569904962600,1.685962646484375,-0.2877173125743866,0.12217295914888382,-0.37690356373786926
1772729569914481000,1.69548095703125,-0.20280711352825165,0.18142683804035187,-0.3042106628417969
1772729569923999200,1.704999267578125,-0.12522727251052856,0.21319180727005005,-0.21441353857517242
1772729569933517600,1.714517578125,-0.056810423731803894,0.21868959069252014,-0.11362084746360779
1772729569943035600,1.72403564453125,0.006719512399286032,0.21197007596492767,-0.008552107028663158
1772729569952554000,1.733553955078125,0.0616973415017128,0.2101374864578247,0.09285144507884979
1772729569962072300,1.743072265625,0.10873392969369888,0.20830489695072174,0.185092031955719
1772729569971590700,1.752590576171875,0.1496618688106537,0.17592905461788177,0.27366742491722107
1772729569981108700,1.762108642578125,0.16126830875873566,0.14294235408306122,0.33231043815612793
1772729569990627000,1.771626953125,0.1539379209280014,0.09957095980644226,0.3543015718460083
1772729570000145400,1.7811455078125,0.13500112295150757,0.04520399495959282,0.3335321843624115
1772729570009663700,1.790663818359375,0.11362084746360779,-0.011606430634856224,0.277332603931427
1772729570019181800,1.800181884765625,0.0977383628487587,-0.08307760953903198,0.19853104650974274
1772729570028700200,1.8097001953125,0.09651663154363632,-0.1594357043504715,0.10506874322891235
1772729570038218500,1.819218505859375,0.10323614627122879,-0.23884813487529755,0.014049889519810677
1772729570047736800,1.82873681640625,0.11728604137897491,-0.2864955961704254,-0.07269290834665298
1772729570057255200,1.838255126953125,0.13622283935546875,-0.28954991698265076,-0.14721840620040894
1772729570066773500,1.8477734375,0.1545487940311432,-0.26878049969673157,-0.2107483446598053
1772729570076291600,1.85729150390625,0.17653992772102356,-0.23823726177215576,-0.2510654330253601
1772729570085810000,1.866809814453125,0.1997527778148651,-0.20341797173023224,-0.2626718580722809
1772729570095328300,1.876328369140625,0.2211330533027649,-0.14660754799842834,-0.24373504519462585
1772729570104846600,1.8858466796875,0.2419024556875229,-0.06475166976451874,-0.20280711352825165
1772729570114364700,1.89536474609375,0.2565632164478302,0.029932374134659767,-0.14721840620040894
1772729570123883000,1.904883056640625,0.26389357447624207,0.10629047453403473,-0.08613193035125732
1772729570133401300,1.9144013671875,0.2632827162742615,0.16065743565559387,-0.036651886999607086
1772729570142919700,1.923919677734375,0.26022839546203613,0.2205221801996231,-0.001832594396546483
1772729570152437800,1.933437744140625,0.2516762912273407,0.26878049969673157,0.01588248461484909
1772729570161956000,1.9429560546875,0.22724169492721558,0.2779434621334076,0.017715077847242355
1772729570171474400,1.952474365234375,0.1899789422750473,0.23762640357017517,0.004276053514331579
1772729570180992800,1.96199267578125,0.1588248461484909,0.17837251722812653,-0.018325943499803543
1772729570190511000,1.971510986328125,0.1484401375055313,0.1331685185432434,-0.04276053607463837
1772729570200029400,1.981029541015625,0.16065743565559387,0.09957095980644226,-0.0665842592716217
1772729570209547500,1.990547607421875,0.18692462146282196,0.0824667438864708,-0.08674279600381851
1772729570219065900,2.00006591796875,0.2205221801996231,0.0665842592716217,-0.09896009415388107
1772729570228584200,2.009584228515625,0.2577849328517914,0.05742128938436508,-0.10079269111156464
1772729570238102500,2.0191025390625,0.2938259541988373,0.06536252796649933,-0.09285144507884979
1772729570247620600,2.02862060546875,0.32131487131118774,0.07757982611656189,-0.07757982611656189
1772729570257139000,2.038138916015625,0.3384190797805786,0.07635809481143951,-0.05497783049941063
1772729570266657300,2.0476572265625,0.35674503445625305,0.0873536616563797,-0.020769402384757996
1772729570276175600,2.057175537109375,0.379347026348114,0.13683371245861053,0.026878049597144127
1772729570285693700,2.066693603515625,0.4013381600379944,0.2205221801996231,0.08307760953903198
1772729570295212000,2.0762119140625,0.4153880476951599,0.3121519088745117,0.13988803327083588
1772729570304730400,2.08573046875,0.42332929372787476,0.40866854786872864,0.19425499439239502
1772729570314248700,2.095248779296875,0.4269944727420807,0.49968740344047546,0.2406807243824005
1772729570323767000,2.10476708984375,0.42394015192985535,0.5467239618301392,0.2718348205089569
1772729570333285400,2.114285400390625,0.4062250852584839,0.5143481492996216,0.2816086709499359
1772729570342803500,2.123803466796875,0.3750709891319275,0.411722868680954,0.2718348205089569
1772729570352321800,2.13332177734375,0.33108872175216675,0.2822195291519165,0.24251331388950348
1772729570361840000,2.142840087890625,0.28038692474365234,0.17043127119541168,0.1954767256975174
1772729570371358500,2.1523583984375,0.22296564280986786,0.07880155742168427,0.13133592903614044
1772729570380876500,2.16187646484375,0.16798780858516693,0.01282816007733345,0.05436696484684944
1772729570390395000,2.171394775390625,0.13011419773101807,-0.003665188793092966,-0.027488915249705315
1772729570399913200,2.180913330078125,0.12278381735086441,0.03543015569448471,-0.09712749719619751
1772729570409431600,2.190431640625,0.15760311484336853,0.12217295914888382,-0.13011419773101807
1772729570418949600,2.19994970703125,0.23212862014770508,0.2419024556875229,-0.11239911615848541
1772729570428468000,2.209468017578125,0.32559093832969666,0.3952295184135437,-0.043371398001909256
1772729570437986300,2.218986328125,0.41233372688293457,0.5827649831771851,0.06230820715427399
1772729570447504600,2.228504638671875,0.47097674012184143,0.778241753578186,0.1802051067352295
1772729570457023000,2.23802294921875,0.49968740344047546,0.9083559513092041,0.2864955961704254
1772729570466541000,2.247541015625,0.5082395076751709,0.9413426518440247,0.3738492429256439
1772729570476059400,2.257059326171875,0.5051851868629456,0.9040798544883728,0.4355465769767761
1772729570485577700,2.26657763671875,0.49113526940345764,0.8148936033248901,0.4667007029056549
1772729570495096000,2.276095947265625,0.46059203147888184,0.7000510096549988,0.46364638209342957
1772729570504614400,2.285614501953125,0.4159989058971405,0.5790998339653015,0.42394015192985535
1772729570514132500,2.295132568359375,0.360410213470459,0.46547895669937134,0.3439168632030487
1772729570523650800,2.30465087890625,0.3042106628417969,0.36835145950317383,0.22296564280986786
1772729570533169200,2.314169189453125,0.2614501118659973,0.2779434621334076,0.07147117704153061
1772729570542687500,2.3236875,0.2419024556875229,0.205861434340477,-0.09590577334165573
1772729570552205600,2.33320556640625,0.2467893660068512,0.15515965223312378,-0.2620609998703003
1772729570561724000,2.342723876953125,0.26511532068252563,0.11972949653863907,-0.4147771894931793
1772729570571242200,2.3522421875,0.29138249158859253,0.08857539296150208,-0.546113133430481
1772729570580760600,2.361760498046875,0.3121519088745117,0.04581485688686371,-0.6499601006507874
1772729570590279000,2.37127880859375,0.33658650517463684,-0.017104214057326317,-0.7183769941329956
1772729570599797200,2.38079736328125,0.37140578031539917,-0.07086031138896942,-0.7415898442268372
1772729570609315300,2.3903154296875,0.41233372688293457,-0.06352993845939636,-0.7153226733207703
1772729570618833700,2.399833740234375,0.44959646463394165,0.007941242307424545,-0.6401863098144531
1772729570628352000,2.40935205078125,0.46975502371788025,0.1026252806186676,-0.5283980369567871
1772729570637870300,2.418870361328125,0.4740310609340668,0.20769402384757996,-0.3915643095970154
1772729570647388400,2.428388427734375,0.46975502371788025,0.30970844626426697,-0.2412915825843811
1772729570656906800,2.43790673828125,0.4667007029056549,0.3952295184135437,-0.08857539296150208
1772729570666425000,2.447425048828125,0.46914416551589966,0.4526508152484894,0.05253437161445618
1772729570675943400,2.456943359375,0.4728093445301056,0.45020735263824463,0.1692095398902893
1772729570685461800,2.466461669921875,0.47464191913604736,0.40866854786872864,0.2559523284435272
1772729570694979800,2.475979736328125,0.472198486328125,0.3689623177051544,0.3072649836540222
1772729570704498200,2.485498291015625,0.45937031507492065,0.33108872175216675,0.3194822669029236
1772729570714016500,2.4950166015625,0.4379900395870209,0.27916520833969116,0.29565855860710144
1772729570723534800,2.504534912109375,0.42088583111763,0.2162461280822754,0.24373504519462585
1772729570733053200,2.51405322265625,0.41233372688293457,0.16126830875873566,0.17531819641590118
1772729570742571500,2.523571533203125,0.4062250852584839,0.10445787757635117,0.0977383628487587
1772729570752089600,2.533089599609375,0.38789913058280945,0.04276053607463837,0.01588248461484909
1772729570761608000,2.54260791015625,0.3530798554420471,-0.007330377586185932,-0.05803215503692627
1772729570771126300,2.552126220703125,0.29993459582328796,-0.033597562462091446,-0.12278381735086441
1772729570780644600,2.56164453125,0.23273947834968567,-0.046425722539424896,-0.17348559200763702
1772729570790162700,2.57116259765625,0.15821397304534912,-0.046425722539424896,-0.2107483446598053
1772729570799681000,2.580680908203125,0.0873536616563797,-0.036651886999607086,-0.2309068888425827
1772729570809199400,2.590199462890625,0.02871064469218254,-0.01282816007733345,-0.23335035145282745
1772729570818717700,2.5997177734375,-0.013439024798572063,0.006108647678047419,-0.2205221801996231
1772729570828235800,2.60923583984375,-0.03543015569448471,0.026878049597144127,-0.19425499439239502
1772729570837754000,2.618754150390625,-0.03787361457943916,0.06475166976451874,-0.15699224174022675
1772729570847272400,2.6282724609375,-0.02626718580722809,0.09285144507884979,-0.11606431007385254
1772729570856790800,2.637790771484375,-0.009162971749901772,0.0873536616563797,-0.08124501258134842
1772729570866309000,2.64730908203125,0.007330377586185932,0.040317077189683914,-0.056810423731803894
1772729570875827500,2.656827392578125,0.01649334840476513,-0.06536252796649933,-0.050090912729501724
1772729570885345500,2.666345458984375,0.017715077847242355,-0.2003636509180069,-0.06230820715427399
1772729570894864000,2.67586376953125,0.015271619893610477,-0.32009315490722656,-0.08674279600381851
1772729570904382200,2.68538232421875,0.003665188793092966,-0.4159989058971405,-0.11423171311616898
1772729570913900500,2.694900634765625,-0.01282816007733345,-0.4526508152484894,-0.1331685185432434
1772729570923418600,2.704418701171875,-0.021991131827235222,-0.4221075773239136,-0.1337793916463852
1772729570932937000,2.71393701171875,-0.02260199747979641,-0.3500255048274994,-0.12095122784376144
1772729570942455300,2.723455322265625,-0.01954767294228077,-0.27366742491722107,-0.10323614627122879
1772729570951973600,2.7329736328125,-0.013439024798572063,-0.20891575515270233,-0.07941242307424545
1772729570961491700,2.74249169921875,0.001832594396546483,-0.1386663019657135,-0.0409279391169548
1772729570971010000,2.752010009765625,0.027488915249705315,-0.0409279391169548,0.018325943499803543
1772729570980528400,2.7615283203125,0.050090912729501724,0.06536252796649933,0.09590577334165573
1772729570990046700,2.771046630859375,0.05925388261675835,0.1441640853881836,0.18570289015769958
1772729570999565000,2.78056494140625,0.05864302068948746,0.18325942754745483,0.27488914132118225
1772729571009083400,2.79008349609375,0.04764745384454727,0.17653992772102356,0.347582072019577
1772729571018601500,2.7996015625,0.031154103577136993,0.13011419773101807,0.39400777220726013
1772729571028119800,2.809119873046875,0.006108647678047419,0.05558869615197182,0.4062250852584839
1772729571037638100,2.81863818359375,-0.0360410213470459,-0.033597562462091446,0.37751442193984985
1772729571047156500,2.828156494140625,-0.1026252806186676,-0.13622283935546875,0.30482152104377747
1772729571056674600,2.837674560546875,-0.185092031955719,-0.2510654330253601,0.18814635276794434
1772729571066193000,2.84719287109375,-0.268169641494751,-0.3530798554420471,0.04276053607463837
1772729571075711200,2.856711181640625,-0.32681265473365784,-0.40317076444625854,-0.10384701192378998
1772729571085229600,2.8662294921875,-0.3530798554420471,-0.40255987644195557,-0.22235478460788727
1772729571094747600,2.87574755859375,-0.3481929302215576,-0.3591884970664978,-0.2919933497905731
1772729571104266000,2.885265869140625,-0.31642794609069824,-0.268169641494751,-0.2987128794193268
1772729571113784300,2.894784423828125,-0.2706131041049957,-0.13988803327083588,-0.2419024556875229
1772729571123302700,2.904302734375,-0.22724169492721558,-0.017104214057326317,-0.13255766034126282
1772729571132821000,2.913821044921875,-0.19303326308727264,0.08674279600381851,0.01282816007733345
1772729571142339300,2.92333935546875,-0.17226386070251465,0.1490510106086731,0.17776164412498474
1772729571151857700,2.932857666015625,-0.16187916696071625,0.17837251722812653,0.34574946761131287
1772729571161375700,2.942375732421875,-0.16310089826583862,0.1905898153781891,0.5057960152626038
1772729571170894000,2.95189404296875,-0.17776164412498474,0.17043127119541168,0.6426297426223755
1772729571180412400,2.961412353515625,-0.20647229254245758,0.1081230640411377,0.7446441650390625
1772729571189930800,2.9709306640625,-0.24312418699264526,0.027488915249705315,0.8014546036720276
1772729571199448800,2.98044873046875,-0.2889390289783478,-0.0616973415017128,0.8045089244842529
1772729571208967200,2.98996728515625,-0.35063639283180237,-0.13927717506885529,0.7470875978469849
1772729571218485500,2.999485595703125,-0.42332929372787476,-0.19120067358016968,0.6255255341529846
1772729571228003800,3.00900390625,-0.5015199780464172,-0.23273947834968567,0.4520399272441864
1772729571237522000,3.01852197265625,-0.5668824911117554,-0.2761108875274658,0.24740023910999298
1772729571247040300,3.028040283203125,-0.6108647584915161,-0.3121519088745117,0.03481929376721382
1772729571256558600,3.03755859375,-0.6322450637817383,-0.3292561173439026,-0.16737695038318634
1772729571266077000,3.047076904296875,-0.6322450637817383,-0.32192572951316833,-0.33719736337661743
1772729571275595300,3.05659521484375,-0.6151408553123474,-0.3035998046398163,-0.45998117327690125
1772729571285113600,3.066113525390625,-0.5760455131530762,-0.26022839546203613,-0.5222893953323364
1772729571294631700,3.075631591796875,-0.5155698657035828,-0.1905898153781891,-0.5216785073280334
1772729571304150000,3.08514990234375,-0.4355465769767761,-0.14294235408306122,-0.4526508152484894
1772729571313668400,3.09466845703125,-0.35246896743774414,-0.12156209349632263,-0.31581708788871765
1772729571323186700,3.104186767578125,-0.2822195291519165,-0.10018182545900345,-0.1490510106086731
1772729571332704800,3.113704833984375,-0.2364046722650528,-0.09162971377372742,0.02932151034474373
1772729571342223000,3.12322314453125,-0.22418737411499023,-0.09162971377372742,0.1905898153781891
1772729571351741400,3.132741455078125,-0.24556763470172882,-0.06902772188186646,0.2864955961704254
1772729571361259800,3.142259765625,-0.2877173125743866,-0.07086031138896942,0.3072649836540222
1772729571370777900,3.15177783203125,-0.34208428859710693,-0.11667517572641373,0.27855435013771057
1772729571380296200,3.161296142578125,-0.3915643095970154,-0.164322629570961,0.21135921776294708
1772729571389814500,3.170814453125,-0.43371400237083435,-0.20402882993221283,0.11484257876873016
1772729571399332900,3.180332763671875,-0.4685332775115967,-0.2516762912273407,0.001832594396546483
1772729571408851200,3.189851318359375,-0.48991355299949646,-0.2926042377948761,-0.1178968995809555
1772729571418369500,3.19936962890625,-0.500298261642456,-0.32009315490722656,-0.22418737411499023
1772729571427887900,3.208887939453125,-0.5027416944503784,-0.34697118401527405,-0.29504770040512085
1772729571437406000,3.218406005859375,-0.4978547990322113,-0.3610210716724396,-0.33108872175216675
1772729571446924300,3.22792431640625,-0.48502662777900696,-0.3536907136440277,-0.34697118401527405
1772729571456442600,3.237442626953125,-0.4630354940891266,-0.33047783374786377,-0.347582072019577
1772729571465961000,3.2469609375,-0.43432486057281494,-0.30604326725006104,-0.3335321843624115
1772729571475479000,3.25647900390625,-0.401949018239975,-0.28405213356018066,-0.30543237924575806
1772729571484997400,3.265997314453125,-0.36651885509490967,-0.2608392536640167,-0.2620609998703003
1772729571494515700,3.275515625,-0.33231043815612793,-0.22357651591300964,-0.2052505612373352
1772729571504034000,3.285033935546875,-0.3042106628417969,-0.17653992772102356,-0.1441640853881836
1772729571513552100,3.29455224609375,-0.27916520833969116,-0.1386663019657135,-0.08307760953903198
1772729571523070500,3.304070556640625,-0.2516762912273407,-0.10690133273601532,-0.03298669680953026
1772729571532588800,3.3135888671875,-0.2211330533027649,-0.07391463965177536,0.006108647678047419
1772729571542107100,3.323107177734375,-0.1905898153781891,-0.05864302068948746,0.036651886999607086
1772729571551625500,3.33262548828125,-0.16065743565559387,-0.059864748269319534,0.05925388261675835
1772729571561143800,3.342143798828125,-0.13011419773101807,-0.06841685622930527,0.07452550530433655
1772729571570662000,3.351661865234375,-0.10140355676412582,-0.08368847519159317,0.08307760953903198
1772729571580180200,3.36118017578125,-0.0769689604640007,-0.11239911615848541,0.08674279600381851
1772729571589698600,3.370698486328125,-0.05803215503692627,-0.15515965223312378,0.0818558782339096
1772729571599217000,3.380216796875,-0.04214967042207718,-0.18203771114349365,0.07330377399921417
1772729571608735200,3.3897353515625,-0.02626718580722809,-0.1997527778148651,0.06230820715427399
1772729571618253300,3.39925341796875,-0.006108647678047419,-0.22357651591300964,0.05192350596189499
1772729571627771600,3.408771728515625,0.020158538594841957,-0.24801109731197357,0.04581485688686371
1772729571637290000,3.4182900390625,0.05070177838206291,-0.25961753726005554,0.050090912729501724
1772729571646808000,3.42780810546875,0.0824667438864708,-0.2370155304670334,0.06841685622930527
1772729571656326400,3.437326416015625,0.10934479534626007,-0.17715078592300415,0.1026252806186676
1772729571665844700,3.4468447265625,0.13255766034126282,-0.08674279600381851,0.1545487940311432
1772729571675363000,3.456363037109375,0.15515965223312378,0.03298669680953026,0.21746785938739777
1772729571684881400,3.46588134765625,0.17043127119541168,0.14294235408306122,0.28038692474365234
1772729571694399700,3.475399658203125,0.1740964651107788,0.19303326308727264,0.3335321843624115
1772729571703918000,3.48491796875,0.17531819641590118,0.185092031955719,0.370184063911438
1772729571713436200,3.494436279296875,0.18081597983837128,0.13622283935546875,0.38850998878479004
1772729571722954500,3.50395458984375,0.19242240488529205,0.07635809481143951,0.3848448097705841
1772729571732472800,3.513472900390625,0.20341797173023224,0.025045456364750862,0.3634645342826843
1772729571741991200,3.5229912109375,0.21502439677715302,-0.03176496922969818,0.32620179653167725
1772729571751509200,3.53250927734375,0.2260199636220932,-0.08979712426662445,0.2822195291519165
1772729571761027600,3.542027587890625,0.2419024556875229,-0.12034036219120026,0.23762640357017517
1772729571770546000,3.5515458984375,0.26389357447624207,-0.12034036219120026,0.20158538222312927
1772729571780064300,3.561064208984375,0.29016077518463135,-0.10506874322891235,0.18631376326084137
1772729571789582300,3.570582275390625,0.32070401310920715,-0.06230820715427399,0.2009745091199875
1772729571799100700,3.5801005859375,0.35246896743774414,0.001832594396546483,0.2559523284435272
1772729571808619000,3.589618896484375,0.3860665261745453,0.08796452730894089,0.3494146466255188
1772729571818137300,3.599137451171875,0.4196641147136688,0.21135921776294708,0.471587598323822
1772729571827655700,3.60865576171875,0.44837474822998047,0.34574946761131287,0.6053670048713684
1772729571837174000,3.618174072265625,0.472198486328125,0.4471530318260193,0.730594277381897
1772729571846692000,3.627692138671875,0.4990765154361725,0.5320632457733154,0.8289434909820557
1772729571856210400,3.63721044921875,0.5290089249610901,0.6059778332710266,0.8906408548355103
1772729571865728800,3.646728759765625,0.5564978122711182,0.66645348072052,0.9034690260887146
1772729571875247000,3.6562470703125,0.574212908744812,0.6896663308143616,0.8692606091499329
1772729571884765400,3.665765380859375,0.5827649831771851,0.6860011219978333,0.7849612236022949
1772729571894283500,3.675283447265625,0.5882627964019775,0.6609556674957275,0.6591231226921082
1772729571903801900,3.6848017578125,0.5913171172142029,0.6059778332710266,0.5033525824546814
1772729571913320200,3.6943203125,0.5980366468429565,0.5143481492996216,0.3292561173439026
1772729571922838500,3.703838623046875,0.6096430420875549,0.38667741417884827,0.1490510106086731
1772729571932356600,3.713356689453125,0.6218603253364563,0.24495677649974823,-0.028099779039621353
1772729571941875000,3.722875,0.6273581385612488,0.1026252806186676,-0.19608759880065918
1772729571951393300,3.732393310546875,0.6212494969367981,-0.03787361457943916,-0.34636032581329346
1772729571960911600,3.74191162109375,0.6035344004631042,-0.1692095398902893,-0.4685332775115967
1772729571970430000,3.751429931640625,0.5778780579566956,-0.27488914132118225,-0.56382817029953
1772729571979948300,3.7609482421875,0.5522217750549316,-0.3500255048274994,-0.6267472505569458
1772729571989466400,3.77046630859375,0.5381718873977661,-0.37140578031539917,-0.6511818766593933
1772729571998984700,3.779984619140625,0.536339282989502,-0.31031930446624756,-0.6334667801856995
1772729572008503000,3.7895029296875,0.5424479246139526,-0.17043127119541168,-0.5723803043365479
1772729572018021400,3.799021484375,0.5503891706466675,0.04214967042207718,-0.47525280714035034
1772729572027539500,3.80853955078125,0.554665207862854,0.2987128794193268,-0.35185810923576355
1772729572037057800,3.818057861328125,0.5522217750549316,0.5345066785812378,-0.21930044889450073
1772729572046576000,3.827576171875,0.5491674542427063,0.6945532560348511,-0.08979712426662445
1772729572056094500,3.837094482421875,0.5595521330833435,0.7721330523490906,0.026878049597144127
1772729572065612800,3.84661279296875,0.5882627964019775,0.7861829996109009,0.12095122784376144
1772729572075131000,3.856130859375,0.6194168925285339,0.7422007322311401,0.185092031955719
1772729572084649200,3.865649169921875,0.6352993845939636,0.6554579138755798,0.21135921776294708
1772729572094167600,3.87516748046875,0.6359102129936218,0.545502245426178,0.2009745091199875
1772729572103686000,3.884685791015625,0.62857985496521,0.43004879355430603,0.15760311484336853
1772729572113204200,3.894204345703125,0.6175842881202698,0.32131487131118774,0.08857539296150208
1772729572122722600,3.90372265625,0.6041452884674072,0.22235478460788727,-0.000610864779446274
1772729572132240600,3.91324072265625,0.5876519083976746,0.14049890637397766,-0.09529490768909454
1772729572141759000,3.922759033203125,0.5699368119239807,0.08674279600381851,-0.18631376326084137
1772729572151277300,3.93227734375,0.554665207862854,0.06047561392188072,-0.26389357447624207
1772729572160795600,3.941795654296875,0.5387827157974243,0.05497783049941063,-0.32070401310920715
1772729572170313700,3.951313720703125,0.5216785073280334,0.07391463965177536,-0.3591884970664978
1772729572179832000,3.96083203125,0.5015199780464172,0.1130099818110466,-0.3811796307563782
1772729572189350400,3.970350341796875,0.481361448764801,0.15760311484336853,-0.38789913058280945
1772729572198868700,3.97986865234375,0.462424635887146,0.1844811588525772,-0.3848448097705841
1772729572208386800,3.98938671875,0.4459312856197357,0.17898337543010712,-0.36774060130119324
1772729572217905200,3.9989052734375,0.43493571877479553,0.1496618688106537,-0.3396408259868622
1772729572227423500,4.008423583984375,0.4318813979625702,0.1026252806186676,-0.2981020212173462
1772729572236941800,4.01794189453125,0.4428769648075104,0.0513126403093338,-0.24373504519462585
1772729572246460200,4.027460205078125,0.46364638209342957,0,-0.18387030065059662
1772729572255978500,4.036978515625,0.49418962001800537,-0.037262752652168274,-0.11911863088607788
1772729572265496600,4.04649658203125,0.5277871489524841,-0.06291907280683517,-0.056199558079242706
1772729572275015000,4.056014892578125,0.5558869242668152,-0.08368847519159317,-0.003665188793092966
1772729572284533200,4.065533203125,0.5790998339653015,-0.10201441496610641,0.03543015569448471
1772729572294051600,4.075051513671875,0.6017017960548401,-0.1185077652335167,0.06230820715427399
1772729572303570000,4.08456982421875,0.6194168925285339,-0.14782927930355072,0.08063415437936783
1772729572313088000,4.094087890625,0.6328558921813965,-0.17715078592300415,0.09834922850131989
1772729572322606300,4.1036064453125,0.6407971382141113,-0.16126830875873566,0.1233946830034256
1772729572332124700,4.113124755859375,0.6401863098144531,-0.10690133273601532,0.15210533142089844
1772729572341643000,4.12264306640625,0.6316341757774353,-0.046425722539424896,0.18387030065059662
1772729572351161000,4.1321611328125,0.6236929297447205,0.025045456364750862,0.21685700118541718
1772729572360679400,4.141679443359375,0.6163625717163086,0.10629047453403473,0.24801109731197357
1772729572370197800,4.15119775390625,0.6133082509040833,0.17592905461788177,0.27855435013771057
1772729572379716000,4.160716064453125,0.6145299673080444,0.2260199636220932,0.30604326725006104
1772729572389234400,4.170234375,0.6169734001159668,0.22785256803035736,0.32192572951316833
1772729572398752500,4.17975244140625,0.6175842881202698,0.17104214429855347,0.32070401310920715
1772729572408270800,4.189270751953125,0.6163625717163086,0.07513637095689774,0.2981020212173462
1772729572417789200,4.1987890625,0.6078104376792908,-0.04886918142437935,0.25350889563560486
1772729572427307500,4.2083076171875,0.5937605500221252,-0.20341797173023224,0.19120067358016968
1772729572436825900,4.217825927734375,0.5711585879325867,-0.36651885509490967,0.1185077652335167
1772729572446344000,4.227343994140625,0.5436696410179138,-0.4831940531730652,0.05253437161445618
1772729572455862300,4.2368623046875,0.5174024701118469,-0.516791582107544,0.010995565913617611
1772729572465380600,4.246380615234375,0.49480047821998596,-0.46975502371788025,0.004886918235570192
1772729572474899000,4.25589892578125,0.4886918365955353,-0.3402516841888428,0.043371398001909256
1772729572484417300,4.265417236328125,0.49541133642196655,-0.11911863088607788,0.13072505593299866
1772729572493935400,4.274935302734375,0.5021308660507202,0.15027274191379547,0.2565632164478302
1772729572503453700,4.28445361328125,0.5021308660507202,0.3970620930194855,0.4050033390522003
1772729572512972000,4.293971923828125,0.5009090900421143,0.593149721622467,0.5583304166793823
1772729572522490400,4.303490478515625,0.5057960152626038,0.7141009569168091,0.6921098232269287
1772729572532008700,4.3130087890625,0.5204567909240723,0.7391464114189148,0.7929024696350098
1772729572541526800,4.32252685546875,0.5442805290222168,0.6774490475654602,0.8594867587089539
1772729572551045000,4.332045166015625,0.5778780579566956,0.56382817029953,0.8888082504272461
1772729572560563500,4.3415634765625,0.6120865345001221,0.4196641147136688,0.8735366463661194
1772729572570081800,4.351081787109375,0.637742817401886,0.268169641494751,0.8106175661087036
1772729572579600100,4.36060009765625,0.6511818766593933,0.1441640853881836,0.6957749724388123
1772729572589118200,4.3701181640625,0.6456840634346008,0.06597339361906052,0.5314523577690125
1772729572598636500,4.379636474609375,0.6291907429695129,0.013439024798572063,0.3335321843624115
1772729572608155000,4.38915478515625,0.6004800796508789,-0.026878049597144127,0.11545344442129135
1772729572617673200,4.398673095703125,0.5632173418998718,-0.04764745384454727,-0.09896009415388107
1772729572627191300,4.40819140625,0.5259546041488647,-0.043371398001909256,-0.29016077518463135
1772729572636709600,4.417709716796875,0.4838049113750458,-0.028099779039621353,-0.4410443603992462
1772729572646228000,4.42722802734375,0.44409868121147156,-0.009162971749901772,-0.5387827157974243
1772729572655746300,4.436746337890625,0.4166097939014435,0.039706211537122726,-0.5693259835243225
1772729572665264600,4.4462646484375,0.41355544328689575,0.1747073233127594,-0.5345066785812378
1772729572674783000,4.455782958984375,0.42943793535232544,0.360410213470459,-0.4514290690422058
1772729572684301300,4.46530126953125,0.4581485986709595,0.545502245426178,-0.3451386094093323
1772729572693819400,4.4748193359375,0.5088503360748291,0.7055488228797913,-0.23029601573944092
1772729572703337700,4.484337646484375,0.5839866995811462,0.8142827749252319,-0.1185077652335167
1772729572712856000,4.49385595703125,0.6805033683776855,0.8576541543006897,-0.015271619893610477
1772729572722374400,4.50337451171875,0.7904590368270874,0.8649845123291016,0.07269290834665298
1772729572731892500,4.512892578125,0.8979712128639221,0.8576541543006897,0.13255766034126282
1772729572741410800,4.522410888671875,0.9877683520317078,0.8405499458312988,0.15577052533626556
1772729572750929200,4.53192919921875,1.0512982606887817,0.8045089244842529,0.1386663019657135
1772729572760447500,4.541447509765625,1.0879502296447754,0.7470875978469849,0.08857539296150208
1772729572769965600,4.550965576171875,1.0971131324768066,0.6524035930633545,0.017104214057326317
1772729572779484000,4.56048388671875,1.0891718864440918,0.5222893953323364,-0.056810423731803894
1772729572789002200,4.570002197265625,1.0781763792037964,0.41844236850738525,-0.1178968995809555
1772729572798520600,4.5795205078125,1.0610721111297607,0.37629270553588867,-0.1649334877729416
1772729572808039000,4.589038818359375,1.0372483730316162,0.3799578845500946,-0.2052505612373352
1772729572817557200,4.59855712890625,1.0097594261169434,0.40866854786872864,-0.2315177470445633
1772729572827075600,4.60807568359375,0.988990068435669,0.45998117327690125,-0.2419024556875229
1772729572836593700,4.61759375,0.9749401807785034,0.5296197533607483,-0.2419024556875229
1772729572846112000,4.627112060546875,0.972496747970581,0.5907062292098999,-0.23212862014770508
1772729572855630300,4.63663037109375,0.9810488224029541,0.6181951761245728,-0.21258094906806946
1772729572865148700,4.646148681640625,0.9963204264640808,0.627968966960907,-0.18387030065059662
1772729572874666800,4.655666748046875,1.0195332765579224,0.6322450637817383,-0.1490510106086731
1772729572884185000,4.66518505859375,1.0482439994812012,0.6322450637817383,-0.11667517572641373
1772729572893703400,4.674703369140625,1.0793980360031128,0.6194168925285339,-0.08552107214927673
1772729572903221800,4.6842216796875,1.1117738485336304,0.6108647584915161,-0.056199558079242706
1772729572912739800,4.69373974609375,1.1465932130813599,0.627968966960907,-0.0256563201546669
1772729572922258200,4.703258056640625,1.174692988395691,0.6585122346878052,0.012217295356094837
1772729572931776500,4.712776611328125,1.1856884956359863,0.6798924803733826,0.05497783049941063
1772729572941294800,4.722294921875,1.1801908016204834,0.7018836140632629,0.09834922850131989
1772729572950813200,4.731813232421875,1.1685843467712402,0.7061597108840942,0.13622283935546875
1772729572960331500,4.74133154296875,1.1514800786972046,0.6743947267532349,0.16249002516269684
1772729572969849600,4.750849609375,1.1349867582321167,0.6334667801856995,0.17287473380565643
1772729572979368000,4.760367919921875,1.1184934377670288,0.5919279456138611,0.16676609218120575
1772729572988886300,4.76988623046875,1.0989457368850708,0.5491674542427063,0.14721840620040894
1772729572998404600,4.779404541015625,1.0848958492279053,0.5204567909240723,0.12034036219120026
1772729573007923000,4.7889228515625,1.0757328271865845,0.5204567909240723,0.09285144507884979
1772729573017441000,4.79844091796875,1.0665699243545532,0.5241219997406006,0.06841685622930527
1772729573026959400,4.80795947265625,1.053741693496704,0.5369501113891602,0.053145237267017365
1772729573036477700,4.817477783203125,1.0427461862564087,0.5601630210876465,0.04825831577181816
1772729573045996000,4.82699609375,1.035415768623352,0.5839866995811462,0.05558869615197182
1772729573055514000,4.83651416015625,1.0384701490402222,0.5943714380264282,0.07513637095689774
1772729573065032400,4.846032470703125,1.0421353578567505,0.6029235124588013,0.10873392969369888
1772729573074550800,4.85555078125,1.0500766038894653,0.6304124593734741,0.15699224174022675
1772729573084069000,4.865069091796875,1.053130865097046,0.675616443157196,0.20647229254245758
1772729573093587500,4.87458740234375,1.0592395067214966,0.7336485981941223,0.2516762912273407
1772729573103105800,4.884105712890625,1.0708459615707397,0.8087849617004395,0.2877173125743866
1772729573112623900,4.893623779296875,1.0781763792037964,0.8619301915168762,0.3029889166355133
1772729573122142200,4.90314208984375,1.074511170387268,0.8533781170845032,0.29565855860710144
1772729573131660500,4.91266064453125,1.064737319946289,0.794124186038971,0.2663370370864868
1772729573141179000,4.922178955078125,1.053741693496704,0.695164144039154,0.21930044889450073
1772729573150697200,4.931697265625,1.0415244102478027,0.554665207862854,0.16126830875873566
1772729573160215300,4.94121533203125,1.0293071269989014,0.40317076444625854,0.09957095980644226
1772729573169733600,4.950733642578125,1.0213658809661865,0.29565855860710144,0.04886918142437935
1772729573179252000,4.960251953125,1.0207550525665283,0.2467893660068512,0.020769402384757996
1772729573188770300,4.969770263671875,1.0323615074157715,0.2522871494293213,0.024434590712189674
1772729573198288400,4.979288330078125,1.061682939529419,0.33658650517463684,0.07513637095689774
1772729573207806700,4.988806640625,1.1050543785095215,0.5125155448913574,0.16676609218120575
1772729573217325000,4.998324951171875,1.153923511505127,0.749531090259552,0.2883281707763672
1772729573226843400,5.007843505859375,1.2076796293258667,1.0067051649093628,0.4196641147136688
1772729573236361700,5.01736181640625,1.258992314338684,1.2467750310897827,0.5467239618301392
1772729573245880000,5.026880126953125,1.3109158277511597,1.426369309425354,0.6554579138755798
1772729573255398100,5.036398193359375,1.36772620677948,1.5039490461349487,0.7348703145980835
1772729573264916500,5.04591650390625,1.4275909662246704,1.4825688600540161,0.778241753578186
1772729573274434800,5.055434814453125,1.4782928228378296,1.3738348484039307,0.7819069027900696
1772729573283953200,5.064953125,1.5125012397766113,1.2021819353103638,0.7360920310020447
1772729573293471200,5.07447119140625,1.528383731842041,0.9883792400360107,0.6365211009979248
1772729573302989600,5.083989501953125,1.5247185230255127,0.7507528066635132,0.4929678738117218
1772729573312508000,5.0935078125,1.5033382177352905,0.5210676789283752,0.3127627670764923
1772729573322026200,5.103026123046875,1.469740629196167,0.3231474757194519,0.11117739230394363
1772729573331544600,5.112544677734375,1.4275909662246704,0.16065743565559387,-0.08918625861406326
1772729573341062700,5.122062744140625,1.3854413032531738,0.06352993845939636,-0.26939135789871216
1772729573350581000,5.1315810546875,1.3384047746658325,0.03543015569448471,-0.4202749729156494
1772729573360099300,5.141099365234375,1.2834268808364868,0.05192350596189499,-0.5345066785812378
1772729573369617700,5.15061767578125,1.2260055541992188,0.09529490768909454,-0.6004800796508789
1772729573379136000,5.160135986328125,1.1850776672363281,0.19914191961288452,-0.6096430420875549
1772729573388654300,5.169654296875,1.1624757051467896,0.3970620930194855,-0.5534434914588928
1772729573398172400,5.17917236328125,1.156977891921997,0.6780598759651184,-0.4410443603992462
1772729573407690800,5.188690673828125,1.155145287513733,0.9767727851867676,-0.29565855860710144
1772729573417209000,5.198208984375,1.1618647575378418,1.2370011806488037,-0.1331685185432434
1772729573426727200,5.20772705078125,1.1808016300201416,1.415373682975769,0.033597562462091446
1772729573436245500,5.21724560546875,1.2137882709503174,1.4984513521194458,0.19242240488529205
1772729573445763800,5.226763916015625,1.2534945011138916,1.508836030960083,0.3274235129356384
1772729573455282200,5.2362822265625,1.288313865661621,1.4556907415390015,0.43004879355430603
1772729573464800500,5.245800537109375,1.2999202013015747,1.3408482074737549,0.4917461574077606
1772729573474318600,5.255318603515625,1.2907572984695435,1.158199667930603,0.5186241865158081
1772729573483837000,5.2648369140625,1.2675443887710571,0.9596685767173767,0.5112938284873962
1772729573493355300,5.274355224609375,1.2388337850570679,0.7715222239494324,0.47036588191986084
1772729573502873600,5.28387353515625,1.212566614151001,0.6291907429695129,0.40255987644195557
1772729573512392000,5.293391845703125,1.1893537044525146,0.5510000586509705,0.3084867000579834
1772729573521910300,5.30291015625,1.1575887203216553,0.5039634704589844,0.1893680840730667
1772729573531428600,5.3124287109375,1.1184934377670288,0.4764745235443115,0.06230820715427399
1772729573540946700,5.32194677734375,1.082452416419983,0.49418962001800537,-0.06108647957444191
1772729573550465000,5.331465087890625,1.0519092082977295,0.5406153202056885,-0.16676609218120575
1772729573559983400,5.3409833984375,1.0262528657913208,0.5986474752426147,-0.25045454502105713
1772729573569501700,5.350501708984375,1.0036507844924927,0.6511818766593933,-0.3078758418560028
1772729573579019800,5.360019775390625,0.9896009564399719,0.6884446144104004,-0.33597561717033386
1772729573588538000,5.3695380859375,0.9804379940032959,0.7287616729736328,-0.33719736337661743
1772729573598056400,5.379056396484375,0.972496747970581,0.7434224486351013,-0.32070401310920715
1772729573607574800,5.38857470703125,0.9615011811256409,0.7098248600959778,-0.29504770040512085
1772729573617092900,5.3980927734375,0.953559935092926,0.6243038177490234,-0.2559523284435272
1772729573626611200,5.407611083984375,0.9590576887130737,0.5112938284873962,-0.20158538222312927
1772729573636129500,5.417129638671875,0.9706641435623169,0.43310311436653137,-0.13622283935546875
1772729573645648000,5.42664794921875,0.9743293523788452,0.39828383922576904,-0.07147117704153061
1772729573655166200,5.436166259765625,0.9700532555580139,0.37751442193984985,-0.015271619893610477
1772729573664684500,5.4456845703125,0.9688315391540527,0.36835145950317383,0.030543239787220955
1772729573674203000,5.455202880859375,0.9749401807785034,0.3634645342826843,0.0665842592716217
1772729573683721000,5.464720947265625,0.9841031432151794,0.33597561717033386,0.09040798991918564
1772729573693239300,5.4742392578125,0.9914335608482361,0.28466299176216125,0.10140355676412582
1772729573702757600,5.483757568359375,0.9944878816604614,0.22724169492721558,0.10567960888147354
1772729573712276000,5.49327587890625,0.9932661056518555,0.16798780858516693,0.10934479534626007
1772729573721794000,5.5027939453125,0.9896009564399719,0.12705987691879272,0.12278381735086441
1772729573731312400,5.5123125,0.9792162179946899,0.13744457066059113,0.15027274191379547
1772729573740830700,5.521830810546875,0.9578359723091125,0.20341797173023224,0.1893680840730667
1772729573750349000,5.53134912109375,0.9303470849990845,0.3139844834804535,0.23823726177215576
1772729573759867100,5.5408671875,0.9040798544883728,0.4324922561645508,0.29077163338661194
1772729573769385500,5.550385498046875,0.8845322132110596,0.5314523577690125,0.34574946761131287
1772729573778903800,5.55990380859375,0.870482325553894,0.5998691916465759,0.39400777220726013
1772729573788422100,5.569422119140625,0.860708475112915,0.6298015713691711,0.42943793535232544
1772729573797940500,5.5789404296875,0.8545998334884644,0.618806004524231,0.44470956921577454
1772729573807458800,5.588458740234375,0.8466585874557495,0.564439058303833,0.43982264399528503
1772729573816977000,5.597976806640625,0.832608699798584,0.4929678738117218,0.4153880476951599
1772729573826495200,5.6074951171875,0.80389803647995,0.41355544328689575,0.370184063911438
1772729573836013600,5.617013671875,0.750141978263855,0.2974911332130432,0.3066541254520416
1772729573845532000,5.626531982421875,0.675616443157196,0.13072505593299866,0.2205221801996231
1772729573855050200,5.63605029296875,0.5925388336181641,-0.07147117704153061,0.11667517572641373
1772729573864568300,5.645568359375,0.5186241865158081,-0.2706131041049957,0.006108647678047419
1772729573874086700,5.655086669921875,0.4618137776851654,-0.4056142270565033,-0.09712749719619751
1772729573883605000,5.66460498046875,0.41416633129119873,-0.43982264399528503,-0.17653992772102356
1772729573893123300,5.674123291015625,0.37140578031539917,-0.37690356373786926,-0.22357651591300964
1772729573902641400,5.683641357421875,0.3634645342826843,-0.22174391150474548,-0.2162461280822754
1772729573912159700,5.69315966796875,0.4105011224746704,0.047036588191986084,-0.14294235408306122
1772729573921678000,5.702677978515625,0.5009090900421143,0.38179048895835876,-0.010384701192378998
1772729573931196400,5.712196533203125,0.6041452884674072,0.6811142563819885,0.1594357043504715
1772729573940714800,5.72171484375,0.695164144039154,0.8826996088027954,0.33658650517463684
1772729573950233000,5.731233154296875,0.7660244107246399,0.9651663303375244,0.49480047821998596
1772729573959751200,5.740751220703125,0.8246674537658691,0.9236275553703308,0.6169734001159668
1772729573969269500,5.75026953125,0.8710931539535522,0.7794634699821472,0.6927206516265869
1772729573978787800,5.759787841796875,0.8998038172721863,0.5839866995811462,0.711046576499939
1772729573988306200,5.76930615234375,0.9028581380844116,0.38240134716033936,0.6652317643165588
1772729573997824300,5.77882421875,0.8790343999862671,0.20952661335468292,0.5558869242668152
1772729574007342600,5.788342529296875,0.8356630206108093,0.09590577334165573,0.39828383922576904
1772729574016861000,5.79786083984375,0.7825177907943726,0.049480047076940536,0.21868959069252014
1772729574026379300,5.807379150390625,0.7342594861984253,0.0665842592716217,0.03481929376721382
1772729574035897600,5.816897705078125,0.6988292932510376,0.12767073512077332,-0.1337793916463852
1772729574045415700,5.826415771484375,0.6792816519737244,0.22785256803035736,-0.27977606654167175
1772729574054934000,5.83593408203125,0.6866120100021362,0.3738492429256439,-0.38850998878479004
1772729574064452400,5.845452392578125,0.7312051653862,0.5534434914588928,-0.44470956921577454
1772729574073970700,5.854970703125,0.8057306408882141,0.7324268817901611,-0.4453204274177551
1772729574083489000,5.864489013671875,0.8973603844642639,0.8814778923988342,-0.4013381600379944
1772729574093007400,5.87400732421875,1.000596523284912,0.9865466356277466,-0.3249800503253937
1772729574102525400,5.883525390625,1.1117738485336304,1.0476330518722534,-0.22418737411499023
1772729574112043800,5.893043701171875,1.2205078601837158,1.05496346950531,-0.11728604137897491
1772729574121562000,5.90256201171875,1.3206896781921387,1.0109812021255493,-0.010384701192378998
1772729574131080400,5.91208056640625,1.4037672281265259,0.9272927641868591,0.09101885557174683
1772729574140598500,5.9215986328125,1.4660754203796387,0.8344413042068481,0.185092031955719
1772729574150116900,5.931116943359375,1.5008947849273682,0.7666352987289429,0.2614501118659973
1772729574159635200,5.94063525390625,1.499062180519104,0.7128791809082031,0.3042106628417969
1772729574169153500,5.950153564453125,1.4581341743469238,0.6548470258712769,0.3023780584335327
1772729574178671600,5.959671630859375,1.3994911909103394,0.6004800796508789,0.25534147024154663
1772729574188190000,5.96918994140625,1.3384047746658325,0.565049946308136,0.16554436087608337
1772729574197708300,5.978708251953125,1.2870920896530151,0.5290089249610901,0.04153880476951599
1772729574207226600,5.9882265625,1.2443315982818604,0.4776962697505951,-0.09712749719619751
1772729574216745000,5.997744873046875,1.2119556665420532,0.4569268524646759,-0.23518294095993042
1772729574226263300,6.00726318359375,1.1826342344284058,0.5033525824546814,-0.36224281787872314
1772729574235781400,6.016781494140625,1.1557561159133911,0.5919279456138611,-0.4740310609340668
1772729574245299700,6.0262998046875,1.1349867582321167,0.646905779838562,-0.5595521330833435
1772729574254818000,6.035818115234375,1.1319323778152466,0.6707295179367065,-0.6084213256835938
1772729574264336400,6.04533642578125,1.1508692502975464,0.7043271064758301,-0.6163625717163086
1772729574273854700,6.054854736328125,1.1826342344284058,0.7464767694473267,-0.5876519083976746
1772729574283372800,6.064372802734375,1.2162318229675293,0.7654135823249817,-0.5326740741729736
1772729574292891100,6.07389111328125,1.2522728443145752,0.7525854110717773,-0.45998117327690125
1772729574302409500,6.083409423828125,1.2986985445022583,0.7281508445739746,-0.37201663851737976
1772729574311927800,6.092927734375,1.3506220579147339,0.7049379348754883,-0.2730565667152405
1772729574321446000,6.10244580078125,1.3964369297027588,0.676227331161499,-0.1698204129934311
1772729574330964200,6.111964111328125,1.4306453466415405,0.6456840634346008,-0.06597339361906052
1772729574340482600,6.121482666015625,1.4471386671066284,0.6169734001159668,0.029932374134659767
1772729574350001000,6.1310009765625,1.4477494955062866,0.6010909676551819,0.11056652665138245
1772729574359519200,6.140519287109375,1.4404191970825195,0.5907062292098999,0.1698204129934311
1772729574369037600,6.15003759765625,1.433088779449463,0.5607738494873047,0.2107483446598053
1772729574378555600,6.1595556640625,1.4373648166656494,0.5400044918060303,0.2370155304670334
1772729574388074000,6.169073974609375,1.4355322122573853,0.5528326034545898,0.24740023910999298
1772729574397592300,6.17859228515625,1.4135410785675049,0.5839866995811462,0.24251331388950348
1772729574407110700,6.188110595703125,1.3811652660369873,0.6371319890022278,0.22724169492721558
1772729574416628700,6.197628662109375,1.349400281906128,0.6872228980064392,0.21197007596492767
1772729574426147000,6.20714697265625,1.3286309242248535,0.7134900689125061,0.2009745091199875
1772729574435665400,6.21666552734375,1.3109158277511597,0.720820426940918,0.19181154668331146
1772729574445183700,6.226183837890625,1.2877029180526733,0.7031053900718689,0.17653992772102356
1772729574454701800,6.235701904296875,1.258992314338684,0.6640099883079529,0.16004657745361328
1772729574464220200,6.24522021484375,1.240666389465332,0.657290518283844,0.15821397304534912
1772729574473738500,6.254738525390625,1.2315033674240112,0.7147117853164673,0.17898337543010712
1772729574483256800,6.2642568359375,1.2217295169830322,0.7965676784515381,0.21746785938739777
1772729574492775200,6.273775146484375,1.2119556665420532,0.8680388331413269,0.268169641494751
1772729574502293500,6.28329345703125,1.2150100469589233,0.9193515181541443,0.32681265473365784
1772729574511811800,6.292811767578125,1.2370011806488037,0.9553925395011902,0.39217519760131836
1772729574521330000,6.302329833984375,1.2730422019958496,0.988990068435669,0.4508182108402252
1772729574530848300,6.31184814453125,1.3103049993515015,1.0140355825424194,0.4868592321872711
1772729574540366600,6.32136669921875,1.3475676774978638,1.0134246349334717,0.4972439408302307
1772729574549885000,6.330885009765625,1.3878847360610962,1.0213658809661865,0.47952884435653687
1772729574559403000,6.340403076171875,1.4227041006088257,1.0317505598068237,0.430659681558609
1772729574568921300,6.34992138671875,1.4391974210739136,0.9908226728439331,0.35185810923576355
1772729574578439700,6.359439697265625,1.434921383857727,0.8662062287330627,0.2522871494293213
1772729574587958000,6.3689580078125,1.4092650413513184,0.6414080262184143,0.13988803327083588
1772729574597476000,6.37847607421875,1.3665045499801636,0.3347539007663727,0.027488915249705315
1772729574606994400,6.387994384765625,1.3280199766159058,0.0360410213470459,-0.06414080411195755
1772729574616512800,6.3975126953125,1.29503333568573,-0.1441640853881836,-0.12217295914888382
1772729574626031000,6.407031005859375,1.2773182392120361,-0.11423171311616898,-0.13072505593299866
1772729574635549400,6.416549560546875,1.2858703136444092,0.1337793916463852,-0.06719512492418289
1772729574645067800,6.42606787109375,1.3170244693756104,0.5937605500221252,0.06963858753442764
1772729574654585900,6.4355859375,1.3561197519302368,1.173471212387085,0.24984370172023773
1772729574664104200,6.445104248046875,1.3897173404693604,1.7220277786254883,0.43432486057281494
1772729574673622500,6.45462255859375,1.4196497201919556,2.0799946784973145,0.6047561168670654
1772729574683140900,6.464140869140625,1.464242935180664,2.2724170684814453,0.7263182401657104
1772729574692659000,6.473658935546875,1.53510320186615,2.2779147624969482,0.7819069027900696
1772729574702177300,6.48317724609375,1.6102395057678223,2.0946552753448486,0.7806851863861084
1772729574711695600,6.492695556640625,1.6743803024291992,1.7690644264221191,0.7275399565696716
1772729574721214000,6.5022138671875,1.7104213237762451,1.3573415279388428,0.6316341757774353
1772729574730732000,6.51173193359375,1.7140865325927734,0.9505056142807007,0.5064069032669067
1772729574740250400,6.52125048828125,1.6884303092956543,0.6395754218101501,0.35796675086021423
1772729574749768700,6.530768798828125,1.638950228691101,0.45326167345046997,0.1948658674955368
1772729574759287000,6.540287109375,1.5790854692459106,0.3848448097705841,0.03481929376721382
1772729574768805400,6.549805419921875,1.5216641426086426,0.4062250852584839,-0.10567960888147354
1772729574778323700,6.55932373046875,1.4666863679885864,0.49541133642196655,-0.21441353857517242
1772729574787841800,6.568841796875,1.415373682975769,0.6310232877731323,-0.29138249158859253
1772729574797360000,6.578360107421875,1.3793326616287231,0.7849612236022949,-0.33047783374786377
1772729574806878500,6.58787841796875,1.357952356338501,0.9596685767173767,-0.3341430425643921
1772729574816396800,6.597396728515625,1.3536763191223145,1.1410953998565674,-0.3084867000579834
1772729574825915100,6.6069150390625,1.3652827739715576,1.2901464700698853,-0.25961753726005554
1772729574835433200,6.61643310546875,1.3866630792617798,1.3646719455718994,-0.1948658674955368
1772729574844951600,6.62595166015625,1.4135410785675049,1.3671153783798218,-0.11972949653863907
1772729574854470000,6.635469970703125,1.444695234298706,1.3347395658493042,-0.03787361457943916
1772729574863988200,6.64498828125,1.4837905168533325,1.3029745817184448,0.04886918142437935
1772729574873506300,6.65450634765625,1.524107575416565,1.2846486568450928,0.1288924664258957
1772729574883024600,6.664024658203125,1.5485422611236572,1.2809834480285645,0.1844811588525772
1772729574892543000,6.67354296875,1.5570943355560303,1.2742639780044556,0.20647229254245758
1772729574902061300,6.683061279296875,1.5515965223312378,1.2614357471466064,0.19425499439239502
1772729574911579600,6.69257958984375,1.5375466346740723,1.2284491062164307,0.15149445831775665
1772729574921098000,6.702097900390625,1.5192207098007202,1.1643083095550537,0.08979712426662445
1772729574930616000,6.711615966796875,1.5033382177352905,1.0800089836120605,0.02626718580722809
1772729574940134400,6.721134521484375,1.4831796884536743,0.9896009564399719,-0.034208428114652634
1772729574949652700,6.73065283203125,1.4538581371307373,0.8894191384315491,-0.08674279600381851
1772729574959171000,6.740171142578125,1.4104868173599243,0.794124186038971,-0.13683371245861053
1772729574968689200,6.749689208984375,1.3567306995391846,0.7079922556877136,-0.18631376326084137
1772729574978207500,6.75920751953125,1.2986985445022583,0.6212494969367981,-0.23396120965480804
1772729574987725800,6.768725830078125,1.2424989938735962,0.5332849621772766,-0.27550002932548523
1772729574997244200,6.778244140625,1.1924080848693848,0.4508182108402252,-0.3023780584335327
1772729575006762200,6.78776220703125,1.1514800786972046,0.39767298102378845,-0.30604326725006104
1772729575016280600,6.797280517578125,1.1142174005508423,0.38789913058280945,-0.2864955961704254
1772729575025799000,6.806798828125,1.0690133571624756,0.4007273018360138,-0.25045454502105713
1772729575035317200,6.816317138671875,1.0164790153503418,0.4159989058971405,-0.2052505612373352
1772729575044835600,6.825835693359375,0.9584468603134155,0.4612029194831848,-0.15821397304534912
1772729575054354000,6.83535400390625,0.9046907424926758,0.5375609993934631,-0.11728604137897491
1772729575063872000,6.8448720703125,0.8637627959251404,0.5858193039894104,-0.08979712426662445
1772729575073390300,6.854390380859375,0.8442151546478271,0.5894845128059387,-0.07574722915887833
1772729575082908700,6.86390869140625,0.8491020202636719,0.5772672295570374,-0.07391463965177536
1772729575092427000,6.873427001953125,0.8674280047416687,0.5497782826423645,-0.08491020649671555
1772729575101945000,6.882945068359375,0.8900299668312073,0.5027416944503784,-0.10201441496610641
1772729575111463400,6.89246337890625,0.9095776677131653,0.44348782300949097,-0.11667517572641373
1772729575120981800,6.901981689453125,0.9303470849990845,0.38179048895835876,-0.11972949653863907
1772729575130500000,6.9115,0.9450078010559082,0.33231043815612793,-0.10445787757635117
1772729575140018200,6.92101806640625,0.9407317638397217,0.3066541254520416,-0.0720820426940918
1772729575149536500,6.93053662109375,0.9181297421455383,0.2938259541988373,-0.02626718580722809
1772729575159054800,6.940054931640625,0.8790343999862671,0.27977606654167175,0.026878049597144127
1772729575168573200,6.9495732421875,0.8356630206108093,0.2663370370864868,0.08307760953903198
1772729575178091500,6.959091552734375,0.7874047160148621,0.27000224590301514,0.1282816082239151
1772729575187609900,6.96860986328125,0.7330377101898193,0.26450446248054504,0.14721840620040894
1772729575197128000,6.9781279296875,0.6731730103492737,0.22724169492721558,0.13072505593299866
1772729575206646300,6.987646240234375,0.618806004524231,0.16004657745361328,0.08368847519159317
1772729575216164600,6.99716455078125,0.5778780579566956,0.05925388261675835,0.01588248461484909
1772729575225683000,7.006682861328125,0.5400044918060303,-0.06963858753442764,-0.06414080411195755
1772729575235201000,7.016200927734375,0.4923570156097412,-0.21258094906806946,-0.15149445831775665
1772729575244719400,7.02571923828125,0.43310311436653137,-0.3445277214050293,-0.2364046722650528
1772729575254237700,7.03523779296875,0.3756818473339081,-0.4410443603992462,-0.3170388340950012
1772729575263756000,7.044756103515625,0.3090975880622864,-0.5155698657035828,-0.3738492429256439
1772729575273274000,7.054274169921875,0.2669478952884674,-0.5393936038017273,-0.3695732057094574
1772729575282792400,7.06379248046875,0.26450446248054504,-0.4367683231830597,-0.29016077518463135
1772729575292310800,7.073310791015625,0.30054548382759094,-0.205861434340477,-0.14172062277793884
1772729575301829000,7.0828291015625,0.3451386094093323,0.08307760953903198,0.056199558079242706
1772729575311347500,7.092347412109375,0.36712974309921265,0.36835145950317383,0.27000224590301514
1772729575320865800,7.10186572265625,0.3640754222869873,0.5839866995811462,0.46608981490135193
1772729575330384100,7.111384033203125,0.34636032581329346,0.6713404059410095,0.6218603253364563
1772729575339902200,7.120902099609375,0.3341430425643921,0.6261364221572876,0.7293725609779358
1772729575349420500,7.130420654296875,0.32681265473365784,0.48502662777900696,0.7806851863861084
1772729575358939000,7.13993896484375,0.318871408700943,0.2974911332130432,0.7703005075454712
1772729575368457200,7.149457275390625,0.29443681240081787,0.0922405794262886,0.6921098232269287
1772729575377975300,7.158975341796875,0.2528980076313019,-0.09957095980644226,0.554665207862854
1772729575387493600,7.16849365234375,0.20219624042510986,-0.24434591829776764,0.3707949221134186
1772729575397012000,7.178011962890625,0.14599667489528656,-0.31154105067253113,0.15699224174022675
1772729575406530300,7.1875302734375,0.09040798991918564,-0.31581708788871765,-0.0665842592716217
1772729575416048400,7.19704833984375,0.039706211537122726,-0.2767217457294464,-0.27427828311920166
1772729575425566700,7.206566650390625,-0.008552107028663158,-0.19730933010578156,-0.4465421438217163
1772729575435085000,7.2160849609375,-0.04886918142437935,-0.10079269111156464,-0.5674933791160583
1772729575444603400,7.225603271484375,-0.07635809481143951,-0.008552107028663158,-0.627968966960907
1772729575454121700,7.235121826171875,-0.07391463965177536,0.08613193035125732,-0.6249146461486816
1772729575463640000,7.24464013671875,-0.04459312930703163,0.19425499439239502,-0.5595521330833435
1772729575473158100,7.254158203125,0.004886918235570192,0.29443681240081787,-0.44898560643196106
1772729575482676500,7.263676513671875,0.059864748269319534,0.347582072019577,-0.30970844626426697
1772729575492194800,7.27319482421875,0.12034036219120026,0.35796675086021423,-0.15760311484336853
1772729575501713200,7.282713134765625,0.1899789422750473,0.35246896743774414,-0.004886918235570192
1772729575511231200,7.292231201171875,0.258395791053772,0.3549124300479889,0.1331685185432434
1772729575520749600,7.30174951171875,0.3121519088745117,0.3500255048274994,0.23884813487529755
1772729575530268000,7.311267822265625,0.3488037884235382,0.33108872175216675,0.30482152104377747
1772729575539786200,7.3207861328125,0.3738492429256439,0.3090975880622864,0.3329212963581085
1772729575549304300,7.33030419921875,0.3952295184135437,0.2767217457294464,0.3292561173439026
1772729575558822700,7.33982275390625,0.41905322670936584,0.22846342623233795,0.2987128794193268
1772729575568341000,7.349341064453125,0.4422661066055298,0.1637117564678192,0.24312418699264526
1772729575577859300,7.358859375,0.46486809849739075,0.06841685622930527,0.1740964651107788
1772729575587377400,7.36837744140625,0.48441576957702637,-0.0409279391169548,0.10140355676412582
1772729575596895700,7.377895751953125,0.500298261642456,-0.12644900381565094,0.03481929376721382
1772729575606414000,7.3874140625,0.5015199780464172,-0.1545487940311432,-0.021991131827235222
1772729575615932400,7.396932373046875,0.48013970255851746,-0.13011419773101807,-0.07086031138896942
1772729575625450800,7.40645068359375,0.4428769648075104,-0.05436696484684944,-0.11117739230394363
1772729575634969000,7.415968994140625,0.39828383922576904,0.05803215503692627,-0.15027274191379547
1772729575644487200,7.425487060546875,0.35613417625427246,0.1637117564678192,-0.18814635276794434
1772729575654005500,7.435005615234375,0.31642794609069824,0.235793799161911,-0.22418737411499023
1772729575663523800,7.44452392578125,0.2889390289783478,0.27488914132118225,-0.24862197041511536
1772729575673042000,7.4540419921875,0.27366742491722107,0.28588470816612244,-0.2559523284435272
1772729575682560300,7.463560302734375,0.2669478952884674,0.2767217457294464,-0.24006985127925873
1772729575692078600,7.47307861328125,0.2706131041049957,0.2712239623069763,-0.2052505612373352
1772729575701597000,7.482596923828125,0.2809978127479553,0.27916520833969116,-0.15577052533626556
1772729575711115300,7.492115234375,0.2938259541988373,0.28038692474365234,-0.09712749719619751
1772729575720633600,7.501633544921875,0.3133736252784729,0.27427828311920166,-0.0360410213470459
1772729575730151700,7.511151611328125,0.33536475896835327,0.2632827162742615,0.015271619893610477
1772729575739670000,7.520669921875,0.35735589265823364,0.23945899307727814,0.05253437161445618
1772729575749188400,7.530188232421875,0.3805687427520752,0.21319180727005005,0.07269290834665298
1772729575758706700,7.539706787109375,0.39889469742774963,0.19914191961288452,0.07574722915887833
1772729575768224800,7.549224853515625,0.40866854786872864,0.1893680840730667,0.06414080411195755
1772729575777743000,7.5587431640625,0.40805765986442566,0.18814635276794434,0.04276053607463837
1772729575787261400,7.568261474609375,0.401949018239975,0.18692462146282196,0.020769402384757996
1772729575796779800,7.57777978515625,0.39339691400527954,0.19120067358016968,0.004886918235570192
1772729575806297900,7.5872978515625,0.3860665261745453,0.19914191961288452,-0.0030543238390237093
1772729575815816200,7.596816162109375,0.38179048895835876,0.2162461280822754,0
1772729575825334500,7.60633447265625,0.3848448097705841,0.2461785078048706,0.01588248461484909
1772729575834852900,7.615852783203125,0.39400777220726013,0.28038692474365234,0.04459312930703163
1772729575844371200,7.62537109375,0.4068359434604645,0.31520622968673706,0.08002328872680664
1772729575853889500,7.6348896484375,0.42271843552589417,0.3549124300479889,0.12278381735086441
1772729575863407600,7.64440771484375,0.4465421438217163,0.41416633129119873,0.17165300250053406
1772729575872926000,7.653926025390625,0.472198486328125,0.49480047821998596,0.2205221801996231
1772729575882444300,7.6634443359375,0.48563748598098755,0.5619956254959106,0.2608392536640167
1772729575891962600,7.672962646484375,0.48563748598098755,0.6078104376792908,0.2822195291519165
1772729575901480700,7.682480712890625,0.48075059056282043,0.6438514590263367,0.2828303873538971
1772729575910999000,7.6919990234375,0.4685332775115967,0.6395754218101501,0.25411975383758545
1772729575920517400,7.701517333984375,0.44837474822998047,0.5589412450790405,0.1948658674955368
1772729575930035700,7.71103564453125,0.4269944727420807,0.3909534513950348,0.11972949653863907
1772729575939554000,7.720553955078125,0.41233372688293457,0.185092031955719,0.04520399495959282
1772729575949072100,7.730072021484375,0.40866854786872864,0.024434590712189674,-0.015271619893610477
1772729575958590500,7.739590576171875,0.401949018239975,-0.049480047076940536,-0.05497783049941063
1772729575968108800,7.74910888671875,0.40378162264823914,-0.03543015569448471,-0.05864302068948746
1772729575977627100,7.758627197265625,0.4318813979625702,0.11239911615848541,-0.003665188793092966
1772729575987145500,7.7681455078125,0.48013970255851746,0.39889469742774963,0.10445787757635117
1772729575996663600,7.77766357421875,0.5332849621772766,0.7293725609779358,0.2370155304670334
1772729576006182000,7.787181884765625,0.5809323787689209,1.01708984375,0.3659079968929291
1772729576015700200,7.7967001953125,0.6255255341529846,1.2217295169830322,0.4770853817462921
1772729576025218600,7.806218505859375,0.6792816519737244,1.3310743570327759,0.5626064538955688
1772729576034736600,7.815736572265625,0.7281508445739746,1.352454662322998,0.6108647584915161
1772729576044255000,7.8252548828125,0.7623592615127563,1.2779290676116943,0.6169734001159668
1772729576053773300,7.834773193359375,0.7861829996109009,1.1233803033828735,0.5815432667732239
1772729576063291600,7.844291748046875,0.8002328872680664,0.9364557266235352,0.5039634704589844
1772729576072810000,7.85381005859375,0.8032872080802917,0.748920202255249,0.3836230933666229
1772729576082328000,7.863328125,0.7965676784515381,0.5558869242668152,0.2260199636220932
1772729576091846400,7.872846435546875,0.7819069027900696,0.3750709891319275,0.03909534588456154
1772729576101364700,7.88236474609375,0.7654135823249817,0.22846342623233795,-0.16004657745361328
1772729576110883000,7.891883056640625,0.7476984858512878,0.1185077652335167,-0.3530798554420471
1772729576120401200,7.901401123046875,0.7226530313491821,0.04886918142437935,-0.5235111117362976
1772729576129919500,7.91091943359375,0.6908880472183228,0.03298669680953026,-0.6597339510917664
1772729576139437800,7.920437744140625,0.6530144214630127,0.05803215503692627,-0.7562506198883057
1772729576148956200,7.9299560546875,0.6224712133407593,0.11117739230394363,-0.8032872080802917
1772729576158474200,7.93947412109375,0.6108647584915161,0.205861434340477,-0.7904590368270874
1772729576167992600,7.94899267578125,0.618806004524231,0.3543015718460083,-0.7244856357574463
1772729576177511000,7.958510986328125,0.6340776681900024,0.5259546041488647,-0.6157516837120056
1772729576187029200,7.968029296875,0.6536253094673157,0.6713404059410095,-0.47952884435653687
1772729576196547600,7.977547607421875,0.6737838387489319,0.7751874327659607,-0.32559093832969666
1772729576206066000,7.98706591796875,0.6921098232269287,0.8374956250190735,-0.1692095398902893
1772729576215584000,7.996583984375,0.7049379348754883,0.8545998334884644,-0.030543239787220955
1772729576225102300,8.006102294921876,0.7098248600959778,0.8338304162025452,0.07635809481143951
1772729576234620700,8.01562060546875,0.7049379348754883,0.7867938280105591,0.1441640853881836
1772729576244139000,8.025138916015624,0.6939423680305481,0.730594277381897,0.1692095398902893
1772729576253657000,8.034656982421875,0.6768381595611572,0.6701186895370483,0.1594357043504715
1772729576263175400,8.044175537109375,0.6627882719039917,0.6255255341529846,0.12461641430854797
1772729576272693800,8.05369384765625,0.6493492722511292,0.6145299673080444,0.07513637095689774
1772729576282212000,8.063212158203125,0.6298015713691711,0.6175842881202698,0.018325943499803543
1772729576291730200,8.072730224609375,0.5962040424346924,0.6096430420875549,-0.0409279391169548
1772729576301248500,8.08224853515625,0.5510000586509705,0.6017017960548401,-0.10140355676412582
1772729576310766800,8.091766845703125,0.5045742988586426,0.5827649831771851,-0.164322629570961
1772729576320285200,8.10128515625,0.45509424805641174,0.5308414697647095,-0.2260199636220932
1772729576329803500,8.110803466796876,0.411722868680954,0.45020735263824463,-0.28588470816612244
1772729576339321600,8.120321533203125,0.3750709891319275,0.35124725103378296,-0.33231043815612793
1772729576348840000,8.12983984375,0.34208428859710693,0.2724456787109375,-0.3591884970664978
1772729576358358300,8.139358154296875,0.31093016266822815,0.23518294095993042,-0.3689623177051544
1772729576367876600,8.148876708984375,0.2779434621334076,0.21502439677715302,-0.36651885509490967
1772729576377394700,8.158394775390626,0.24862197041511536,0.18875721096992493,-0.35246896743774414
1772729576386913000,8.1679130859375,0.22785256803035736,0.16065743565559387,-0.3341430425643921
1772729576396431400,8.177431396484375,0.2205221801996231,0.12644900381565094,-0.3121519088745117
1772729576405949700,8.18694970703125,0.21868959069252014,0.07513637095689774,-0.28954991698265076
1772729576415467800,8.1964677734375,0.22296564280986786,0.021380268037319183,-0.2669478952884674
1772729576424986000,8.205986083984374,0.23335035145282745,-0.0054977829568088055,-0.2412915825843811
1772729576434504400,8.21550439453125,0.23945899307727814,-0.015271619893610477,-0.21258094906806946
1772729576444022800,8.225022705078125,0.2406807243824005,-0.028099779039621353,-0.18325942754745483
1772729576453541000,8.234541015625,0.22724169492721558,-0.06230820715427399,-0.1545487940311432
1772729576463059500,8.2440595703125,0.21197007596492767,-0.11667517572641373,-0.12644900381565094
1772729576472577500,8.25357763671875,0.20402882993221283,-0.16737695038318634,-0.10018182545900345
1772729576482095900,8.263095947265626,0.20158538222312927,-0.19181154668331146,-0.07880155742168427
1772729576491614200,8.2726142578125,0.20463970303535461,-0.18264856934547424,-0.05925388261675835
1772729576501132300,8.28213232421875,0.20830489695072174,-0.16554436087608337,-0.034208428114652634
1772729576510650600,8.291650634765626,0.2052505612373352,-0.13439024984836578,0.0054977829568088055
1772729576520169000,8.3011689453125,0.19181154668331146,-0.08796452730894089,0.056810423731803894
1772729576529687300,8.310687255859374,0.16004657745361328,-0.06352993845939636,0.1130099818110466
1772729576539205400,8.320205322265625,0.10995566099882126,-0.0769689604640007,0.1637117564678192
1772729576548723700,8.3297236328125,0.053756099194288254,-0.10873392969369888,0.2003636509180069
1772729576558242000,8.339241943359376,-0.004276053514331579,-0.16310089826583862,0.21502439677715302
1772729576567760400,8.348760498046875,-0.06414080411195755,-0.22724169492721558,0.20280711352825165
1772729576577278700,8.35827880859375,-0.12156209349632263,-0.2889390289783478,0.1588248461484909
1772729576586797000,8.367797119140626,-0.17653992772102356,-0.37140578031539917,0.0818558782339096
1772729576596315100,8.377315185546875,-0.21930044889450073,-0.4783071279525757,-0.020769402384757996
1772729576605833500,8.38683349609375,-0.24373504519462585,-0.5778780579566956,-0.12950333952903748
1772729576615351800,8.396351806640626,-0.258395791053772,-0.6346884965896606,-0.23823726177215576
1772729576624870000,8.405869873046875,-0.26939135789871216,-0.6218603253364563,-0.3225366175174713
1772729576634388200,8.41538818359375,-0.27427828311920166,-0.5210676789283752,-0.36835145950317383
1772729576643906600,8.424906494140625,-0.2632827162742615,-0.3292561173439026,-0.3634645342826843
1772729576653425000,8.4344248046875,-0.24312418699264526,-0.09285144507884979,-0.3023780584335327
1772729576662943000,8.44394287109375,-0.22479823231697083,0.15515965223312378,-0.18753549456596375
1772729576672461300,8.45346142578125,-0.21868959069252014,0.39217519760131836,-0.034208428114652634
1772729576681979600,8.462979736328125,-0.21868959069252014,0.5693259835243225,0.1380554437637329
1772729576691498000,8.472498046875,-0.21441353857517242,0.6426297426223755,0.30970844626426697
1772729576701016300,8.482016357421875,-0.20708316564559937,0.6444623470306396,0.4557051360607147
1772729576710534700,8.49153466796875,-0.20402882993221283,0.5943714380264282,0.5595521330833435
1772729576720052700,8.501052734375,-0.20647229254245758,0.48991355299949646,0.6126973628997803
1772729576729571000,8.510571044921875,-0.21807873249053955,0.3451386094093323,0.6102539300918579
1772729576739089400,8.52008935546875,-0.23335035145282745,0.1692095398902893,0.555276095867157
1772729576748607700,8.529607666015625,-0.2559523284435272,-0.027488915249705315,0.44959646463394165
1772729576758125800,8.539125732421875,-0.2889390289783478,-0.22846342623233795,0.2993237376213074
1772729576767644200,8.54864404296875,-0.33231043815612793,-0.3970620930194855,0.11972949653863907
1772729576777162500,8.55816259765625,-0.38728827238082886,-0.4929678738117218,-0.07452550530433655
1772729576786680600,8.5676806640625,-0.44837474822998047,-0.5076286196708679,-0.2608392536640167
1772729576796199000,8.577198974609376,-0.5094612240791321,-0.4618137776851654,-0.41844236850738525
1772729576805717200,8.58671728515625,-0.5626064538955688,-0.3848448097705841,-0.5308414697647095
1772729576815235600,8.596235595703124,-0.5919279456138611,-0.2522871494293213,-0.5852084755897522
1772729576824754000,8.60575390625,-0.5913171172142029,-0.07391463965177536,-0.5711585879325867
1772729576834272300,8.615272216796875,-0.5656607747077942,0.10567960888147354,-0.4935787320137024
1772729576843790300,8.624790283203126,-0.5229002237319946,0.2779434621334076,-0.3738492429256439
1772729576853308700,8.63430859375,-0.47036588191986084,0.42332929372787476,-0.235793799161911
1772729576862827000,8.643826904296875,-0.40805765986442566,0.5192350745201111,-0.0977383628487587
1772729576872345000,8.653344970703126,-0.3384190797805786,0.545502245426178,0.023212861269712448
1772729576881863400,8.662863525390625,-0.2620609998703003,0.5021308660507202,0.1185077652335167
1772729576891381800,8.6723818359375,-0.18081597983837128,0.4043924808502197,0.1905898153781891
1772729576900900000,8.681900146484375,-0.10995566099882126,0.27366742491722107,0.24373504519462585
1772729576910418200,8.691418212890625,-0.06902772188186646,0.12583814561367035,0.27916520833969116
1772729576919936500,8.7009365234375,-0.06047561392188072,-0.007330377586185932,0.2968802750110626
1772729576929454800,8.710454833984375,-0.07635809481143951,-0.08979712426662445,0.29016077518463135
1772729576938973200,8.71997314453125,-0.10934479534626007,-0.12950333952903748,0.2528980076313019
1772729576948491500,8.729491455078126,-0.14294235408306122,-0.14721840620040894,0.18692462146282196
1772729576958009900,8.739009765625,-0.17226386070251465,-0.16249002516269684,0.09712749719619751
1772729576967528000,8.74852783203125,-0.1997527778148651,-0.17898337543010712,-0.009162971749901772
1772729576977046300,8.75804638671875,-0.21991132199764252,-0.16554436087608337,-0.11972949653863907
1772729576986564600,8.767564697265625,-0.22907429933547974,-0.13072505593299866,-0.2162461280822754
1772729576996082700,8.777082763671874,-0.23273947834968567,-0.09590577334165573,-0.28527384996414185
1772729577005601000,8.78660107421875,-0.23457208275794983,-0.025045456364750862,-0.32192572951316833
1772729577015119400,8.796119384765625,-0.23273947834968567,0.0665842592716217,-0.3194822669029236
1772729577024637700,8.8056376953125,-0.22418737411499023,0.1331685185432434,-0.2864955961704254
1772729577034155800,8.81515576171875,-0.20891575515270233,0.17287473380565643,-0.23457208275794983
1772729577043674000,8.824674072265625,-0.17715078592300415,0.2052505612373352,-0.1692095398902893
1772729577053192400,8.8341923828125,-0.1282816082239151,0.24801109731197357,-0.09529490768909454
1772729577062710800,8.843710693359375,-0.07941242307424545,0.2809978127479553,-0.026878049597144127
1772729577072229000,8.85322900390625,-0.037262752652168274,0.2730565667152405,0.03237583488225937
1772729577081747200,8.862747314453125,-0.001221729558892548,0.2669478952884674,0.0720820426940918
1772729577091265500,8.872265625,0.039706211537122726,0.2809978127479553,0.09285144507884979
1772729577100783900,8.881783935546874,0.08552107214927673,0.2767217457294464,0.10201441496610641
1772729577110302200,8.89130224609375,0.12156209349632263,0.2364046722650528,0.09957095980644226
1772729577119820300,8.9008203125,0.1545487940311432,0.1802051067352295,0.08979712426662445
1772729577129338600,8.910338623046876,0.19425499439239502,0.10690133273601532,0.0824667438864708
1772729577138857000,8.91985693359375,0.24434591829776764,-0.0054977829568088055,0.0873536616563797
1772729577148375300,8.929375244140624,0.29993459582328796,-0.10201441496610641,0.11117739230394363
1772729577157893600,8.9388935546875,0.347582072019577,-0.10995566099882126,0.15210533142089844
1772729577167411700,8.94841162109375,0.38240134716033936,-0.04214967042207718,0.2052505612373352
1772729577176930000,8.957929931640624,0.4056142270565033,0.06414080411195755,0.27550002932548523
1772729577186448400,8.967448486328125,0.430659681558609,0.20769402384757996,0.35796675086021423
1772729577195966700,8.976966796875,0.4569268524646759,0.35613417625427246,0.4453204274177551
1772729577205484800,8.98648486328125,0.4679224193096161,0.4819723069667816,0.5088503360748291
1772729577215003100,8.996003173828125,0.4526508152484894,0.5479456782341003,0.5253437161445618
1772729577224521500,9.005521484375,0.4269944727420807,0.5076286196708679,0.4886918365955353
1772729577234039800,9.015039794921876,0.3860665261745453,0.31520622968673706,0.4062250852584839
1772729577243558000,9.024557861328125,0.3194822669029236,0.031154103577136993,0.2828303873538971
1772729577253076200,9.034076171875,0.2406807243824005,-0.2675587832927704,0.1380554437637329
1772729577262594600,9.043594482421875,0.1649334877729416,-0.5045742988586426,-0.015271619893610477
1772729577272113000,9.05311279296875,0.08918625861406326,-0.6145299673080444,-0.16310089826583862
1772729577281631200,9.06263134765625,0.020769402384757996,-0.5772672295570374,-0.2864955961704254
1772729577291149300,9.0721494140625,-0.009773836471140385,-0.4196641147136688,-0.36712974309921265
1772729577300667600,9.081667724609375,0.021380268037319183,-0.16615521907806396,-0.38850998878479004
1772729577310186000,9.09118603515625,0.10506874322891235,0.17287473380565643,-0.3530798554420471
1772729577319704000,9.1007041015625,0.22296564280986786,0.5510000586509705,-0.27550002932548523
1772729577329222400,9.110222412109374,0.35246896743774414,0.8723149299621582,-0.16554436087608337
1772729577338740700,9.11974072265625,0.4868592321872711,1.072678565979004,-0.03787361457943916
1772729577348259000,9.129259033203125,0.6108647584915161,1.1184934377670288,0.10018182545900345
1772729577357777200,9.138777099609374,0.7202095985412598,1.084285020828247,0.23884813487529755
1772729577367295500,9.14829541015625,0.8063415288925171,1.0311397314071655,0.3610210716724396
1772729577376813800,9.157813720703125,0.8558215498924255,0.9413426518440247,0.44470956921577454
1772729577386332200,9.167332275390624,0.8735366463661194,0.80389803647995,0.4874700903892517
1772729577395850500,9.1768505859375,0.8680388331413269,0.6444623470306396,0.4929678738117218
1772729577405368600,9.18636865234375,0.8436042666435242,0.48930269479751587,0.45937031507492065
1772729577414887000,9.195886962890626,0.7965676784515381,0.3274235129356384,0.3897317349910736
1772729577424405200,9.2054052734375,0.7275399565696716,0.14294235408306122,0.29565855860710144
1772729577433923600,9.214923583984374,0.6536253094673157,-0.03543015569448471,0.18875721096992493
1772729577443441700,9.224441650390625,0.5894845128059387,-0.16676609218120575,0.0769689604640007
1772729577452960000,9.2339599609375,0.5351175665855408,-0.24006985127925873,-0.034208428114652634
1772729577462478300,9.243478271484374,0.49113526940345764,-0.2528980076313019,-0.13927717506885529
1772729577471996400,9.252996337890625,0.46547895669937134,-0.20158538222312927,-0.22418737411499023
1772729577481514800,9.2625146484375,0.45326167345046997,-0.08979712426662445,-0.27855435013771057
1772729577491033000,9.272033203125,0.4428769648075104,0.05436696484684944,-0.3023780584335327
1772729577500551400,9.281551513671875,0.4276053309440613,0.19364413619041443,-0.3017672002315521
1772729577510069800,9.29106982421875,0.4166097939014435,0.30604326725006104,-0.2730565667152405
1772729577519588000,9.300588134765626,0.4172206521034241,0.38301220536231995,-0.21991132199764252
1772729577529106200,9.310106201171875,0.42332929372787476,0.41233372688293457,-0.15577052533626556
1772729577538624500,9.31962451171875,0.42455101013183594,0.40255987644195557,-0.0922405794262886
1772729577548142800,9.329142822265625,0.4196641147136688,0.3536907136440277,-0.03787361457943916
1772729577557661000,9.338660888671875,0.4098902642726898,0.27916520833969116,0.004886918235570192
1772729577567179300,9.34817919921875,0.39828383922576904,0.2162461280822754,0.03298669680953026
1772729577576697600,9.357697509765625,0.3860665261745453,0.18325942754745483,0.053145237267017365
1772729577586216000,9.3672158203125,0.36712974309921265,0.18875721096992493,0.06475166976451874
1772729577595734000,9.376734130859376,0.34147340059280396,0.205861434340477,0.06475166976451874
1772729577605252400,9.38625244140625,0.31093016266822815,0.2162461280822754,0.05253437161445618
1772729577614770700,9.395770751953124,0.2883281707763672,0.20280711352825165,0.023823726922273636
1772729577624289000,9.4052890625,0.2761108875274658,0.14599667489528656,-0.012217295356094837
1772729577633807400,9.414807373046875,0.2663370370864868,0.05742128938436508,-0.04520399495959282
1772729577643325400,9.424325439453124,0.24923282861709595,-0.01282816007733345,-0.06780599057674408
1772729577652843800,9.43384375,0.22174391150474548,-0.04153880476951599,-0.0824667438864708
1772729577662362000,9.443362060546875,0.18814635276794434,-0.05253437161445618,-0.08552107214927673
1772729577671880200,9.452880126953126,0.1637117564678192,-0.043371398001909256,-0.07024945318698883
1772729577681398500,9.4623984375,0.143553227186203,-0.02260199747979641,-0.03298669680953026
1772729577690916900,9.471916748046874,0.12034036219120026,-0.004886918235570192,0.025045456364750862
1772729577700435200,9.481435302734376,0.08552107214927673,0.01282816007733345,0.09529490768909454
1772729577709953300,9.490953369140625,0.043982263654470444,0.04459312930703163,0.15638138353824615
1772729577719471600,9.5004716796875,0.009773836471140385,0.05253437161445618,0.19669845700263977
1772729577728990000,9.509989990234375,-0.009773836471140385,-0.0030543238390237093,0.20952661335468292
1772729577738508300,9.51950830078125,-0.017715077847242355,-0.09712749719619751,0.19242240488529205
1772729577748026600,9.529026611328124,-0.017104214057326317,-0.2107483446598053,0.14721840620040894
1772729577757544700,9.538544677734375,-0.017104214057326317,-0.3176496922969818,0.0818558782339096
1772729577767063000,9.54806298828125,-0.020158538594841957,-0.40744680166244507,0.007330377586185932
1772729577776581400,9.557581298828126,-0.02871064469218254,-0.46975502371788025,-0.05497783049941063
1772729577786099500,9.567099365234375,-0.033597562462091446,-0.4740310609340668,-0.08918625861406326
1772729577795617800,9.57661767578125,-0.04459312930703163,-0.41294458508491516,-0.1130099818110466
1772729577805136100,9.58613623046875,-0.050090912729501724,-0.29565855860710144,-0.1380554437637329
1772729577814654500,9.595654541015625,-0.03237583488225937,-0.12583814561367035,-0.18387030065059662
1772729577824172500,9.605172607421874,0.003665188793092966,0.028099779039621353,-0.2559523284435272
1772729577833691000,9.61469091796875,0.01282816007733345,0.14110976457595825,-0.24984370172023773
1772729577843209200,9.624209228515625,-0.06414080411195755,0.043371398001909256,-0.2162461280822754
1772729577852727600,9.6337275390625,-0.16187916696071625,-0.21746785938739777,-0.19364413619041443
1772729577862246000,9.643245849609375,-0.19608759880065918,-0.5711585879325867,-0.17776164412498474
1772729577871764000,9.652763916015624,-0.19303326308727264,-0.8967494964599609,-0.185092031955719
1772729577881282300,9.6622822265625,-0.20647229254245758,-1.0763437747955322,-0.2315177470445633
1772729577900319000,9.681319091796874,-0.33658650517463684,-0.9419534802436829,-0.3341430425643921
1772729577909837000,9.690837158203125,-0.39400777220726013,-0.7971785664558411,-0.3249800503253937
1772729577919355400,9.70035546875,-0.40255987644195557,-0.6047561168670654,-0.23518294095993042
