time,seconds_elapsed,z,y,x
1772729568354593300,0.13559326171875,8.779266357421875,3.5222349166870117,-0.48095735907554626
1772729568364111600,0.145111572265625,8.8438720703125,3.4887354373931885,-0.3684946894645691
1772729568383148000,0.16414794921875,9.061619758605957,3.4791641235351562,-0.2153540402650833
1772729568392666400,0.173666259765625,9.250652313232422,3.476771354675293,-0.14356936514377594
1772729568402184400,0.183184326171875,9.468399047851562,3.4552359580993652,-0.0933200865983963
1772729568411702800,0.192702880859375,9.674181938171387,3.3332018852233887,-0.014356935396790504
1772729568421221000,0.20222119140625,9.860821723937988,3.25663161277771,0.08135596662759781
1772729568430739500,0.211739501953125,10.05703353881836,3.1920254230499268,0.12681959569454193
1772729568440257800,0.2212578125,10.217352867126465,3.2303106784820557,0.12442677468061447
1772729568449776000,0.230776123046875,10.317851066589355,3.2781670093536377,0.11964113265275955
1772729568459294200,0.240294189453125,10.258030891418457,3.297309637069702,0.23210379481315613
1772729568468812500,0.2498125,10.078569412231445,3.366701364517212,0.275174617767334
1772729568478331000,0.259330810546875,9.877572059631348,3.4672000408172607,0.22492532432079315
1772729568487849000,0.268848876953125,9.631111145019531,3.5341989994049072,0.1459621787071228
1772729568497367300,0.2783671875,9.300901412963867,3.6849467754364014,0.014356935396790504
1772729568506885600,0.2878857421875,8.958727836608887,3.7950167655944824,-0.08135596662759781
1772729568516404000,0.297404052734375,8.650053977966309,3.9146578311920166,-0.13160525262355804
1772729568525922000,0.306922119140625,8.34138011932373,3.9792640209198,-0.13639089465141296
1772729568535440400,0.3164404296875,8.111668586730957,4.024727821350098,-0.10767702013254166
1772729568544958700,0.325958740234375,7.992027759552002,4.015156269073486,-0.14356936514377594
1772729568554477000,0.33547705078125,7.975277900695801,4.015156269073486,-0.20578274130821228
1772729568563995400,0.344995361328125,7.956135272979736,3.981656789779663,-0.24885354936122894
1772729568573513700,0.354513671875,8.023134231567383,3.9146578311920166,-0.24885354936122894
1772729568583031800,0.36403173828125,8.142775535583496,3.8117663860321045,-0.15314064919948578
1772729568592550100,0.373550048828125,8.283951759338379,3.751945972442627,-0.05742774158716202
1772729568602068500,0.383068359375,8.453842163085938,3.759124279022217,0.040677983313798904
1772729568611586600,0.392586669921875,8.640482902526855,3.792623996734619,0.14356936514377594
1772729568621105000,0.40210498046875,8.81515884399414,3.7782669067382812,0.2727817893028259
1772729568630623200,0.411623291015625,8.956335067749023,3.7974095344543457,0.3038884699344635
1772729568640141600,0.4211416015625,9.037691116333008,3.7710886001586914,0.33020952343940735
1772729568649659600,0.43065966796875,9.138189315795898,3.744767427444458,0.3278166949748993
1772729568659178000,0.440177978515625,9.281759262084961,3.744767427444458,0.32542386651039124
1772729568668696300,0.4496962890625,9.377471923828125,3.713660717010498,0.2967100143432617
1772729568678214700,0.459214599609375,9.516255378723145,3.6993038654327393,0.2727817893028259
1772729568687733000,0.46873291015625,9.571290969848633,3.672982692718506,0.27756741642951965
1772729568697251300,0.478251220703125,9.564111709594727,3.651447296142578,0.27756741642951965
1772729568706769400,0.487769287109375,9.43489933013916,3.680161237716675,0.2225325107574463
1772729568716287700,0.497287841796875,9.382257461547852,3.7543387413024902,0.18903298676013947
1772729568725806000,0.50680615234375,9.439684867858887,3.8333017826080322,0.14356936514377594
1772729568735324200,0.51632421875,9.506684303283691,3.955335855484009,0.04546362906694412
1772729568744842500,0.525842529296875,9.633503913879395,4.022335052490234,-0.12203395366668701
1772729568754360800,0.53536083984375,9.717252731323242,4.082155227661133,-0.26081767678260803
1772729568763879200,0.544879150390625,9.784252166748047,4.048655986785889,-0.2799602448940277
1772729568773397200,0.554397216796875,9.856036186218262,4.022335052490234,-0.24406790733337402
1772729568782915600,0.56391552734375,9.913464546203613,3.996013879776001,-0.2105683982372284
1772729568792434000,0.573433837890625,9.870393753051758,3.9768712520599365,-0.12203395366668701
1772729568801952300,0.5829521484375,9.841679573059082,3.9314076900482178,-0.15314064919948578
1772729568811470600,0.592470703125,9.949356079101562,3.9314076900482178,-0.2679961323738098
1772729568820988700,0.60198876953125,10.195816993713379,3.893122434616089,-0.4307080805301666
1772729568830507000,0.611507080078125,10.571490287780762,3.864408493041992,-0.5455635786056519
1772729568840025300,0.621025390625,10.803594589233398,3.862015724182129,-0.6197410821914673
1772729568849543700,0.630543701171875,10.861021995544434,3.7902309894561768,-0.6580262184143066
1772729568859061800,0.640061767578125,10.980663299560547,3.682554006576538,-0.6149554252624512
1772729568868580000,0.649580078125,10.892128944396973,3.507878065109253,-0.5551348328590393
1772729568878098400,0.659098388671875,10.777273178100586,3.4241292476654053,-0.6005984544754028
1772729568887616800,0.66861669921875,10.77248764038086,3.4911282062530518,-0.7154539823532104
1772729568897134800,0.678134765625,10.62413215637207,3.6227335929870605,-0.8350951075553894
1772729568906653200,0.687653076171875,10.451848983764648,3.720839262008667,-0.8470591902732849
1772729568916171500,0.697171630859375,10.29870891571045,3.7016966342926025,-0.698704183101654
1772729568925689900,0.70668994140625,10.238887786865234,3.6538400650024414,-0.5479564070701599
1772729568935208200,0.716208251953125,10.241280555725098,3.5126636028289795,-0.5024927258491516
1772729568944726300,0.725726318359375,10.147960662841797,3.311666488647461,-0.4785645306110382
1772729568954244600,0.73524462890625,10.054640769958496,3.0867412090301514,-0.4833501875400543
1772729568963763000,0.744762939453125,10.009177207946777,2.854637384414673,-0.5144568681716919
1772729568973281300,0.75428125,10.068997383117676,2.66560435295105,-0.7202396392822266
1772729568982799400,0.76379931640625,10.169496536254883,2.6153552532196045,-1.210768222808838
1772729568992317700,0.773317626953125,10.188638687133789,2.5603201389312744,-1.6319050788879395
1772729569001836000,0.7828359375,9.93260669708252,2.4023938179016113,-1.8305093050003052
1772729569011354400,0.792354248046875,9.198010444641113,2.1607189178466797,-1.832902193069458
1772729569020872400,0.80187255859375,9.06401252746582,2.1750757694244385,-1.8400806188583374
1772729569030390800,0.811390869140625,8.903693199157715,2.4095723628997803,-1.667797327041626
1772729569039909000,0.8209091796875,8.805587768554688,2.8761727809906006,-1.3304094076156616
1772729569049427500,0.830427490234375,8.4562349319458,3.242274761199951,-1.7419748306274414
1772729569058945800,0.83994580078125,8.417949676513672,3.4504501819610596,-1.5122638940811157
1772729569068464000,0.849464111328125,8.413164138793945,3.4408788681030273,-1.2323036193847656
1772729569077982200,0.858982177734375,8.195417404174805,3.352344512939453,-1.031306505203247
1772729569087500500,0.86850048828125,8.023134231567383,3.22552490234375,-1.0241280794143677
1772729569097019000,0.878018798828125,7.8795647621154785,3.091526746749878,-1.1629117727279663
1772729569106537200,0.887537109375,7.733603000640869,2.974278450012207,-1.3232308626174927
1772729569116055300,0.89705517578125,7.518248558044434,2.909672260284424,-1.5290136337280273
1772729569125573600,0.90657373046875,7.6977105140686035,2.878565549850464,-1.9573289155960083
1772729569135092000,0.916092041015625,8.047062873840332,2.878565549850464,-2.280359983444214
1772729569144610000,0.925610107421875,8.513663291931152,2.9288148880004883,-2.65842604637146
1772729569154128400,0.93512841796875,9.17886734008789,3.06999135017395,-2.9455647468566895
1772729569163646700,0.944646728515625,9.853643417358398,3.036491870880127,-2.7637102603912354
1772729569173165000,0.9541650390625,10.408778190612793,2.823530673980713,-2.1535403728485107
1772729569182683400,0.963683349609375,10.576275825500488,2.5746772289276123,-1.521835207939148
1772729569192201700,0.97320166015625,10.597811698913574,2.282752752304077,-0.8638089895248413
1772729569201719800,0.9827197265625,10.612168312072754,2.0650060176849365,-0.4043870270252228
1772729569211238100,0.992238037109375,10.482955932617188,2.0243279933929443,-0.33738797903060913
1772729569220756500,1.001756591796875,10.202995300292969,2.2061824798583984,-0.6029912829399109
1772729569230274800,1.01127490234375,9.896714210510254,2.579462766647339,-1.074377417564392
1772729569239793000,1.02079296875,9.55214786529541,2.950350284576416,-1.4835500717163086
1772729569249311200,1.030311279296875,9.162117958068848,3.2063822746276855,-1.7012969255447388
1772729569258829600,1.03982958984375,8.72901725769043,3.3690943717956543,-1.6103696823120117
1772729569268348000,1.049347900390625,8.372486114501953,3.5150563716888428,-1.3782658576965332
1772729569277866000,1.058865966796875,7.975277900695801,3.620340585708618,-1.1461620330810547
1772729569287384300,1.06838427734375,7.668996810913086,3.751945972442627,-0.9284151792526245
1772729569296902700,1.077902587890625,7.606783390045166,3.893122434616089,-0.8398807644844055
1772729569306421000,1.0874208984375,7.671389579772949,4.06540584564209,-0.8063812255859375
1772729569315939300,1.096939208984375,7.676175117492676,4.113262176513672,-0.7513462901115417
1772729569325457700,1.106457763671875,7.714460372924805,4.101297855377197,-0.6508477330207825
1772729569334975700,1.115975830078125,7.850851058959961,4.053441524505615,-0.4953143000602722
1772729569344494000,1.125494140625,8.02074146270752,4.0558342933654785,-0.38763725757598877
1772729569354012400,1.135012451171875,8.252845764160156,4.130012035369873,-0.39960137009620667
1772729569363530500,1.144530517578125,8.506484031677246,4.208974838256836,-0.42352959513664246
1772729569373048800,1.154048828125,8.700303077697754,4.235296249389648,-0.41874396800994873
1772729569382567200,1.163567138671875,8.882157325744629,4.211368083953857,-0.35892340540885925
1772729569392085500,1.17308544921875,8.958727836608887,4.199403762817383,-0.2991028428077698
1772729569401603600,1.182603515625,8.941978454589844,4.156332969665527,-0.26560330390930176
1772729569411122000,1.192121826171875,9.020941734313965,4.192225456237793,-0.31345975399017334
1772729569420640300,1.20164013671875,9.18843936920166,4.244867324829102,-0.3900300860404968
1772729569430158600,1.21115869140625,9.32722282409668,4.299902439117432,-0.4546363055706024
1772729569439677000,1.220677001953125,9.408578872680664,4.29033088684082,-0.47617170214653015
1772729569449195300,1.2301953125,9.456435203552246,4.3310089111328125,-0.4378865361213684
1772729569458713300,1.23971337890625,9.437292098999023,4.376472473144531,-0.44745782017707825
1772729569468231700,1.249231689453125,9.351150512695312,4.453042984008789,-0.43549370765686035
1772729569477750000,1.25875,9.260223388671875,4.512863636016846,-0.4331009089946747
1772729569487268400,1.268268310546875,9.250652313232422,4.591826438903809,-0.46899324655532837
1772729569496786400,1.277786376953125,9.351150512695312,4.6995038986206055,-0.519242525100708
1772729569506304800,1.2873046875,9.549755096435547,4.697110652923584,-0.5527420043945312
1772729569515823000,1.296822998046875,9.729216575622559,4.6540398597717285,-0.5527420043945312
1772729569525341400,1.306341552734375,9.851250648498535,4.603790760040283,-0.5048855543136597
1772729569534859800,1.31585986328125,10.071390151977539,4.543970108032227,-0.363709032535553
1772729569544377900,1.3253779296875,10.15035343170166,4.53200626373291,-0.2727817893028259
1772729569553896200,1.334896240234375,10.186245918273926,4.570291042327881,-0.2799602448940277
1772729569563414500,1.34441455078125,10.250852584838867,4.59421968460083,-0.23210379481315613
1772729569572932900,1.353932861328125,10.353743553161621,4.632504463195801,-0.2847459018230438
1772729569582451200,1.363451171875,10.411170959472656,4.658825874328613,-0.3158525824546814
1772729569591969300,1.37296923828125,10.396814346313477,4.658825874328613,-0.349352091550827
1772729569601487600,1.382487548828125,10.277173042297363,4.6301116943359375,-0.275174617767334
1772729569611006000,1.392005859375,10.183853149414062,4.615755081176758,-0.14835500717163086
1772729569620524300,1.401524169921875,10.083354949951172,4.565505504608154,0.031106693670153618
1772729569630042400,1.41104248046875,9.985248565673828,4.517649173736572,0.2105683982372284
1772729569639560700,1.420560791015625,9.992427825927734,4.445864677429199,0.4091726839542389
1772729569649079000,1.4300791015625,10.104889869689941,4.369294166564941,0.5288137793540955
1772729569658597400,1.439597412109375,10.277173042297363,4.244867324829102,0.6293123364448547
1772729569668115700,1.44911572265625,10.52363395690918,4.06540584564209,0.6460621356964111
1772729569677634000,1.458634033203125,10.698309898376465,3.7663028240203857,0.6484549641609192
1772729569687152000,1.468152099609375,10.679167747497559,3.397808074951172,0.6484549641609192
1772729569696670500,1.47767041015625,10.52363395690918,2.9958138465881348,0.7250252366065979
1772729569706188800,1.487188720703125,10.250852584838867,2.6799614429473877,0.760917603969574
1772729569715707000,1.496706787109375,9.906285285949707,2.5531418323516846,0.6915257573127747
1772729569725225200,1.50622509765625,9.513862609863281,2.5914268493652344,0.5168496966362
1772729569734743600,1.51574365234375,9.107083320617676,2.7661030292510986,0.35892340540885925
1772729569744262000,1.525261962890625,8.702695846557617,2.9240293502807617,0.20578274130821228
1772729569753780000,1.534780029296875,8.343772888183594,3.029313564300537,0.11964113265275955
1772729569763298300,1.54429833984375,7.975277900695801,3.105883836746216,0.031106693670153618
1772729569772816600,1.553816650390625,7.714460372924805,3.177668571472168,-0.04546362906694412
1772729569782335000,1.5633349609375,7.496713161468506,3.1441688537597656,-0.01196411345154047
1772729569791853300,1.572853271484375,7.389036178588867,3.10109806060791,0.12681959569454193
1772729569801371600,1.58237158203125,7.389036178588867,3.1106693744659424,0.2560320198535919
1772729569810889700,1.5918896484375,7.506284713745117,3.1585259437561035,0.39960137009620667
1772729569820408000,1.601407958984375,7.733603000640869,3.1992039680480957,0.5072783827781677
1772729569829926400,1.610926513671875,8.042277336120605,3.1920254230499268,0.5048855543136597
1772729569839444700,1.62044482421875,8.372486114501953,3.1202406883239746,0.4498506486415863
1772729569848962800,1.629962890625,8.681160926818848,3.046063184738159,0.3086741268634796
1772729569858481200,1.639481201171875,8.994620323181152,2.9838497638702393,0.16031911969184875
1772729569867999500,1.64899951171875,9.291330337524414,2.9790642261505127,-0.062213387340307236
1772729569877517800,1.658517822265625,9.533005714416504,3.077169895172119,-0.275174617767334
1772729569887036000,1.668035888671875,9.748359680175781,3.1657042503356934,-0.5312066078186035
1772729569896554200,1.67755419921875,9.915857315063477,3.290131092071533,-0.6867401003837585
1772729569906072600,1.687072509765625,9.93978500366211,3.4121651649475098,-0.7896314859390259
1772729569915591000,1.6965908203125,9.903892517089844,3.524627685546875,-0.8685946464538574
1772729569925109200,1.706109130859375,9.757930755615234,3.5988051891326904,-0.8662018179893494
1772729569934627600,1.715627685546875,9.578469276428223,3.6945180892944336,-0.9044869542121887
1772729569944145700,1.725145751953125,9.379864692687988,3.814159393310547,-0.8590233325958252
1772729569953664000,1.7346640625,9.097511291503906,3.9218363761901855,-0.8183453679084778
1772729569963182300,1.744182373046875,8.884550094604492,4.110869407653809,-0.7537391185760498
1772729569972700700,1.75370068359375,8.551948547363281,4.2209391593933105,-0.5335994362831116
1772729569982218800,1.76321875,8.195417404174805,4.254438877105713,-0.3158525824546814
1772729569991737000,1.772737060546875,7.8556365966796875,4.35254430770874,-0.17228323221206665
1772729570001255400,1.78225537109375,7.568498134613037,4.467400074005127,-0.15314064919948578
1772729570010773800,1.791773681640625,7.434499740600586,4.589433670043945,-0.16271193325519562
1772729570020291800,1.801291748046875,7.396214962005615,4.651647090911865,-0.21774685382843018
1772729570029810200,1.81081005859375,7.470392227172852,4.620540618896484,-0.28235307335853577
1772729570039328500,1.82032861328125,7.592426300048828,4.634897232055664,-0.2967100143432617
1772729570048846800,1.829846923828125,7.704888820648193,4.503292083740234,-0.22971096634864807
1772729570058365200,1.839365234375,7.874779224395752,4.3549370765686035,-0.11724831163883209
1772729570067883500,1.848883544921875,8.135597229003906,4.271188259124756,-0.07178468257188797
1772729570077401600,1.858401611328125,8.408378601074219,4.261617183685303,-0.009571290574967861
1772729570086920000,1.867919921875,8.683553695678711,4.211368083953857,0.01196411345154047
1772729570096438300,1.877438232421875,8.872586250305176,4.156332969665527,0.04307080805301666
1772729570105956600,1.88695654296875,8.97787094116211,4.096512317657471,0.06699903309345245
1772729570115474700,1.896474609375,9.059226989746094,4.084548473358154,0.09810572862625122
1772729570124993000,1.905992919921875,9.068798065185547,4.130012035369873,0.14356936514377594
1772729570134511400,1.915511474609375,8.982656478881836,4.256831645965576,0.1746760457754135
1772729570144029700,1.92502978515625,8.82233715057373,4.42193603515625,0.23210379481315613
1772729570153547800,1.9345478515625,8.717052459716797,4.505684852600098,0.33499518036842346
1772729570163066000,1.944066162109375,8.702695846557617,4.575077056884766,0.4163511395454407
1772729570172584400,1.95358447265625,8.6907320022583,4.651647090911865,0.35892340540885925
1772729570182102800,1.963102783203125,8.695517539978027,4.687539577484131,0.24885354936122894
1772729570191621000,1.97262109375,8.810373306274414,4.6995038986206055,0.11964113265275955
1772729570201139500,1.982139404296875,8.951549530029297,4.668396949768066,0.02871387079358101
1772729570210657500,1.991657470703125,9.145368576049805,4.661218643188477,-0.007178467698395252
1772729570220176000,2.00117578125,9.370293617248535,4.649254322052002,0.02871387079358101
1772729570229694200,2.010694091796875,9.518648147583008,4.6540398597717285,0.08374879509210587
1772729570239212500,2.020212646484375,9.635896682739258,4.6995038986206055,0.2105683982372284
1772729570248730600,2.029730712890625,9.784252166748047,4.744967460632324,0.28235307335853577
1772729570258249000,2.0392490234375,10.009177207946777,4.852644443511963,0.2967100143432617
1772729570267767300,2.048767333984375,10.159924507141113,4.938786029815674,0.22971096634864807
1772729570277285600,2.05828564453125,10.188638687133789,4.917250633239746,0.2919243574142456
1772729570286803700,2.0678037109375,10.145567893981934,4.869394302368164,0.3756731450557709
1772729570296322000,2.077322021484375,10.061819076538086,4.862215518951416,0.380458801984787
1772729570305840400,2.08684033203125,9.89432144165039,4.931607246398926,0.275174617767334
1772729570315358700,2.096358642578125,9.705288887023926,5.029713153839111,0.08614161610603333
1772729570324877000,2.105876953125,9.535398483276367,5.108676433563232,-0.07178468257188797
1772729570334395400,2.1153955078125,9.42772102355957,5.154139995574951,-0.19142581522464752
1772729570343913500,2.12491357421875,9.415757179260254,5.201996326446533,-0.30149564146995544
1772729570353431800,2.134431884765625,9.468399047851562,5.20678186416626,-0.3565305769443512
1772729570362950100,2.1439501953125,9.542576789855957,5.036891460418701,-0.31345975399017334
1772729570372468500,2.153468505859375,9.643074989318848,4.72582483291626,-0.16031911969184875
1772729570381986600,2.162986572265625,9.824930191040039,4.35254430770874,-0.13160525262355804
1772729570391505000,2.1725048828125,10.009177207946777,3.9864425659179688,-0.23449662327766418
1772729570401023200,2.182023193359375,10.262816429138184,3.6873397827148438,-0.4259224236011505
1772729570410541600,2.19154150390625,10.547562599182129,3.383451223373413,-0.5910272002220154
1772729570420059600,2.2010595703125,10.676774978637695,3.153740167617798,-0.7226324677467346
1772729570429578000,2.210577880859375,10.6624174118042,3.0173492431640625,-0.7417750358581543
1772729570439096300,2.220096435546875,10.315458297729492,2.9623143672943115,-0.641276478767395
1772729570448614700,2.22961474609375,9.89432144165039,2.964707374572754,-0.519242525100708
1772729570458133000,2.239133056640625,9.482755661010742,3.1202406883239746,-0.5000999569892883
1772729570467651000,2.248651123046875,9.07119083404541,3.3068809509277344,-0.5407779216766357
1772729570477169400,2.25816943359375,8.673981666564941,3.5030922889709473,-0.6652047038078308
1772729570486687700,2.267687744140625,8.293522834777832,3.620340585708618,-0.7369893789291382
1772729570496206000,2.2772060546875,7.956135272979736,3.7016966342926025,-0.760917603969574
1772729570505724400,2.286724365234375,7.652246952056885,3.7160534858703613,-0.7202396392822266
1772729570515242500,2.296242431640625,7.379465103149414,3.672982692718506,-0.6963114142417908
1772729570524760800,2.3057607421875,7.2335028648376465,3.570091485977173,-0.6939185857772827
1772729570534279200,2.315279052734375,7.188039302825928,3.5437703132629395,-0.8039883971214294
1772729570543797500,2.324797607421875,7.29810905456543,3.5150563716888428,-0.9044869542121887
1772729570553315600,2.334315673828125,7.520641803741455,3.445664644241333,-1.0336993932724
1772729570562834000,2.343833984375,7.77188777923584,3.345165967941284,-1.0791629552841187
1772729570572352300,2.353352294921875,8.080561637878418,3.218346357345581,-1.038485050201416
1772729570581870600,2.36287060546875,8.520841598510742,3.0891339778900146,-0.9882357716560364
1772729570591389000,2.372388916015625,9.020941734313965,3.053241729736328,-0.9068797826766968
1772729570600907300,2.3819072265625,9.504291534423828,3.084348440170288,-0.8327022790908813
1772729570610425300,2.39142529296875,9.872786521911621,3.067598581314087,-0.6245267391204834
1772729570619943700,2.400943603515625,10.17428207397461,3.0245277881622314,-0.363709032535553
1772729570629462000,2.4104619140625,10.356136322021484,2.9599215984344482,-0.15074782073497772
1772729570638980400,2.41998046875,10.38485050201416,2.998206853866577,-0.08614161610603333
1772729570648498400,2.42949853515625,10.301101684570312,3.0723843574523926,-0.11246266216039658
1772729570658016800,2.439016845703125,10.071390151977539,3.232703447341919,-0.20099709928035736
1772729570667535000,2.44853515625,9.781859397888184,3.3690943717956543,-0.2727817893028259
1772729570677053400,2.458053466796875,9.499505996704102,3.555734395980835,-0.28953152894973755
1772729570686571800,2.46757177734375,9.068798065185547,3.7184464931488037,-0.2967100143432617
1772729570696089900,2.47708984375,8.61176872253418,3.8500516414642334,-0.24167509377002716
1772729570705608200,2.486608154296875,8.178668022155762,3.9194436073303223,-0.1746760457754135
1772729570715126500,2.49612646484375,7.860422611236572,4.039084434509277,-0.16749759018421173
1772729570724644900,2.505644775390625,7.592426300048828,4.1730828285217285,-0.23210379481315613
1772729570734163200,2.5151630859375,7.444071292877197,4.299902439117432,-0.2560320198535919
1772729570743681500,2.524681640625,7.424928665161133,4.42193603515625,-0.17946170270442963
1772729570753199600,2.53419970703125,7.465606689453125,4.534399032592773,-0.031106693670153618
1772729570762718000,2.543718017578125,7.506284713745117,4.625326156616211,0.0933200865983963
1772729570772236300,2.553236328125,7.621140003204346,4.680361270904541,0.22971096634864807
1772729570781754600,2.562754638671875,7.774280548095703,4.642076015472412,0.36610186100006104
1772729570791272700,2.572272705078125,7.980063438415527,4.613361835479736,0.4019941985607147
1772729570800791000,2.581791015625,8.164310455322266,4.54636287689209,0.3517449200153351
1772729570810309400,2.591309326171875,8.389236450195312,4.48414945602417,0.22971096634864807
1772729570819827700,2.60082763671875,8.595019340515137,4.388436794281006,0.062213387340307236
1772729570829345800,2.610345703125,8.693124771118164,4.333401679992676,-0.1866401731967926
1772729570838864100,2.619864013671875,8.760123252868652,4.285545349121094,-0.3732803463935852
1772729570848382500,2.629382568359375,8.824729919433594,4.278367042541504,-0.48813581466674805
1772729570857900800,2.63890087890625,8.810373306274414,4.314259052276611,-0.5383850932121277
1772729570867419100,2.648419189453125,8.83669376373291,4.359723091125488,-0.5168496966362
1772729570876937500,2.6579375,8.95394229888916,4.48414945602417,-0.44027936458587646
1772729570886455600,2.66745556640625,9.114261627197266,4.591826438903809,-0.3900300860404968
1772729570895974000,2.676973876953125,9.42772102355957,4.666004180908203,-0.24406790733337402
1772729570905492200,2.6864921875,9.798608779907227,4.651647090911865,-0.13639089465141296
1772729570915010600,2.696010498046875,10.152746200561523,4.584648132324219,-0.1339980661869049
1772729570924528600,2.705528564453125,10.466206550598145,4.47697114944458,-0.12442677468061447
1772729570934047000,2.715046875,10.669595718383789,4.383651256561279,-0.08135596662759781
1772729570943565300,2.7245654296875,10.884950637817383,4.388436794281006,-0.059820566326379776
1772729570953083600,2.734083740234375,11.10748291015625,4.48414945602417,-0.11246266216039658
1772729570962601700,2.743601806640625,11.241480827331543,4.615755081176758,-0.19621145725250244
1772729570972120000,2.7531201171875,11.23908805847168,4.615755081176758,-0.2392822653055191
1772729570981638400,2.762638427734375,11.145768165588379,4.522434711456299,-0.23210379481315613
1772729570991156700,2.77215673828125,10.956734657287598,4.445864677429199,-0.22492532432079315
1772729571000675000,2.781675048828125,10.667202949523926,4.46979284286499,-0.21296121180057526
1772729571010193400,2.791193359375,10.423135757446289,4.5583271980285645,-0.20338992774486542
1772729571019711500,2.80071142578125,10.183853149414062,4.730610370635986,-0.1866401731967926
1772729571029229800,2.810229736328125,9.930213928222656,4.821537494659424,-0.08135596662759781
1772729571038748200,2.819748046875,9.643074989318848,4.821537494659424,0.13878370821475983
1772729571048266500,2.8292666015625,9.442078590393066,4.687539577484131,0.40677985548973083
1772729571057784600,2.83878466796875,9.377471923828125,4.529613494873047,0.6221339106559753
1772729571067303000,2.848302978515625,9.477970123291016,4.359723091125488,0.6173482537269592
1772729571076821200,2.8578212890625,9.760323524475098,4.139583110809326,0.4378865361213684
1772729571086339600,2.867339599609375,10.152746200561523,3.81655216217041,0.3086741268634796
1772729571095857700,2.876857666015625,10.521241188049316,3.460021495819092,0.20578274130821228
1772729571105376000,2.8863759765625,10.76530933380127,3.0867412090301514,0.21296121180057526
1772729571114894300,2.895894287109375,10.913663864135742,2.7182464599609375,0.2919243574142456
1772729571124412700,2.90541259765625,10.899307250976562,2.421536445617676,0.3613162338733673
1772729571133931000,2.914930908203125,10.77966594696045,2.289931297302246,0.3852444589138031
1772729571143449300,2.924449462890625,10.549955368041992,2.3018953800201416,0.3732803463935852
1772729571152967700,2.9339677734375,10.188638687133789,2.3856441974639893,0.38763725757598877
1772729571162485800,2.94348583984375,9.765109062194824,2.4717857837677,0.4498506486415863
1772729571172004000,2.953004150390625,9.30329418182373,2.562713146209717,0.5359922647476196
1772729571181522400,2.9625224609375,8.824729919433594,2.641676187515259,0.5958128571510315
1772729571191040800,2.972040771484375,8.396414756774902,2.778067111968994,0.6652047038078308
1772729571200558800,2.981558837890625,7.960920810699463,2.9479575157165527,0.7513462901115417
1772729571210077200,2.9910771484375,7.525427341461182,3.13220477104187,0.8374879360198975
1772729571219595500,3.000595458984375,7.207181930541992,3.3020951747894287,0.8614161610603333
1772729571229113900,3.01011376953125,7.080362319946289,3.436093330383301,0.8159525394439697
1772729571238632000,3.0196318359375,7.106683254241943,3.500699520111084,0.7058826684951782
1772729571248150300,3.029150390625,7.29093074798584,3.4959139823913574,0.6364908218383789
1772729571257668600,3.038668701171875,7.551748275756836,3.373879909515381,0.5431707501411438
1772729571267187000,3.04818701171875,7.88913631439209,3.2350962162017822,0.46899324655532837
1772729571276705300,3.057705322265625,8.288737297058105,3.1202406883239746,0.3086741268634796
1772729571286223600,3.0672236328125,8.61176872253418,3.0556344985961914,0.11485548317432404
1772729571295741700,3.07674169921875,8.886942863464355,3.0580272674560547,-0.016749758273363113
1772729571305260000,3.086260009765625,9.200403213500977,3.19441819190979,-0.08135596662759781
1772729571314778400,3.0957783203125,9.169296264648438,3.22552490234375,-0.016749758273363113
1772729571324296700,3.105296630859375,9.049654960632324,3.3403804302215576,0.12203395366668701
1772729571333814800,3.114814697265625,8.8438720703125,3.5365917682647705,0.26560330390930176
1772729571343333000,3.1243330078125,8.48016357421875,3.7806596755981445,0.42831525206565857
1772729571352851500,3.1338515625,8.054241180419922,4.01754903793335,0.5670989751815796
1772729571362369800,3.143369873046875,7.795815944671631,4.237689018249512,0.6293123364448547
1772729571371887900,3.152887939453125,7.558926582336426,4.438685894012451,0.5431707501411438
1772729571381406200,3.16240625,7.35314416885376,4.59421968460083,0.4737788736820221
1772729571390924500,3.171924560546875,7.2574310302734375,4.651647090911865,0.41874396800994873
1772729571400443000,3.18144287109375,7.326822757720947,4.589433670043945,0.39960137009620667
1772729571409961200,3.190961181640625,7.475177764892578,4.563112735748291,0.363709032535553
1772729571419479600,3.2004794921875,7.800601959228516,4.4482574462890625,0.31345975399017334
1772729571428998000,3.209997802734375,8.126026153564453,4.390829563140869,0.2512463629245758
1772729571438516000,3.219515869140625,8.394021987915039,4.350151538848877,0.23449662327766418
1772729571448034300,3.229034423828125,8.623732566833496,4.333401679992676,0.2105683982372284
1772729571457552600,3.238552734375,8.839086532592773,4.362115859985352,0.15314064919948578
1772729571467071000,3.248071044921875,9.049654960632324,4.433900356292725,0.08374879509210587
1772729571476589000,3.257589111328125,9.245866775512695,4.524827480316162,0.038285162299871445
1772729571486107400,3.267107421875,9.372686386108398,4.563112735748291,0.04307080805301666
1772729571495625700,3.276625732421875,9.399007797241211,4.572684288024902,0.05024927482008934
1772729571505144000,3.28614404296875,9.425328254699707,4.570291042327881,0.05024927482008934
1772729571514662100,3.295662109375,9.401400566101074,4.634897232055664,-0.02392822690308094
1772729571524180500,3.305180419921875,9.30329418182373,4.697110652923584,-0.11485548317432404
1772729571533698800,3.31469873046875,9.20279598236084,4.790431022644043,-0.21296121180057526
1772729571543217200,3.324217041015625,9.135796546936035,4.840680122375488,-0.30628129839897156
1772729571552735500,3.333735595703125,9.035298347473145,4.9124650955200195,-0.41156548261642456
1772729571562253800,3.34325390625,9.001798629760742,4.934000492095947,-0.44027936458587646
1772729571571772000,3.35277197265625,9.047262191772461,4.965106964111328,-0.46420758962631226
1772729571581290200,3.362290283203125,9.150154113769531,5.07517671585083,-0.4618147611618042
1772729571590808600,3.37180859375,9.272188186645508,5.146961688995361,-0.4833501875400543
1772729571600327000,3.381326904296875,9.391828536987305,5.197210788726807,-0.5144568681716919
1772729571609845200,3.39084521484375,9.554540634155273,5.20678186416626,-0.5072783827781677
1772729571619363300,3.40036328125,9.731609344482422,5.166104316711426,-0.5383850932121277
1772729571628881700,3.409881591796875,9.942177772521973,5.127819061279297,-0.46420758962631226
1772729571638400000,3.41939990234375,10.13599681854248,5.06082010269165,-0.35892340540885925
1772729571647918000,3.42891796875,10.320243835449219,5.01296329498291,-0.24646073579788208
1772729571657436400,3.4384365234375,10.487741470336914,4.969892501831055,-0.18903298676013947
1772729571666954800,3.447954833984375,10.53799057006836,4.977071285247803,-0.17228323221206665
1772729571676473000,3.45747314453125,10.504491806030273,4.996213912963867,-0.20817556977272034
1772729571685991400,3.466991455078125,10.427921295166016,5.01296329498291,-0.24885354936122894
1772729571695509800,3.476509765625,10.356136322021484,5.077569484710693,-0.35413774847984314
1772729571705028000,3.486028076171875,10.238887786865234,5.178068161010742,-0.5383850932121277
1772729571714546200,3.495546142578125,10.147960662841797,5.216353416442871,-0.6795616149902344
1772729571724064500,3.505064453125,10.001998901367188,5.2115678787231445,-0.794417142868042
1772729571733582800,3.514582763671875,9.963713645935059,5.082355499267578,-0.8135597109794617
1772729571743101200,3.52410107421875,10.009177207946777,4.9531426429748535,-0.7848458290100098
1772729571752619300,3.533619384765625,10.107282638549805,4.802394866943359,-0.7441678643226624
1772729571762137600,3.5431376953125,10.212567329406738,4.625326156616211,-0.7441678643226624
1772729571771656000,3.552656005859375,10.39202880859375,4.486542224884033,-0.6915257573127747
1772729571781174300,3.56217431640625,10.50927734375,4.287938117980957,-0.6580262184143066
1772729571790692400,3.5716923828125,10.564311981201172,4.06540584564209,-0.5982056856155396
1772729571800210700,3.581210693359375,10.588240623474121,3.8333017826080322,-0.5312066078186035
1772729571809729000,3.59072900390625,10.396814346313477,3.6083765029907227,-0.5479564070701599
1772729571819247400,3.600247314453125,10.06421184539795,3.460021495819092,-0.5958128571510315
1772729571828765700,3.609765625,9.67657470703125,3.3643085956573486,-0.698704183101654
1772729571838284000,3.619283935546875,9.190832138061523,3.376272678375244,-0.8398807644844055
1772729571847802000,3.628802001953125,8.662017822265625,3.445664644241333,-0.9810572862625122
1772729571857320400,3.638320556640625,8.047062873840332,3.4887354373931885,-1.057627558708191
1772729571866838800,3.6478388671875,7.477570533752441,3.538984775543213,-1.062413215637207
1772729571876357000,3.657357177734375,6.963113784790039,3.6299118995666504,-1.129412293434143
1772729571885875500,3.66687548828125,6.50608491897583,3.737588882446289,-1.2634103298187256
1772729571895393500,3.6763935546875,6.214160442352295,3.90987229347229,-1.4021940231323242
1772729571904912000,3.685911865234375,6.041877269744873,4.0797624588012695,-1.5361921787261963
1772729571914430200,3.69543017578125,6.058627128601074,4.1730828285217285,-1.6366907358169556
1772729571923948500,3.704948486328125,6.151947021484375,4.232903480529785,-1.6103696823120117
1772729571933466600,3.714466552734375,6.31944465637207,4.2209391593933105,-1.4476577043533325
1772729571942985000,3.72398486328125,6.640082836151123,4.237689018249512,-1.196411371231079
1772729571952503300,3.73350341796875,7.11146879196167,4.230510234832764,-0.9451649188995361
1772729571962021600,3.743021728515625,7.616354465484619,4.182653903961182,-0.6795616149902344
1772729571971540000,3.7525400390625,8.157132148742676,4.096512317657471,-0.46899324655532837
1772729571981058300,3.762058349609375,8.717052459716797,3.9936211109161377,-0.31824541091918945
1772729571990576400,3.771576416015625,9.186046600341797,3.9074792861938477,-0.2273181527853012
1772729572000094700,3.7810947265625,9.590433120727539,3.7878382205963135,-0.064606212079525
1772729572009613000,3.790613037109375,9.846465110778809,3.656233072280884,0.059820566326379776
1772729572019131400,3.80013134765625,9.93978500366211,3.5772697925567627,0.15074782073497772
1772729572028649500,3.8096494140625,9.896714210510254,3.5461630821228027,0.18424734473228455
1772729572038167800,3.819167724609375,9.750752449035645,3.617947816848755,0.08135596662759781
1772729572047686100,3.82868603515625,9.497113227844238,3.761517286300659,-0.15314064919948578
1772729572057204500,3.83820458984375,9.121439933776855,3.9864425659179688,-0.4331009089946747
1772729572066722800,3.847722900390625,8.707481384277344,4.161118507385254,-0.6269195079803467
1772729572076241000,3.857240966796875,8.276773452758789,4.309473514556885,-0.6293123364448547
1772729572085759200,3.86675927734375,7.8628153800964355,4.457828521728516,-0.6029912829399109
1772729572095277600,3.876277587890625,7.523034572601318,4.603790760040283,-0.5694918036460876
1772729572104796000,3.8857958984375,7.262216567993164,4.728217601776123,-0.5240281820297241
1772729572114314200,3.895314208984375,7.137789726257324,4.847858905792236,-0.45224347710609436
1772729572123832600,3.90483251953125,7.113861560821533,4.907679080963135,-0.35892340540885925
1772729572133350700,3.9143505859375,7.176074981689453,4.907679080963135,-0.29431718587875366
1772729572142869000,3.923868896484375,7.322037220001221,4.88853645324707,-0.24167509377002716
1772729572152387300,3.93338720703125,7.506284713745117,4.867001056671143,-0.20578274130821228
1772729572161905700,3.94290576171875,7.752745151519775,4.886143684387207,-0.12921242415905
1772729572171423700,3.952423828125,7.953742504119873,4.902893543243408,-0.04785645380616188
1772729572180942000,3.961942138671875,8.197810173034668,4.95074987411499,0
1772729572190460400,3.97146044921875,8.410771369934082,5.003392219543457,-0.02632104977965355
1772729572199978800,3.980978759765625,8.642875671386719,5.056034088134766,-0.03349951654672623
1772729572209496800,3.990496826171875,8.82951545715332,5.096712112426758,-0.07896314561367035
1772729572219015200,4.00001513671875,9.037691116333008,5.106283664703369,-0.1459621787071228
1772729572228533500,4.009533447265625,9.219545364379883,5.149354457855225,-0.275174617767334
1772729572238051800,4.0190517578125,9.394221305847168,5.096712112426758,-0.3613162338733673
1772729572247570200,4.028570068359375,9.56889820098877,5.120640277862549,-0.42831525206565857
1772729572257088500,4.038088623046875,9.667003631591797,5.123033046722412,-0.41874396800994873
1772729572266606600,4.047606689453125,9.707681655883789,5.103890895843506,-0.3517449200153351
1772729572276125000,4.057125,9.712467193603516,5.134997367858887,-0.2584248483181
1772729572285643300,4.066643310546875,9.69093132019043,5.216353416442871,-0.1818545162677765
1772729572295161600,4.07616162109375,9.765109062194824,5.26899528503418,-0.06699903309345245
1772729572304680000,4.085679931640625,9.899106979370117,5.359922885894775,0.02632104977965355
1772729572314198000,4.095197998046875,9.978070259094238,5.477170944213867,0.08614161610603333
1772729572323716400,4.10471630859375,9.985248565673828,5.496313571929932,0.1579262912273407
1772729572333234700,4.114234619140625,9.985248565673828,5.489135265350342,0.24646073579788208
1772729572342753000,4.1237529296875,9.944570541381836,5.5034918785095215,0.2847459018230438
1772729572352271000,4.13327099609375,9.844072341918945,5.532206058502197,0.23449662327766418
1772729572361789400,4.14278955078125,9.717252731323242,5.608776092529297,0.10767702013254166
1772729572371307800,4.152307861328125,9.621540069580078,5.687739372253418,-0.07896314561367035
1772729572380826000,4.161826171875,9.53779125213623,5.735595703125,-0.23688943684101105
1772729572390344400,4.171344482421875,9.480362892150879,5.733202934265137,-0.3038884699344635
1772729572399862500,4.180862548828125,9.410971641540527,5.737988471984863,-0.3206382393836975
1772729572409380900,4.190380859375,9.391828536987305,5.757131099700928,-0.2847459018230438
1772729572418899200,4.199899169921875,9.463613510131836,5.670989513397217,-0.1339980661869049
1772729572428417500,4.20941748046875,9.645467758178711,5.5345988273620605,0.11246266216039658
1772729572437935900,4.218935791015625,9.91825008392334,5.338387489318848,0.3613162338733673
1772729572447454000,4.228453857421875,10.277173042297363,5.123033046722412,0.5479564070701599
1772729572456972300,4.23797216796875,10.619346618652344,4.807180881500244,0.6915257573127747
1772729572466490600,4.24749072265625,10.901700019836426,4.426722049713135,0.8446664214134216
1772729572476009000,4.257009033203125,11.009376525878906,4.01037073135376,0.9068797826766968
1772729572485527300,4.26652734375,10.899307250976562,3.594019651412964,0.9475577473640442
1772729572495045400,4.27604541015625,10.700702667236328,3.2350962162017822,0.849452018737793
1772729572504563700,4.285563720703125,10.389636039733887,3.06999135017395,0.6317051649093628
1772729572514082000,4.29508203125,9.872786521911621,3.0795626640319824,0.31345975399017334
1772729572523600400,4.304600341796875,9.293723106384277,3.1585259437561035,0.04546362906694412
1772729572533118700,4.31411865234375,8.81515884399414,3.2063822746276855,-0.1459621787071228
1772729572542636800,4.32363671875,8.300702095031738,3.2997024059295654,-0.31345975399017334
1772729572552155100,4.333155029296875,7.793423175811768,3.3714871406555176,-0.397208571434021
1772729572561673500,4.342673583984375,7.35314416885376,3.4719855785369873,-0.3326023519039154
1772729572571191800,4.35219189453125,6.989434719085693,3.586841106414795,-0.20099709928035736
1772729572580710100,4.361710205078125,6.664011001586914,3.751945972442627,0.0023928226437419653
1772729572590228200,4.371228271484375,6.496513366699219,3.9433717727661133,0.20817556977272034
1772729572599746600,4.38074658203125,6.594619274139404,4.1659040451049805,0.3445664644241333
1772729572609265000,4.390264892578125,6.778866767883301,4.278367042541504,0.48813581466674805
1772729572618783200,4.399783203125,7.089933395385742,4.34536600112915,0.6269195079803467
1772729572628301300,4.40930126953125,7.494320392608643,4.2831525802612305,0.7872386574745178
1772729572637819600,4.418819580078125,7.941778182983398,4.161118507385254,0.8997012972831726
1772729572647338000,4.428337890625,8.475378036499023,4.086941242218018,0.9212366938591003
1772729572656856300,4.437856201171875,8.8438720703125,3.9984066486358643,0.8279166221618652
1772729572666374700,4.447374755859375,9.075976371765137,3.8835511207580566,0.7369893789291382
1772729572675893000,4.45689306640625,9.226723670959473,3.730410575866699,0.6245267391204834
1772729572685411300,4.466411376953125,9.262616157531738,3.6610186100006104,0.4450650215148926
1772729572694929400,4.475929443359375,9.181260108947754,3.737588882446289,0.14835500717163086
1772729572704447700,4.48544775390625,9.06401252746582,3.87876558303833,-0.1986042857170105
1772729572713966000,4.494966064453125,8.851051330566406,4.046263217926025,-0.5000999569892883
1772729572723484400,4.504484375,8.518448829650879,4.225724697113037,-0.6675975322723389
1772729572733002500,4.51400244140625,8.094919204711914,4.35254430770874,-0.6101697683334351
1772729572742520800,4.523520751953125,7.752745151519775,4.551148891448975,-0.5072783827781677
1772729572752039200,4.5330390625,7.494320392608643,4.744967460632324,-0.39960137009620667
1772729572761557500,4.5425576171875,7.3292155265808105,4.960321426391602,-0.2225325107574463
1772729572771075600,4.55207568359375,7.401000499725342,5.144568920135498,-0.1459621787071228
1772729572780594000,4.561593994140625,7.5708909034729,5.290530681610107,-0.07178468257188797
1772729572790112300,4.5711123046875,7.731209754943848,5.2977094650268555,0.016749758273363113
1772729572799630600,4.580630615234375,7.913064479827881,5.166104316711426,0.24406790733337402
1772729572809149000,4.59014892578125,8.102097511291504,4.991427898406982,0.4163511395454407
1772729572818667300,4.599667236328125,8.310273170471191,4.898108005523682,0.4618147611618042
1772729572828185600,4.609185546875,8.477770805358887,4.874179840087891,0.4043870270252228
1772729572837703700,4.61870361328125,8.63330364227295,4.874179840087891,0.31824541091918945
1772729572847222000,4.628221923828125,8.800801277160645,4.8191447257995605,0.2153540402650833
1772729572856740400,4.637740234375,8.920442581176758,4.800002098083496,0.11485548317432404
1772729572866258700,4.6472587890625,8.956335067749023,4.7401814460754395,0.02632104977965355
1772729572875776800,4.65677685546875,8.958727836608887,4.689932346343994,0
1772729572885295000,4.666295166015625,8.949156761169434,4.644468784332275,-0.035892341285943985
1772729572894813400,4.6758134765625,8.963513374328613,4.6061835289001465,-0.016749758273363113
1772729572904331800,4.685331787109375,8.96112060546875,4.622933387756348,0.0526420995593071
1772729572913849900,4.694849853515625,8.913264274597168,4.6301116943359375,0.08614161610603333
1772729572923368200,4.7043681640625,8.922835350036621,4.6061835289001465,0.17706887423992157
1772729572932886500,4.713886474609375,8.841479301452637,4.570291042327881,0.2847459018230438
1772729572942404900,4.72340478515625,8.757730484008789,4.563112735748291,0.3684946894645691
1772729572951923200,4.732923095703125,8.702695846557617,4.560719966888428,0.4785645306110382
1772729572961441500,4.742441650390625,8.630910873413086,4.59421968460083,0.5670989751815796
1772729572970959600,4.751959716796875,8.559126853942871,4.661218643188477,0.6340979933738708
1772729572980478000,4.76147802734375,8.592626571655273,4.737788677215576,0.7058826684951782
1772729572989996300,4.770996337890625,8.673981666564941,4.759324073791504,0.7561319470405579
1772729572999514600,4.7805146484375,8.717052459716797,4.72582483291626,0.8183453679084778
1772729573009033000,4.790032958984375,8.834300994873047,4.682754039764404,0.9403793215751648
1772729573018551000,4.799551025390625,8.994620323181152,4.680361270904541,1.0432707071304321
1772729573028069400,4.8090693359375,9.140582084655762,4.713860511779785,1.0719845294952393
1772729573037587700,4.818587646484375,9.32722282409668,4.790431022644043,1.0265209674835205
1772729573047106000,4.82810595703125,9.506684303283691,4.864608287811279,0.9499505758285522
1772729573056624000,4.8376240234375,9.664610862731934,4.902893543243408,0.9116654396057129
1772729573066142500,4.847142578125,9.745966911315918,4.931607246398926,0.849452018737793
1772729573075660800,4.856660888671875,9.741181373596191,4.934000492095947,0.794417142868042
1772729573085179100,4.86617919921875,9.722038269042969,4.977071285247803,0.6556333899497986
1772729573094697500,4.875697509765625,9.628718376159668,5.089533805847168,0.4737788736820221
1772729573104215800,4.8852158203125,9.456435203552246,5.19960355758667,0.32542386651039124
1772729573113734000,4.89473388671875,9.355937004089355,5.295316696166992,0.21774685382843018
1772729573123252200,4.904252197265625,9.284152030944824,5.422136306762695,0.04785645380616188
1772729573132770600,4.9137705078125,9.250652313232422,5.558526992797852,-0.13160525262355804
1772729573142289000,4.923288818359375,9.346364974975586,5.599205017089844,-0.2105683982372284
1772729573151807200,4.93280712890625,9.55214786529541,5.515456199645996,-0.2225325107574463
1772729573161325300,4.9423251953125,9.803394317626953,5.304887771606445,-0.1986042857170105
1772729573170843600,4.95184375,10.104889869689941,5.003392219543457,-0.14835500717163086
1772729573180362000,4.961362060546875,10.482955932617188,4.620540618896484,-0.11724831163883209
1772729573189880300,4.97088037109375,10.762916564941406,4.266402721405029,-0.14835500717163086
1772729573199398400,4.9803984375,10.877771377563477,3.924229145050049,-0.1698904037475586
1772729573208916700,4.989916748046875,10.798809051513672,3.5509488582611084,-0.17946170270442963
1772729573218435000,4.99943505859375,10.61695384979248,3.2829527854919434,-0.2584248483181
1772729573227953400,5.008953369140625,10.250852584838867,3.201596736907959,-0.4737788736820221
1772729573237471700,5.0184716796875,9.738788604736328,3.2709884643554688,-0.7872386574745178
1772729573246990000,5.027989990234375,9.253045082092285,3.352344512939453,-1.0648061037063599
1772729573256508200,5.037508056640625,8.72901725769043,3.4480574131011963,-1.246660590171814
1772729573266026500,5.047026611328125,8.243273735046387,3.651447296142578,-1.4117653369903564
1772729573275544800,5.056544921875,7.740781307220459,3.8883368968963623,-1.4859428405761719
1772729573285063200,5.066063232421875,7.336394309997559,4.151547431945801,-1.490728497505188
1772729573294581200,5.075581298828125,7.054041385650635,4.362115859985352,-1.3854442834854126
1772729573304099600,5.085099609375,6.896114826202393,4.512863636016846,-1.2059825658798218
1772729573313618000,5.094617919921875,6.872186660766602,4.622933387756348,-0.9762716293334961
1772729573323136300,5.10413623046875,7.1473612785339355,4.587040901184082,-0.6628118753433228
1772729573332654600,5.113654541015625,7.568498134613037,4.512863636016846,-0.39960137009620667
1772729573342172700,5.123172607421875,8.02074146270752,4.376472473144531,-0.16510476171970367
1772729573351691000,5.13269091796875,8.492127418518066,4.242474555969238,0.08853443711996078
1772729573361209300,5.142209228515625,9.111868858337402,4.091726779937744,0.3278166949748993
1772729573370727700,5.151727783203125,9.779465675354004,3.9864425659179688,0.4091726839542389
1772729573380246000,5.16124609375,10.382457733154297,3.84765887260437,0.4785645306110382
1772729573389764400,5.170764404296875,10.705488204956055,3.620340585708618,0.5647061467170715
1772729573399282400,5.180282470703125,10.784451484680176,3.3714871406555176,0.672383189201355
1772729573408800800,5.18980078125,10.693524360656738,3.1417760848999023,0.698704183101654
1772729573418319000,5.199319091796875,10.425528526306152,3.170490026473999,0.5096712112426758
1772729573427837200,5.208837158203125,10.088140487670898,3.4097721576690674,0.2105683982372284
1772729573437355500,5.21835546875,9.54496955871582,3.6442689895629883,-0.06699903309345245
1772729573446873900,5.227873779296875,8.951549530029297,3.830909013748169,-0.1986042857170105
1772729573456392200,5.23739208984375,8.403593063354492,3.94097900390625,-0.22971096634864807
1772729573465910500,5.24691064453125,7.989634990692139,4.034298896789551,-0.20578274130821228
1772729573475428600,5.2564287109375,7.637889862060547,4.177868366241455,-0.23210379481315613
1772729573484947000,5.265947021484375,7.348358154296875,4.328616142272949,-0.1986042857170105
1772729573494465300,5.27546533203125,7.183253765106201,4.510470867156982,-0.14356936514377594
1772729573503983600,5.284983642578125,7.003791809082031,4.687539577484131,-0.064606212079525
1772729573513502000,5.294501953125,6.943971157073975,4.7473602294921875,0.08853443711996078
1772729573523020300,5.304020263671875,7.070790767669678,4.8191447257995605,0.24406790733337402
1772729573532538600,5.31353857421875,7.202396392822266,4.9292144775390625,0.2392822653055191
1772729573542056700,5.323056640625,7.3986077308654785,4.9986066818237305,0.12442677468061447
1772729573551575000,5.332574951171875,7.637889862060547,5.010570526123047,0.040677983313798904
1772729573561093400,5.34209326171875,7.872386455535889,5.020142078399658,-0.06699903309345245
1772729573570611700,5.35161181640625,8.12123966217041,5.01296329498291,-0.1818545162677765
1772729573580129800,5.3611298828125,8.307880401611328,5.017749309539795,-0.24646073579788208
1772729573589648100,5.370648193359375,8.422736167907715,5.017749309539795,-0.2919243574142456
1772729573599166500,5.38016650390625,8.532805442810059,5.06082010269165,-0.363709032535553
1772729573608684800,5.389684814453125,8.709874153137207,5.127819061279297,-0.4546363055706024
1772729573618203000,5.399202880859375,8.920442581176758,5.1876397132873535,-0.5647061467170715
1772729573627721200,5.40872119140625,9.059226989746094,5.19960355758667,-0.6556333899497986
1772729573637239600,5.418239501953125,9.090332984924316,5.108676433563232,-0.5982056856155396
1772729573646758000,5.4277578125,9.169296264648438,5.0225348472595215,-0.49292147159576416
1772729573656276200,5.437276123046875,9.238688468933105,5.003392219543457,-0.37806597352027893
1772729573665794600,5.446794677734375,9.250652313232422,5.089533805847168,-0.37088751792907715
1772729573675313000,5.45631298828125,9.274580955505371,5.19242525100708,-0.34217363595962524
1772729573684831000,5.4658310546875,9.298508644104004,5.233103275299072,-0.26081767678260803
1772729573694349300,5.475349365234375,9.253045082092285,5.252245903015137,-0.15074782073497772
1772729573703867600,5.48486767578125,9.332008361816406,5.233103275299072,-0.02153540402650833
1772729573713386000,5.494385986328125,9.525827407836914,5.288137912750244,0.09810572862625122
1772729573722904000,5.503904052734375,9.710074424743652,5.314459323883057,0.22492532432079315
1772729573732422400,5.51342236328125,9.848857879638672,5.31685209274292,0.363709032535553
1772729573741940700,5.522940673828125,9.827322959899902,5.278566837310791,0.5120640397071838
1772729573751459000,5.532458984375,9.789037704467773,5.26181697845459,0.5407779216766357
1772729573760977200,5.54197705078125,9.678967475891113,5.26899528503418,0.5120640397071838
1772729573770495500,5.55149560546875,9.506684303283691,5.352744102478027,0.3852444589138031
1772729573780013800,5.561013916015625,9.322437286376953,5.4867424964904785,0.19381862878799438
1772729573789532200,5.5705322265625,9.107083320617676,5.580062389373779,0.064606212079525
1772729573799050500,5.580050537109375,8.910871505737305,5.656632900238037,0.035892341285943985
1772729573808568800,5.58956884765625,8.69791030883789,5.740381717681885,0.10289137065410614
1772729573818087000,5.5990869140625,8.427521705627441,5.800201892852783,0.20578274130821228
1772729573827605200,5.608605224609375,8.250452041625977,5.855237007141113,0.33738797903060913
1772729573837123600,5.61812353515625,8.233702659606934,5.862415313720703,0.49292147159576416
1772729573846642000,5.627641845703125,8.34138011932373,5.874379634857178,0.6245267391204834
1772729573856160300,5.63716015625,8.602197647094727,5.793023586273193,0.698704183101654
1772729573865678300,5.64667822265625,8.874979019165039,5.539384365081787,0.7657032608985901
1772729573875196700,5.65619677734375,9.183652877807617,5.185246467590332,0.8063812255859375
1772729573884715000,5.665715087890625,9.57607650756836,4.72582483291626,0.9020941257476807
1772729573894233300,5.6752333984375,10.03310489654541,4.204189300537109,0.9212366938591003
1772729573903751400,5.68475146484375,10.420742988586426,3.744767427444458,0.729810893535614
1772729573913269800,5.694269775390625,10.600204467773438,3.3858439922332764,0.5000999569892883
1772729573922788000,5.7037880859375,10.628918647766113,3.105883836746216,0.29431718587875366
1772729573932306400,5.713306396484375,10.449456214904785,2.9766714572906494,0.08853443711996078
1772729573941824800,5.72282470703125,10.066604614257812,3.0556344985961914,-0.12442677468061447
1772729573951343000,5.732343017578125,9.623932838439941,3.2518460750579834,-0.2991028428077698
1772729573960861200,5.741861083984375,9.205188751220703,3.5126636028289795,-0.4977070987224579
1772729573970379500,5.751379638671875,8.760123252868652,3.8333017826080322,-0.5455635786056519
1772729573979897900,5.76089794921875,8.367700576782227,4.094119548797607,-0.41156548261642456
1772729573989416200,5.770416259765625,8.008777618408203,4.264009952545166,-0.13160525262355804
1772729573998934300,5.779934326171875,7.774280548095703,4.383651256561279,0.12442677468061447
1772729574008452600,5.78945263671875,7.740781307220459,4.388436794281006,0.27756741642951965
1772729574017971000,5.798970947265625,7.869993686676025,4.3549370765686035,0.34217363595962524
1772729574027489300,5.8084892578125,8.11406135559082,4.254438877105713,0.3206382393836975
1772729574037007600,5.818007568359375,8.446663856506348,4.06540584564209,0.26081767678260803
1772729574046525700,5.827525634765625,8.748159408569336,3.81655216217041,0.12442677468061447
1772729574056044000,5.8370439453125,8.999405860900879,3.5748770236968994,-0.11964113265275955
1772729574065562400,5.846562255859375,9.183652877807617,3.3643085956573486,-0.37088751792907715
1772729574075080700,5.856080810546875,9.322437286376953,3.2207393646240234,-0.6149554252624512
1772729574084599000,5.86559912109375,9.300901412963867,3.160918712615967,-0.8350951075553894
1772729574094117400,5.875117431640625,9.154939651489258,3.1728827953338623,-1.0097711086273193
1772729574103635500,5.884635498046875,8.973084449768066,3.2279176712036133,-1.0528420209884644
1772729574113153800,5.89415380859375,8.707481384277344,3.3475589752197266,-0.9834501147270203
1772729574122672000,5.903672119140625,8.484949111938477,3.541377544403076,-0.8805587291717529
1772729574132190500,5.9131904296875,8.248059272766113,3.735196113586426,-0.760917603969574
1772729574141708500,5.92270849609375,7.941778182983398,3.9433717727661133,-0.5862415432929993
1772729574151227000,5.932226806640625,7.616354465484619,4.12761926651001,-0.3278166949748993
1772729574160745200,5.9417451171875,7.326822757720947,4.333401679992676,-0.02153540402650833
1772729574170263600,5.951263671875,7.142575740814209,4.5391845703125,0.20338992774486542
1772729574179781600,5.96078173828125,6.929614543914795,4.790431022644043,0.30628129839897156
1772729574189300000,5.970300048828125,6.819544315338135,4.955535888671875,0.3278166949748993
1772729574198818300,5.979818359375,6.948757171630859,5.034498691558838,0.31824541091918945
1772729574208336600,5.989336669921875,7.202396392822266,5.044070243835449,0.3326023519039154
1772729574217855000,5.99885498046875,7.463213920593262,4.974678039550781,0.38285163044929504
1772729574227373300,6.008373291015625,7.7216386795043945,4.869394302368164,0.41874396800994873
1772729574236891400,6.017891357421875,8.164310455322266,4.744967460632324,0.4378865361213684
1772729574246409700,6.02740966796875,8.616554260253906,4.6061835289001465,0.3397808074951172
1772729574255928000,6.036927978515625,9.001798629760742,4.503292083740234,0.1698904037475586
1772729574265446400,6.0464462890625,9.262616157531738,4.417150497436523,0.0023928226437419653
1772729574274964700,6.05596484375,9.509077072143555,4.278367042541504,-0.06939185410737991
1772729574284482800,6.06548291015625,9.726823806762695,4.1659040451049805,-0.08374879509210587
1772729574294001200,6.075001220703125,9.853643417358398,4.106083869934082,-0.08614161610603333
1772729574303519500,6.08451953125,9.968499183654785,4.1347975730896,-0.07657032459974289
1772729574313037800,6.094037841796875,10.03549861907959,4.180261135101318,-0.009571290574967861
1772729574322556000,6.103555908203125,10.021141052246094,4.204189300537109,0.11964113265275955
1772729574332074200,6.11307421875,9.961320877075195,4.2592244148254395,0.29431718587875366
1772729574341592600,6.122592529296875,9.827322959899902,4.321437835693359,0.5120640397071838
1772729574351111000,6.13211083984375,9.626325607299805,4.369294166564941,0.6915257573127747
1772729574360629200,6.141629150390625,9.482755661010742,4.40757942199707,0.8470591902732849
1772729574370147600,6.151147705078125,9.367900848388672,4.498506546020508,0.9858429431915283
1772729574379665700,6.160665771484375,9.18843936920166,4.613361835479736,1.1102696657180786
1772729574389184000,6.17018408203125,9.068798065185547,4.67078971862793,1.397408366203308
1772729574398702300,6.179702392578125,8.925228118896484,4.800002098083496,1.5936198234558105
1772729574408220700,6.189220703125,8.827122688293457,4.919643402099609,1.6893328428268433
1772729574417738800,6.19873876953125,8.762516975402832,5.036891460418701,1.6534404754638672
1772729574427257000,6.208257080078125,8.719446182250977,5.2043890953063965,1.6103696823120117
1772729574436775400,6.217775390625,8.6907320022583,5.290530681610107,1.5601203441619873
1772729574446293800,6.227293701171875,8.803194046020508,5.347958564758301,1.4835500717163086
1772729574455811800,6.236811767578125,8.980263710021973,5.436492919921875,1.3208380937576294
1772729574465330200,6.246330078125,9.07119083404541,5.434100151062012,1.0959128141403198
1772729574474848500,6.2558486328125,9.121439933776855,5.292923450469971,0.97148597240448
1772729574484366800,6.265366943359375,9.1716890335083,5.125426292419434,0.8327022790908813
1772729574493885200,6.27488525390625,9.190832138061523,5.024927616119385,0.5814558863639832
1772729574503403500,6.284403564453125,9.221938133239746,5.017749309539795,0.1866401731967926
1772729574512921900,6.293921875,9.154939651489258,5.0464630126953125,-0.19621145725250244
1772729574522440000,6.30343994140625,8.949156761169434,5.056034088134766,-0.48095735907554626
1772729574531958300,6.312958251953125,8.793622970581055,5.065605640411377,-0.7202396392822266
1772729574541476600,6.3224765625,8.635697364807129,5.190032482147217,-0.9475577473640442
1772729574550995000,6.331994873046875,8.46341323852539,5.3216376304626465,-1.1413763761520386
1772729574560513000,6.341512939453125,8.434700012207031,5.469992637634277,-1.2203395366668701
1772729574570031400,6.35103125,8.547162055969238,5.639883041381836,-1.1988041400909424
1772729574579549700,6.3605498046875,8.812766075134277,5.709274768829346,-1.1126625537872314
1772729574589068000,6.370068115234375,9.274580955505371,5.678168296813965,-0.9810572862625122
1772729574598586000,6.379586181640625,9.8871431350708,5.474778175354004,-0.8542376756668091
1772729574608104400,6.3891044921875,10.619346618652344,5.170889854431152,-0.7010970115661621
1772729574617622800,6.398622802734375,11.274980545043945,4.73300313949585,-0.4905286431312561
1772729574627141000,6.40814111328125,11.885149955749512,4.225724697113037,-0.3206382393836975
1772729574636659500,6.417659423828125,12.160325050354004,3.617947816848755,-0.10289137065410614
1772729574646177800,6.427177734375,12.045469284057617,3.0077781677246094,0.05024927482008934
1772729574655696000,6.43669580078125,11.669795989990234,2.6009981632232666,0.0526420995593071
1772729574665214200,6.446214111328125,11.045269012451172,2.6297121047973633,-0.2560320198535919
1772729574674732500,6.455732666015625,10.372885704040527,2.9838497638702393,-0.7322037220001221
1772729574684251000,6.4652509765625,9.525827407836914,3.383451223373413,-1.3088740110397339
1772729574693769000,6.47476904296875,8.872586250305176,3.8021950721740723,-1.789831280708313
1772729574703287300,6.484287353515625,8.264809608459473,4.12761926651001,-2.0721843242645264
1772729574712805600,6.4938056640625,7.853243827819824,4.347758769989014,-2.0961127281188965
1772729574722324000,6.503323974609375,7.542177200317383,4.503292083740234,-1.8783657550811768
1772729574731842000,6.512842041015625,7.389036178588867,4.481756687164307,-1.4811571836471558
1772729574741360400,6.5223603515625,7.45364236831665,4.40757942199707,-0.9523434042930603
1772729574750878700,6.531878662109375,7.654639720916748,4.266402721405029,-0.5024927258491516
1772729574760397000,6.54139697265625,7.989634990692139,4.144368648529053,-0.24885354936122894
1772729574769915400,6.550915283203125,8.401200294494629,4.0319061279296875,-0.040677983313798904
1772729574779433700,6.560433837890625,8.784051895141602,3.85483717918396,0.12681959569454193
1772729574788951800,6.569951904296875,9.186046600341797,3.6777684688568115,0.2225325107574463
1772729574798470100,6.57947021484375,9.501898765563965,3.5126636028289795,0.22971096634864807
1772729574807988500,6.588988525390625,9.671789169311523,3.414557933807373,0.13878370821475983
1772729574817506800,6.5985068359375,9.710074424743652,3.397808074951172,-0.02871387079358101
1772729574827025200,6.608025146484375,9.643074989318848,3.3930225372314453,-0.16031911969184875
1772729574836543200,6.617543212890625,9.55214786529541,3.414557933807373,-0.27038896083831787
1772729574846061600,6.6270615234375,9.384650230407715,3.476771354675293,-0.38763725757598877
1772729574855580000,6.636579833984375,9.176474571228027,3.541377544403076,-0.49292147159576416
1772729574865098200,6.64609814453125,8.863015174865723,3.5605201721191406,-0.5048855543136597
1772729574874616300,6.6556162109375,8.458627700805664,3.579662561416626,-0.41874396800994873
1772729574884134700,6.665134765625,7.994420528411865,3.6849467754364014,-0.30149564146995544
1772729574893653000,6.674653076171875,7.554141044616699,3.88594388961792,-0.23210379481315613
1772729574903171300,6.68417138671875,7.161718368530273,4.113262176513672,-0.2225325107574463
1772729574912689700,6.693689697265625,6.920042991638184,4.309473514556885,-0.20338992774486542
1772729574922208000,6.7032080078125,6.802794933319092,4.462614059448242,-0.26560330390930176
1772729574931726000,6.71272607421875,6.702296257019043,4.548755645751953,-0.29431718587875366
1772729574941244400,6.722244384765625,6.745367050170898,4.634897232055664,-0.28953152894973755
1772729574950762800,6.7317626953125,6.8004021644592285,4.713860511779785,-0.25363919138908386
1772729574960281000,6.741281005859375,6.879364967346191,4.823930263519287,-0.15314064919948578
1772729574969799200,6.750799072265625,7.022934436798096,4.88853645324707,-0.031106693670153618
1772729574979317500,6.7603173828125,7.288537979125977,4.948357105255127,0.064606212079525
1772729574988835800,6.7698359375,7.625925540924072,4.981856822967529,0.11006984114646912
1772729574998354200,6.779354248046875,8.063812255859375,5.01296329498291,0.13878370821475983
1772729575007872300,6.788872314453125,8.415556907653809,4.981856822967529,0.1579262912273407
1772729575017390600,6.798390625,8.657232284545898,4.919643402099609,0.28953152894973755
1772729575026909000,6.807908935546875,8.879764556884766,4.852644443511963,0.45224347710609436
1772729575036427300,6.81742724609375,8.9850492477417,4.8813581466674805,0.5312066078186035
1772729575045945600,6.826945556640625,8.97787094116211,4.8813581466674805,0.4953143000602722
1772729575055464000,6.8364638671875,8.951549530029297,4.876572608947754,0.3756731450557709
1772729575064982000,6.84598193359375,8.994620323181152,4.962714195251465,0.14117653667926788
1772729575074500400,6.855500244140625,8.949156761169434,5.082355499267578,-0.13639089465141296
1772729575084018700,6.865018798828125,8.910871505737305,5.158925533294678,-0.30628129839897156
1772729575093537000,6.874537109375,8.908478736877441,5.1876397132873535,-0.3732803463935852
1772729575103055000,6.88405517578125,8.93958568572998,5.127819061279297,-0.34217363595962524
1772729575112573400,6.893573486328125,9.073583602905273,5.103890895843506,-0.24885354936122894
1772729575122091800,6.903091796875,9.255437850952148,5.111069202423096,-0.14117653667926788
1772729575131610000,6.912610107421875,9.449256896972656,5.19242525100708,0.035892341285943985
1772729575141128200,6.922128173828125,9.640682220458984,5.213960647583008,0.2727817893028259
1772729575150646500,6.931646484375,9.80100154876709,5.252245903015137,0.5072783827781677
1772729575160164900,6.941164794921875,9.872786521911621,5.285745143890381,0.6221339106559753
1772729575169683200,6.95068310546875,9.812965393066406,5.364708423614502,0.7226324677467346
1772729575179201500,6.960201416015625,9.664610862731934,5.400600910186768,0.8063812255859375
1772729575188719900,6.969719970703125,9.475577354431152,5.438885688781738,0.8997012972831726
1772729575198238000,6.979238037109375,9.343972206115723,5.489135265350342,0.9236295223236084
1772729575207756300,6.98875634765625,9.31047248840332,5.539384365081787,0.8757730722427368
1772729575217274600,6.998274658203125,9.353543281555176,5.539384365081787,0.9260223507881165
1772729575226793000,7.00779296875,9.53779125213623,5.469992637634277,1.0791629552841187
1772729575236311000,7.01731103515625,9.805787086486816,5.32403039932251,1.3184453248977661
1772729575245829400,7.026829345703125,10.109675407409668,5.185246467590332,1.5314065217971802
1772729575255347700,7.03634765625,10.490134239196777,4.969892501831055,1.7994025945663452
1772729575264866000,7.045865966796875,10.985448837280273,4.677968502044678,1.8807586431503296
1772729575274384100,7.055384033203125,11.399407386779785,4.366901397705078,1.7611174583435059
1772729575283902500,7.06490234375,11.542976379394531,4.015156269073486,1.6151553392410278
1772729575293420800,7.0744208984375,11.425727844238281,3.541377544403076,1.5433706045150757
1772729575302939100,7.083939208984375,11.002198219299316,3.1250264644622803,1.4763715267181396
1772729575312457500,7.09345751953125,10.360921859741211,2.9551360607147217,1.3112667798995972
1772729575321975800,7.102975830078125,9.729216575622559,3.081955671310425,1.038485050201416
1772729575331494100,7.112494140625,9.111868858337402,3.3858439922332764,0.6604190468788147
1772729575341012200,7.12201220703125,8.513663291931152,3.6849467754364014,0.24885354936122894
1772729575350530600,7.131530517578125,7.913064479827881,3.957728624343872,-0.08374879509210587
1772729575360049000,7.141048828125,7.362715244293213,4.156332969665527,-0.1579262912273407
1772729575369567200,7.150567138671875,6.939185619354248,4.242474555969238,-0.059820566326379776
1772729575379085300,7.160085205078125,6.687939167022705,4.319045066833496,0.09571290761232376
1772729575388603600,7.169603759765625,6.570691108703613,4.342973232269287,0.2967100143432617
1772729575398122000,7.1791220703125,6.678368091583252,4.34536600112915,0.45224347710609436
1772729575407640300,7.188640380859375,7.054041385650635,4.333401679992676,0.48813581466674805
1772729575417158400,7.198158447265625,7.494320392608643,4.3070807456970215,0.4785645306110382
1772729575426676700,7.2076767578125,8.001599311828613,4.156332969665527,0.4163511395454407
1772729575436195000,7.217195068359375,8.551948547363281,3.9864425659179688,0.3038884699344635
1772729575445713400,7.22671337890625,9.037691116333008,3.8333017826080322,0.1052841991186142
1772729575455231700,7.236231689453125,9.425328254699707,3.6873397827148438,-0.0933200865983963
1772729575464750000,7.24575,9.633503913879395,3.6155550479888916,-0.2560320198535919
1772729575474268200,7.25526806640625,9.731609344482422,3.5222349166870117,-0.36610186100006104
1772729575483786500,7.264786376953125,9.712467193603516,3.5222349166870117,-0.4450650215148926
1772729575493304800,7.274304931640625,9.623932838439941,3.651447296142578,-0.5958128571510315
1772729575502823200,7.2838232421875,9.343972206115723,3.8333017826080322,-0.6580262184143066
1772729575512341200,7.29334130859375,8.96829891204834,3.9744784832000732,-0.5982056856155396
1772729575521859600,7.302859619140625,8.578269004821777,4.1491546630859375,-0.44027936458587646
1772729575531378000,7.3123779296875,8.190631866455078,4.347758769989014,-0.37806597352027893
1772729575540896300,7.321896240234375,7.860422611236572,4.491328239440918,-0.3397808074951172
1772729575550414300,7.331414306640625,7.6043901443481445,4.6301116943359375,-0.36610186100006104
1772729575559932700,7.3409326171875,7.381857872009277,4.728217601776123,-0.3445664644241333
1772729575569451000,7.350450927734375,7.23589563369751,4.792823791503906,-0.26560330390930176
1772729575578969300,7.35996923828125,7.274180889129639,4.890929698944092,-0.16271193325519562
1772729575588487400,7.3694873046875,7.393822193145752,5.0225348472595215,-0.07417750358581543
1772729575598005800,7.379005859375,7.554141044616699,5.127819061279297,0.06699903309345245
1772729575607524000,7.388524169921875,7.7455668449401855,5.190032482147217,0.31824541091918945
1772729575617042400,7.39804248046875,7.901100158691406,5.1876397132873535,0.5982056856155396
1772729575626560800,7.407560791015625,7.977670669555664,5.190032482147217,0.7728816866874695
1772729575636079000,7.4170791015625,8.066205024719238,5.194818019866943,0.8877372145652771
1772729575645597200,7.42659716796875,8.169096946716309,5.2043890953063965,0.9355936646461487
1772729575655115500,7.436115478515625,8.286344528198242,5.216353416442871,0.8805587291717529
1772729575664633900,7.4456337890625,8.439485549926758,5.190032482147217,0.763310432434082
1772729575674152000,7.45515185546875,8.599804878234863,5.120640277862549,0.6652047038078308
1772729575683670300,7.464670166015625,8.755337715148926,5.020142078399658,0.5742774605751038
1772729575693188600,7.474188720703125,8.796015739440918,4.919643402099609,0.5024927258491516
1772729575702707000,7.48370703125,8.870193481445312,4.8574299812316895,0.4307080805301666
1772729575712225300,7.493225341796875,8.877371788024902,4.816751956939697,0.35892340540885925
1772729575721743600,7.50274365234375,8.824729919433594,4.823930263519287,0.31345975399017334
1772729575731261700,7.51226171875,8.779266357421875,4.840680122375488,0.3158525824546814
1772729575740780000,7.521780029296875,8.760123252868652,4.924428939819336,0.33499518036842346
1772729575750298400,7.53129833984375,8.752944946289062,5.0943193435668945,0.35413774847984314
1772729575759816700,7.540816650390625,8.72183895111084,5.237888813018799,0.39960137009620667
1772729575769334800,7.550334716796875,8.72901725769043,5.355136871337891,0.4833501875400543
1772729575778853000,7.55985302734375,8.788837432861328,5.474778175354004,0.4737788736820221
1772729575788371500,7.569371337890625,8.937192916870117,5.558526992797852,0.4570291340351105
1772729575797889800,7.578889892578125,9.080761909484863,5.589633464813232,0.4091726839542389
1772729575807407900,7.588407958984375,9.255437850952148,5.589633464813232,0.39481574296951294
1772729575816926200,7.59792626953125,9.42772102355957,5.551348686218262,0.33020952343940735
1772729575826444500,7.607444580078125,9.585647583007812,5.517848968505859,0.275174617767334
1772729575835963000,7.616962890625,9.714859962463379,5.501099109649658,0.1986042857170105
1772729575845481200,7.626481201171875,9.817750930786133,5.505885124206543,0.10289137065410614
1772729575854999600,7.63599951171875,9.913464546203613,5.575276851654053,-0.02392822690308094
1772729575864517600,7.645517578125,9.868000984191895,5.615954875946045,-0.13878370821475983
1772729575874036000,7.655035888671875,9.734002113342285,5.594419479370117,-0.16749759018421173
1772729575883554300,7.66455419921875,9.556933403015137,5.637490272521973,-0.18424734473228455
1772729575893072600,7.67407275390625,9.332008361816406,5.730810165405273,-0.35892340540885925
1772729575902590700,7.6835908203125,9.147761344909668,5.84566593170166,-0.550349235534668
1772729575912109000,7.693109130859375,9.07119083404541,5.876772403717041,-0.6340979933738708
1772729575921627400,7.70262744140625,9.126225471496582,5.85284423828125,-0.7034898400306702
1772729575931145700,7.712145751953125,9.418149948120117,5.79780912399292,-0.8039883971214294
1772729575940663800,7.721663818359375,9.717252731323242,5.651846885681152,-0.8733802437782288
1772729575950182100,7.73118212890625,10.00439167022705,5.302495002746582,-0.7896314859390259
1772729575959700500,7.740700439453125,10.387243270874023,4.823930263519287,-0.6915257573127747
1772729575969218800,7.75021875,10.681560516357422,4.412364959716797,-0.607776939868927
1772729575978737200,7.759737060546875,10.707880973815918,4.022335052490234,-0.5455635786056519
1772729575988255500,7.76925537109375,10.463813781738281,3.570091485977173,-0.45224347710609436
1772729575997773600,7.778773681640625,10.052248001098633,3.239881753921509,-0.4546363055706024
1772729576007292000,7.7882919921875,9.506684303283691,3.1992039680480957,-0.5838487148284912
1772729576016810200,7.797810302734375,8.927620887756348,3.3643085956573486,-0.9403793215751648
1772729576026328600,7.80732861328125,8.25523853302002,3.601198196411133,-1.2059825658798218
1772729576035846700,7.8168466796875,7.657032489776611,3.7160534858703613,-1.3184453248977661
1772729576045365000,7.826364990234375,7.204789161682129,3.87876558303833,-1.4859428405761719
1772729576054883300,7.83588330078125,6.809973239898682,4.074976921081543,-1.612762451171875
1772729576064401700,7.845401611328125,6.427121639251709,4.268795490264893,-1.6390835046768188
1772729576073919700,7.854919677734375,6.180660724639893,4.376472473144531,-1.6031911373138428
1772729576083438000,7.86443798828125,6.130411624908447,4.46979284286499,-1.4428720474243164
1772729576092956400,7.873956298828125,6.192625045776367,4.486542224884033,-1.2538390159606934
1772729576102474800,7.883474853515625,6.467799663543701,4.457828521728516,-1.0600204467773438
1772729576111993000,7.8929931640625,6.939185619354248,4.400400638580322,-0.8901300430297852
1772729576121511200,7.90251123046875,7.429714202880859,4.326223373413086,-0.672383189201355
1772729576131029500,7.912029541015625,7.982456207275391,4.1730828285217285,-0.4378865361213684
1772729576140547800,7.9215478515625,8.628518104553223,4.0319061279296875,-0.26560330390930176
1772729576150066200,7.931066162109375,9.262616157531738,3.9457645416259766,-0.275174617767334
1772729576159584300,7.940584228515625,9.702896118164062,3.8333017826080322,-0.3038884699344635
1772729576169102600,7.9501025390625,9.978070259094238,3.6921253204345703,-0.2919243574142456
1772729576178621000,7.959620849609375,10.140782356262207,3.572484254837036,-0.2799602448940277
1772729576188139300,7.96913916015625,10.186245918273926,3.565305709838867,-0.32303106784820557
1772729576197657300,7.9786572265625,10.078569412231445,3.6370904445648193,-0.4426721930503845
1772729576207175700,7.98817578125,9.80100154876709,3.783052682876587,-0.5048855543136597
1772729576216694000,7.997694091796875,9.430113792419434,3.893122434616089,-0.5240281820297241
1772729576226212400,8.00721240234375,8.994620323181152,4.039084434509277,-0.47617170214653015
1772729576235730700,8.016730712890626,8.597412109375,4.163511276245117,-0.4307080805301666
1772729576245249000,8.0262490234375,8.248059272766113,4.275974273681641,-0.37806597352027893
1772729576254767000,8.03576708984375,7.980063438415527,4.390829563140869,-0.2919243574142456
1772729576264285400,8.045285400390625,7.735995769500732,4.481756687164307,-0.27756741642951965
1772729576273803800,8.0548037109375,7.568498134613037,4.575077056884766,-0.22013968229293823
1772729576283322000,8.064322021484376,7.472784996032715,4.584648132324219,-0.1339980661869049
1772729576292840200,8.073840087890625,7.357929706573486,4.656432628631592,-0.0933200865983963
1772729576302358500,8.083358642578125,7.245467185974121,4.807180881500244,-0.11964113265275955
1772729576311876900,8.092876953125,7.200003147125244,4.922036170959473,-0.14356936514377594
1772729576321395000,8.10239501953125,7.238288402557373,4.981856822967529,-0.17706887423992157
1772729576330913300,8.111913330078124,7.417750358581543,5.015356063842773,-0.23688943684101105
1772729576340431600,8.121431640625,7.635497093200684,5.01296329498291,-0.2799602448940277
1772729576349950000,8.130949951171875,7.805387496948242,4.962714195251465,-0.29431718587875366
1772729576359468300,8.14046826171875,7.987242221832275,4.855037212371826,-0.20578274130821228
1772729576368986600,8.149986572265625,8.178668022155762,4.773681163787842,-0.14835500717163086
1772729576378504700,8.159504638671875,8.37009334564209,4.759324073791504,-0.2105683982372284
1772729576388023000,8.16902294921875,8.532805442810059,4.828716278076172,-0.3206382393836975
1772729576397541400,8.178541259765625,8.707481384277344,4.8813581466674805,-0.42831525206565857
1772729576407059700,8.188059814453124,8.927620887756348,4.9052863121032715,-0.4737788736820221
1772729576416577800,8.197577880859376,9.109476089477539,4.895715236663818,-0.44027936458587646
1772729576426096000,8.20709619140625,9.265008926391602,4.867001056671143,-0.33738797903060913
1772729576435614500,8.216614501953124,9.401400566101074,4.862215518951416,-0.23210379481315613
1772729576445132800,8.2261328125,9.556933403015137,4.917250633239746,-0.13878370821475983
1772729576454651000,8.23565087890625,9.726823806762695,4.984249591827393,-0.1579262912273407
1772729576464169200,8.245169189453126,9.870393753051758,5.032105922698975,-0.16749759018421173
1772729576473687600,8.2546875,9.973284721374512,5.041677474975586,-0.12442677468061447
1772729576483206000,8.264205810546875,10.028319358825684,5.06082010269165,-0.06699903309345245
1772729576492724200,8.27372412109375,10.138389587402344,5.058426856994629,-0.009571290574967861
1772729576502242300,8.2832421875,10.269994735717773,5.115854740142822,-0.004785645287483931
1772729576511760600,8.2927607421875,10.315458297729492,5.161318302154541,-0.02153540402650833
1772729576521279000,8.302279052734375,10.320243835449219,5.1876397132873535,0.02632104977965355
1772729576530797300,8.31179736328125,10.29870891571045,5.225924491882324,0.11485548317432404
1772729576540315400,8.3213154296875,10.214960098266602,5.276174068450928,0.15074782073497772
1772729576549833700,8.330833740234375,10.1216402053833,5.3455657958984375,0.17706887423992157
1772729576559352000,8.34035205078125,10.02592658996582,5.357530117034912,0.17228323221206665
1772729576568870400,8.349870361328126,9.884750366210938,5.26899528503418,0.19381862878799438
1772729576578388500,8.359388427734375,9.750752449035645,5.13021183013916,0.2512463629245758
1772729576587906800,8.36890673828125,9.66939640045166,4.9292144775390625,0.31106695532798767
1772729576597425200,8.378425048828126,9.77707290649414,4.7952165603637695,0.3206382393836975
1772729576606943500,8.387943603515625,9.973284721374512,4.661218643188477,0.3517449200153351
1772729576616461800,8.3974619140625,10.26042366027832,4.4721856117248535,0.49292147159576416
1772729576625980000,8.40697998046875,10.545169830322266,4.230510234832764,0.638883650302887
1772729576635498200,8.416498291015625,10.808380126953125,3.9840497970581055,0.7322037220001221
1772729576645016600,8.4260166015625,10.96869945526123,3.6921253204345703,0.7776673436164856
1772729576654535000,8.435534912109375,10.978270530700684,3.3643085956573486,0.7728816866874695
1772729576664053000,8.445052978515625,10.777273178100586,3.06999135017395,0.7680960893630981
1772729576673571300,8.4545712890625,10.370492935180664,2.919243574142456,0.5982056856155396
1772729576683089700,8.464089599609375,10.009177207946777,2.9072794914245605,0.3684946894645691
1772729576692608000,8.47360791015625,9.499505996704102,2.9527430534362793,0.0933200865983963
1772729576702126300,8.483126220703125,8.922835350036621,3.108276605606079,-0.11485548317432404
1772729576711644700,8.492644775390625,8.410771369934082,3.2470602989196777,-0.16749759018421173
1772729576721162800,8.502162841796874,7.905886173248291,3.445664644241333,-0.20338992774486542
1772729576730681000,8.51168115234375,7.501499176025391,3.665804386138916,-0.2991028428077698
1772729576740199400,8.521199462890625,7.2335028648376465,3.864408493041992,-0.3397808074951172
1772729576749717800,8.5307177734375,7.066005229949951,4.039084434509277,-0.27756741642951965
1772729576759235800,8.54023583984375,7.046862602233887,4.144368648529053,-0.10767702013254166
1772729576768754200,8.549754150390624,7.1856465339660645,4.242474555969238,0.08614161610603333
1772729576778272500,8.5592724609375,7.487142086029053,4.225724697113037,0.2679961323738098
1772729576787790600,8.56879052734375,7.89631462097168,4.125226020812988,0.37806597352027893
1772729576797309000,8.578308837890624,8.434700012207031,3.9457645416259766,0.4019941985607147
1772729576806827300,8.5878271484375,8.987442016601562,3.799802303314209,0.2967100143432617
1772729576816345600,8.597345703125,9.473184585571289,3.658625841140747,0.04785645380616188
1772729576825864000,8.606864013671874,9.920642852783203,3.5150563716888428,-0.20578274130821228
1772729576835382300,8.61638232421875,10.102497100830078,3.359523057937622,-0.4211367964744568
1772729576844900400,8.625900390625,10.040284156799316,3.304488182067871,-0.6364908218383789
1772729576854418700,8.635418701171876,9.812965393066406,3.326023578643799,-0.8398807644844055
1772729576863937000,8.64493701171875,9.525827407836914,3.4337005615234375,-1.0504491329193115
1772729576873455000,8.654455078125,9.183652877807617,3.589233875274658,-1.2131611108779907
1772729576882973400,8.663973388671875,8.891729354858398,3.783052682876587,-1.2897313833236694
1772729576892491800,8.67349169921875,8.63330364227295,3.9672999382019043,-1.31365966796875
1772729576902010000,8.683010009765624,8.372486114501953,4.1347975730896,-1.153340458869934
1772729576911528200,8.692528076171875,8.12123966217041,4.285545349121094,-0.9212366938591003
1772729576921046500,8.702046630859375,7.853243827819824,4.390829563140869,-0.698704183101654
1772729576930564900,8.71156494140625,7.618747234344482,4.48414945602417,-0.5072783827781677
1772729576940083200,8.721083251953125,7.45364236831665,4.510470867156982,-0.3445664644241333
1772729576949601500,8.7306015625,7.405786037445068,4.543970108032227,-0.25363919138908386
1772729576959120000,8.740119873046876,7.477570533752441,4.599005222320557,-0.2225325107574463
1772729576968638000,8.749637939453125,7.609176158905029,4.6301116943359375,-0.18424734473228455
1772729576978156300,8.75915625,7.779066562652588,4.668396949768066,-0.22971096634864807
1772729576987674600,8.768674560546875,8.104490280151367,4.634897232055664,-0.2225325107574463
1772729576997192700,8.778192626953125,8.37966537475586,4.505684852600098,-0.16031911969184875
1772729577006711000,8.7877109375,8.568697929382324,4.4482574462890625,-0.18424734473228455
1772729577016229400,8.7972294921875,8.72183895111084,4.304687976837158,-0.26560330390930176
1772729577025747700,8.806747802734375,8.86780071258545,4.225724697113037,-0.39481574296951294
1772729577035265800,8.816265869140626,8.96112060546875,4.256831645965576,-0.5790630578994751
1772729577044784000,8.8257841796875,8.970691680908203,4.347758769989014,-0.8614161610603333
1772729577054302500,8.835302490234374,8.915657043457031,4.350151538848877,-0.9954141974449158
1772729577063820800,8.84482080078125,8.886942863464355,4.321437835693359,-1.0648061037063599
1772729577073339100,8.854339111328125,8.831908226013184,4.309473514556885,-1.1174482107162476
1772729577082857200,8.863857177734374,8.71226692199707,4.319045066833496,-1.1150553226470947
1772729577092375600,8.87337548828125,8.678768157958984,4.388436794281006,-1.2562319040298462
1772729577101894000,8.882893798828125,8.717052459716797,4.395615100860596,-1.301695466041565
1772729577111412200,8.892412109375,8.757730484008789,4.4243292808532715,-1.3280165195465088
1772729577120930300,8.901930419921875,8.8438720703125,4.488935470581055,-1.428515076637268
1772729577130448600,8.91144873046875,9.116654396057129,4.529613494873047,-1.5481562614440918
1772729577139967000,8.920967041015626,9.53061294555664,4.503292083740234,-1.552941918373108
1772729577149485300,8.9304853515625,9.796216011047363,4.524827480316162,-1.4644074440002441
1772729577159003400,8.94000341796875,9.958928108215332,4.4650068283081055,-1.277767300605774
1772729577168521700,8.949521728515625,10.219745635986328,4.390829563140869,-1.1174482107162476
1772729577178040000,8.9590400390625,10.370492935180664,4.431507587432861,-1.1174482107162476
1772729577187558400,8.968558349609374,10.39202880859375,4.508078098297119,-1.1868400573730469
1772729577197076700,8.97807666015625,10.193424224853516,4.651647090911865,-1.2299108505249023
1772729577206594800,8.9875947265625,9.765109062194824,4.835894584655762,-1.2610175609588623
1772729577216113200,8.997113037109376,9.351150512695312,5.096712112426758,-1.4141582250595093
1772729577225631500,9.006631591796875,9.231510162353516,5.347958564758301,-1.5601203441619873
1772729577235149800,9.01614990234375,9.28893756866455,5.517848968505859,-1.576870083808899
1772729577244668000,9.02566796875,9.53061294555664,5.584847927093506,-1.5720844268798828
1772729577254186200,9.035186279296875,9.860821723937988,5.314459323883057,-1.4380863904953003
1772729577263704600,9.04470458984375,10.217352867126465,4.826323509216309,-1.179661512374878
1772729577273222700,9.05422265625,10.612168312072754,4.299902439117432,-0.9810572862625122
1772729577282741000,9.063740966796875,11.059626579284668,3.8428730964660645,-0.9451649188995361
1772729577292259300,9.07325927734375,11.385049819946289,3.397808074951172,-1.0671988725662231
1772729577301777700,9.082777587890625,11.478370666503906,2.991028308868408,-1.2418749332427979
1772729577311296000,9.0922958984375,11.248659133911133,2.612962245941162,-1.4476577043533325
1772729577320814000,9.10181396484375,10.913663864135742,2.4837498664855957,-1.7826528549194336
1772729577330332400,9.11133251953125,10.470992088317871,2.50289249420166,-2.0171494483947754
1772729577339850800,9.120850830078124,10.080962181091309,2.6536402702331543,-2.187039852142334
1772729577349369000,9.130369140625,9.724431037902832,2.857030153274536,-2.3641088008880615
1772729577358887200,9.13988720703125,9.147761344909668,3.0245277881622314,-2.4406790733337402
1772729577368405500,9.149405517578124,8.542376518249512,3.184846878051758,-2.3569302558898926
1772729577377923800,9.158923828125,8.068597793579102,3.373879909515381,-2.2707886695861816
1772729577387442200,9.168442138671875,7.69531774520874,3.627519130706787,-2.1774685382843018
1772729577396960300,9.177960205078126,7.343572616577148,3.8907296657562256,-2.1056840419769287
1772729577406478600,9.187478515625,7.066005229949951,4.074976921081543,-1.9573289155960083
1772729577415997000,9.196996826171874,7.003791809082031,4.199403762817383,-1.7443677186965942
1772729577425515300,9.206515380859376,7.0755767822265625,4.273581027984619,-1.5864413976669312
1772729577435033600,9.21603369140625,7.176074981689453,4.256831645965576,-1.4333007335662842
1772729577444551700,9.2255517578125,7.372286796569824,4.213760852813721,-1.2490534782409668
1772729577454070000,9.235070068359375,7.594819068908691,4.125226020812988,-1.1054840087890625
1772729577463588400,9.24458837890625,7.869993686676025,4.07258415222168,-1.0121639966964722
1772729577473106400,9.2541064453125,8.183453559875488,4.070191383361816,-1.0169496536254883
1772729577482624800,9.263624755859375,8.46580696105957,4.041477680206299,-0.916451096534729
1772729577492143000,9.27314306640625,8.669196128845215,4.024727821350098,-0.8063812255859375
1772729577501661400,9.282661376953126,8.839086532592773,4.1036906242370605,-0.8350951075553894
1772729577511179800,9.2921796875,8.915657043457031,4.230510234832764,-0.9667003750801086
1772729577520697900,9.30169775390625,8.85344409942627,4.326223373413086,-1.0408778190612793
1772729577530216200,9.31121630859375,8.714659690856934,4.417150497436523,-1.0265209674835205
1772729577539734500,9.320734619140625,8.544769287109375,4.5391845703125,-1.031306505203247
1772729577549252900,9.3302529296875,8.446663856506348,4.67078971862793,-0.9882357716560364
1772729577558771000,9.33977099609375,8.334200859069824,4.802394866943359,-0.9427721500396729
1772729577568289300,9.349289306640625,8.279166221618652,4.890929698944092,-0.9332008361816406
1772729577577807600,9.3588076171875,8.185846328735352,4.9363932609558105,-0.9092726111412048
1772729577587326000,9.368325927734375,8.111668586730957,4.95074987411499,-0.8350951075553894
1772729577596844000,9.377843994140624,8.054241180419922,4.989035129547119,-0.8087740540504456
1772729577606362400,9.3873623046875,7.936992645263672,5.048855781555176,-0.7465606927871704
1772729577615880700,9.396880615234375,7.893921852111816,5.1565327644348145,-0.7992027401924133
1772729577625399000,9.40639892578125,7.9657063484191895,5.266602516174316,-0.8350951075553894
1772729577634917400,9.41591748046875,8.02074146270752,5.3216376304626465,-0.7657032608985901
1772729577644435500,9.425435546875,8.00638484954834,5.221138954162598,-0.5024927258491516
1772729577653953800,9.434953857421876,8.008777618408203,5.056034088134766,-0.24167509377002716
1772729577663472000,9.44447216796875,8.116454124450684,4.965106964111328,-0.1698904037475586
1772729577672990200,9.453990234375,8.281558990478516,4.907679080963135,-0.1818545162677765
1772729577682508500,9.463508544921876,8.446663856506348,4.878965377807617,-0.16031911969184875
1772729577692027000,9.47302685546875,8.525627136230469,4.754538536071777,-0.17946170270442963
1772729577701545200,9.482545166015624,8.47298526763916,4.689932346343994,-0.20099709928035736
1772729577711063300,9.492063232421875,8.283951759338379,4.656432628631592,-0.24885354936122894
1772729577720581600,9.50158154296875,8.181060791015625,4.713860511779785,-0.40677985548973083
1772729577730100000,9.511099853515624,8.133204460144043,4.838287353515625,-0.641276478767395
1772729577739618300,9.520618408203125,8.042277336120605,4.977071285247803,-0.7824530005455017
1772729577749136600,9.53013671875,8.025527000427246,4.979464054107666,-0.7465606927871704
1772729577758654700,9.53965478515625,8.123632431030273,4.938786029815674,-0.638883650302887
1772729577768173000,9.549173095703125,8.461020469665527,4.948357105255127,-0.5359922647476196
1772729577777691400,9.55869140625,8.8438720703125,4.917250633239746,-0.5527420043945312
1772729577787209500,9.56820947265625,9.107083320617676,4.790431022644043,-0.4570291340351105
1772729577796727800,9.577727783203125,9.200403213500977,4.709074974060059,-0.32303106784820557
1772729577806246100,9.58724609375,9.083154678344727,4.716253280639648,-0.42352959513664246
1772729577815764500,9.596764404296875,8.755337715148926,4.78803825378418,-0.6173482537269592
1772729577825282600,9.606282470703125,8.547162055969238,4.737788677215576,-0.851844847202301
1772729577834801000,9.61580078125,8.934800148010254,4.735395908355713,-0.9284151792526245
1772729577844319200,9.6253193359375,9.322437286376953,5.003392219543457,-1.0815558433532715
1772729577853837600,9.634837646484375,9.640682220458984,5.182853698730469,-1.129412293434143
1772729577863356000,9.64435595703125,9.875179290771484,5.197210788726807,-1.2873386144638062
1772729577872874000,9.6538740234375,9.824930191040039,4.922036170959473,-0.9284151792526245
1772729577882392300,9.663392333984374,9.829715728759766,4.486542224884033,-0.38763725757598877
1772729577901429000,9.682428955078125,10.700702667236328,3.869194269180298,0.08614161610603333
1772729577910947000,9.691947021484374,11.389835357666016,3.7734813690185547,0.05024927482008934
1772729577920465400,9.70146533203125,11.906685829162598,3.6227335929870605,0.016749758273363113
