time,seconds_elapsed,z,y,x
1772709371540391000,0.060390869140625,-0.00006938423030078411,-0.01232649851590395,-0.00003296113573014736
1772709371550416000,0.070415771484375,-0.0011482492554932833,-0.005258703604340553,0.0004901902284473181
1772709371560439800,0.080439697265625,0.002203072654083371,0.007061080075800419,-0.004176733084022999
1772709371570464800,0.09046484375,-0.0003864872269332409,0.006202672142535448,-0.0028295135125517845
1772709371580490000,0.100489990234375,0.0007014141883701086,-0.004018007777631283,-0.00132855586707592
1772709371590515000,0.110514892578125,-0.0014324085786938667,-0.0037223256658762693,-0.0012919970322400331
1772709371600540000,0.120539794921875,-0.00013198703527450562,-0.0002359817735850811,0.0014973976649343967
1772709371610564900,0.13056494140625,0.0008400850929319859,-0.0008778353221714497,0.0007153870537877083
1772709371620590000,0.140590087890625,-0.0003591361455619335,-0.002705829218029976,-0.0020335279405117035
1772709371630615000,0.150614990234375,-0.0007809638045728207,-0.0008131829090416431,-0.004949304275214672
1772709371640640000,0.160639892578125,-0.0016480890335515141,-0.00019852537661790848,-0.0027002638671547174
1772709371650665000,0.1706650390625,-0.00018379534594714642,-0.0032736873254179955,0.0008439456578344107
1772709371660689000,0.18068896484375,-0.0003121595364063978,-0.0033093737438321114,0.003560369834303856
1772709371670713900,0.1907138671875,0.0011894064955413342,0.0005379104986786842,0.0032666209153831005
1772709371680738800,0.20073876953125,-0.0005970420315861702,0.0011773360893130302,-0.0006551500409841537
1772709371690764000,0.210763916015625,-0.0005877348594367504,-0.0010648383758962154,-0.0024336930364370346
1772709371700789000,0.2207890625,-0.0004915948957204819,-0.005114440806210041,-0.002563921734690666
1772709371710814000,0.23081396484375,0.0012138700112700462,-0.002381738740950823,0.001656761858612299
1772709371720839000,0.2408388671875,-0.0010183914564549923,0.0006284322589635849,0.001633592415601015
1772709371730864000,0.250864013671875,0.0013753368984907866,-0.00004651164636015892,0.00010009552352130413
1772709371740888800,0.260888916015625,0.0009819881524890661,-0.0005991174839437008,-0.0006983201019465923
1772709371750913800,0.270913818359375,-0.00021814624778926373,-0.002810001838952303,0.00004503875970840454
1772709371760938000,0.28093798828125,-0.00020882533863186836,-0.004421480465680361,-0.0026910926681011915
1772709371770963000,0.290962890625,0.0014466103166341782,-0.0025159302167594433,-0.002677693497389555
1772709371780988000,0.30098779296875,-0.0017747491365298629,-0.00208929181098938,-0.0009993691928684711
1772709371791013000,0.31101318359375,0.0014763951767235994,0.0011719600297510624,0.0011740163899958134
1772709371801038000,0.3210380859375,-0.00011963699944317341,0.003114469815045595,-0.0012678359635174274
1772709371811063000,0.33106298828125,-0.0007250653579831123,0.0008470350876450539,-0.0021286862902343273
1772709371821087700,0.341087646484375,-0.00017166044563055038,-0.0014344952069222927,-0.00199339771643281
1772709371831113000,0.351113037109375,0.000623391242697835,0.0012311115860939026,-0.000013977522030472755
1772709371841138000,0.361137939453125,0.0001501475926488638,0.00039168354123830795,0.0009167972020804882
1772709371851163000,0.371162841796875,0.0009854829404503107,-0.0018800422549247742,0.0008937353268265724
1772709371861187800,0.381187744140625,0.00015830527991056442,-0.004852396436035633,-0.0008865878917276859
1772709371871212000,0.3912119140625,0.0009590936824679375,-0.001935136504471302,-0.0005666366778314114
1772709371881237000,0.401237060546875,-0.000636139651760459,0.0005200314335525036,-0.0001506507396697998
1772709371891261700,0.41126171875,-0.000517895445227623,0.0011381511576473713,-0.0008702368941158056
1772709371901287000,0.421286865234375,-0.000786075834184885,-0.002223024144768715,-0.001552005996927619
1772709371911312000,0.431311767578125,-0.0026195752434432507,-0.0008528381586074829,-0.00012687407433986664
1772709371921336800,0.4413369140625,-0.0011441840324550867,-0.0019236952066421509,0.00039723608642816544
1772709371931361800,0.45136181640625,-0.0009255874902009964,-0.0010134493932127953,-0.0011382563970983028
1772709371941387000,0.461386962890625,-0.0005761808715760708,-0.00012208940461277962,-0.0004631450865417719
1772709371951412000,0.471411865234375,-0.0009805713780224323,-0.0004075346514582634,-0.0032447222620248795
1772709371961437000,0.48143701171875,-0.0017875093035399914,-0.0016720038838684559,-0.0034620361402630806
1772709371971462000,0.4914619140625,-0.0006460207514464855,-0.0030818870291113853,-0.0018616041634231806
1772709371981485800,0.50148583984375,-0.0008438935037702322,-0.0005598738789558411,-0.0024432383943349123
1772709371991510800,0.5115107421875,-0.000566874397918582,0.0009687808342278004,-0.00232312991283834
1772709372001536000,0.521535888671875,-0.001449978444725275,0.00043321913108229637,-0.0019161992240697145
1772709372011561000,0.53156103515625,-0.00134003022685647,-0.0030289096757769585,-0.0025315061211586
1772709372021586000,0.5415859375,-0.0009599970653653145,-0.0027993451803922653,-0.0038511021994054317
1772709372031611000,0.55161083984375,-0.000016571488231420517,-0.00007866974920034409,-0.0014184960164129734
1772709372041636000,0.561635986328125,0.00035067833960056305,0.0001644766889512539,0.00047687580808997154
1772709372051661000,0.5716611328125,0.0007853019051253796,-0.001494075171649456,0.001297873561270535
1772709372061686000,0.58168603515625,-0.0005185815971344709,-0.0015012659132480621,0.00009705428965389729
1772709372071710700,0.591710693359375,-0.0003500950988382101,-0.0018754848279058933,-0.001131556462496519
1772709372081736000,0.60173583984375,-0.0019304148154333234,-0.00022831978276371956,-0.0018442184664309025
1772709372091759900,0.611759765625,0.001958256121724844,-0.0012765536084771156,-0.0006308713927865028
1772709372101784800,0.621784912109375,0.00014783907681703568,-0.0017932066693902016,-0.0035622126888483763
1772709372111810000,0.63181005859375,-0.0008750755805522203,0.0003727222792804241,-0.001850645523518324
1772709372121835000,0.6418349609375,-0.0011062377598136663,-0.0016864337958395481,-0.002124951221048832
1772709372131860000,0.65185986328125,0.0005174942780286074,-0.0033340291120111942,-0.00048662791959941387
1772709372141885000,0.661885009765625,-0.0007994386833161116,-0.0033177840523421764,-0.002859770553186536
1772709372151910000,0.671909912109375,-0.0006639799103140831,-0.00140386912971735,-0.003553820075467229
1772709372161934800,0.681934814453125,-0.001264789141714573,-0.00012368755415081978,-0.0022438110318034887
1772709372171959800,0.691959716796875,-0.00011527957394719124,-0.0017181546427309513,-0.002772753592580557
1772709372181985000,0.701985107421875,-0.000703039113432169,-0.0016337321139872074,-0.0044577354565262794
1772709372192009000,0.712009033203125,0.0002193627879023552,-0.0014620167203247547,-0.0020656087435781956
1772709372202034000,0.722033935546875,-0.0004450960550457239,0.0006770347245037556,-0.0012738509103655815
1772709372212059100,0.73205908203125,0.00046150805428624153,0.0002429671585559845,0.001246063970029354
1772709372222084000,0.742083984375,-0.000017594778910279274,0.00039689801633358,0.00033339858055114746
1772709372232108800,0.75210888671875,0.001160959480330348,-0.0017310325056314468,0.0010860820766538382
1772709372242133800,0.7621337890625,-0.0005818130448460579,-0.00044818781316280365,0.000853321747854352
1772709372252159000,0.772158935546875,0.00020830892026424408,-0.0006720139645040035,-0.000026831869035959244
1772709372262183200,0.78218310546875,0.00018833531066775322,-0.0007210159674286842,-0.0006382938008755445
1772709372272208100,0.7922080078125,0.0012324454728513956,-0.0015967176295816898,0.0010827085934579372
1772709372282233300,0.8022333984375,-0.0002069929614663124,-0.0009442432783544064,0.0030446595046669245
1772709372292258000,0.812258056640625,0.00008663861081004143,0.00027203653007745743,0.0035059608053416014
1772709372302282000,0.822281982421875,0.0009036962874233723,0.000535422470420599,0.0017749061807990074
1772709372312307200,0.83230712890625,0.00000715046189725399,0.0008186632767319679,-0.0029625219758599997
1772709372322332200,0.842332275390625,-0.000005100155249238014,-0.00017070118337869644,-0.0035129974130541086
1772709372332357000,0.852357177734375,0.0003506387583911419,0.0023314491845667362,-0.00026545068249106407
1772709372342382000,0.862382080078125,0.0015392075292766094,0.0012451461516320705,0.003076550317928195
1772709372352407300,0.8724072265625,0.002089759334921837,0.005230807699263096,0.005615441128611565
1772709372362432300,0.882432373046875,0.00023007369600236416,0.004644113592803478,-0.00011967634782195091
1772709372372457000,0.89245703125,0.0010748370550572872,0.0011125439777970314,-0.00004998920485377312
1772709372382482200,0.902482177734375,0.0006623133085668087,0.0019261399284005165,0.002645662287250161
1772709372392507100,0.912507080078125,0.0019845368806272745,0.004773053806275129,0.005311448127031326
1772709372402531000,0.922531005859375,0.0017168892081826925,0.003698734100908041,0.004383602645248175
1772709372412556300,0.932556396484375,0.0007671818602830172,0.00035431887954473495,0.0030155808199197054
1772709372422581200,0.942581298828125,0.001587169012054801,-0.00310459453612566,0.0016866634832695127
1772709372432606200,0.952606201171875,-0.00009709433652460575,0.0016512712463736534,0.0028736235108226538
1772709372442631200,0.962631103515625,0.0009833499789237976,0.004008702002465725,0.002523151459172368
1772709372452656000,0.97265625,0.001640173140913248,0.0010014898143708706,-0.00035812403075397015
1772709372462681000,0.98268115234375,-0.00008315849117934704,-0.00010372186079621315,-0.001035365741699934
1772709372472706000,0.9927060546875,-0.0003656623885035515,0.0035068364813923836,0.00015257508493959904
1772709372482731000,1.00273095703125,-0.0002551411744207144,0.0030679479241371155,0.00041303224861621857
1772709372492756200,1.012756103515625,0.000742690172046423,0.0016018906608223915,0.0011371346190571785
1772709372502780200,1.0227802734375,0.0007501468062400818,0.0015504918992519379,0.002023168373852968
1772709372512805000,1.03280517578125,0.0008172334637492895,0.0026349429972469807,-0.0008772911969572306
1772709372522830300,1.042830322265625,0.0009471958037465811,0.0029734312556684017,-0.002155608730390668
1772709372532855000,1.05285498046875,0.00039075384847819805,0.0018865601159632206,0.0012338929809629917
1772709372542880000,1.0628798828125,0.0010115366894751787,0.0016191783361136913,0.00008074427023530006
1772709372552905000,1.072905029296875,0.0020860680378973484,0.0025531714782118797,0.0011640326119959354
1772709372562930200,1.08293017578125,0.0011832565069198608,0.0017725992947816849,0.0027704513631761074
1772709372572955100,1.092955078125,0.0011144811287522316,0.0003265226259827614,0.0018602997297421098
1772709372582980000,1.10297998046875,-0.000029346439987421036,-0.0006151711568236351,0.00165896478574723
1772709372593005000,1.113005126953125,0.0011888465378433466,-0.00030811550095677376,0.0013738786801695824
1772709372603030300,1.1230302734375,0.0017246745992451906,0.0015355907380580902,0.0032077315263450146
1772709372613054000,1.133053955078125,0.0013529581483453512,0.000811536330729723,0.004183429758995771
1772709372623079200,1.1430791015625,0.0025505817029625177,0.0002754419110715389,0.003658787114545703
1772709372633104100,1.153104248046875,0.0003695618361234665,0.0009332564659416676,0.0016827960498631
1772709372643129000,1.163129150390625,0.0006811516359448433,0.001954845618456602,0.00042099040001630783
1772709372653154000,1.173154052734375,-0.00012553646229207516,-0.0003231004811823368,0.00018649385310709476
1772709372663179300,1.18317919921875,-0.00028692418709397316,0.0020268727093935013,-0.0015655998140573502
1772709372673204200,1.193204345703125,0.000526282237842679,0.0016178470104932785,0.0009039384312927723
1772709372683229200,1.203229248046875,0.0003427902702242136,-0.00037952326238155365,0.0023564263246953487
1772709372693254100,1.213254150390625,-0.00006886199116706848,0.0011030477471649647,0.00012678653001785278
1772709372703279400,1.223279296875,-0.0016726177418604493,0.003605619538575411,-0.000013295793905854225
1772709372713303000,1.233302978515625,0.0011448715813457966,0.001912908162921667,-0.0006943854968994856
1772709372723328000,1.243327880859375,-0.0006450391374528408,0.0014686924405395985,-0.0005902557168155909
1772709372733353200,1.253353271484375,-0.00014678738079965115,0.0009383740834891796,-0.0011668086517602205
1772709372743378200,1.263378173828125,0.0009957088623195887,0.00028110574930906296,0.0009400183334946632
1772709372753403100,1.273403076171875,0.0007201284170150757,0.0015489039942622185,-0.00013356516137719154
1772709372763428000,1.283427978515625,0.0011004279367625713,0.00041945697739720345,0.00044567231088876724
1772709372773453300,1.293453369140625,0.0016105992253869772,0.0015737651847302914,0.002438596449792385
1772709372783478300,1.303478271484375,0.0009882187005132437,0.003014002460986376,0.0014761300990357995
1772709372793503000,1.3135029296875,0.0010292029473930597,0.0014578597620129585,0.0023639199789613485
1772709372803528200,1.323528076171875,0.0016547793056815863,-0.00006440281867980957,-0.0005660897586494684
1772709372813552000,1.33355224609375,0.0002667361404746771,-0.0008614454418420792,-0.00015746918506920338
1772709372823577000,1.3435771484375,0.0003871109802275896,0.0032781721092760563,0.00117943761870265
1772709372833602300,1.353602294921875,0.0005209411028772593,0.0005316780880093575,0.001386043382808566
1772709372843627300,1.363627197265625,0.00028764805756509304,-0.0009394516237080097,0.0012965610949322581
1772709372853652200,1.37365234375,0.00011329655535519123,-0.0009744232520461082,0.0027887884061783552
1772709372863677000,1.383677001953125,-0.00011360482312738895,-0.0004242141731083393,-0.0008964941371232271
1772709372873702100,1.3937021484375,-0.0011567692272365093,-0.0014399155043065548,-0.0019415614660829306
1772709372883727000,1.40372705078125,-0.00027419766411185265,5.587935447692871e-8,-0.0016608641017228365
1772709372893752000,1.413751953125,0.0011432943865656853,0.002187912818044424,0.0011923303827643394
1772709372903777000,1.423777099609375,0.0018058889545500278,0.0034601050429046154,0.001184340799227357
1772709372913801200,1.43380126953125,0.00032542343251407146,0.003885897807776928,-0.00025180215016007423
1772709372923826200,1.443826171875,-0.00012917816638946533,0.0024483241140842438,-0.0014462298713624477
1772709372933851100,1.45385107421875,0.0006886885967105627,0.0019526602700352669,-0.0006544638890773058
1772709372943876000,1.4638759765625,0.00019626994617283344,0.0017694346606731415,0.000989771680906415
1772709372953901000,1.473901123046875,-0.0008298493921756744,0.003358126152306795,0.0012446363689377904
1772709372963926000,1.483926025390625,0.00028947717510163784,0.0009237308986485004,0.002153573092073202
1772709372973951000,1.493950927734375,0.0011278900783509016,-0.0009035617113113403,0.00031221495009958744
1772709372983976200,1.50397607421875,0.002078105928376317,0.00017741508781909943,0.002789487363770604
1772709372994001200,1.514001220703125,0.0015741162933409214,0.0026472448371350765,0.001758099184371531
1772709373004026000,1.524026123046875,0.00012029660865664482,-0.00011871429160237312,-0.0019346398767083883
1772709373014050300,1.53405029296875,0.0011751886922866106,0.0012978576123714447,-0.0009129014797508717
1772709373024075000,1.544074951171875,-0.0004682482685893774,0.0007332675158977509,0.0005486411973834038
1772709373034100000,1.554099853515625,0.0012656652834266424,0.00019877823069691658,0.0010528957936912775
1772709373044125200,1.564125244140625,0.0003479400184005499,-0.0008957809768617153,0.001176732825115323
1772709373054150100,1.574150146484375,-0.000021348241716623306,-0.00023356406018137932,-0.0008138392586261034
1772709373064175000,1.584175048828125,-0.0006866059266030788,-0.0007906975224614143,-0.0018993436824530363
1772709373074200000,1.594199951171875,-0.0010535893961787224,-0.00020213890820741653,-0.0007408687379211187
1772709373084225300,1.604225341796875,-0.0008592884987592697,0.0009521120227873325,-0.0005017558578401804
1772709373094250200,1.614250244140625,0.0008296968881040812,0.001293171662837267,0.0010888082906603813
1772709373104275200,1.624275146484375,-0.0010694032534956932,0.001625800970941782,-0.0011655574198812246
1772709373114299100,1.634299072265625,0.0009578610770404339,0.0002711731940507889,-0.00101519376039505
1772709373124324000,1.644323974609375,-0.00091593898832798,-0.0006798417307436466,-0.0003355550579726696
1772709373134349000,1.65434912109375,-0.0010996516793966293,-0.0005407528951764107,0.0007175537757575512
1772709373144374000,1.6643740234375,0.00028918683528900146,-0.0003170473501086235,0.00044910702854394913
1772709373154399200,1.674399169921875,0.0009079328738152981,-0.00007221894338726997,0.0018897398840636015
1772709373164424200,1.684424072265625,0.00039767147973179817,-0.00009538838639855385,0.0016484574880450964
1772709373174449200,1.69444921875,-0.000907363835722208,-0.0005463920533657074,0.0008126907050609589
1772709373184474000,1.70447412109375,-0.0013076369650661945,-0.00008886074647307396,-0.0005239497404545546
1772709373194499300,1.714499267578125,0.0008231936953961849,-0.0011890055611729622,-0.0006041433662176132
1772709373204523000,1.72452294921875,-0.00047136913053691387,0.0006970451213419437,-0.0006672602612525225
1772709373214548200,1.73454833984375,0.00025783968158066273,-0.0001880335621535778,0.001142879482358694
1772709373224573200,1.7445732421875,0.0002107017207890749,0.0005137091502547264,-0.0006797879468649626
1772709373234598100,1.75459814453125,0.0015074445400387049,0.00012201396748423576,-0.0001149103045463562
1772709373244623000,1.764623046875,0.000142308184877038,-0.0008569643832743168,0.0002619270235300064
1772709373254648300,1.7746484375,-0.001036808593198657,0.0006540673784911633,0.00033533433452248573
1772709373264673000,1.784673095703125,-0.0007936619222164154,0.001290030311793089,-0.0004060897044837475
1772709373274698000,1.794697998046875,0.0023841937072575092,0.0006809462793171406,-0.0003164578229188919
1772709373284723000,1.804722900390625,0.0008078687824308872,-0.0013553067110478878,-0.0016198090743273497
1772709373294748200,1.814748046875,0.00019685341976583004,-0.0018288069404661655,0.00007069087587296963
1772709373304771800,1.824771728515625,-0.0001946312841027975,-0.0007033552974462509,0.0018677919870242476
1772709373314796800,1.834796875,0.001913564745336771,0.002308439463376999,0.00133993208874017
1772709373324822000,1.844822021484375,0.00003310665488243103,-0.000019162893295288086,0.0014336754102259874
1772709373334847000,1.854846923828125,0.00038363272324204445,0.0009460211731493473,0.0003950644750148058
1772709373344872000,1.864871826171875,-0.001238498603925109,-0.0009509488008916378,-0.0002510184422135353
1772709373354897000,1.87489697265625,-0.00011528818868100643,-0.0020455564372241497,-0.0013657119125127792
1772709373364922000,1.884922119140625,0.0015419968403875828,0.000949434470385313,-0.0005947265308350325
1772709373374947000,1.894947021484375,-0.0007150985766202211,0.0015302482061088085,0.002067986875772476
1772709373384972000,1.904971923828125,0.0011571035720407963,-0.0004423558712005615,0.0012448038905858994
1772709373394996000,1.914995849609375,0.0005896505899727345,-0.0013395524583756924,0.0019608428701758385
1772709373405021000,1.92502099609375,-0.0003275421913713217,-0.0010412782430648804,0.0008380541112273932
1772709373415046000,1.9350458984375,-0.0008854619227349758,0.00044266367331147194,-0.0016500947531312704
1772709373425071000,1.945071044921875,0.0003031068481504917,-0.0031725773587822914,-0.002055161399766803
1772709373435096000,1.955095947265625,-0.00003103562630712986,-0.0028394251130521297,0.0001382925547659397
1772709373445121000,1.96512109375,0.0013293069787323475,0.0020064632408320904,0.0013601507525891066
1772709373455146000,1.97514599609375,-0.00222095288336277,0.001600863877683878,-0.0015948929358273745
1772709373465171200,1.985171142578125,0.00012902054004371166,0.0006951219402253628,-0.002501698909327388
1772709373475196200,1.995196044921875,-0.0018653079168871045,-0.0008897376246750355,-0.0016590645536780357
1772709373485220900,2.005220947265625,-0.0010423911735415459,0.00043039070442318916,-0.0002654322888702154
1772709373495245000,2.0152451171875,0.0001069619320333004,0.0013161362148821354,0.0010691629722714424
1772709373505270000,2.02527001953125,-0.0003052954562008381,-0.0015403702855110168,0.0025245805736631155
1772709373515295000,2.035294921875,0.0004585662391036749,-0.00236299866810441,-0.0003463923931121826
1772709373525320000,2.04531982421875,0.001003715442493558,0.000237311702221632,0.002580155385658145
1772709373535345200,2.05534521484375,-0.001133624231442809,0.001484457403421402,0.0011756150051951408
1772709373545370000,2.0653701171875,-0.000228948425501585,-0.000350194051861763,-0.001399928005412221
1772709373555395000,2.07539501953125,-0.0015711247688159347,0.000641294289380312,0.00023991870693862438
1772709373565420000,2.085419921875,-0.0015538142761215568,-0.00022663036361336708,-0.00036941259168088436
1772709373575445000,2.095445068359375,0.0016211403999477625,-0.0015616952441632748,0.00022535701282322407
1772709373585470000,2.105469970703125,-0.0003783607389777899,0.00008280668407678604,0.00027888640761375427
1772709373595494100,2.115494140625,0.00004601455293595791,-0.00002740323543548584,0.00046726712025702
1772709373605519000,2.12551904296875,-0.0008541338611394167,-0.0005081035196781158,-0.0024741943925619125
1772709373615544000,2.1355439453125,-0.0003625678364187479,-0.002390890847891569,-0.0019258372485637665
1772709373625569000,2.145569091796875,-0.00230720778927207,-0.0018305620178580284,-0.0013788240030407906
1772709373635594200,2.15559423828125,-0.00007371441461145878,-0.0008705724030733109,-0.0010166354477405548
1772709373645619000,2.165618896484375,-0.00014082621783018112,-0.0013699149712920189,-0.0013516610488295555
1772709373655644000,2.175643798828125,0.0006759562529623508,-0.000673527829349041,-0.0006883100140839815
1772709373665668900,2.1856689453125,-0.00022632302716374397,-0.0014453120529651642,0.0004600449465215206
1772709373675694000,2.195694091796875,-0.001099335728213191,-0.0024413312785327435,0.00008167373016476631
1772709373685718000,2.205718017578125,0.000010936055332422256,-0.0019664899446070194,0.0014864910626783967
1772709373695743000,2.215742919921875,0.0014493204653263092,-0.0009529832750558853,0.0016919641057029366
1772709373705768200,2.225768310546875,0.0013225539587438107,-0.00025922991335392,0.0023247310891747475
1772709373715793200,2.235793212890625,0.0009273798204958439,-0.0021551749669015408,0.0010449402034282684
1772709373725817900,2.24581787109375,0.0010373685508966446,-0.0016116239130496979,-0.0015087651554495096
1772709373735842800,2.2558427734375,0.0009680395014584064,0.00009331619367003441,-0.0009220303036272526
1772709373745868000,2.265867919921875,-0.0003049515653401613,0.0008038477972149849,-0.0003798108082264662
1772709373755893000,2.27589306640625,0.0008413123432546854,-0.0006044972687959671,-0.00026183039881289005
1772709373765918000,2.28591796875,-0.0004974585026502609,-0.002482824958860874,0.0003400440327823162
1772709373775943200,2.295943115234375,0.00018978235311806202,-0.000973784364759922,-0.0012981051113456488
1772709373785967000,2.305967041015625,0.0013248214963823557,-0.0014142710715532303,0.0008840889204293489
1772709373795992000,2.315991943359375,-0.0001716467086225748,-0.0006252233870327473,0.0009807618334889412
1772709373806017000,2.32601708984375,-0.0001828318927437067,-0.0017384244129061699,0.0006997983437031507
1772709373816042000,2.3360419921875,-0.0008644117042422295,-0.0029773451387882233,-0.0005902438424527645
1772709373826067000,2.34606689453125,-0.0016287389444187284,-0.0007719811983406544,-0.0011503065470606089
1772709373836092000,2.356091796875,-0.0008142148144543171,-0.00033727334812283516,-0.003240324789658189
1772709373846117000,2.3661171875,-0.00012632040306925774,-0.0001788153313100338,-0.0033697544131428003
1772709373856142000,2.37614208984375,-0.0007138608489185572,0.0010355873964726925,-0.00048746541142463684
1772709373866167000,2.3861669921875,0.0021796636283397675,0.00012185703963041306,0.001416162122040987
1772709373876192000,2.39619189453125,-0.0009112304542213678,0.0005136127583682537,0.0023809559643268585
1772709373886216000,2.4062158203125,-0.00020016636699438095,-0.00040624337270855904,-0.0004973886534571648
1772709373896241000,2.416240966796875,-0.0006556706503033638,-0.002329485956579447,0.0002818459179252386
1772709373906265900,2.426265869140625,0.00031611695885658264,-0.0022061816416680813,-0.000937882112339139
1772709373916291000,2.436291015625,-0.0006575172301381826,-0.0006679501384496689,0.00013669393956661224
1772709373926316000,2.44631591796875,0.00033024908043444157,-0.0004916484467685223,0.0007931631989777088
1772709373936341000,2.456341064453125,0.0003727313596755266,-0.003080962225794792,0.0018246910767629743
1772709373946366000,2.466365966796875,-0.0014195761177688837,-0.0019547115080058575,0.000010279472917318344
1772709373956391200,2.47639111328125,-0.0006834452506154776,-0.004120377823710442,-0.002550820354372263
1772709373966416100,2.486416015625,-0.0010016930755227804,-0.0024939854629337788,-0.0038653570227324963
1772709373976440000,2.496440185546875,-0.00029090745374560356,-0.0030554733239114285,-0.002500128000974655
1772709373986465000,2.506465087890625,-0.00040728761814534664,-0.00020775524899363518,0.0006447990890592337
1772709373996490000,2.516489990234375,-0.0007378100417554379,0.0024435766972601414,-0.0009769494645297527
1772709374006515000,2.526514892578125,-0.00013220706023275852,0.0010017412714660168,-0.0021250382997095585
1772709374016540200,2.5365400390625,0.00014275568537414074,-0.0009952792897820473,-0.002516398672014475
1772709374026565000,2.546565185546875,-0.00042210076935589314,-0.0012083323672413826,-0.0025302469730377197
1772709374036590000,2.556590087890625,-0.0008515764493495226,0.0009808139875531197,0.001780212391167879
1772709374046615000,2.566614990234375,0.0005335335154086351,-0.00037873024120926857,0.0011152210645377636
1772709374056640000,2.576639892578125,0.00010710745118558407,-0.0006256257183849812,0.001323869451880455
1772709374066665000,2.5866650390625,0.00042322464287281036,-0.0010155127383768559,0.0020503797568380833
1772709374076689000,2.59668896484375,0.0019649795722216368,0.0001781955361366272,0.0011120089329779148
1772709374086714000,2.606714111328125,0.0015330149326473475,0.00010549090802669525,-0.0011106652673333883
1772709374096739000,2.616739013671875,0.00006319861859083176,-0.0008096778765320778,-0.0017971827182918787
1772709374106764000,2.626763916015625,-0.0006249623838812113,-0.0007399027235805988,-0.0008666741196066141
1772709374116789000,2.6367890625,-0.0009344697464257479,-0.0023309728130698204,-0.0006173849105834961
1772709374126814200,2.646814208984375,-0.0008130297064781189,0.0005803946405649185,-0.0012586740776896477
1772709374136839000,2.6568388671875,-0.001741093466989696,-0.00015233783051371574,-0.001242956379428506
1772709374146863900,2.66686376953125,-0.00008354196324944496,-0.000903615728020668,-0.0024160791654139757
1772709374156889000,2.67688916015625,-0.0015624318039044738,-0.002098983619362116,-0.002871128963306546
1772709374166914000,2.6869140625,-0.0007469719275832176,-0.0008462327532470226,-0.0019856279250234365
1772709374176938000,2.69693798828125,0.0007240003906190395,-0.0017453269101679325,-0.0013578650541603565
1772709374186963200,2.706963134765625,-0.0006430002395063639,-0.00011866819113492966,0.000506614102050662
1772709374196988200,2.71698828125,0.001307954080402851,-0.0002578701823949814,-0.0006742414552718401
1772709374207013000,2.72701318359375,0.00026532658375799656,-0.0018834639340639114,-0.0013083398807793856
1772709374217037800,2.737037841796875,-0.0007971185259521008,-0.0027806605212390423,-0.0009676464833319187
1772709374227063000,2.74706298828125,-0.000027464935556054115,-0.0019313786178827286,0.00005234428681433201
1772709374237088000,2.757087890625,0.0007458874024450779,-0.001987567637115717,0.001512086484581232
1772709374247113000,2.767113037109375,0.0012484262697398663,-0.0011105886660516262,0.0036527353804558516
1772709374257138000,2.777137939453125,-0.0007750564254820347,-0.000940883532166481,0.0011710836552083492
1772709374267163400,2.787163330078125,-0.0007252551149576902,-0.0018234550952911377,-0.0023328373208642006
1772709374277187300,2.797187255859375,-0.0016177678480744362,-0.002459051087498665,-0.0014854876790195704
1772709374287212300,2.80721240234375,-0.00010136398486793041,-0.0007469048723578453,-0.0015374196227639914
1772709374297237500,2.817237548828125,-0.0013292180374264717,-0.0002784132957458496,-0.00013084826059639454
1772709374307262500,2.827262451171875,-0.0007896616589277983,-0.0010579205118119717,-0.00021660211496055126
1772709374317287400,2.837287353515625,-0.0004556064959615469,0.00032354751601815224,-0.001301728654652834
1772709374327312400,2.8473125,-0.0001506744883954525,-0.002289013471454382,-0.0016016005538403988
1772709374337337600,2.857337646484375,-0.0017625665059313178,-0.00042815040796995163,-0.0023779685143381357
1772709374347362300,2.8673623046875,-0.00028238166123628616,0.0006517614237964153,-0.002546014031395316
1772709374357387300,2.87738720703125,-0.0017229925142601132,-0.0011892910115420818,-0.0034577827900648117
1772709374367411500,2.887411376953125,-0.0007719777058809996,-0.001651083119213581,-0.0042748404666781425
1772709374377436400,2.8974365234375,-0.000908080255612731,0.0011609080247581005,-0.0016134614124894142
1772709374387461400,2.90746142578125,-0.0013749324716627598,0.0004985793493688107,0.0009130793623626232
1772709374397486300,2.917486328125,0.0005552214570343494,-0.000054516829550266266,-0.0009982397314161062
1772709374407511600,2.927511474609375,0.0007320553995668888,-0.00014586327597498894,0.0013298956910148263
1772709374417536500,2.93753662109375,-0.0004775305278599262,0.001117735169827938,0.0003477819263935089
1772709374427561200,2.947561279296875,-0.00007486063987016678,-0.001184034626930952,0.0004833368584513664
1772709374437586400,2.95758642578125,-0.0003704046830534935,-0.0003856522962450981,0.00004719826392829418
1772709374447611400,2.967611328125,0.001587284728884697,0.0002756104804575443,-0.00016185990534722805
1772709374457636400,2.97763623046875,0.0006632690783590078,-0.00022421590983867645,0.0005432378966361284
1772709374467660500,2.98766064453125,0.0004904300440102816,0.0005691396072506905,0.0012468448840081692
1772709374477685500,2.997685546875,0.000985102029517293,0.00019243359565734863,0.0005784700624644756
1772709374487710500,3.00771044921875,-0.0009574075229465961,-0.003277398645877838,-0.0029534141067415476
1772709374497735400,3.0177353515625,0.00036008236929774284,-0.00012487778440117836,-0.003019884927198291
1772709374507760400,3.027760498046875,0.0007712745573371649,0.0027854242362082005,-0.001113860635086894
1772709374517785300,3.037785400390625,0.0027059591375291348,0.001195560209453106,0.001832959009334445
1772709374527810300,3.047810302734375,0.0022945008240640163,0.005359145812690258,0.002489694394171238
1772709374537835300,3.057835205078125,8.221250027418137e-7,0.0030285711400210857,-0.0010107962880283594
1772709374547860500,3.067860595703125,0.002011508448049426,0.0019683665595948696,-0.0007740410510450602
1772709374557885400,3.077885498046875,0.0031611640006303787,0.00255299499258399,0.0021423338912427425
1772709374567909400,3.087909423828125,0.0003203698433935642,0.0018776175566017628,0.003243550891056657
1772709374577934600,3.0979345703125,0.002894289093092084,0.0013108383864164352,0.004124438390135765
1772709374587959300,3.107959228515625,0.0015757584478706121,-0.0013555185869336128,0.0014599459245800972
1772709374597984300,3.117984375,0.0009708309080451727,-0.0004599131643772125,0.001968023832887411
1772709374608009200,3.12800927734375,0.0020030720625072718,-0.00023088138550519943,0.001988796517252922
1772709374618034400,3.138034423828125,-0.00036310823634266853,0.00267199007794261,0.0015932960668578744
1772709374628059400,3.148059326171875,0.0007852467242628336,0.0015566577203571796,-0.0006568087264895439
1772709374638084400,3.15808447265625,0.0005152022931724787,-0.000049761030822992325,-0.002037391532212496
1772709374648109300,3.168109375,0.0005697968881577253,0.00018539605662226677,0.0014332401333376765
1772709374658134500,3.178134521484375,0.00021768896840512753,0.0019121645018458366,0.0034303655847907066
1772709374668158200,3.188158203125,-0.0005232023540884256,0.0016884589567780495,0.0021179597824811935
1772709374678183400,3.198183349609375,0.0015423265285789967,0.001024771947413683,-0.0010713220108300447
1772709374688208400,3.20820849609375,0.0011969148181378841,0.0004460667259991169,-0.001542435260489583
1772709374698233300,3.2182333984375,0.0005915162619203329,0.001702244859188795,-0.00007447623647749424
1772709374708258300,3.22825830078125,0.0012943244073539972,0.0015858649276196957,0.000560421496629715
1772709374718283500,3.238283447265625,-0.00043994607403874397,0.0020864149555563927,-0.000177016481757164
1772709374728308500,3.24830859375,-0.0002458016388118267,0.0015836097300052643,-0.000016694189980626106
1772709374738333400,3.25833349609375,0.0023728059604763985,0.0009966888464987278,-0.0004707956686615944
1772709374748358400,3.2683583984375,0.0033062435686588287,-0.000922118779271841,0.000871171010658145
1772709374758383400,3.27838330078125,0.0028695138171315193,0.0018001608550548553,0.0018149313982576132
1772709374768407300,3.2884072265625,0.0020023882389068604,0.0018398426473140717,0.003075938206166029
1772709374778432300,3.298432373046875,0.0026113386265933514,0.0012033595703542233,0.00351455039344728
1772709374788457500,3.30845751953125,0.0010999948717653751,0.0012779277749359608,0.002055936958640814
1772709374798482400,3.318482421875,0.000990601722151041,0.0008691851980984211,-0.0000012081582099199295
1772709374808507400,3.32850732421875,0.0000046996865421533585,-0.0005755792371928692,-0.00014262204058468342
1772709374818532400,3.338532470703125,0.001790088601410389,0.0014850287698209286,0.001615741290152073
1772709374828557600,3.3485576171875,-0.0006176754832267761,0.002352419774979353,0.002336659003049135
1772709374838582300,3.358582275390625,0.0005292519927024841,0.0007203058339655399,0.0008703239727765322
1772709374848607200,3.368607177734375,0.0006685350090265274,0.0008430774323642254,0.00005726097151637077
1772709374858632400,3.378632568359375,-0.00025956984609365463,0.0012080902233719826,0.0005935218650847673
1772709374868656400,3.388656494140625,0.0015849354676902294,0.00045947544276714325,0.0008044440764933825
1772709374878681300,3.398681396484375,-0.0013213683851063251,0.0004958598874509335,0.0008262938354164362
1772709374888706600,3.40870654296875,0.0005649484228342772,0.0002284785732626915,-0.00028211367316544056
1772709374898731500,3.4187314453125,-0.0002719573676586151,0.0012985439971089363,-0.002504223259165883
1772709374908756500,3.428756591796875,-0.001510061090812087,0.0009872205555438995,-0.0007705052848905325
1772709374918781200,3.43878125,0.0008669344242662191,0.00259685842320323,0.0008875757921487093
1772709374928806400,3.448806396484375,0.0022754801902920008,0.0027726278640329838,0.0010510939173400402
1772709374938831400,3.458831298828125,0.0008761852513998747,0.0018415236845612526,0.0025540394708514214
1772709374948856300,3.468856201171875,0.0007310428190976381,0.002108105458319187,0.0022107581607997417
1772709374958880500,3.478880615234375,-0.0004172495100647211,-0.000008868984878063202,0.0012443519663065672
1772709374968905500,3.488905517578125,0.0012568135280162096,0.0015943539328873158,0.0016499513294547796
1772709374978930400,3.498930419921875,0.0022405199706554413,0.0008308067917823792,0.0012304328847676516
1772709374988955400,3.508955322265625,0.0011824462562799454,-0.0005329977720975876,0.0010267009492963552
1772709374998980400,3.51898046875,0.0010554047767072916,0.000500221736729145,0.0005758965853601694
1772709375009005300,3.52900537109375,0.00032063876278698444,-0.0006718351505696774,0.0012960152234882116
1772709375019030300,3.5390302734375,0.00022372044622898102,0.0010779625736176968,0.0005696767475455999
1772709375029055200,3.54905517578125,0.00008869823068380356,-0.0019668289460241795,-0.0004151600878685713
1772709375039080400,3.55908056640625,0.0003837228287011385,-0.001124250702559948,-0.00018690596334636211
1772709375049105400,3.56910546875,0.0010841342154890299,0.0015000281855463982,0.000857852166518569
1772709375059129600,3.579129638671875,0.0006643084343522787,0.0037272851914167404,0.0012790507171303034
1772709375069154600,3.589154541015625,-0.001298441318795085,0.0022785263136029243,-0.000994489761069417
1772709375079179300,3.59917919921875,0.0016705074813216925,0.0018617636524140835,-0.001530708046630025
1772709375089204200,3.609204345703125,-0.0002544254530221224,0.0005323137156665325,-0.0010057988110929728
1772709375099229400,3.6192294921875,0.0013947610277682543,0.0007865838706493378,0.0006525532808154821
1772709375109254400,3.62925439453125,0.0019356494303792715,0.0018526474013924599,0.001693582977168262
1772709375119279400,3.639279296875,0.001221950864419341,-0.001119139138609171,0.0012026296462863684
1772709375129304300,3.64930419921875,0.002355392323806882,-0.0005249879322946072,0.0030130466911941767
1772709375139329500,3.65932958984375,0.0006346877198666334,0.0017414139583706856,0.0011762564536184072
1772709375149354500,3.6693544921875,0.00119981006719172,0.00212837103754282,0.0014636116102337837
1772709375159378200,3.679378173828125,0.00031674420461058617,0.0017433338798582554,0.0015463675372302532
1772709375169403400,3.6894033203125,0.0014930625911802053,0.0003310595639050007,-0.0014994896482676268
1772709375179428400,3.699428466796875,0.0011862420942634344,0.00102985929697752,0.0017546109156683087
1772709375189453300,3.709453369140625,-0.0006444149184972048,0.0024887388572096825,0.0018387667369097471
1772709375199478300,3.719478271484375,0.0013315028045326471,-0.0002753189764916897,0.0009779753163456917
1772709375209503500,3.72950341796875,-0.0005457594525068998,0.00018301093950867653,-0.00031019560992717743
1772709375219528400,3.739528564453125,0.0009314378257840872,-0.0007651722989976406,-0.0006789301987737417
1772709375229553400,3.749553466796875,-0.0011911012697964907,0.0007264646701514721,0.00007873913273215294
1772709375239578400,3.759578369140625,-0.000496250344440341,0.00033546891063451767,-0.0014103592839092016
1772709375249603600,3.769603515625,0.00009816722013056278,0.0008356105536222458,0.0005531893111765385
1772709375259627300,3.779627197265625,0.00017220457084476948,0.0018631001003086567,0.0005196307320147753
1772709375269652700,3.78965283203125,0.00033998372964560986,0.0004918384365737438,0.0004421328194439411
1772709375279678000,3.799677978515625,0.0010346951894462109,-0.0012348117306828499,-0.001990879187360406
1772709375289703000,3.809702880859375,0.00042776064947247505,-0.0011218939907848835,0.00009490875527262688
1772709375299728000,3.819727783203125,0.00048580742441117764,-0.00035395100712776184,0.0028789311181753874
1772709375309752800,3.8297529296875,0.00016303244046866894,0.0007291566580533981,0.0018291129963472486
1772709375319778000,3.839778076171875,0.0008737838361412287,-0.0007535945624113083,0.0009627821855247021
1772709375329803000,3.849802978515625,0.000246609328314662,-0.00020578224211931229,-0.000233776168897748
1772709375339828000,3.859827880859375,-0.0008829173166304827,-0.0008250097744166851,0.00025455979630351067
1772709375349852000,3.869851806640625,0.0007685087621212006,0.0007028458639979362,0.002048464957624674
1772709375359876900,3.879876953125,0.000552918529137969,-0.0008340752683579922,-0.00025255256332457066
1772709375369901800,3.88990185546875,0.0005332112777978182,0.0004730038344860077,0.00028327549807727337
1772709375379927000,3.899927001953125,-0.0002535886596888304,-0.00023386813700199127,-0.0005991619545966387
1772709375389952000,3.909951904296875,-0.0003204341046512127,0.0005056918598711491,0.00018700305372476578
1772709375399977000,3.91997705078125,0.0010502096265554428,-0.0014915652573108673,0.0012340075336396694
1772709375410002000,3.930001953125,0.0016193268820643425,0.0007553440518677235,0.002494481625035405
1772709375420027100,3.940027099609375,0.0009389840997755527,0.0009362632408738136,-0.0004384871572256088
1772709375430052000,3.950052001953125,-0.0005289502441883087,-0.0011609760113060474,-0.002101098420098424
1772709375440076800,3.960076904296875,0.00008704280480742455,-0.0002659866586327553,-0.0025641985703259706
1772709375450101000,3.97010107421875,0.0003184715751558542,-0.0005621300078928471,-0.0003886620979756117
1772709375460126000,3.9801259765625,0.0017799551133066416,0.00033435551449656487,0.0010556017514318228
1772709375470151000,3.99015087890625,0.0013170975726097822,0.0025455784052610397,0.0006960749160498381
1772709375480175900,4.00017578125,-0.0005216829013079405,-0.00024075573310256004,0.001898553455248475
1772709375490201000,4.010201171875,-0.0002758731134235859,-0.0008149333298206329,0.00018241233192384243
1772709375500226000,4.02022607421875,0.0014544911682605743,-0.0003958074375987053,-0.0012878149282187223
1772709375510251000,4.0302509765625,-0.0007988093420863152,-0.00012017041444778442,0.001804647850804031
1772709375520275700,4.040275634765625,0.001252520363777876,-0.00034612929448485374,0.001131563913077116
1772709375530301000,4.050301025390625,-0.00032726675271987915,-0.0016843676567077637,0.0009941449388861656
1772709375540326000,4.060325927734375,0.00030434317886829376,-0.001064981333911419,0.0008151864167302847
1772709375550350800,4.070350830078125,-0.00037609459832310677,-0.0010881507769227028,-0.0007709921337664127
1772709375560375000,4.080375,0.0010884297080338001,-0.002964053303003311,-0.001550454879179597
1772709375570400000,4.09039990234375,0.00044128159061074257,-0.0037792467046529055,0.0013444010401144624
1772709375580425000,4.100425048828125,-0.0003708938602358103,-0.00028638914227485657,0.0009353095665574074
1772709375590450200,4.1104501953125,0.00035854591988027096,0.001398326363414526,-0.0009739107917994261
1772709375600475000,4.120474853515625,0.00015791645273566246,0.00030976347625255585,-0.004054349847137928
1772709375610499800,4.130499755859375,-0.0021915242541581392,-0.0006596269086003304,-0.0034551387652754784
1772709375620524800,4.14052490234375,0.00007816380821168423,0.0009564794600009918,-0.001441856613382697
1772709375630550000,4.150550048828125,-0.0003130545374006033,0.0004925569519400597,0.001024763099849224
1772709375640575000,4.160574951171875,0.0007748466450721025,0.0001407531090080738,0.0007643059361726046
1772709375650600000,4.170599853515625,0.0005892585031688213,-0.0003934605047106743,-0.0003947624936699867
1772709375660624100,4.1806240234375,-0.000044179148972034454,-0.0011533629149198532,0.0008645642083138227
1772709375670649000,4.190649169921875,-0.0004284731112420559,-0.0007610796019434929,0.002118380507454276
1772709375680673800,4.200673828125,0.0022194930352270603,-0.0011159232817590237,0.0011244593188166618
1772709375690698800,4.21069873046875,-0.0007225011941045523,-0.0014386982657015324,-0.0008822325617074966
1772709375700724000,4.220723876953125,0.000607888912782073,-0.002214816864579916,-0.0024735683109611273
1772709375710749000,4.2307490234375,-0.001117306761443615,-0.001950098667293787,-0.0008650191593915224
1772709375720774000,4.24077392578125,0.0007254502270370722,0.0012393700890243053,0.0019122489029541612
1772709375730798800,4.250798828125,-0.0011065383441746235,-0.0001049940474331379,-0.0001378525048494339
1772709375740824000,4.260823974609375,-0.0006788014434278011,-0.0016280622221529484,-0.0009998672176152468
1772709375750849000,4.27084912109375,-0.0011869326699525118,-0.002219550311565399,-0.0027391777839511633
1772709375760873000,4.280873046875,-0.0011305685620754957,-0.002525762654840946,-0.001969365170225501
1772709375770898000,4.29089794921875,-0.0003164401277899742,-0.0002839136868715286,-0.0013983834069222212
1772709375780923000,4.3009228515625,-0.001537569798529148,-0.0010993457399308681,-0.001964953728020191
1772709375790947800,4.31094775390625,0.0010752577800303698,-0.0010000099427998066,-0.0007710587233304977
1772709375800973000,4.32097314453125,-0.0007821312174201012,0.0002581891603767872,-0.00039390847086906433
1772709375810998000,4.330998046875,-0.0006292657926678658,-0.0008512837812304497,-0.001361700939014554
1772709375821023000,4.34102294921875,0.0010548566933721304,0.00010591652244329453,-0.0012214654125273228
1772709375831048000,4.3510478515625,0.0014657822903245687,-0.0012203380465507507,0.0016520853387191892
1772709375841073200,4.3610732421875,0.00026320992037653923,-0.0018124752677977085,0.0009007127955555916
1772709375851097900,4.371097900390625,0.00046108290553092957,-0.0008569327183067799,0.002638691570609808
1772709375861121800,4.381121826171875,0.0003857577685266733,-0.0008027018047869205,0.0001334508415311575
1772709375871147000,4.39114697265625,0.0007607305888086557,-0.00040269503369927406,-0.0008513859938830137
1772709375881172000,4.401171875,-0.0000952079426497221,-0.001912145409733057,-0.0008749652188271284
1772709375891197000,4.411197021484375,0.00034501240588724613,-0.0016016210429370403,-0.0017122628632932901
1772709375901222000,4.421221923828125,0.0005586142651736736,-0.0022735283710062504,-0.00022919196635484695
1772709375911247000,4.4312470703125,-0.0007668409962207079,-0.0006956057623028755,0.0017364871455356479
1772709375921272000,4.44127197265625,-0.0010569104924798012,-0.0013181683607399464,0.00029788073152303696
1772709375931296800,4.451296875,0.0002680120524019003,-0.0018590562976896763,-0.00041984114795923233
1772709375941321700,4.46132177734375,0.0003877675626426935,-0.0002207229845225811,-0.0014295305591076612
1772709375951347000,4.471346923828125,-0.0007651150226593018,-0.0013048956170678139,-0.0016471107956022024
1772709375961371000,4.481370849609375,-0.000004670815542340279,-0.0011280681937932968,-0.001129294279962778
1772709375971396000,4.49139599609375,0.000338610727339983,-0.0015634950250387192,-0.0013239714317023754
1772709375981421000,4.501421142578125,0.0000652712769806385,-0.0011616568081080914,-0.001516684889793396
1772709375991446000,4.511446044921875,-0.0006170307751744986,0.0004040151834487915,0.0002529853954911232
1772709376001471000,4.521470947265625,0.000082825543358922,0.00016706297174096107,0.00031295744702219963
1772709376011496000,4.531495849609375,-0.0006226457189768553,0.000732185784727335,0.001339872251264751
1772709376021521000,4.54152099609375,0.0012849797494709492,-0.00004408461973071098,0.0004276321269571781
1772709376031545900,4.5515458984375,0.000053534284234046936,-0.0025956593453884125,-0.0008501524571329355
1772709376041570800,4.56157080078125,0.0005207115318626165,-0.002242580521851778,-0.0007327604107558727
1772709376051595000,4.571594970703125,0.00013828137889504433,-0.0017813211306929588,-0.00002276175655424595
1772709376061620000,4.581619873046875,0.0000038086436688899994,-0.0015304922126233578,0.002272698562592268
1772709376071645000,4.59164501953125,0.00012950971722602844,-0.0013102488592267036,-0.0005526489112526178
1772709376081670100,4.601670166015625,-0.0010623200796544552,-0.003724239533767104,-0.0008239541202783585
1772709376091694800,4.61169482421875,-0.0007131798192858696,-0.004682711325585842,-0.004365425556898117
1772709376101719800,4.6217197265625,-0.0015339166857302189,-0.0001882198266685009,-0.0030752047896385193
1772709376111744800,4.631744873046875,0.00042164232581853867,-0.00022337352856993675,-0.0019755857065320015
1772709376121770000,4.64177001953125,-0.0004666568711400032,0.00003905780613422394,-0.0011129691265523434
1772709376131795000,4.651794921875,-0.0012887746561318636,0.001682761125266552,-0.0024605286307632923
1772709376141820000,4.66181982421875,0.0010233784560114145,0.0005704858340322971,-0.0024475434329360723
1772709376151844000,4.671843994140625,-0.0008408341091126204,-0.0010476503521203995,-0.002519448520615697
1772709376161869000,4.681869140625,-0.0019232589984312654,-0.0012917136773467064,0.00007023313082754612
1772709376171893800,4.691893798828125,0.0006405659951269627,-0.000005939509719610214,0.000516579020768404
1772709376181919000,4.7019189453125,0.0006296052597463131,-0.001422801986336708,-0.000388547545298934
1772709376191944000,4.71194384765625,0.00039498088881373405,-0.002436667215079069,-0.0002689715474843979
1772709376201969000,4.721968994140625,0.0015698522329330444,-0.0018469225615262985,0.0002986981999129057
1772709376211993900,4.731993896484375,-0.000305812107399106,0.0013142493553459644,-0.0006786822341382504
1772709376222019000,4.74201904296875,0.0004627741873264313,0.0009132931008934975,-0.000688713975250721
1772709376232044000,4.7520439453125,0.000059571582823991776,-0.0011091111227869987,-0.0022357446141541004
1772709376242068000,4.76206787109375,-0.0001434034202247858,-0.0019137784838676453,-0.0013234384823590517
1772709376252093000,4.772093017578125,-0.002078456338495016,-0.0009899279102683067,-0.000964178005233407
1772709376262118000,4.782117919921875,-0.0008225319907069206,0.0004498469643294811,-0.00019047735258936882
1772709376272142800,4.792142822265625,-0.0010182743426412344,-0.0017688325606286526,-0.0010693203657865524
1772709376282167800,4.802167724609375,-0.0009841755963861942,-0.001851340290158987,-0.0012176139280200005
1772709376292192800,4.81219287109375,-0.0024126952048391104,-0.0009088478982448578,-0.001841059885919094
1772709376302217700,4.8222177734375,-0.0004434764850884676,-0.000014350749552249908,-0.0017202470917254686
1772709376312242700,4.83224267578125,-0.0008839634247124195,-0.000486528966575861,-0.0026757896412163973
1772709376322267600,4.842267578125,-0.0013477406464517117,0.0006747129373252392,-0.0013988125137984753
1772709376332292900,4.85229296875,-0.0016113936435431242,-0.0018465016037225723,-0.0032033706083893776
1772709376342316800,4.86231689453125,-0.0008845692500472069,-0.001800356898456812,-0.004060356877744198
1772709376352342000,4.872342041015625,-0.001777260797098279,-0.0012770458124578,-0.0008131640497595072
1772709376362367000,4.882366943359375,-0.0016594523331150413,-0.0007883161306381226,0.0007200159598141909
1772709376372391700,4.8923916015625,-0.000017080921679735184,-0.001477009616792202,0.0014664999907836318
1772709376382416600,4.902416748046875,0.0006003533490002155,-0.0018663904629647732,0.00036269985139369965
1772709376392441900,4.91244189453125,-0.00032163294963538647,-0.00017554964870214462,-0.001822956372052431
1772709376402466800,4.922466796875,-0.0019510856363922358,0.0002719564363360405,-0.001790870213881135
1772709376412491800,4.93249169921875,-0.00039739743806421757,-0.0009267320856451988,0.000990535132586956
1772709376422516700,4.942516845703125,-0.00034311553463339806,-0.0008382783271372318,0.0010282613802701235
1772709376432542000,4.9525419921875,-0.00041874940507113934,0.0006453688256442547,-0.0004058508202433586
1772709376442566000,4.96256591796875,0.0003706228453665972,-0.000880582258105278,-0.00018609967082738876
1772709376452590600,4.972590576171875,-0.0025471365079283714,-0.002498718909919262,-0.0022271464113146067
1772709376462615800,4.98261572265625,-0.0013505667448043823,-0.000674316193908453,-0.0010366523638367653
1772709376472640800,4.992640869140625,-0.0008237934671342373,0.0005842936225235462,-0.0010659471154212952
1772709376482665700,5.002665771484375,-0.0009658485651016235,-0.0005437307991087437,-0.002333236625418067
1772709376492690700,5.012690673828125,-0.0006617156323045492,-0.0016662529669702053,-0.0025255170185118914
1772709376502716000,5.0227158203125,0.0016795014962553978,-0.0003313245251774788,-0.0013880992773920298
1772709376512740900,5.032740966796875,-0.0011154862586408854,0.0021206485107541084,0.00013815821148455143
1772709376522765800,5.042765869140625,0.00025408132933080196,0.000790806021541357,-0.0003080712631344795
1772709376532790800,5.052790771484375,0.0004980266094207764,0.0006941338069736958,0.0010458799079060555
1772709376542814700,5.062814697265625,0.0012535273563116789,0.001968744210898876,0.0000021131709218025208
1772709376552839700,5.072839599609375,-0.0006162780337035656,-0.00035539641976356506,-0.0001070764847099781
1772709376562865000,5.082864990234375,0.0006007282063364983,-0.0007446515373885632,-0.0006897295825183392
1772709376572889900,5.092889892578125,0.000644403975456953,0.002979513257741928,0.0012218875344842672
1772709376582914800,5.102914794921875,0.0019454096909612417,0.0002776915207505226,0.005175035446882248
1772709376592939800,5.112939697265625,-0.0007912544533610344,0.0012388266623020172,0.0052751703187823296
1772709376602965000,5.122965087890625,0.0014533542562276125,0.0006913589313626289,0.0008580314461141825
1772709376612990000,5.132989990234375,0.000983039615675807,-0.0017920383252203465,-0.0016916790045797825
1772709376623015000,5.143014892578125,0.0018699921201914549,-0.000665116123855114,-0.0023294149432331324
1772709376633038800,5.153038818359375,0.0009581258054822683,0.0008725933730602264,0.00155054428614676
1772709376643063800,5.163063720703125,0.0019326333422213793,0.00451525067910552,0.0033593098632991314
1772709376653088800,5.1730888671875,-0.00013957242481410503,0.004354129079729319,0.0008564712479710579
1772709376663113700,5.18311376953125,0.0007407418452203274,0.0018968475051224232,-0.0021188356913626194
1772709376673139000,5.193138916015625,0.002195892855525017,0.0008217296563088894,-0.0018810154870152473
1772709376683164000,5.203163818359375,0.0007281964644789696,0.004291485529392958,0.0028501739725470543
1772709376693188900,5.21318896484375,0.0015724184922873974,0.0030858726240694523,0.00408641342073679
1772709376703213600,5.223213623046875,0.001710235606878996,-0.0002351687289774418,0.0016879739705473185
1772709376713238800,5.23323876953125,0.0006670751608908176,0.00029986025765538216,-0.0006377645768225193
1772709376723262700,5.2432626953125,0.0007308910135179758,0.0015482432208955288,0.002035181038081646
1772709376733288000,5.253287841796875,0.00013540824875235558,0.004108340013772249,0.0027284016832709312
1772709376743313000,5.26331298828125,0.0005487182643264532,0.0032965796999633312,0.0000010158400982618332
1772709376753337900,5.273337890625,0.001979901222512126,0.0008909464813768864,-0.000005109468474984169
1772709376763362800,5.28336279296875,0.0002012522891163826,0.0019536963663995266,-0.0004909541457891464
1772709376773388000,5.293387939453125,0.0010539961513131857,0.002168613951653242,0.0014941660920158029
1772709376783412700,5.303412841796875,-0.0012337199877947569,0.002216245047748089,0.0014673233963549137
1772709376793437700,5.313437744140625,-0.0005879034288227558,0.0014007855206727982,-0.00037904619239270687
1772709376812859600,5.332859619140625,-0.0006393252406269312,0.00000867992639541626,0.000014371471479535103
1772709376822884900,5.342884765625,-0.00015702680684626102,0.0007040309719741344,0.000995479989796877
1772709376832909800,5.352909912109375,-0.0008752860594540834,0.0003950665704905987,-0.001955074956640601
1772709376842934800,5.362934814453125,0.0012941251043230295,0.00022595562040805817,0.000006609596312046051
1772709376852959700,5.372959716796875,-0.0005538919940590858,0.0007733036763966084,0.00029156263917684555
1772709376862985000,5.38298486328125,0.0003236194606870413,0.0010494734160602093,0.000018588732928037643
1772709376873008600,5.393008544921875,0.0012705461122095585,0.000921251717954874,0.0004486523102968931
1772709376883033900,5.403033935546875,0.0022647040896117687,0.0012019486166536808,0.0013842207845300436
1772709376893058800,5.413058837890625,0.0025914881844073534,0.0017765592783689499,0.0009394846856594086
1772709376903083800,5.423083740234375,0.0010348705109208822,0.0014612413942813873,0.0015056728152558208
1772709376913108700,5.433108642578125,-0.00036833668127655983,0.002065491396933794,0.0030770383309572935
1772709376923134000,5.443134033203125,-0.00036221137270331383,-0.0002602473832666874,0.0021105771884322166
1772709376933159000,5.453158935546875,0.0009523141197860241,0.00046644313260912895,0.0005759894847869873
1772709376943184000,5.463183837890625,0.00022606994025409222,0.0005532624199986458,-0.000030145980417728424
1772709376953208800,5.473208740234375,0.00022278469987213612,0.00024062162265181541,0.0005221441388130188
1772709376963232800,5.483232666015625,0.0004797796718776226,0.0009096073918044567,0.0011895322240889072
1772709376973257700,5.4932578125,0.0010365662164986134,0.0005945605225861073,0.0007674486842006445
1772709376983282700,5.50328271484375,-0.0009038127027451992,0.0008962969295680523,0.0002460016403347254
1772709376993308000,5.513307861328125,0.0008026864379644394,-0.0005103824660181999,0.0009953139815479517
1772709377003332900,5.523332763671875,0.0004719216376543045,-0.0003718980588018894,-0.0012089842930436134
1772709377013357800,5.53335791015625,0.0002758174668997526,0.001187936868518591,-0.0019703577272593975
1772709377023382800,5.5433828125,-0.0004544213879853487,0.0005562347359955311,-0.0014086971059441566
1772709377033408000,5.553407958984375,0.0008487505838274956,0.0002929260954260826,-0.002006652532145381
1772709377043432700,5.5634326171875,0.0007480829954147339,0.002312134951353073,-0.0003195398021489382
1772709377053457000,5.573456787109375,0.0002954211086034775,0.0013957270421087742,-0.0005153170786798
1772709377063481900,5.58348193359375,-0.00026224483735859394,0.0025249081663787365,-0.00012303353287279606
1772709377073506800,5.5935068359375,0.0008502809796482325,0.0027950387448072433,0.0013365831691771746
1772709377083531800,5.60353173828125,0.0014990272466093302,-0.001395978033542633,-0.00038275355473160744
1772709377093557000,5.613556884765625,0.00009793206118047237,-0.0004928098060190678,0.0007044738158583641
1772709377103582000,5.62358203125,0.00042044068686664104,0.0016366541385650635,0.0012565471697598696
1772709377113606700,5.633606689453125,0.0007045918609946966,0.0018379762768745422,0.0002048257738351822
1772709377123631600,5.643631591796875,0.0014585328754037619,0.0014318441972136497,0.0006423832383006811
1772709377133656800,5.65365673828125,0.0006975047290325165,-0.0006791632622480392,0.0022026486694812775
1772709377143680800,5.6636806640625,-0.00031982269138097763,-0.000220566987991333,0.0007022237405180931
1772709377163104800,5.683104736328125,0.0014001675881445408,-0.0010201474651694298,0.001710376120172441
1772709377173129700,5.693129638671875,0.0006144619546830654,-0.0009673871099948883,0.0020920997485518456
1772709377183155000,5.703155029296875,-0.0008462821133434772,0.0031088469550013542,0.0003037871792912483
1772709377193180000,5.713179931640625,-0.0016096718609333038,0.003637379501014948,-0.002535037463530898
1772709377203204900,5.723204833984375,0.00028490088880062103,0.0015465323813259602,-0.002824789611622691
1772709377213229800,5.733229736328125,0.00023962324485182762,0.0024063880555331707,-0.0021267086267471313
1772709377223255000,5.743255126953125,0.0011411032173782587,0.001566427294164896,0.001247782725840807
1772709377233279700,5.75327978515625,0.00107852416113019,0.0019243070855736732,0.0000039101578295230865
1772709377243303700,5.7633037109375,-0.00011909939348697662,-0.0002440386451780796,0.00007395120337605476
1772709377253329000,5.773328857421875,-0.00016454397700726986,-0.0005039433017373085,0.0008141607977449894
1772709377263353900,5.783353759765625,-0.0005807960405945778,0.001183168962597847,0.0021294960752129555
1772709377273378600,5.793378662109375,0.001004947116598487,0.002935548312962055,0.0019559753127396107
1772709377283403500,5.803403564453125,0.000688829692080617,0.002043389715254307,-0.0008792260196059942
1772709377293428700,5.8134287109375,-0.00023006764240562916,0.0014060460962355137,0.00026018056087195873
1772709377303453700,5.82345361328125,0.00009856652468442917,0.0008358634077012539,-0.0009046860504895449
1772709377313478700,5.833478759765625,-0.0007249719928950071,0.0016218340024352074,0.0026853301096707582
1772709377323503600,5.843503662109375,-0.0006645182147622108,0.0005224808119237423,0.001491434988565743
1772709377333528800,5.85352880859375,-0.00023391051217913628,-0.0016611036844551563,-0.0015917918644845486
1772709377343552500,5.863552490234375,-0.0015407237224280834,0.0010222969576716423,-0.001513228751718998
1772709377353577700,5.87357763671875,-0.000466684577986598,-0.0000768713653087616,-0.00026406743563711643
1772709377363602700,5.883602783203125,-0.0009527115616947412,-0.0008494546636939049,0.00151625566650182
1772709377373627600,5.893627685546875,0.001785381231456995,-0.0012595616281032562,0.00004231324419379234
1772709377383652600,5.903652587890625,0.0007864297367632389,0.0013873539865016937,-0.0013324106112122536
1772709377393677800,5.913677734375,-0.0004907662514597178,0.0010081124491989613,0.0006794801447540522
1772709377403702800,5.923702880859375,0.00135373929515481,-0.000764753669500351,-0.0011333338916301727
1772709377413727700,5.933727783203125,0.0012389991898089647,-0.0006307703442871571,0.00037213019095361233
1772709377423752400,5.94375244140625,0.0019037241581827402,0.0017740637995302677,0.0022491260897368193
1772709377433776600,5.953776611328125,0.0004269734490662813,0.0007495488971471786,0.0019165610428899527
1772709377443801600,5.963801513671875,0.0014187346678227186,-0.00014553917571902275,0.002247325610369444
1772709377453826600,5.97382666015625,0.0010676190722733736,-0.0009884783066809177,-0.00015127751976251602
1772709377463851800,5.983851806640625,0.00018344959244132042,0.0013026390224695206,-0.00018190382979810238
1772709377473876700,5.993876708984375,0.00016131694428622723,0.00139718409627676,0.0009385521989315748
1772709377483901700,6.003901611328125,0.0006457457784563303,-0.0006902012974023819,0.0009401501156389713
1772709377493926400,6.013926513671875,-0.00008775992318987846,-0.0003170534037053585,-0.0010220985859632492
1772709377503951600,6.02395166015625,0.00007868767715990543,0.00014207558706402779,0.0006937759462743998
1772709377513976600,6.0339765625,-0.00008702161721885204,0.0010951370932161808,0.0007621555123478174
1772709377524001500,6.04400146484375,-0.00022550602443516254,0.0009915395639836788,0.0002436379436403513
1772709377534025700,6.054025634765625,-0.0006080984603613615,0.0009170202538371086,0.0006145094521343708
1772709377544050700,6.06405078125,0.001808720175176859,-0.0010683662258088589,0.0009825581219047308
1772709377554075600,6.07407568359375,-0.0004848612006753683,-0.0003765001893043518,-0.0010717189870774746
1772709377564100900,6.084100830078125,0.0009162279311567545,-0.00186893530189991,-0.0011129979975521564
1772709377574125600,6.09412548828125,-0.0003353056963533163,0.00006666313856840134,0.0008902212139219046
1772709377584150500,6.104150634765625,0.0009549956303089857,0.0007151425816118717,0.0009967477526515722
1772709377594175500,6.114175537109375,0.0011646407656371593,0.0013125445693731308,0.0017999788979068398
1772709377604200700,6.12420068359375,-0.00019623455591499805,-0.00020492495968937874,0.002582681830972433
1772709377614225700,6.1342255859375,0.001869383966550231,0.00040197093039751053,-0.00027565774507820606
1772709377624250600,6.144250732421875,0.00039079668931663036,-0.0028279107064008713,-0.0006181404460221529
1772709377634274800,6.15427490234375,-0.00000245729461312294,-0.0005703037604689598,0.00030633527785539627
1772709377644299800,6.1642998046875,-0.0016520192148163915,0.0012113507837057114,0.0003822352737188339
1772709377654324500,6.174324462890625,-0.00046044704504311085,0.0005754940211772919,0.0012736024800688028
1772709377664349400,6.184349365234375,0.000996035523712635,-0.00018111011013388634,0.0028435359708964825
1772709377674374700,6.194374755859375,0.0001596182119101286,-0.0008327732793986797,-0.0001001956406980753
1772709377684399600,6.204399658203125,0.0001353833358734846,-0.0019915145821869373,-0.001149747520685196
1772709377694424600,6.214424560546875,-0.00012974906712770462,-0.0021685641258955,-0.0017563053406774998
1772709377704449500,6.224449462890625,0.00038610538467764854,-0.0017765467055141926,0.003231528913602233
1772709377714474800,6.234474853515625,0.001071293605491519,0.000052733346819877625,0.0010950507130473852
1772709377724498700,6.244498779296875,-0.00021527963690459728,0.003428822383284569,-0.0007316113915294409
1772709377734523600,6.254523681640625,-0.0005023789126425982,0.0005920496769249439,-0.003900895593687892
1772709377744548600,6.264548583984375,-0.00046935584396123886,0.0015646363608539104,-0.0032577423844486475
1772709377754573600,6.274573486328125,-0.0008983484003692865,0.00022502988576889038,0.0006545365322381258
1772709377764598500,6.2845986328125,-0.0005864922422915697,0.0016173310577869415,0.0014393700985237956
1772709377774623700,6.294623779296875,0.0006839793641120195,0.0005595185793936253,-0.00009906082414090633
1772709377784648700,6.304648681640625,-0.0003426691982895136,-0.00021652644500136375,-0.0009597947355359793
1772709377794673700,6.314673583984375,0.0012939686421304941,-0.00087345065549016,0.0003115357831120491
1772709377804698600,6.32469873046875,0.0012556191068142653,0.00006105238571763039,0.001494778087362647
1772709377814722600,6.33472265625,0.00048711453564465046,0.0025545540265738964,0.0008098138496279716
1772709377824747500,6.34474755859375,-0.0009043868631124496,-0.0001000845804810524,0.000044687651097774506
1772709377834772500,6.3547724609375,-0.0006433690432459116,-0.001281199511140585,-0.002190300729125738
1772709377844797700,6.364797607421875,0.0012538670562207699,0.001602204516530037,0.0006598141044378281
1772709377854822700,6.37482275390625,0.00014540762640535831,0.0011580572463572025,0.0006358579266816378
1772709377864847600,6.38484765625,0.0006740451790392399,-0.002419633325189352,0.0001088182907551527
1772709377874872600,6.39487255859375,0.0006311633624136448,-0.0009738639928400517,-0.0006466051563620567
1772709377884897800,6.404897705078125,-0.0012125428766012192,-0.00212275143712759,-0.001063656061887741
1772709377894922800,6.4149228515625,-0.0013859642203897238,-0.001580054871737957,-0.0011507626622915268
1772709377904947700,6.42494775390625,0.00026652729138731956,-0.0002298322506248951,-0.0007499568164348602
1772709377914971600,6.4349716796875,-0.0005972413346171379,-0.00040985364466905594,-0.0011031965259462595
1772709377924996600,6.44499658203125,-0.00032826210372149944,0.00023676175624132156,-0.00073035410605371
1772709377935021600,6.455021484375,-0.00040977844037115574,-0.0003077583387494087,0.00040493952110409737
1772709377945046800,6.465046875,-0.0002316129393875599,-0.002421775832772255,0.00027497741393744946
1772709377955071700,6.47507177734375,0.0005190831143409014,-0.0010765939950942993,-0.00005007069557905197
1772709377965096700,6.4850966796875,0.0009518468286842108,-0.0004462236538529396,-0.0006455536931753159
1772709377975121700,6.49512158203125,-0.0007549519650638103,0.0004767999053001404,0.00100458855740726
1772709377985147000,6.50514697265625,0.00046983547508716583,-0.001581291202455759,0.0017947484739124775
1772709377995171600,6.515171630859375,0.0018088063225150108,-0.0020843474194407463,-0.0003578795585781336
1772709378005195500,6.525195556640625,0.00015258626081049442,-0.000894980039447546,-0.0006377776153385639
1772709378015220700,6.535220703125,0.00020464672707021236,0.0007108030840754509,-0.0005387803539633751
1772709378025245700,6.54524560546875,-0.0005021560937166214,-0.001019453164190054,-0.0006285288836807013
1772709378035270700,6.555270751953125,0.00019522104412317276,-0.0009593283757567406,-0.0005021248944103718
1772709378045295600,6.565295654296875,-0.00029719737358391285,-0.000905799213796854,-0.00044273631647229195
1772709378055320800,6.57532080078125,-0.0005204048939049244,-0.0012116222642362118,-0.0010005435906350613
1772709378065345500,6.585345458984375,-0.00166769465431571,-0.0021205591037869453,0.000918530160561204
1772709378075370500,6.59537060546875,-0.0002660364843904972,-0.0008649132214486599,-0.0009601190686225891
1772709378085395500,6.6053955078125,-0.002038370119407773,-0.0008489340543746948,-0.0005571830552071333
1772709378095420700,6.615420654296875,-0.0008140755817294121,-0.0015009092167019844,-0.0020704087801277637
1772709378105444600,6.625444580078125,-0.0003655992913991213,-0.0031366227194666862,-0.0018296591006219387
1772709378115469600,6.635469482421875,-0.00025451858527958393,-0.0008535669185221195,0.00013162451796233654
1772709378125494800,6.645494873046875,-0.0005498633254319429,0.0002974513918161392,-0.000646284781396389
1772709378135519700,6.655519775390625,-0.0020405654795467854,0.0005948110483586788,0.00002551870420575142
1772709378145544400,6.66554443359375,0.0013605577405542135,-0.00035913288593292236,0.001074271509423852
1772709378155569700,6.675569580078125,-0.00008715828880667686,-0.0015385588631033897,0.002201478462666273
1772709378165594600,6.6855947265625,-0.0009630720596760511,-0.0013769050128757954,-0.0008382534142583609
1772709378175619600,6.69561962890625,-0.0016999081708490849,-0.0016614352352917194,-0.0004403300117701292
1772709378185644500,6.70564453125,-0.0003251845482736826,-0.003219917416572571,0.000684589147567749
1772709378195669800,6.715669677734375,-0.002312957774847746,-0.0003589726984500885,0.0025547496043145657
1772709378205693700,6.725693603515625,0.0006852287333458662,-0.0015004035085439682,0.0018852310022339225
1772709378215718700,6.73571875,-0.00046829553321003914,-0.002136938739567995,0.0004775002598762512
1772709378225743600,6.74574365234375,-0.00008133822120726109,-0.0007829875685274601,-0.0007347709033638239
1772709378235768600,6.7557685546875,-0.0007775439880788326,-0.004229562357068062,-0.0020227073691785336
1772709378245793500,6.76579345703125,-0.0001261348370462656,-0.002333391457796097,-0.002990500070154667
1772709378255818500,6.775818603515625,-0.0010545530822128057,-0.0007214238867163658,-0.0009978374000638723
1772709378265844000,6.785843994140625,-0.0003347005695104599,0.001032268162816763,0.0008440047968178988
1772709378275869000,6.795868896484375,-0.0005796109326183796,0.00319640152156353,-0.003893067827448249
1772709378285894000,6.805893798828125,-0.00005896296352148056,0.0006893016397953033,-0.0025881186593323946
1772709378295918000,6.81591796875,-0.0013329305220395327,-0.0003788755275309086,-0.002234008861705661
1772709378305943000,6.825943115234375,-0.0009691428858786821,-0.0005216207355260849,0.0003777530509978533
1772709378315968000,6.835968017578125,0.0008460371755063534,0.0006321948021650314,0.0007760990411043167
1772709378325992700,6.84599267578125,0.000014065532013773918,-0.00002507353201508522,-0.0002795781474560499
1772709378336018000,6.856017822265625,-0.0007077879272401333,-0.0012957588769495487,-0.0002602750901132822
1772709378346043000,6.86604296875,0.00010128039866685867,-0.0026803361251950264,0.0010460054036229849
1772709378356067800,6.87606787109375,-0.000456538749858737,0.0015420089475810528,0.0004849168471992016
1772709378366092800,6.8860927734375,-0.00008848984725773335,0.0015523950569331646,-0.0005092411302030087
1772709378376118000,6.896117919921875,0.0008229664526879787,-0.00011647073552012444,-0.002265308750793338
1772709378386143000,6.90614306640625,-0.00004921876825392246,-0.002402261830866337,-0.0008069619070738554
1772709378396167000,6.9161669921875,-0.0011438708752393723,-0.0007548141293227673,-0.0007220739498734474
1772709378406191900,6.92619189453125,-0.0013766312040388584,-0.00015001045539975166,-0.0003188715782016516
1772709378416216800,6.936216796875,-0.0021196657326072454,-0.00024767452850937843,-0.0016933302395045757
1772709378426241800,6.94624169921875,0.00018743076361715794,-0.0014415695331990719,-0.001323683187365532
1772709378436267000,6.95626708984375,-0.0005039740353822708,-0.0011159838177263737,-0.0014463569968938828
1772709378446292000,6.9662919921875,-0.0003857295960187912,0.0015831300988793373,-0.001665002666413784
1772709378456317000,6.97631689453125,-0.001873282133601606,-0.00003219395875930786,-0.0005863839760422707
1772709378466342000,6.986341796875,-0.00139764160849154,-0.000474544707685709,-0.00034616701304912567
1772709378476367000,6.9963671875,-0.0004688000772148371,-0.0012364517897367477,0.00026604742743074894
1772709378486390800,7.006390869140625,-0.00016546598635613918,-0.00014801789075136185,0.0012383675202727318
1772709378496415700,7.016415771484375,-0.001624368829652667,-0.00006423937156796455,-0.001957475207746029
1772709378506441000,7.02644091796875,-0.0005726865492761135,0.0004934263415634632,0.0006407047621905804
1772709378516466000,7.0364658203125,0.000983277801424265,-0.00013345805928111076,0.00237412191927433
1772709378526491000,7.046490966796875,0.001182215753942728,-0.00035636452957987785,0.00046303775161504745
1772709378536515800,7.056515869140625,0.00045209797099232674,0.0003187437541782856,-0.00006010872311890125
1772709378546541000,7.066541015625,0.000035046832635998726,-0.001135342288762331,-0.00041777128353714943
1772709378556566000,7.07656591796875,-0.0009718094952404499,0.00019819848239421844,-0.000435112277045846
1772709378566591000,7.086591064453125,0.0007017208263278008,-0.0009815818630158901,-0.00030142138712108135
1772709378576616000,7.096615966796875,0.0009398371912539005,0.0005403109826147556,-0.000479827169328928
1772709378586640000,7.106639892578125,-0.00017975596711039543,-0.0006538503803312778,0.0006317764054983854
1772709378596664800,7.116664794921875,-0.00017361296340823174,-0.002022014930844307,-0.001516543561592698
1772709378606690000,7.12668994140625,-0.00003725895658135414,0.00022382894530892372,-0.001820410368964076
1772709378616715000,7.136715087890625,-0.00008670100942254066,-0.0001260475255548954,-0.000879575265571475
1772709378626740000,7.146739990234375,-0.002157574985176325,0.0015946212224662304,-0.0012963602785021067
1772709378636765000,7.156764892578125,0.000024724751710891724,-0.000729917548596859,-0.0027903709560632706
1772709378646790100,7.1667900390625,-0.00036889035254716873,0.0010509383864700794,-0.0029869121499359608
1772709378656815000,7.176815185546875,-0.00041399430483579636,0.0003109648823738098,-0.0016275369562208652
1772709378666839800,7.18683984375,0.0005458090454339981,0.0017357557080686092,-0.0009817206300795078
1772709378676864800,7.19686474609375,-0.0006277910433709621,0.0010244748555123806,0.000476272776722908
1772709378686889000,7.206888916015625,-0.00005467887967824936,0.0035390309058129787,0.00125498091802001
1772709378696914000,7.216913818359375,0.0001127137802541256,0.0024429019540548325,0.0002792016603052616
1772709378706939000,7.22693896484375,0.00018674973398447037,0.0005483292043209076,-0.0004097579512745142
1772709378716964000,7.236964111328125,-0.00006996653974056244,-0.0022451691329479218,-0.0007990412414073944
1772709378726989000,7.246989013671875,-0.00008035288192331791,0.0006624697707593441,0.0009650364518165588
1772709378737013800,7.257013671875,0.0003806883469223976,0.0004430711269378662,0.004155324772000313
1772709378747038700,7.267038818359375,0.0003029238432645798,0.00021324027329683304,0.004461055621504784
1772709378757064000,7.27706396484375,0.00221730163320899,0.0007589408196508884,0.001954872626811266
1772709378767089000,7.2870888671875,-0.001500205136835575,0.00003988761454820633,-0.0016212200280278921
1772709378777113900,7.29711376953125,-0.00014785933308303356,-0.002454876434057951,-0.0037658954970538616
1772709378787138000,7.307137939453125,0.00013337028212845325,0.0020631765946745872,-0.0006771613843739033
1772709378797163000,7.3171630859375,0.0021973582915961742,0.0023777219466865063,0.002536453539505601
1772709378807188000,7.32718798828125,-0.00047539034858345985,0.0020480225794017315,0.0020293877460062504
1772709378817213000,7.337212890625,0.00016291276551783085,0.0034320740960538387,-0.0011628156062215567
1772709378827238000,7.34723779296875,-0.0011167360935360193,0.002105820458382368,-0.003463254077360034
1772709378837262800,7.357262939453125,0.000818667933344841,0.0022794483229517937,-0.000010390998795628548
1772709378847287800,7.367287841796875,0.0030613159760832787,0.0036738794296979904,0.0028666220605373383
1772709378857313000,7.37731298828125,0.0006606113165616989,0.0015331851318478584,0.0038441731594502926
1772709378867338000,7.387337890625,0.00324014900252223,-0.001254878006875515,0.002419115509837866
1772709378877363000,7.397363037109375,0.0008262258488684893,0.0004029129631817341,0.0011525379959493876
1772709378887387100,7.40738720703125,-0.00012612063437700272,0.0029784557409584522,0.0003077832516282797
1772709378897411800,7.417411865234375,0.0017711524851620197,0.0028589977882802486,0.0007303301244974136
1772709378907436800,7.427436767578125,0.00044649653136730194,0.00193381542339921,-0.000982348807156086
1772709378917461800,7.437461669921875,-0.0001291793305426836,0.001493819523602724,-0.002785873832181096
1772709378927487000,7.447487060546875,-0.00031799753196537495,0.0011081933043897152,-0.00022098352201282978
1772709378937512000,7.457511962890625,0.0006039037834852934,0.001954555045813322,0.0011906838044524193
1772709378947537000,7.467536865234375,0.00013092649169266224,0.002393977250903845,0.0019049436086788774
1772709378957561900,7.477561767578125,0.0001883944496512413,-0.000960533507168293,0.000975361792370677
1772709378967587000,7.487587158203125,0.0006866718176752329,0.0017870496958494186,-0.0007490348070859909
1772709378977610800,7.49761083984375,-0.000598246930167079,0.00033748382702469826,0.0004247587639838457
1772709378987636000,7.507635986328125,0.00019004871137440205,0.0011588032357394695,0.0004705649334937334
1772709378997661000,7.517660888671875,0.0015516947023570538,0.0016466975212097168,0.0007129765581339598
1772709379007686000,7.527685791015625,0.0006177239120006561,0.0027585672214627266,0.0019619991071522236
1772709379017710800,7.5377109375,0.0008656643331050873,0.0009529441595077515,0.00034705805592238903
1772709379027736000,7.547736083984375,0.0001210446935147047,-0.0011730575934052467,-0.00012405496090650558
1772709379037761000,7.557760986328125,0.001199778402224183,-0.0008907490409910679,0.002163057215511799
1772709379047786000,7.567785888671875,0.0005702071357518435,0.0033034631051123142,0.001205118140205741
1772709379057811000,7.57781103515625,0.0021931654773652554,0.0026693609543144703,0.002720659365877509
1772709379067836200,7.587836181640625,-0.0004313797689974308,0.00020700227469205856,0.00339603703469038
1772709379077859800,7.59785986328125,-0.00042009144090116024,0.0018479996360838413,0.0007898355834186077
1772709379087884800,7.607884765625,0.0002712649293243885,0.0017979326657950878,0.00015653599984943867
1772709379097910000,7.617909912109375,-0.0006438018754124641,0.002133552450686693,0.001178540289402008
1772709379107935000,7.62793505859375,-0.0009492663666605949,0.0012579052709043026,0.0011820022482424974
1772709379117960000,7.6379599609375,-0.0005284722428768873,0.0010847668163478374,0.001552607398480177
1772709379127985000,7.64798486328125,-0.0005151564255356789,0.0015923655591905117,0.0005275567527860403
1772709379138010000,7.658010009765625,0.00009169336408376694,-0.0007189824245870113,0.0006718258373439312
1772709379148035000,7.66803515625,0.0004187293816357851,0.0008850395679473877,-0.0003992975689470768
1772709379158059800,7.678059814453125,-0.0005512724164873362,-0.0006564692594110966,0.0003243375103920698
1772709379168084000,7.688083984375,0.000637562945485115,-0.0010785805061459541,0.000043107662349939346
1772709379178109000,7.69810888671875,-0.00035446020774543285,0.0009848237968981266,0.0006268618162721395
1772709379188134000,7.7081337890625,0.0009872403461486101,0.000288406852632761,-0.0006839458364993334
1772709379198159000,7.7181591796875,-0.00022819102741777897,-0.0005058227106928825,0.00048705795779824257
1772709379208184000,7.72818408203125,0.0011393420863896608,0.0023956913501024246,0.0006061012391000986
1772709379218209000,7.738208984375,0.0009750479366630316,0.0010862192139029503,0.0009969682432711124
1772709379228234000,7.74823388671875,0.0009633300360292196,0.0021224552765488625,0.0014521024422720075
1772709379238259000,7.758259033203125,0.0017319428734481335,0.001497405581176281,0.002373698865994811
1772709379248284000,7.768283935546875,0.0004277927801012993,0.0014044614508748055,0.0015712884487584233
1772709379258307800,7.778307861328125,-0.00015574577264487743,-0.0003837691619992256,0.0016499684425070882
1772709379268332300,7.788332275390625,0.0011792969889938831,-0.001038107555359602,0.0003554057329893112
1772709379278357200,7.798357177734375,-0.00026973173953592777,0.0017854408361017704,0.0017690564272925258
1772709379288382200,7.80838232421875,-0.0021821476984769106,0.0011904905550181866,0.001957342028617859
1772709379298407400,7.818407470703125,0.0010185048449784517,0.0004127561114728451,0.0010228620376437902
1772709379308432400,7.828432373046875,0.0003260828088968992,-0.00014224648475646973,0.0024724206887185574
1772709379318457300,7.838457275390625,0.0011175943072885275,-0.0003574029542505741,-0.0001545366831123829
1772709379328482000,7.84848193359375,-0.00037910230457782745,-0.001486050896346569,-0.0039050665218383074
1772709379338507300,7.85850732421875,0.000653653871268034,-0.0014155646786093712,-0.0009088632650673389
1772709379348532200,7.8685322265625,0.001420910470187664,0.0026247166097164154,0.0011039539240300655
1772709379358556200,7.87855615234375,0.00028333254158496857,0.0029665534384548664,0.0011796427424997091
1772709379368581400,7.888581298828125,-0.0005419810768216848,0.0028123571537435055,-0.0009650010615587234
1772709379378606300,7.8986064453125,0.0004271017387509346,0.0014762450009584427,-0.003619529539719224
1772709379388631300,7.90863134765625,-0.0008855704218149185,0.0012296363711357117,-0.00180538441054523
1772709379398656300,7.91865625,0.0007731800433248281,0.0034507992677390575,0.004528647288680077
1772709379408681200,7.92868115234375,0.0017074171919375658,0.010978490114212036,0.020089229568839073
1772709379418706200,7.9387060546875,0.0021302627865225077,0.014976912178099155,0.03473565727472305
1772709379428731100,7.948731201171875,0.001498294761404395,0.018213719129562378,0.04505886882543564
1772709379438756400,7.95875634765625,0.0009774162899702787,0.009763816371560097,0.03673012927174568
1772709379448781300,7.96878125,0.0008565087337046862,0.0033059166744351387,0.019019844010472298
1772709379458805200,7.97880517578125,-0.0009065442718565464,0.003660649061203003,0.0054182810708880424
1772709379468830500,7.98883056640625,-0.002627478912472725,0.00442923791706562,-0.004879629705101252
1772709379478855400,7.99885546875,-0.0016397784929722548,-0.009388813748955727,-0.018311571329832077
1772709379488880000,8.008880126953125,-0.0021425834856927395,-0.01675964519381523,-0.03114800527691841
1772709379498905000,8.018905029296874,0.000026272376999258995,-0.014050735160708427,-0.04086543247103691
1772709379508930300,8.028930419921876,0.0035387156531214714,-0.007579253986477852,-0.04387720301747322
1772709379518955300,8.038955322265625,-0.0000841822475194931,0.007128075696527958,-0.029861338436603546
1772709379528980200,8.048980224609375,0.00026975199580192566,0.004817251116037369,0.0038745212368667126
