time,seconds_elapsed,z,y,x
1772728950577550600,0.083550537109375,0,0,0
1772728950587068700,0.093068603515625,0.022432327270507812,-0.002635955810546875,-0.024555206298828125
1772728950596586500,0.10258642578125,0.0060749053955078125,-0.01519918441772461,-0.08800351619720459
1772728950606104600,0.1121044921875,0.037146568298339844,-0.01258993148803711,-0.14002186059951782
1772728950615622700,0.12162255859375,0.0714731216430664,-0.05161237716674805,-0.1593928337097168
1772728950625140500,0.131140380859375,0.06592845916748047,-0.12318754196166992,-0.18219292163848877
1772728950634658600,0.140658447265625,0.08162975311279297,-0.1550593376159668,-0.2082209587097168
1772728950644176600,0.1501767578125,0.09437847137451172,-0.23706579208374023,-0.26318955421447754
1772728950653694500,0.159694580078125,0.23133373260498047,-0.32819032669067383,-0.3171114921569824
1772728950663212500,0.169212646484375,0.39631080627441406,-0.5035514831542969,-0.35810041427612305
1772728950672730600,0.178730712890625,0.5562562942504883,-0.7229733467102051,-0.38394880294799805
1772728950682248700,0.188248779296875,0.6430082321166992,-0.8912279605865479,-0.3520716428756714
1772728950691766500,0.1977666015625,0.6255311965942383,-1.0383033752441406,-0.2839447259902954
1772728950701284600,0.20728466796875,0.5449600219726562,-1.1058778762817383,-0.21238243579864502
1772728950710802700,0.216802734375,0.33855533599853516,-1.2108545303344727,-0.11091494560241699
1772728950720320800,0.22632080078125,0.06967353820800781,-1.2717902660369873,-0.012322664260864258
1772728950729838600,0.235838623046875,-0.24542617797851562,-1.2578847408294678,0.03120279312133789
1772728950739356700,0.245356689453125,-0.7119541168212891,-1.1538519859313965,0.024588346481323242
1772728950748874500,0.25487451171875,-1.118464469909668,-1.0653784275054932,-0.03850555419921875
1772728950758392600,0.264392578125,-1.488377571105957,-0.9697060585021973,-0.10775446891784668
1772728950767910700,0.27391064453125,-1.7661447525024414,-0.8784196376800537,-0.19143497943878174
1772728950777428500,0.283428466796875,-2.0033068656921387,-0.8750808238983154,-0.2024928331375122
1772728950786946600,0.292946533203125,-2.201052665710449,-0.8814082145690918,-0.18045806884765625
1772728950796464600,0.302464599609375,-2.2731518745422363,-0.8382902145385742,-0.18085598945617676
1772728950805982700,0.311982666015625,-2.2256107330322266,-0.735220193862915,-0.20703554153442383
1772728950815500500,0.32150048828125,-2.0289649963378906,-0.6089630126953125,-0.22262048721313477
1772728950825018600,0.3310185546875,-1.7022066116333008,-0.5330724716186523,-0.2713205814361572
1772728950834536700,0.34053662109375,-1.262648582458496,-0.49947619438171387,-0.3123551607131958
1772728950844054500,0.350054443359375,-0.8672323226928711,-0.4460735321044922,-0.338517427444458
1772728950853572600,0.359572509765625,-0.4831066131591797,-0.40047383308410645,-0.352719783782959
1772728950863090700,0.369090576171875,-0.2339468002319336,-0.34233570098876953,-0.3058030605316162
1772728950872608500,0.3786083984375,-0.07794666290283203,-0.3343331813812256,-0.20385313034057617
1772728950882126600,0.388126708984375,0.09734725952148438,-0.3330965042114258,-0.10916018486022949
1772728950891644700,0.397644775390625,0.3521299362182617,-0.2970144748687744,-0.00566411018371582
1772728950901162800,0.407162841796875,0.41495418548583984,-0.2839052677154541,0.13448011875152588
1772728950910680600,0.4166806640625,0.29628562927246094,-0.2528984546661377,0.25095534324645996
1772728950920198700,0.42619873046875,0.05272674560546875,-0.2061448097229004,0.3097846508026123
1772728950929716500,0.435716552734375,-0.27681732177734375,-0.1503312587738037,0.382429838180542
1772728950939234600,0.445234619140625,-0.5713796615600586,-0.1015317440032959,0.578610897064209
1772728950948752600,0.454752685546875,-0.8837261199951172,0.018849849700927734,0.7341414093971252
1772728950958270700,0.464270751953125,-1.1485538482666016,0.10997557640075684,0.7820162773132324
1772728950967788500,0.47378857421875,-1.2159643173217773,0.17581462860107422,0.730718195438385
1772728950977306600,0.483306640625,-1.114375114440918,0.22869300842285156,0.6009867191314697
1772728950986824700,0.49282470703125,-0.9944725036621094,0.2143421173095703,0.5605341196060181
1772728950996342500,0.502342529296875,-0.9099063873291016,0.17528676986694336,0.5769000053405762
1772728951005860600,0.511860595703125,-0.8739109039306641,0.1306464672088623,0.63411545753479
1772728951015378700,0.521378662109375,-0.833928108215332,0.1512467861175537,0.6244659423828125
1772728951024896500,0.530896484375,-0.7949981689453125,0.1527872085571289,0.6444164514541626
1772728951034414600,0.54041455078125,-0.79962158203125,0.20996546745300293,0.6342101097106934
1772728951043932700,0.5499326171875,-0.845210075378418,0.21783685684204102,0.6368280649185181
1772728951053450800,0.55945068359375,-0.8329105377197266,0.29990458488464355,0.5450353622436523
1772728951062968600,0.568968505859375,-0.7400989532470703,0.37410426139831543,0.4513772130012512
1772728951072486700,0.578486572265625,-0.6357393264770508,0.4155426025390625,0.41389530897140503
1772728951082004700,0.588004638671875,-0.5029897689819336,0.4914536476135254,0.42402446269989014
1772728951091522600,0.5975224609375,-0.4171314239501953,0.5160601139068604,0.3919868469238281
1772728951101040600,0.60704052734375,-0.3705272674560547,0.4977118968963623,0.35510051250457764
1772728951110558500,0.616558349609375,-0.240325927734375,0.5033411979675293,0.31364548206329346
1772728951120076500,0.62607666015625,-0.2462759017944336,0.532703161239624,0.293536901473999
1772728951129594600,0.6355947265625,-0.2870187759399414,0.5238251686096191,0.332522988319397
1772728951139112700,0.64511279296875,-0.2772817611694336,0.5261170864105225,0.357471227645874
1772728951148630500,0.654630615234375,-0.30707454681396484,0.607144832611084,0.28649795055389404
1772728951158148600,0.664148681640625,-0.6046552658081055,0.735370397567749,0.18922948837280273
1772728951167666700,0.673666748046875,-0.5029449462890625,0.8628005981445312,0.007019519805908203
1772728951177184500,0.6831845703125,-0.44625377655029297,0.9122273921966553,-0.1589118242263794
1772728951186702600,0.69270263671875,-0.5307340621948242,0.9077613353729248,-0.1579265594482422
1772728951196220700,0.702220703125,-0.5613508224487305,0.9294905662536621,-0.0636206865310669
1772728951205738500,0.711738525390625,-0.45168304443359375,0.9824118614196777,-0.04285848140716553
1772728951215256600,0.721256591796875,-0.11869430541992188,1.0896589756011963,-0.08404481410980225
1772728951224774700,0.730774658203125,0.18259906768798828,1.2456235885620117,-0.10396397113800049
1772728951234292700,0.740292724609375,0.4884815216064453,1.3267934322357178,-0.1179194450378418
1772728951243810600,0.749810546875,0.8021535873413086,1.2434380054473877,-0.1617753505706787
1772728951253328600,0.75932861328125,1.14105224609375,1.0567588806152344,-0.2853139638900757
1772728951262846700,0.7688466796875,1.4748411178588867,0.9526689052581787,-0.37328314781188965
1772728951272364500,0.778364501953125,1.6648540496826172,0.9402999877929688,-0.3662179708480835
1772728951281882600,0.787882568359375,1.7791109085083008,0.9673647880554199,-0.41849493980407715
1772728951291400400,0.797400390625,1.7684650421142578,1.0119316577911377,-0.5194560289382935
1772728951300918500,0.80691845703125,1.6151580810546875,1.0557920932769775,-0.5936638116836548
1772728951310436600,0.8164365234375,1.4338693618774414,1.0674004554748535,-0.5509370565414429
1772728951319954700,0.82595458984375,1.2429962158203125,1.0568876266479492,-0.3507692813873291
1772728951329472800,0.83547265625,1.0301942825317383,1.010791540145874,-0.07859575748443604
1772728951338990600,0.844990478515625,0.8399524688720703,0.9363551139831543,0.09654974937438965
1772728951348508700,0.8545087890625,0.8155384063720703,0.922856330871582,0.1316242218017578
1772728951358026500,0.864026611328125,0.8460559844970703,0.922947883605957,0.1619354486465454
1772728951367544600,0.873544677734375,0.9569873809814453,0.8580722808837891,0.1874086856842041
1772728951377062700,0.883062744140625,1.1217145919799805,0.6619510650634766,0.22201216220855713
1772728951386580500,0.89258056640625,1.347076416015625,0.43445539474487305,0.21297425031661987
1772728951396098600,0.9020986328125,1.6541805267333984,0.19590973854064941,0.18365061283111572
1772728951405616600,0.91161669921875,1.943842887878418,-0.07483768463134766,0.06595504283905029
1772728951415134700,0.921134765625,2.2700347900390625,-0.3837854862213135,-0.032511353492736816
1772728951424652500,0.930652587890625,2.5088939666748047,-0.759270191192627,-0.07067322731018066
1772728951434170600,0.940170654296875,2.5066404342651367,-1.114992380142212,-0.004182219505310059
1772728951443688700,0.949688720703125,2.1932621002197266,-1.3898367881774902,0.1970580816268921
1772728951453206500,0.95920654296875,1.6595792770385742,-1.5422868728637695,0.3813837766647339
1772728951462724600,0.968724609375,1.025343894958496,-1.5564391613006592,0.5253649353981018
1772728951472242400,0.978242431640625,0.2525911331176758,-1.5904839038848877,0.6608997583389282
1772728951481760500,0.987760498046875,-0.37175750732421875,-1.5609662532806396,0.7660226225852966
1772728951491278600,0.997278564453125,-0.8269071578979492,-1.6124377250671387,0.854690432548523
1772728951500796700,1.006796630859375,-1.2534589767456055,-1.6553783416748047,0.9559457302093506
1772728951510314500,1.016314453125,-1.5846738815307617,-1.6767935752868652,1.0866445302963257
1772728951519832600,1.02583251953125,-1.8470635414123535,-1.5663836002349854,1.1307830810546875
1772728951529350700,1.0353505859375,-1.9813899993896484,-1.405174732208252,1.0601413249969482
1772728951538868500,1.044868408203125,-2.035080909729004,-1.262791633605957,0.9006437659263611
1772728951548386600,1.054386474609375,-1.9619264602661133,-1.1433696746826172,0.7562094330787659
1772728951557904600,1.063904541015625,-1.641840934753418,-1.147230625152588,0.6454710960388184
1772728951567422500,1.07342236328125,-1.1995210647583008,-1.1731863021850586,0.5911960005760193
1772728951576940500,1.0829404296875,-0.6869058609008789,-1.183743953704834,0.4941507577896118
1772728951586458600,1.092458740234375,-0.14575767517089844,-1.1706206798553467,0.33204925060272217
1772728951595976700,1.101976806640625,0.32830238342285156,-1.1118483543395996,0.17405372858047485
1772728951605494500,1.11149462890625,0.6621551513671875,-1.0644712448120117,0.02593320608139038
1772728951615012600,1.1210126953125,0.8565845489501953,-0.9782416820526123,-0.05078554153442383
1772728951624530400,1.130530517578125,0.9497251510620117,-0.8118064403533936,-0.05021566152572632
1772728951634048500,1.140048583984375,0.7794780731201172,-0.7238807678222656,0.04391467571258545
1772728951643566600,1.149566650390625,0.3550548553466797,-0.6064231395721436,0.036893486976623535
1772728951653084400,1.15908447265625,-0.17765045166015625,-0.4786531925201416,0.0054593682289123535
1772728951662602500,1.1686025390625,-0.6886978149414062,-0.35111451148986816,-0.006175577640533447
1772728951672120600,1.17812060546875,-1.1610517501831055,-0.2502892017364502,0.06703096628189087
1772728951681638700,1.187638671875,-1.5350775718688965,-0.191070556640625,0.14376050233840942
1772728951691156500,1.197156494140625,-1.8415436744689941,-0.18639039993286133,0.2223719358444214
1772728951700674600,1.206674560546875,-2.0276145935058594,-0.1837291717529297,0.25944608449935913
1772728951710192600,1.216192626953125,-2.0548105239868164,-0.11060142517089844,0.26775962114334106
1772728951719710500,1.22571044921875,-1.936800479888916,-0.03377485275268555,0.2563437819480896
1772728951729228500,1.235228515625,-1.769937515258789,0.04425764083862305,0.19666510820388794
1772728951738746600,1.24474658203125,-1.561457633972168,0.10166692733764648,0.18432438373565674
1772728951748264400,1.254264404296875,-1.3203163146972656,0.16847801208496094,0.2103670835494995
1772728951757782500,1.263782470703125,-1.0100955963134766,0.18857836723327637,0.2872641682624817
1772728951767300600,1.273300537109375,-0.6110334396362305,0.23116087913513184,0.32839465141296387
1772728951776818700,1.282818603515625,-0.18154144287109375,0.25245189666748047,0.28554898500442505
1772728951786336500,1.29233642578125,0.25367164611816406,0.2467186450958252,0.2597748041152954
1772728951795854600,1.3018544921875,0.6270418167114258,0.244185209274292,0.2763199210166931
1772728951805372400,1.311372314453125,0.8447933197021484,0.26895713806152344,0.30040407180786133
1772728951814890500,1.320890380859375,0.941523551940918,0.27265405654907227,0.2857925295829773
1772728951824408600,1.33040869140625,0.9415998458862305,0.267622709274292,0.247836172580719
1772728951833926400,1.339926513671875,0.7881832122802734,0.3166928291320801,0.1687372922897339
1772728951843444500,1.349444580078125,0.5172452926635742,0.3832433223724365,0.10532891750335693
1772728951852962600,1.358962646484375,0.16668415069580078,0.41248583793640137,0.053021907806396484
1772728951862480600,1.368480712890625,-0.15217208862304688,0.48538637161254883,0.024767518043518066
1772728951871998500,1.37799853515625,-0.3121175765991211,0.5180785655975342,-0.005299031734466553
1772728951881516500,1.3875166015625,-0.40283203125,0.6001834869384766,-0.006124615669250488
1772728951891034600,1.39703466796875,-0.43444156646728516,0.615325927734375,-0.04857909679412842
1772728951900552400,1.406552490234375,-0.4192018508911133,0.6802024841308594,-0.03278803825378418
1772728951910070500,1.416070556640625,-0.3479471206665039,0.7039661407470703,0.04475808143615723
1772728951919588600,1.425588623046875,-0.21888256072998047,0.7226986885070801,0.06855654716491699
1772728951929106400,1.4351064453125,-0.09235191345214844,0.7633962631225586,0.08514755964279175
1772728951938624500,1.44462451171875,0.05973052978515625,0.7623391151428223,0.1096724271774292
1772728951948142600,1.454142578125,0.2133951187133789,0.7124438285827637,0.15275651216506958
1772728951957660700,1.46366064453125,0.4019603729248047,0.6566691398620605,0.25444507598876953
1772728951967178500,1.473178466796875,0.5208683013916016,0.5711898803710938,0.370721697807312
1772728951976696600,1.482696533203125,0.5829906463623047,0.4723234176635742,0.4538578987121582
1772728951986214400,1.49221435546875,0.6582422256469727,0.47093677520751953,0.48899775743484497
1772728951995732500,1.501732421875,0.7047061920166016,0.5408244132995605,0.41826850175857544
1772728952005250600,1.51125048828125,0.7639970779418945,0.6345534324645996,0.31566083431243896
1772728952014768400,1.520768310546875,0.8081083297729492,0.7671222686767578,0.14757877588272095
1772728952024286500,1.530286376953125,0.8326225280761719,0.8472456932067871,-0.07435762882232666
1772728952033804500,1.539804443359375,0.8445892333984375,0.835273265838623,-0.3286226987838745
1772728952043322600,1.549322509765625,0.9504165649414062,0.7661557197570801,-0.5263695120811462
1772728952052840400,1.55884033203125,1.0846662521362305,0.7248826026916504,-0.6729033589363098
1772728952062358500,1.568358642578125,1.1489076614379883,0.6725544929504395,-0.7591759562492371
1772728952071876600,1.577876708984375,1.2309293746948242,0.5703153610229492,-0.887358546257019
1772728952081394400,1.58739453125,1.3725957870483398,0.2940831184387207,-1.0413808822631836
1772728952090912500,1.59691259765625,1.6298017501831055,-0.0395970344543457,-1.1112523078918457
1772728952100430300,1.606430419921875,2.001906394958496,-0.3645014762878418,-1.1880303621292114
1772728952109948400,1.615948486328125,2.370619773864746,-0.7439055442810059,-1.270849585533142
1772728952119466500,1.625466552734375,2.5028467178344727,-1.1399579048156738,-1.2726309299468994
1772728952128984600,1.634984619140625,2.192800521850586,-1.487657070159912,-1.125211238861084
1772728952138502400,1.64450244140625,1.520376205444336,-1.6914782524108887,-0.8473658561706543
1772728952148020500,1.6540205078125,0.6405172348022461,-1.6500658988952637,-0.724554181098938
1772728952157538600,1.66353857421875,-0.1790475845336914,-1.5209219455718994,-0.7475317120552063
1772728952167056400,1.673056396484375,-0.9104681015014648,-1.3574414253234863,-0.7765752077102661
1772728952176574500,1.682574462890625,-1.3981513977050781,-1.2977321147918701,-0.697451114654541
1772728952186092500,1.692092529296875,-1.6234240531921387,-1.2599496841430664,-0.5667991042137146
1772728952195610400,1.7016103515625,-1.6844487190246582,-1.2529170513153076,-0.4799078106880188
1772728952205128400,1.71112841796875,-1.6647019386291504,-1.161503553390503,-0.43662214279174805
1772728952214646500,1.720646484375,-1.5231208801269531,-1.0361909866333008,-0.48880553245544434
1772728952224164600,1.73016455078125,-1.3470306396484375,-0.9613037109375,-0.6027191281318665
1772728952233682400,1.739682373046875,-1.051980972290039,-0.9143071174621582,-0.6665514707565308
1772728952243200500,1.749200439453125,-0.7704353332519531,-0.9540657997131348,-0.6810734272003174
1772728952252718600,1.758718505859375,-0.5173006057739258,-1.0321977138519287,-0.7095673084259033
1772728952262236400,1.768236328125,-0.2692127227783203,-1.0367965698242188,-0.6444476842880249
1772728952271754500,1.77775439453125,-0.021111488342285156,-0.9859380722045898,-0.5589563846588135
1772728952281272300,1.787272216796875,0.12340354919433594,-0.9506750106811523,-0.48964500427246094
1772728952290790400,1.796790283203125,0.07637500762939453,-0.8742141723632812,-0.34246647357940674
1772728952300308500,1.80630859375,-0.13769912719726562,-0.8335857391357422,-0.19486427307128906
1772728952309826600,1.81582666015625,-0.41897010803222656,-0.7067346572875977,-0.0551067590713501
1772728952319344400,1.825344482421875,-0.7069711685180664,-0.615839958190918,0.10701596736907959
1772728952328862500,1.834862548828125,-0.984929084777832,-0.5291283130645752,0.2642565965652466
1772728952338380500,1.844380615234375,-1.1626243591308594,-0.43672847747802734,0.3933963179588318
1772728952347898400,1.8538984375,-1.2551937103271484,-0.345736026763916,0.4519807696342468
1772728952357416400,1.86341650390625,-1.304060935974121,-0.3172793388366699,0.40816861391067505
1772728952366934500,1.8729345703125,-1.3431339263916016,-0.3120846748352051,0.38680917024612427
1772728952376452400,1.882452392578125,-1.2798638343811035,-0.3175830841064453,0.38566356897354126
1772728952385970400,1.891970458984375,-1.1909775733947754,-0.3169527053833008,0.385780394077301
1772728952395488500,1.901488525390625,-1.0693869590759277,-0.30800867080688477,0.3513912558555603
1772728952405006600,1.911006591796875,-0.8340682983398438,-0.26526594161987305,0.27261579036712646
1772728952414524400,1.9205244140625,-0.6591854095458984,-0.22059059143066406,0.14101123809814453
1772728952424042500,1.93004248046875,-0.5203685760498047,-0.18194198608398438,-0.06568795442581177
1772728952433560600,1.939560546875,-0.45295238494873047,-0.15456938743591309,-0.20709842443466187
1772728952443078400,1.949078369140625,-0.4231538772583008,-0.11011958122253418,-0.30516505241394043
1772728952452596500,1.958596435546875,-0.4760398864746094,-0.0058591365814208984,-0.3246767520904541
1772728952462114300,1.9681142578125,-0.5923042297363281,0.06540727615356445,-0.3659469485282898
1772728952471632400,1.97763232421875,-0.6959943771362305,0.20003795623779297,-0.4418553113937378
1772728952481150500,1.987150390625,-0.7711877822875977,0.2919430732727051,-0.505293607711792
1772728952490668300,1.996668212890625,-0.8589544296264648,0.32319164276123047,-0.6020572185516357
1772728952500186400,2.006186279296875,-0.8882122039794922,0.39498233795166016,-0.6560173034667969
1772728952509704400,2.015704345703125,-0.8520059585571289,0.497483491897583,-0.6503841876983643
1772728952519222500,2.025222412109375,-0.785797119140625,0.5749385356903076,-0.6218068599700928
1772728952528740400,2.034740234375,-0.6533651351928711,0.6619267463684082,-0.5791032314300537
1772728952538258400,2.044258544921875,-0.5210638046264648,0.7734787464141846,-0.5298603773117065
1772728952547776500,2.053776611328125,-0.35500621795654297,0.8725194931030273,-0.490587055683136
1772728952557294300,2.06329443359375,-0.14792156219482422,0.9225468635559082,-0.4832283854484558
1772728952566812400,2.0728125,0.0783376693725586,1.026461124420166,-0.42291325330734253
1772728952576330500,2.08233056640625,0.28273582458496094,1.092153787612915,-0.39117705821990967
1772728952585848300,2.091848388671875,0.4056978225708008,1.1967785358428955,-0.3148914575576782
1772728952595366400,2.101366455078125,0.5022306442260742,1.2550055980682373,-0.22435802221298218
1772728952604884500,2.110884521484375,0.5986833572387695,1.2077245712280273,-0.16858482360839844
1772728952614402600,2.120402587890625,0.7191314697265625,1.212308645248413,-0.16041076183319092
1772728952623920400,2.12992041015625,0.9186229705810547,1.2010304927825928,-0.1872650384902954
1772728952633438500,2.1394384765625,1.1591205596923828,1.1894714832305908,-0.2233378291130066
1772728952642956300,2.148956298828125,1.3195562362670898,1.1426715850830078,-0.3504607081413269
1772728952652474400,2.158474365234375,1.443556785583496,1.1141602993011475,-0.4036462903022766
1772728952661992400,2.167992431640625,1.4644012451171875,1.0560824871063232,-0.4883347749710083
1772728952671510300,2.17751025390625,1.3416814804077148,1.0244016647338867,-0.55647873878479
1772728952681028400,2.1870283203125,1.1465520858764648,1.0499992370605469,-0.4933793544769287
1772728952690546400,2.19654638671875,0.9804792404174805,1.078592300415039,-0.3419709801673889
1772728952700064500,2.206064453125,0.835087776184082,1.1178224086761475,-0.23203766345977783
1772728952709582300,2.215582275390625,0.7715206146240234,1.121971845626831,-0.15196043252944946
1772728952719100400,2.225100341796875,0.8174839019775391,1.0732111930847168,-0.04692786931991577
1772728952728618500,2.234618408203125,1.0007696151733398,0.9723196029663086,0.003830850124359131
1772728952738136300,2.24413623046875,1.2488975524902344,0.7678897380828857,-0.03356742858886719
1772728952747654400,2.253654296875,1.6399955749511719,0.5035526752471924,-0.17657214403152466
1772728952757172200,2.263172119140625,2.1305503845214844,0.15325522422790527,-0.2521820068359375
1772728952766690300,2.272690185546875,2.6705780029296875,-0.2981104850769043,-0.25269150733947754
1772728952776208400,2.28220849609375,3.1730451583862305,-0.7774534225463867,-0.2604714035987854
1772728952785726500,2.2917265625,3.583589553833008,-1.2317149639129639,-0.31856203079223633
1772728952795244300,2.301244384765625,3.7727479934692383,-1.550262451171875,-0.3689342737197876
1772728952804762400,2.310762451171875,3.489582061767578,-1.7547338008880615,-0.21239906549453735
1772728952814280400,2.320280517578125,2.739940643310547,-1.8650126457214355,0.15047389268875122
1772728952823798300,2.32979833984375,1.7469854354858398,-1.822624921798706,0.3982948958873749
1772728952833316400,2.33931640625,0.744593620300293,-1.7496168613433838,0.3661835491657257
1772728952842834400,2.34883447265625,0.11127090454101562,-1.510261058807373,0.2481020987033844
1772728952852352300,2.358352294921875,-0.6550893783569336,-1.5708975791931152,0.27586376667022705
1772728952861870300,2.367870361328125,-1.1437664031982422,-1.5849230289459229,0.4144474267959595
1772728952871388400,2.377388427734375,-1.5356245040893555,-1.5383589267730713,0.48475927114486694
1772728952880906200,2.38690625,-1.867882251739502,-1.4554877281188965,0.37755587697029114
1772728952890424300,2.39642431640625,-2.1006269454956055,-1.3433949947357178,0.19151431322097778
1772728952899942100,2.405942138671875,-2.188108444213867,-1.2141571044921875,0.013734042644500732
1772728952909460200,2.415460205078125,-2.0717477798461914,-1.1079237461090088,-0.05996459722518921
1772728952918978300,2.424978271484375,-1.7612504959106445,-1.1165409088134766,-0.037936270236968994
1772728952928496400,2.434496337890625,-1.2270994186401367,-1.1643738746643066,-0.043971121311187744
1772728952938014200,2.44401416015625,-0.6180152893066406,-1.2751259803771973,-0.08096879720687866
1772728952947532300,2.4535322265625,0.006707191467285156,-1.3475093841552734,-0.15647536516189575
1772728952957050400,2.46305029296875,0.6143255233764648,-1.3955461978912354,-0.22415482997894287
1772728952966568200,2.472568115234375,0.9115886688232422,-1.3599822521209717,-0.2803971767425537
1772728952976086300,2.482086181640625,0.8628740310668945,-1.2845335006713867,-0.3061097264289856
1772728952985604400,2.491604248046875,0.526799201965332,-1.159837245941162,-0.31960463523864746
1772728952995122400,2.501122314453125,0.0011653900146484375,-1.028853178024292,-0.283952534198761
1772728953004640300,2.51064013671875,-0.545893669128418,-0.8944787979125977,-0.23115384578704834
1772728953014158300,2.520158447265625,-1.083146095275879,-0.7280359268188477,-0.13941413164138794
1772728953023676400,2.529676513671875,-1.5507731437683105,-0.591986894607544,-0.05931389331817627
1772728953033194200,2.5391943359375,-1.9385156631469727,-0.48575758934020996,-0.07633942365646362
1772728953042712300,2.54871240234375,-2.2165136337280273,-0.3837618827819824,-0.05373436212539673
1772728953052230100,2.558230224609375,-2.3522472381591797,-0.3042764663696289,-0.03466320037841797
1772728953061748200,2.567748291015625,-2.3509421348571777,-0.2021160125732422,0.033614546060562134
1772728953071266300,2.577266357421875,-2.238886833190918,-0.09022331237792969,0.06487849354743958
1772728953080784400,2.586784423828125,-2.0324974060058594,-0.010448932647705078,0.04559621214866638
1772728953090302200,2.59630224609375,-1.6716551780700684,0.04749155044555664,0.059289634227752686
1772728953099820300,2.6058203125,-1.2397432327270508,0.06797647476196289,0.09241309762001038
1772728953109338400,2.61533837890625,-0.855621337890625,0.11416912078857422,0.10539829730987549
1772728953118856200,2.624856201171875,-0.537806510925293,0.1494274139404297,0.12891271710395813
1772728953128374300,2.634374267578125,-0.2595548629760742,0.18760347366333008,0.16568100452423096
1772728953137892400,2.643892333984375,0.027286529541015625,0.20889616012573242,0.19154822826385498
1772728953147410200,2.65341015625,0.2825021743774414,0.253110408782959,0.19665250182151794
1772728953156928300,2.66292822265625,0.4853849411010742,0.2591123580932617,0.2475595325231552
1772728953166446300,2.6724462890625,0.6630525588989258,0.2897214889526367,0.2839180827140808
1772728953175964200,2.681964111328125,0.6874217987060547,0.34603095054626465,0.32369285821914673
1772728953185482200,2.691482177734375,0.5594911575317383,0.3580329418182373,0.39817696809768677
1772728953195000300,2.701000244140625,0.33947181701660156,0.4213523864746094,0.4909605085849762
1772728953204518100,2.71051806640625,0.16085243225097656,0.5032603740692139,0.5835914611816406
1772728953214036200,2.7200361328125,0.01104736328125,0.5713903903961182,0.6468144655227661
1772728953223554300,2.72955419921875,-0.08913898468017578,0.6484472751617432,0.6514525413513184
1772728953233072000,2.739072021484375,-0.18835067749023438,0.7193279266357422,0.5937467813491821
1772728953242590200,2.748590087890625,-0.24677181243896484,0.7949886322021484,0.5267274975776672
1772728953252108300,2.7581083984375,-0.2532482147216797,0.8838191032409668,0.4539494812488556
1772728953261626000,2.767626220703125,-0.21060848236083984,0.9266018867492676,0.3695346713066101
1772728953271144200,2.777144287109375,-0.10253143310546875,0.9571800231933594,0.29873454570770264
1772728953280662300,2.786662353515625,0.0038814544677734375,0.973330020904541,0.25241178274154663
1772728953290180400,2.796180419921875,0.1064462661743164,0.9651856422424316,0.24044695496559143
1772728953299698200,2.8056982421875,0.2724342346191406,0.9628620147705078,0.25658246874809265
1772728953309216300,2.81521630859375,0.4759864807128906,0.9268908500671387,0.2960513234138489
1772728953318734000,2.824734130859375,0.5959138870239258,0.8871283531188965,0.31312963366508484
1772728953328252200,2.834252197265625,0.668701171875,0.8094906806945801,0.3122509717941284
1772728953337770200,2.843770263671875,0.7665128707885742,0.7670965194702148,0.335038959980011
1772728953347288000,2.8532880859375,0.8038425445556641,0.6923055648803711,0.3857012391090393
1772728953356806100,2.86280615234375,0.7525300979614258,0.6444272994995117,0.4035275876522064
1772728953366324200,2.87232421875,0.6747913360595703,0.654761791229248,0.395276814699173
1772728953375842300,2.88184228515625,0.5442714691162109,0.709557056427002,0.28018298745155334
1772728953385360100,2.891360107421875,0.49933528900146484,0.7422690391540527,0.16854867339134216
1772728953394878200,2.900878173828125,0.5633459091186523,0.7511305809020996,0.046094417572021484
1772728953404396300,2.910396240234375,0.6355838775634766,0.7223048210144043,-0.12230637669563293
1772728953413914000,2.9199140625,0.7396421432495117,0.7422223091125488,-0.30958321690559387
1772728953423432200,2.92943212890625,0.8058500289916992,0.7185359001159668,-0.4409242868423462
1772728953432950000,2.938949951171875,0.8289899826049805,0.6905937194824219,-0.5614220499992371
1772728953442468000,2.948468017578125,0.872772216796875,0.5860047340393066,-0.6609458327293396
1772728953451986200,2.957986083984375,0.9575166702270508,0.49054813385009766,-0.7119539976119995
1772728953461504300,2.967504150390625,1.1083602905273438,0.3414173126220703,-0.7737666368484497
1772728953471022000,2.97702197265625,1.3460111618041992,0.18239212036132812,-0.8531068563461304
1772728953480540200,2.9865400390625,1.6203327178955078,0.04146003723144531,-0.8262235522270203
1772728953490058200,2.996058349609375,1.9039335250854492,-0.21279430389404297,-0.839347243309021
1772728953499576000,3.005576171875,2.067572593688965,-0.5312857627868652,-0.8995276689529419
1772728953509094100,3.01509423828125,2.118708610534668,-0.846916913986206,-0.9722197651863098
1772728953518612200,3.0246123046875,1.9996833801269531,-1.1344313621520996,-0.971487820148468
1772728953528130000,3.034130126953125,1.6403703689575195,-1.2834622859954834,-0.9111636877059937
1772728953537648000,3.043648193359375,1.0797815322875977,-1.282299518585205,-0.8544952869415283
1772728953547166200,3.053166259765625,0.46813392639160156,-1.2987098693847656,-0.8731502890586853
1772728953556684000,3.06268408203125,-0.0954437255859375,-1.3011431694030762,-0.8373010754585266
1772728953566202000,3.0722021484375,-0.5577011108398438,-1.3202409744262695,-0.8611091375350952
1772728953575720200,3.08172021484375,-0.8442726135253906,-1.3410727977752686,-0.8916620016098022
1772728953585238300,3.09123828125,-1.019460678100586,-1.3412294387817383,-0.8598704934120178
1772728953594756000,3.100756103515625,-1.1255216598510742,-1.284771203994751,-0.8724673986434937
1772728953604274200,3.110274169921875,-1.130192756652832,-1.2062938213348389,-0.8134406208992004
1772728953613792000,3.1197919921875,-1.036412239074707,-1.1726529598236084,-0.7725538611412048
1772728953623310000,3.12931005859375,-0.8585691452026367,-1.1917285919189453,-0.7200839519500732
1772728953632828200,3.138828125,-0.6178741455078125,-1.2171533107757568,-0.5841250419616699
1772728953642346000,3.148345947265625,-0.3809022903442383,-1.2381298542022705,-0.421253502368927
1772728953651864000,3.157864013671875,-0.2000904083251953,-1.257594108581543,-0.28377461433410645
1772728953661382100,3.167382080078125,-0.10175323486328125,-1.2706665992736816,-0.10897696018218994
1772728953670900000,3.17689990234375,-0.07156944274902344,-1.2504074573516846,0.08473676443099976
1772728953680418000,3.18641796875,-0.11880111694335938,-1.2298099994659424,0.2901794910430908
1772728953689936100,3.19593603515625,-0.2663917541503906,-1.1951904296875,0.47402650117874146
1772728953699454200,3.2054541015625,-0.4463310241699219,-1.1620488166809082,0.6553918719291687
1772728953708972000,3.214971923828125,-0.6552085876464844,-1.0791964530944824,0.7530280947685242
1772728953718490000,3.224489990234375,-0.870307445526123,-0.9509420394897461,0.7817938327789307
1772728953728008000,3.234008056640625,-1.0764989852905273,-0.821699857711792,0.8319794535636902
1772728953737526000,3.243526123046875,-1.263681411743164,-0.7569408416748047,0.857184112071991
1772728953747044000,3.253044189453125,-1.359990119934082,-0.6545982360839844,0.848747968673706
1772728953756562000,3.26256201171875,-1.432631492614746,-0.6362876892089844,0.7782028913497925
1772728953766080000,3.272080078125,-1.4961848258972168,-0.5823330879211426,0.7233373522758484
1772728953775598000,3.28159814453125,-1.4962849617004395,-0.539741039276123,0.6261105537414551
1772728953785116200,3.2911162109375,-1.4384765625,-0.4837074279785156,0.5136450529098511
1772728953794634000,3.300634033203125,-1.352311134338379,-0.4417228698730469,0.4219913184642792
1772728953804152000,3.310152099609375,-1.252756118774414,-0.3697834014892578,0.328714519739151
1772728953813670100,3.319670166015625,-1.1306047439575195,-0.2746405601501465,0.22112059593200684
1772728953823188000,3.32918798828125,-1.0553503036499023,-0.21321868896484375,0.11772304773330688
1772728953832706000,3.3387060546875,-0.9886837005615234,-0.14234495162963867,0.0906495451927185
1772728953842223900,3.348223876953125,-0.9185581207275391,-0.10035133361816406,0.07300078868865967
1772728953851742000,3.357741943359375,-0.7971639633178711,-0.022881507873535156,0.03388458490371704
1772728953861260000,3.367260009765625,-0.6743173599243164,0.027128219604492188,-0.02157902717590332
1772728953870778000,3.376778076171875,-0.575840950012207,0.07255363464355469,-0.13259917497634888
1772728953880296000,3.3862958984375,-0.4799833297729492,0.11500740051269531,-0.24849241971969604
1772728953889814000,3.39581396484375,-0.4080820083618164,0.1803288459777832,-0.3174624443054199
1772728953899332000,3.40533203125,-0.3455533981323242,0.27768564224243164,-0.3412381410598755
1772728953908850000,3.414849853515625,-0.34471797943115234,0.3709897994995117,-0.30268627405166626
1772728953918368000,3.424367919921875,-0.3575887680053711,0.4504976272583008,-0.2997397184371948
1772728953927886000,3.433885986328125,-0.3481159210205078,0.5611090660095215,-0.3059791922569275
1772728953937404000,3.44340380859375,-0.3735618591308594,0.6573052406311035,-0.2876213788986206
1772728953946922000,3.452921875,-0.4148740768432617,0.7801117897033691,-0.22721058130264282
1772728953956439800,3.462439697265625,-0.4365959167480469,0.9234075546264648,-0.1805059313774109
1772728953965958000,3.4719580078125,-0.4512796401977539,1.0526928901672363,-0.06807488203048706
1772728953975476000,3.48147607421875,-0.3496694564819336,1.102388858795166,-0.003927946090698242
1772728953984994000,3.490994140625,-0.16099166870117188,1.1570568084716797,0.03472822904586792
1772728953994512000,3.500511962890625,0.15048599243164062,1.1830291748046875,0.005670368671417236
1772728954004030000,3.510030029296875,0.49397945404052734,1.186997413635254,-0.057975590229034424
1772728954013548000,3.519548095703125,0.8628101348876953,1.1651082038879395,-0.172135591506958
1772728954023065900,3.52906591796875,1.2620773315429688,1.082685947418213,-0.3177073001861572
1772728954032584000,3.538583984375,1.618173599243164,1.050692081451416,-0.4939711093902588
1772728954042102000,3.54810205078125,1.881826400756836,1.0531718730926514,-0.7094733715057373
1772728954051619800,3.557619873046875,2.1784467697143555,1.0114178657531738,-0.8006414771080017
1772728954061138000,3.567137939453125,2.3919506072998047,0.9899365901947021,-0.7929800748825073
1772728954070656000,3.576656005859375,2.396514892578125,0.9803643226623535,-0.7259084582328796
1772728954080173800,3.586173828125,2.173471450805664,0.9521174430847168,-0.6206880211830139
1772728954089692000,3.59569189453125,1.801309585571289,0.9599981307983398,-0.4957990050315857
1772728954099210000,3.6052099609375,1.4056835174560547,0.9688801765441895,-0.34503161907196045
1772728954108728000,3.61472802734375,1.0426397323608398,0.9605207443237305,-0.2121790051460266
1772728954118246000,3.624245849609375,0.7157211303710938,0.9282164573669434,-0.066974937915802
1772728954127764000,3.633763916015625,0.4740791320800781,0.9123592376708984,0.04700595140457153
1772728954137281800,3.64328173828125,0.3741455078125,0.8976478576660156,0.13566160202026367
1772728954146799900,3.6527998046875,0.49912166595458984,0.8193941116333008,0.12227046489715576
1772728954156318000,3.66231787109375,0.769780158996582,0.6557927131652832,0.07268506288528442
1772728954165835800,3.671835693359375,1.0778121948242188,0.31432342529296875,0.056719183921813965
1772728954175353900,3.681353759765625,1.434743881225586,0.00505828857421875,-0.04561007022857666
1772728954184872000,3.690871826171875,1.764181137084961,-0.24452757835388184,-0.21903634071350098
1772728954194389800,3.7003896484375,1.950216293334961,-0.46089935302734375,-0.33877283334732056
1772728954203907800,3.709907958984375,2.0020103454589844,-0.6833605766296387,-0.416593074798584
1772728954213426000,3.719426025390625,1.9005613327026367,-0.9112813472747803,-0.4269893169403076
1772728954222944000,3.728944091796875,1.6169490814208984,-1.1001451015472412,-0.2130833864212036
1772728954232461800,3.7384619140625,1.1430511474609375,-1.2107877731323242,0.12030386924743652
1772728954241980000,3.74797998046875,0.6180696487426758,-1.2718470096588135,0.4308777451515198
1772728954251497700,3.757497802734375,0.09160137176513672,-1.3433177471160889,0.6411840915679932
1772728954261015800,3.767015869140625,-0.41158485412597656,-1.4168338775634766,0.7581337690353394
1772728954270534000,3.776533935546875,-0.8360977172851562,-1.448044776916504,0.8196030259132385
1772728954280051700,3.7860517578125,-1.1769495010375977,-1.4665226936340332,0.8920992016792297
1772728954289569800,3.79556982421875,-1.4576406478881836,-1.4638726711273193,0.9383845925331116
1772728954299088000,3.805087890625,-1.6534786224365234,-1.4016590118408203,0.9590131640434265
1772728954308606000,3.81460595703125,-1.7463726997375488,-1.3335919380187988,0.8987677097320557
1772728954318123800,3.824123779296875,-1.727095603942871,-1.219223976135254,0.8142544031143188
1772728954327641900,3.833641845703125,-1.4928622245788574,-1.181330919265747,0.6837907433509827
1772728954337160000,3.843159912109375,-1.0983819961547852,-1.1472511291503906,0.604383647441864
1772728954346677800,3.852677734375,-0.6266803741455078,-1.0902023315429688,0.5199938416481018
1772728954356195800,3.86219580078125,-0.21524810791015625,-1.0817174911499023,0.4039400815963745
1772728954365713700,3.871713623046875,0.22553157806396484,-1.0907959938049316,0.28072473406791687
1772728954375231700,3.881231689453125,0.6205387115478516,-1.113318920135498,0.10015374422073364
1772728954384749800,3.890749755859375,0.8853425979614258,-1.0900444984436035,-0.057911455631256104
1772728954394267600,3.900267578125,0.9288930892944336,-1.03885817527771,-0.10541015863418579
1772728954403785700,3.90978564453125,0.8582286834716797,-0.9558005332946777,-0.08703416585922241
1772728954413303800,3.9193037109375,0.5592451095581055,-0.7915911674499512,-0.06504291296005249
1772728954422822000,3.92882177734375,0.0623779296875,-0.6873335838317871,-0.08640390634536743
1772728954432339700,3.938339599609375,-0.5289058685302734,-0.5380721092224121,-0.104916512966156
1772728954441857800,3.94785791015625,-1.0732669830322266,-0.39663076400756836,-0.07007044553756714
1772728954451375900,3.9573759765625,-1.544053077697754,-0.2710080146789551,0.029853641986846924
1772728954460893700,3.966893798828125,-1.9334430694580078,-0.1913595199584961,0.1617581844329834
1772728954470411800,3.976411865234375,-2.242558479309082,-0.1460866928100586,0.24506455659866333
1772728954479929600,3.9859296875,-2.4149398803710938,-0.09314155578613281,0.2950900197029114
1772728954489447700,3.99544775390625,-2.4701008796691895,-0.03458213806152344,0.2675773799419403
1772728954498965800,4.0049658203125,-2.2979841232299805,0.011792659759521484,0.30553707480430603
1772728954508483800,4.01448388671875,-1.9078621864318848,0.08476781845092773,0.32351118326187134
1772728954518001700,4.024001708984375,-1.497415542602539,0.11534833908081055,0.32941535115242004
1772728954527519700,4.033519775390625,-1.1683597564697266,0.16391563415527344,0.28117573261260986
1772728954537037800,4.043037841796875,-0.8668680191040039,0.22110366821289062,0.3041577935218811
1772728954546555600,4.0525556640625,-0.46981334686279297,0.2506222724914551,0.39142119884490967
1772728954556073700,4.06207373046875,-0.0765237808227539,0.2834482192993164,0.489214688539505
1772728954565591800,4.071591796875,0.2947502136230469,0.2937276363372803,0.552658200263977
1772728954575109600,4.081109619140625,0.5205707550048828,0.32766222953796387,0.5701895356178284
1772728954584627700,4.090627685546875,0.6468086242675781,0.38710927963256836,0.5998759269714355
1772728954594145500,4.1001455078125,0.6737184524536133,0.4623081684112549,0.6464971303939819
1772728954603663600,4.10966357421875,0.6273021697998047,0.5326013565063477,0.6319242715835571
1772728954613181700,4.119181640625,0.47360801696777344,0.6090812683105469,0.6055920720100403
1772728954622699800,4.12869970703125,0.2312469482421875,0.6958935260772705,0.6201735138893127
1772728954632217600,4.138217529296875,0.021515846252441406,0.7659833431243896,0.6546518206596375
1772728954641735700,4.147735595703125,-0.1322956085205078,0.8349647521972656,0.6594406366348267
1772728954651253800,4.157253662109375,-0.24739456176757812,0.8964354991912842,0.6960476636886597
1772728954660771600,4.166771484375,-0.31482696533203125,0.9085114002227783,0.7184367775917053
1772728954670289700,4.17628955078125,-0.3230867385864258,0.9626288414001465,0.6734734773635864
1772728954679807700,4.185807861328125,-0.28946971893310547,0.9903490543365479,0.672683835029602
1772728954689325600,4.19532568359375,-0.20501708984375,1.0405011177062988,0.6701653003692627
1772728954698843600,4.20484375,-0.10368633270263672,0.9970405101776123,0.6900160312652588
1772728954708361700,4.21436181640625,0.06678295135498047,0.953824520111084,0.7228911519050598
1772728954717879600,4.223879638671875,0.25373268127441406,0.8678274154663086,0.7518274784088135
1772728954727397600,4.233397705078125,0.5052051544189453,0.771784782409668,0.8027735948562622
1772728954736915700,4.242915771484375,0.7927675247192383,0.655245304107666,0.7290307879447937
1772728954746433800,4.252433837890625,1.0977563858032227,0.6269187927246094,0.5978509187698364
1772728954755951600,4.26195166015625,1.3423051834106445,0.6036386489868164,0.4502893090248108
1772728954765469700,4.2714697265625,1.534912109375,0.5662145614624023,0.27228856086730957
1772728954774987500,4.280987548828125,1.7512340545654297,0.6089396476745605,0.09103861451148987
1772728954784505600,4.290505615234375,1.8993043899536133,0.7027590274810791,-0.057693660259246826
1772728954794023700,4.300023681640625,2.018045425415039,0.7100648880004883,-0.12893742322921753
1772728954803541500,4.30954150390625,2.1075820922851562,0.7523765563964844,-0.30211836099624634
1772728954813059600,4.3190595703125,2.069549560546875,0.7806861400604248,-0.49095284938812256
1772728954822577700,4.32857763671875,1.886246681213379,0.7957208156585693,-0.6155170798301697
1772728954832095500,4.338095458984375,1.6399650573730469,0.7441916465759277,-0.6349497437477112
1772728954841613600,4.347613525390625,1.4198675155639648,0.6516315937042236,-0.6359544992446899
1772728954851131600,4.357131591796875,1.3417167663574219,0.4895150661468506,-0.59787517786026
1772728954860649700,4.366649658203125,1.3641328811645508,0.2946033477783203,-0.6194912791252136
1772728954870167600,4.37616748046875,1.4752254486083984,0.07316398620605469,-0.6613796949386597
1772728954879685600,4.385685546875,1.5898303985595703,-0.19383645057678223,-0.6740658283233643
1772728954889203500,4.395203369140625,1.6877098083496094,-0.4828789234161377,-0.6862907409667969
1772728954898721500,4.404721435546875,1.6531085968017578,-0.7366127967834473,-0.6681379079818726
1772728954908239600,4.414239501953125,1.3915519714355469,-1.0351040363311768,-0.6326000094413757
1772728954917757400,4.42375732421875,0.9587631225585938,-1.2808709144592285,-0.6752958297729492
1772728954927275500,4.433275634765625,0.28362178802490234,-1.4214463233947754,-0.7907145619392395
1772728954936793600,4.442793701171875,-0.13840866088867188,-1.2839164733886719,-0.8033846020698547
1772728954946311400,4.4523115234375,-0.6714925765991211,-1.2347655296325684,-0.6991277933120728
1772728954955829500,4.46182958984375,-1.1564726829528809,-1.1973977088928223,-0.6761826276779175
1772728954965347600,4.47134765625,-1.659576416015625,-1.142078161239624,-0.6730495095252991
1772728954974865700,4.48086572265625,-2.0942916870117188,-1.100764513015747,-0.6696315407752991
1772728954984383500,4.490383544921875,-2.338197708129883,-1.0365571975708008,-0.6048555970191956
1772728954993901600,4.499901611328125,-2.316497802734375,-1.0258469581604004,-0.42115455865859985
1772728955003419400,4.50941943359375,-2.0471878051757812,-1.0101699829101562,-0.33453917503356934
1772728955012937500,4.5189375,-1.5664472579956055,-1.0118560791015625,-0.364111065864563
1772728955022455600,4.52845556640625,-0.9263806343078613,-1.0164484977722168,-0.4485599994659424
1772728955031973400,4.537973388671875,-0.2648429870605469,-0.988335132598877,-0.5205302834510803
1772728955041491500,4.547491455078125,0.29240989685058594,-1.027625560760498,-0.5261701345443726
1772728955051009500,4.557009521484375,0.7585592269897461,-1.012709617614746,-0.476367712020874
1772728955060527400,4.56652734375,1.2590398788452148,-0.966083288192749,-0.38837581872940063
1772728955070045400,4.57604541015625,1.4222736358642578,-0.9495880603790283,-0.24706751108169556
1772728955079563500,4.5855634765625,1.2736473083496094,-0.9377427101135254,-0.13805723190307617
1772728955089081600,4.59508154296875,0.8426990509033203,-0.8963971138000488,0.04142576456069946
1772728955098599400,4.604599365234375,0.3065919876098633,-0.7885208129882812,0.32977646589279175
1772728955108117500,4.614117431640625,-0.2319793701171875,-0.6896188259124756,0.6207265257835388
1772728955117635300,4.62363525390625,-0.7325668334960938,-0.5775227546691895,0.8480967283248901
1772728955127153400,4.6331533203125,-1.2191057205200195,-0.4425954818725586,0.9736613035202026
1772728955136671500,4.64267138671875,-1.5603265762329102,-0.3112924098968506,1.1150457859039307
1772728955146189300,4.652189208984375,-1.790022850036621,-0.20761966705322266,1.1761884689331055
1772728955155707400,4.661707275390625,-1.9013924598693848,-0.1075124740600586,1.1789770126342773
1772728955165225500,4.6712255859375,-1.9162654876708984,-0.022833824157714844,1.1522066593170166
1772728955174743600,4.68074365234375,-1.7729473114013672,-0.027312755584716797,1.052837610244751
1772728955184265200,4.69026513671875,-1.5937247276306152,-0.04407691955566406,0.9351838827133179
1772728955193779500,4.699779541015625,-1.3742518424987793,-0.06306648254394531,0.816094696521759
1772728955203297500,4.709297607421875,-1.2175579071044922,-0.0361480712890625,0.6552721858024597
1772728955212815400,4.7188154296875,-1.1070489883422852,-0.03221321105957031,0.4874110519886017
1772728955222333400,4.72833349609375,-0.9902019500732422,-0.027202129364013672,0.31666648387908936
1772728955231851500,4.7378515625,-0.8048734664916992,-0.045210838317871094,0.20026463270187378
1772728955241369300,4.747369384765625,-0.630009651184082,-0.06232166290283203,0.0901842713356018
1772728955250887400,4.756887451171875,-0.4296588897705078,-0.07642269134521484,0.022142767906188965
1772728955260405200,4.7664052734375,-0.26334667205810547,-0.06886577606201172,-0.008570194244384766
1772728955269923300,4.77592333984375,-0.13780784606933594,-0.06188058853149414,-0.059037864208221436
1772728955279441400,4.78544140625,-0.06451225280761719,-0.05626964569091797,-0.07204854488372803
1772728955288959500,4.79495947265625,-0.02412128448486328,-0.03562021255493164,-0.1053045392036438
1772728955298477300,4.804477294921875,-0.06885623931884766,-0.007508277893066406,-0.1057470440864563
1772728955307995400,4.813995361328125,-0.16253185272216797,0.06350135803222656,-0.13059717416763306
1772728955317513500,4.823513427734375,-0.2452678680419922,0.16975116729736328,-0.10008949041366577
1772728955327031300,4.83303125,-0.32892704010009766,0.332366943359375,-0.07210636138916016
1772728955336549400,4.84254931640625,-0.37526893615722656,0.5177273750305176,-0.07049483060836792
1772728955346067500,4.8520673828125,-0.4422149658203125,0.6623067855834961,-0.0799989104270935
1772728955355585300,4.861585205078125,-0.5786418914794922,0.794926643371582,-0.03692269325256348
1772728955365103400,4.871103271484375,-0.6997671127319336,0.9090509414672852,-0.004646003246307373
1772728955374621200,4.88062109375,-0.7878379821777344,1.0530314445495605,0.0805785059928894
1772728955384139300,4.89013916015625,-0.743433952331543,1.1713027954101562,0.13214677572250366
1772728955393657300,4.8996572265625,-0.5311918258666992,1.2811574935913086,0.16677957773208618
1772728955403175400,4.909175537109375,-0.1821298599243164,1.29356050491333,0.15203696489334106
1772728955412693200,4.918693359375,0.2352609634399414,1.2901411056518555,0.03585916757583618
1772728955422211300,4.92821142578125,0.6387138366699219,1.23453950881958,-0.10963210463523865
1772728955431729400,4.9377294921875,1.0609073638916016,1.1735115051269531,-0.2633247971534729
1772728955441247200,4.947247314453125,1.5223674774169922,1.1061992645263672,-0.3416500985622406
1772728955450765300,4.956765380859375,1.935847282409668,1.0776567459106445,-0.40978649258613586
1772728955460283400,4.966283447265625,2.2138547897338867,1.0502328872680664,-0.38042593002319336
1772728955469801200,4.97580126953125,2.4070968627929688,1.0135540962219238,-0.3440209627151489
1772728955479319300,4.9853193359375,2.338639259338379,0.9687032699584961,-0.3299350142478943
1772728955488837000,4.994837158203125,2.139401435852051,0.8941316604614258,-0.28774189949035645
1772728955498355200,5.004355224609375,1.8465547561645508,0.7763023376464844,-0.15468287467956543
1772728955507873300,5.013873291015625,1.5809221267700195,0.720487117767334,-0.05734366178512573
1772728955517391400,5.023391357421875,1.396498680114746,0.675786018371582,0.06850606203079224
1772728955526909200,5.0329091796875,1.235093116760254,0.5983419418334961,0.13708150386810303
1772728955536427300,5.04242724609375,1.0337018966674805,0.45670080184936523,0.25371283292770386
1772728955545945300,5.0519453125,0.9443883895874023,0.27655553817749023,0.35859256982803345
1772728955555463200,5.061463134765625,1.004404067993164,0.11899232864379883,0.42493656277656555
1772728955564981200,5.070981201171875,1.217982292175293,-0.07562875747680664,0.40759316086769104
1772728955574499300,5.080499267578125,1.5136804580688477,-0.30866503715515137,0.34474217891693115
1772728955584017200,5.09001708984375,1.7712326049804688,-0.5381555557250977,0.22949761152267456
1772728955593535200,5.09953515625,1.9405937194824219,-0.7786283493041992,0.14657679200172424
1772728955603053000,5.109052978515625,1.9623804092407227,-1.0065913200378418,0.15986406803131104
1772728955612571100,5.118571044921875,1.862900733947754,-1.2360377311706543,0.23517447710037231
1772728955622089200,5.128089111328125,1.6125373840332031,-1.3954734802246094,0.33177679777145386
1772728955631607300,5.137607177734375,1.1404914855957031,-1.4428222179412842,0.4528913199901581
1772728955641125000,5.147125,0.5564336776733398,-1.4671545028686523,0.5924426317214966
1772728955650643200,5.156643310546875,-0.06442928314208984,-1.4696979522705078,0.6509069204330444
1772728955660161300,5.166161376953125,-0.6332225799560547,-1.500962257385254,0.7266435623168945
1772728955669679000,5.17567919921875,-1.1262869834899902,-1.5104398727416992,0.7767466306686401
1772728955679197200,5.185197265625,-1.572634220123291,-1.4548988342285156,0.8141376972198486
1772728955688715300,5.19471533203125,-1.9244508743286133,-1.3588261604309082,0.8395336866378784
1772728955698233000,5.204233154296875,-2.18161678314209,-1.2350292205810547,0.8883142471313477
1772728955707751200,5.213751220703125,-2.3046493530273438,-1.1439552307128906,0.9434754848480225
1772728955717269000,5.22326904296875,-2.1578102111816406,-0.9995992183685303,0.989790678024292
1772728955726787000,5.232787109375,-1.7742352485656738,-0.9375865459442139,0.9747204184532166
1772728955736305200,5.24230517578125,-1.1863741874694824,-0.9226794242858887,0.8868351578712463
1772728955745823200,5.2518232421875,-0.5383157730102539,-0.9516215324401855,0.7130330801010132
1772728955755341000,5.261341064453125,0.12398242950439453,-0.9828546047210693,0.5052008628845215
1772728955764859100,5.270859130859375,0.6925086975097656,-1.0394320487976074,0.3332684338092804
1772728955774377200,5.280377197265625,1.1812629699707031,-1.0682029724121094,0.183476984500885
1772728955783895000,5.28989501953125,1.508711814880371,-1.0304908752441406,-0.0074117183685302734
1772728955793413000,5.2994130859375,1.5139274597167969,-0.9908952713012695,-0.19900697469711304
1772728955802931200,5.30893115234375,1.1999998092651367,-0.8636493682861328,-0.26630252599716187
1772728955812449000,5.318448974609375,0.6980352401733398,-0.7282423973083496,-0.29908162355422974
1772728955821967000,5.327967041015625,-0.012298583984375,-0.5355930328369141,-0.2877872586250305
1772728955831485000,5.33748486328125,-0.7415390014648438,-0.40543484687805176,-0.2864466905593872
1772728955841003000,5.3470029296875,-1.4129343032836914,-0.2875080108642578,-0.25686609745025635
1772728955850521000,5.35652099609375,-1.9089422225952148,-0.2401261329650879,-0.09937065839767456
1772728955860039200,5.3660390625,-2.2766551971435547,-0.16011285781860352,0.040895283222198486
1772728955869557000,5.375556884765625,-2.4837026596069336,-0.08414888381958008,0.11478981375694275
1772728955879075000,5.385074951171875,-2.465897560119629,-0.005251884460449219,0.13030359148979187
1772728955888593200,5.39459326171875,-2.237091064453125,0.01968669891357422,0.12402424216270447
1772728955898111000,5.404111083984375,-1.8728199005126953,0.03334379196166992,0.16018009185791016
1772728955907629000,5.413629150390625,-1.4724092483520508,0.01632547378540039,0.19942355155944824
1772728955917147100,5.423147216796875,-1.0945720672607422,0.014069080352783203,0.25711703300476074
1772728955926665000,5.4326650390625,-0.8053512573242188,0.032061100006103516,0.3399294912815094
1772728955936183000,5.44218310546875,-0.5348844528198242,0.03607463836669922,0.4253867566585541
1772728955945700900,5.451700927734375,-0.30447864532470703,0.08565473556518555,0.541082501411438
1772728955955219000,5.461218994140625,-0.13092803955078125,0.08090734481811523,0.59943026304245
1772728955964737000,5.470737060546875,0.07178974151611328,0.08647966384887695,0.5911017656326294
1772728955974255000,5.480255126953125,0.30865478515625,0.15649652481079102,0.515639066696167
1772728955983773000,5.48977294921875,0.5276908874511719,0.17708683013916016,0.4250680208206177
1772728955993291000,5.499291015625,0.6582651138305664,0.22017550468444824,0.3837466835975647
1772728956002809000,5.50880908203125,0.6821956634521484,0.30326294898986816,0.37546008825302124
1772728956012327000,5.518326904296875,0.5283355712890625,0.3828132152557373,0.40463370084762573
1772728956021845000,5.527844970703125,0.3207979202270508,0.5265841484069824,0.4128701090812683
1772728956031363000,5.537363037109375,0.10877513885498047,0.6461963653564453,0.3882315754890442
1772728956040881000,5.546880859375,-0.08267688751220703,0.7731494903564453,0.3642868399620056
1772728956050399000,5.55639892578125,-0.21923160552978516,0.8198342323303223,0.4119182229042053
1772728956059916800,5.565916748046875,-0.3237190246582031,0.8438830375671387,0.4155465364456177
1772728956069435000,5.575434814453125,-0.3566436767578125,0.887946605682373,0.41975417733192444
1772728956078953000,5.584952880859375,-0.30199337005615234,0.9243268966674805,0.3690643608570099
1772728956088471000,5.594470947265625,-0.18152141571044922,0.9363422393798828,0.3800385594367981
1772728956097988900,5.60398876953125,0.09100532531738281,0.9301776885986328,0.40472763776779175
1772728956107507000,5.6135068359375,0.40625,0.9230661392211914,0.4519440531730652
1772728956117025000,5.62302490234375,0.717280387878418,0.8557395935058594,0.4857149124145508
1772728956126542800,5.63254296875,0.9415426254272461,0.7813286781311035,0.5027952194213867
1772728956136061000,5.64206103515625,1.068160057067871,0.7555036544799805,0.4977402091026306
1772728956145579000,5.6515791015625,1.169839859008789,0.8025956153869629,0.45972681045532227
1772728956155096800,5.661096923828125,1.2212944030761719,0.7822833061218262,0.38450637459754944
1772728956164615000,5.670614990234375,1.2662172317504883,0.7770981788635254,0.30254441499710083
1772728956174132700,5.6801328125,1.2069568634033203,0.7437481880187988,0.22446751594543457
1772728956183650800,5.68965087890625,1.129399299621582,0.7163124084472656,0.0991317629814148
1772728956193169000,5.6991689453125,1.0234508514404297,0.7437548637390137,-0.10811680555343628
1772728956202687000,5.70868701171875,0.947932243347168,0.8134670257568359,-0.3038139343261719
1772728956212204800,5.718204833984375,0.9206876754760742,0.8226752281188965,-0.4280211329460144
1772728956221723000,5.727722900390625,0.899907112121582,0.7690176963806152,-0.5155144333839417
1772728956231241000,5.737240966796875,0.9036808013916016,0.723905086517334,-0.5860148072242737
1772728956240758800,5.7467587890625,0.9959135055541992,0.6645145416259766,-0.6674152612686157
1772728956250276900,5.75627685546875,1.1188230514526367,0.5150575637817383,-0.6641543507575989
1772728956259795000,5.765794921875,1.2701139450073242,0.32300758361816406,-0.6533327102661133
1772728956269312800,5.775312744140625,1.5459537506103516,0.07962512969970703,-0.6446325182914734
1772728956278830800,5.784830810546875,1.9139165878295898,-0.17472457885742188,-0.6876142024993896
1772728956288348700,5.7943486328125,2.265854835510254,-0.45590925216674805,-0.6955546140670776
1772728956297866800,5.80386669921875,2.5418996810913086,-0.7969841957092285,-0.6842584609985352
1772728956307384800,5.813384765625,2.509866714477539,-1.1388494968414307,-0.6171038746833801
1772728956316902700,5.822902587890625,2.080386161804199,-1.389608383178711,-0.5383604764938354
1772728956326420700,5.832420654296875,1.4142417907714844,-1.4607512950897217,-0.5302813053131104
1772728956335938800,5.841938720703125,0.5994577407836914,-1.4267892837524414,-0.5494289398193359
1772728956345457000,5.851456787109375,-0.2482624053955078,-1.324571132659912,-0.5129646062850952
1772728956354974700,5.860974609375,-0.9732756614685059,-1.2071681022644043,-0.4368562698364258
1772728956364492800,5.870492919921875,-1.571040153503418,-1.1414809226989746,-0.3349166512489319
1772728956374011000,5.880010986328125,-2.034658432006836,-1.1251888275146484,-0.20595061779022217
1772728956383528700,5.88952880859375,-2.337688446044922,-1.0998280048370361,-0.1491801142692566
1772728956393046800,5.899046875,-2.364795684814453,-1.0562987327575684,-0.1622920036315918
1772728956402564600,5.908564697265625,-2.105057716369629,-1.027977466583252,-0.1657423973083496
1772728956412082700,5.918082763671875,-1.7042312622070312,-1.047335147857666,-0.19010668992996216
1772728956421600800,5.927600830078125,-1.2283453941345215,-1.0643775463104248,-0.22601395845413208
1772728956431118600,5.93711865234375,-0.7551794052124023,-1.0841679573059082,-0.17603379487991333
1772728956440636700,5.94663671875,-0.29810523986816406,-1.1039693355560303,-0.06355398893356323
1772728956450154800,5.95615478515625,0.05300140380859375,-1.1324853897094727,0.03432506322860718
1772728956459672600,5.965672607421875,0.32054710388183594,-1.1301188468933105,0.11648887395858765
1772728956469190700,5.975190673828125,0.4793987274169922,-1.115088939666748,0.1918061375617981
1772728956478708700,5.984708740234375,0.5022048950195312,-1.0366909503936768,0.24474608898162842
1772728956488226800,5.994226806640625,0.36888694763183594,-0.947110652923584,0.28148743510246277
1772728956497744600,6.00374462890625,0.13073348999023438,-0.8811883926391602,0.3535280227661133
1772728956507262700,6.0132626953125,-0.2522392272949219,-0.7821249961853027,0.4811059236526489
1772728956516780500,6.022780517578125,-0.6341943740844727,-0.6972284317016602,0.6067008972167969
1772728956526298600,6.032298583984375,-0.9653487205505371,-0.563683032989502,0.7191008925437927
1772728956535816700,6.041816650390625,-1.2608013153076172,-0.39944028854370117,0.7156500816345215
1772728956545334500,6.05133447265625,-1.4903931617736816,-0.33438730239868164,0.7128941416740417
1772728956554852600,6.0608525390625,-1.645608901977539,-0.24007892608642578,0.6459718346595764
1772728956564370700,6.07037060546875,-1.6724591255187988,-0.17491817474365234,0.6025037169456482
1772728956573888500,6.079888427734375,-1.5883941650390625,-0.11183309555053711,0.5958729386329651
1772728956583406600,6.089406494140625,-1.4391326904296875,-0.03379201889038086,0.6028947234153748
1772728956592924700,6.098924560546875,-1.2482657432556152,0.06330299377441406,0.5416274666786194
1772728956602442800,6.10844287109375,-0.9579553604125977,0.1185770034790039,0.45624464750289917
1772728956611960600,6.117960693359375,-0.5507688522338867,0.14678573608398438,0.32715365290641785
1772728956621478700,6.127478759765625,-0.16718101501464844,0.12961816787719727,0.15686386823654175
1772728956630996500,6.13699658203125,0.0810098648071289,0.10906791687011719,0.0074356794357299805
1772728956640514600,6.1465146484375,0.23226642608642578,0.12784099578857422,-0.0900227427482605
1772728956650032600,6.15603271484375,0.26265716552734375,0.21957063674926758,-0.161146879196167
1772728956659550500,6.165550537109375,0.19101428985595703,0.24670124053955078,-0.19937008619308472
1772728956669068500,6.175068603515625,0.04339885711669922,0.2703390121459961,-0.25281041860580444
1772728956678586600,6.184586669921875,-0.09219074249267578,0.2892026901245117,-0.2448059320449829
1772728956688104400,6.1941044921875,-0.21113872528076172,0.35140180587768555,-0.20363348722457886
1772728956697622500,6.20362255859375,-0.35619544982910156,0.43024539947509766,-0.19023823738098145
1772728956707140600,6.213140625,-0.4483165740966797,0.5180907249450684,-0.20698273181915283
1772728956716658400,6.222658447265625,-0.4968738555908203,0.6454586982727051,-0.23144972324371338
1772728956726176500,6.232176513671875,-0.49688243865966797,0.7186050415039062,-0.1889311671257019
1772728956735694600,6.241694580078125,-0.47220325469970703,0.7756028175354004,-0.10584908723831177
1772728956745212400,6.25121240234375,-0.42546749114990234,0.7977786064147949,-0.05149883031845093
1772728956754730500,6.26073046875,-0.3859109878540039,0.8722443580627441,-0.0020948052406311035
1772728956764248600,6.27024853515625,-0.3683948516845703,0.8999142646789551,0.01712888479232788
1772728956773766400,6.279766357421875,-0.29932689666748047,0.9368138313293457,0.028378188610076904
1772728956783284500,6.289284423828125,-0.18140792846679688,0.9594411849975586,0.03426802158355713
1772728956792802600,6.298802490234375,-0.04104900360107422,0.9416885375976562,-0.0005741715431213379
1772728956802320400,6.3083203125,0.18166065216064453,0.8997564315795898,-0.066494882106781
1772728956811838500,6.31783837890625,0.40567684173583984,0.8853950500488281,-0.17902106046676636
1772728956821356500,6.3273564453125,0.6266622543334961,0.8641562461853027,-0.3408811092376709
1772728956830874400,6.336874267578125,0.8332624435424805,0.8850994110107422,-0.42718857526779175
1772728956840392400,6.346392333984375,0.992584228515625,0.8849396705627441,-0.44853347539901733
1772728956849910500,6.35591064453125,1.0933151245117188,0.9221758842468262,-0.4350420832633972
1772728956859428400,6.365428466796875,1.076096534729004,0.9795613288879395,-0.44253164529800415
1772728956868946400,6.374946533203125,0.97918701171875,1.0383267402648926,-0.4405974745750427
1772728956878464500,6.384464599609375,0.7375755310058594,1.078409194946289,-0.4114137887954712
1772728956887982300,6.393982421875,0.5102882385253906,1.0642213821411133,-0.38623446226119995
1772728956897500400,6.40350048828125,0.3174114227294922,1.0060834884643555,-0.32979947328567505
1772728956907018500,6.4130185546875,0.267486572265625,0.9257678985595703,-0.22624218463897705
1772728956916536300,6.422536376953125,0.3857698440551758,0.7938141822814941,-0.08606863021850586
1772728956926054400,6.432054443359375,0.5836200714111328,0.7152266502380371,-0.03824061155319214
1772728956935572200,6.441572265625,0.7969894409179688,0.5597686767578125,-0.04270339012145996
1772728956945090300,6.45109033203125,1.1245002746582031,0.35467100143432617,-0.04502832889556885
1772728956954608400,6.4606083984375,1.4904985427856445,0.12908315658569336,-0.06686389446258545
1772728956964126500,6.47012646484375,1.9247140884399414,-0.104888916015625,0.0028748810291290283
1772728956973644300,6.479644287109375,2.3471384048461914,-0.3549318313598633,0.062307506799697876
1772728956983162400,6.489162353515625,2.6230621337890625,-0.6480159759521484,0.0517365038394928
1772728956992680400,6.498680419921875,2.6802186965942383,-0.9323344230651855,-0.05899509787559509
1772728957002198800,6.50819873046875,2.427213668823242,-1.1530556678771973,-0.09669288992881775
1772728957011716400,6.51771630859375,1.9060535430908203,-1.261279582977295,0.06152483820915222
1772728957021234400,6.527234375,1.2771873474121094,-1.2590584754943848,0.30113738775253296
1772728957030752300,6.536752197265625,0.6307821273803711,-1.2544410228729248,0.48087382316589355
1772728957040270300,6.546270263671875,0.020505905151367188,-1.26115083694458,0.5569890737533569
1772728957049788200,6.5557880859375,-0.428680419921875,-1.252077579498291,0.5969674587249756
1772728957059306200,6.56530615234375,-0.8212814331054688,-1.2290654182434082,0.6655563712120056
1772728957068824300,6.57482421875,-1.142366886138916,-1.2246708869934082,0.7257291078567505
1772728957078342100,6.584342041015625,-1.4174408912658691,-1.202561378479004,0.7628906965255737
1772728957087860200,6.593860107421875,-1.554922103881836,-1.1460034847259521,0.7267425060272217
1772728957097378300,6.60337841796875,-1.6111664772033691,-1.0221366882324219,0.6440411806106567
1772728957106896400,6.612896484375,-1.5296993255615234,-0.9518218040466309,0.49739134311676025
1772728957116414200,6.622414306640625,-1.2821922302246094,-0.9135174751281738,0.35628870129585266
1772728957125932000,6.63193212890625,-0.9518842697143555,-0.9108161926269531,0.27886343002319336
1772728957135450400,6.641450439453125,-0.5353231430053711,-0.9388444423675537,0.21784719824790955
1772728957144968200,6.65096826171875,-0.11700153350830078,-0.976865291595459,0.12809550762176514
1772728957154486300,6.660486328125,0.23810768127441406,-0.9687800407409668,0.04709935188293457
1772728957164004000,6.670004150390625,0.6085882186889648,-0.9284677505493164,-0.050729453563690186
1772728957173522200,6.679522216796875,0.8697347640991211,-0.8457529544830322,-0.1591593325138092
1772728957183040300,6.689040283203125,0.9347677230834961,-0.7381448745727539,-0.21395167708396912
1772728957192558000,6.69855810546875,0.7879762649536133,-0.6453113555908203,-0.22694575786590576
1772728957202076200,6.708076171875,0.33870601654052734,-0.547135591506958,-0.2797582447528839
1772728957211594200,6.71759423828125,-0.2325448989868164,-0.46141743659973145,-0.2687333822250366
1772728957221112000,6.727112060546875,-0.8753776550292969,-0.3636963367462158,-0.18066707253456116
1772728957230630100,6.736630126953125,-1.4176959991455078,-0.2537803649902344,-0.0957067608833313
1772728957240148200,6.746148193359375,-1.7872657775878906,-0.15237903594970703,-0.019797205924987793
1772728957249666000,6.755666015625,-2.0330944061279297,-0.06724023818969727,0.05547967553138733
1772728957259184000,6.76518408203125,-2.1030635833740234,-0.026755332946777344,0.1024114191532135
1772728957268702200,6.7747021484375,-2.037722587585449,0.04935789108276367,0.10895061492919922
1772728957278220000,6.784219970703125,-1.860504150390625,0.07342672348022461,0.08850866556167603
1772728957287738000,6.793738037109375,-1.6140122413635254,0.10152292251586914,0.09765985608100891
1772728957297256200,6.803256103515625,-1.3120479583740234,0.11303949356079102,0.08986702561378479
1772728957306774000,6.81277392578125,-0.9637327194213867,0.1162114143371582,0.046440690755844116
1772728957316292000,6.8222919921875,-0.6811065673828125,0.14626026153564453,0.05029118061065674
1772728957325810000,6.831809814453125,-0.4352598190307617,0.16717243194580078,0.13519546389579773
1772728957335328000,6.841327880859375,-0.2426910400390625,0.20989513397216797,0.20690089464187622
1772728957344846000,6.85084619140625,-0.09354496002197266,0.23363733291625977,0.26508477330207825
1772728957354364000,6.860364013671875,0.058010101318359375,0.2567481994628906,0.3171040117740631
1772728957363882000,6.869882080078125,0.21480369567871094,0.2686023712158203,0.3312157988548279
1772728957373400000,6.879400146484375,0.30339527130126953,0.3108978271484375,0.31452637910842896
1772728957382918100,6.888918212890625,0.37465381622314453,0.3273301124572754,0.31245481967926025
1772728957392436000,6.89843603515625,0.38143062591552734,0.36194419860839844,0.33107566833496094
1772728957401954000,6.9079541015625,0.31957054138183594,0.411257266998291,0.3752359449863434
1772728957411472100,6.91747216796875,0.18197345733642578,0.4756021499633789,0.4104524850845337
1772728957420990000,6.926989990234375,0.0017461776733398438,0.5537757873535156,0.4687853157520294
1772728957430508000,6.936508056640625,-0.20752906799316406,0.6284394264221191,0.517885684967041
1772728957440025900,6.94602587890625,-0.42539310455322266,0.7139639854431152,0.4810948371887207
1772728957449544000,6.9555439453125,-0.5835590362548828,0.8005342483520508,0.43799689412117004
1772728957459062000,6.96506201171875,-0.6496009826660156,0.8804388046264648,0.4292263686656952
1772728957468579800,6.974579833984375,-0.6530179977416992,0.8785243034362793,0.44629764556884766
1772728957478098000,6.984097900390625,-0.5656681060791016,0.8695635795593262,0.3944365978240967
1772728957487616000,6.993615966796875,-0.4406566619873047,0.8422684669494629,0.38896629214286804
1772728957497133800,7.0031337890625,-0.29717254638671875,0.8325319290161133,0.3678000867366791
1772728957506652000,7.01265185546875,-0.09916019439697266,0.8087282180786133,0.41242358088493347
1772728957516170000,7.022169921875,0.08462047576904297,0.8080105781555176,0.4909033179283142
1772728957525688000,7.03168798828125,0.27898597717285156,0.8023276329040527,0.5173161029815674
1772728957535206000,7.041205810546875,0.5543403625488281,0.7986612319946289,0.4667294919490814
1772728957544724000,7.050723876953125,0.7588939666748047,0.804072380065918,0.3773384690284729
1772728957554241800,7.06024169921875,0.9297685623168945,0.8231110572814941,0.2644376754760742
1772728957563759900,7.069759765625,0.989192008972168,0.8345751762390137,0.11688236892223358
1772728957573278000,7.07927783203125,1.0500431060791016,0.8876953125,-0.009639948606491089
1772728957582795800,7.088795654296875,0.959385871887207,0.8970098495483398,-0.16159102320671082
1772728957592313900,7.09831396484375,0.8814821243286133,0.9122943878173828,-0.35158008337020874
1772728957601832000,7.10783203125,0.7959575653076172,0.8909621238708496,-0.5386826395988464
1772728957611349800,7.117349853515625,0.7610559463500977,0.8696064949035645,-0.7137395143508911
1772728957620867800,7.126867919921875,0.782414436340332,0.8463711738586426,-0.8570878505706787
1772728957630385700,7.1363857421875,0.9184169769287109,0.7709317207336426,-1.0023283958435059
1772728957639903700,7.14590380859375,1.0962896347045898,0.6282215118408203,-1.0874990224838257
1772728957649421800,7.155421875,1.3440742492675781,0.471560001373291,-1.1056652069091797
1772728957658940000,7.16493994140625,1.6014728546142578,0.2968583106994629,-1.082716941833496
1772728957668457700,7.174457763671875,1.8376855850219727,0.03684425354003906,-1.0684854984283447
1772728957677975800,7.183975830078125,2.154282569885254,-0.23677349090576172,-1.0255639553070068
1772728957687494000,7.193493896484375,2.515202522277832,-0.5577921867370605,-1.0049511194229126
1772728957697011700,7.20301171875,2.6077117919921875,-0.8645520210266113,-0.9817124009132385
1772728957706529800,7.21252978515625,2.250412940979004,-1.1534109115600586,-0.821353554725647
1772728957716048000,7.2220478515625,1.6362495422363281,-1.3328056335449219,-0.6177496910095215
1772728957725565700,7.231565673828125,0.9521579742431641,-1.3956141471862793,-0.43068942427635193
1772728957735083800,7.241083740234375,0.3127727508544922,-1.3963820934295654,-0.34506338834762573
1772728957744601600,7.2506015625,-0.2636270523071289,-1.352546215057373,-0.3141205608844757
1772728957754119700,7.26011962890625,-0.6757144927978516,-1.2949140071868896,-0.26866650581359863
1772728957763637800,7.2696376953125,-1.0350017547607422,-1.2515068054199219,-0.22108039259910583
1772728957773155600,7.279155517578125,-1.2214789390563965,-1.2068698406219482,-0.20842230319976807
1772728957782673700,7.288673583984375,-1.3109455108642578,-1.1749110221862793,-0.2445896863937378
1772728957792191700,7.298191650390625,-1.2497749328613281,-1.165560245513916,-0.3527517318725586
1772728957801709600,7.30770947265625,-1.084184169769287,-1.1470942497253418,-0.4303344488143921
1772728957811227600,7.3172275390625,-0.9772863388061523,-1.185711145401001,-0.4754451513290405
1772728957820745700,7.326745849609375,-0.8073444366455078,-1.1979703903198242,-0.49795830249786377
1772728957830263800,7.336263916015625,-0.6009464263916016,-1.1555356979370117,-0.5342201590538025
1772728957839781600,7.34578173828125,-0.3439140319824219,-1.0971360206604004,-0.5077130794525146
1772728957849299700,7.3552998046875,-0.09601402282714844,-1.0734241008758545,-0.4229838252067566
1772728957858817500,7.364817626953125,0.1500835418701172,-1.065718173980713,-0.3530014157295227
1772728957868335600,7.374335693359375,0.2706594467163086,-1.08608078956604,-0.17534470558166504
1772728957877853700,7.383853759765625,0.30506134033203125,-1.071120262145996,0.060082972049713135
1772728957887371500,7.39337158203125,0.19267940521240234,-1.0660698413848877,0.27616044878959656
1772728957896889600,7.4028896484375,-0.01690196990966797,-1.0235295295715332,0.4371706247329712
1772728957906407400,7.412407470703125,-0.30085277557373047,-0.895301103591919,0.5233612656593323
1772728957915925500,7.421925537109375,-0.5627346038818359,-0.7903623580932617,0.6075206398963928
1772728957925443600,7.431443603515625,-0.7926921844482422,-0.6403484344482422,0.5948066711425781
1772728957934961400,7.44096142578125,-1.0049371719360352,-0.563011646270752,0.5850368142127991
1772728957944479500,7.4504794921875,-1.2261090278625488,-0.45740532875061035,0.5867055654525757
1772728957953997600,7.45999755859375,-1.4637231826782227,-0.37543725967407227,0.5941053032875061
1772728957963515600,7.469515625,-1.6371121406555176,-0.23960566520690918,0.5062136650085449
1772728957973033500,7.479033447265625,-1.7832584381103516,-0.17203116416931152,0.39350080490112305
1772728957982551600,7.488551513671875,-1.8601932525634766,-0.12738823890686035,0.28521522879600525
1772728957992069600,7.498069580078125,-1.8378853797912598,-0.05351138114929199,0.25603631138801575
1772728958001587500,7.50758740234375,-1.719414234161377,0.062296152114868164,0.19937974214553833
1772728958011105500,7.51710546875,-1.5697870254516602,0.11310815811157227,0.05684548616409302
1772728958020623400,7.526623291015625,-1.3436269760131836,0.1489107608795166,-0.1410347819328308
1772728958030141400,7.536141357421875,-1.050436019897461,0.19538569450378418,-0.2922518849372864
1772728958039659500,7.545659423828125,-0.7449064254760742,0.2372875213623047,-0.3784048557281494
1772728958049177300,7.55517724609375,-0.4434070587158203,0.28805971145629883,-0.4143891930580139
1772728958058695400,7.5646953125,-0.1908721923828125,0.3205447196960449,-0.48363274335861206
1772728958068213200,7.574213134765625,0.02507781982421875,0.37453508377075195,-0.5746548175811768
1772728958077731300,7.5837314453125,0.12349987030029297,0.4640693664550781,-0.6106902956962585
1772728958087249400,7.59324951171875,0.18378162384033203,0.5288586616516113,-0.5664883852005005
1772728958096767200,7.602767333984375,0.23772048950195312,0.5456130504608154,-0.6058506369590759
1772728958106285300,7.612285400390625,0.30275630950927734,0.6415002346038818,-0.6238574385643005
1772728958115803400,7.621803466796875,0.31231212615966797,0.7178502082824707,-0.6030487418174744
1772728958125321500,7.631321533203125,0.2977895736694336,0.8243961334228516,-0.5709020495414734
1772728958134839300,7.64083935546875,0.2879180908203125,0.9777038097381592,-0.5391989350318909
1772728958144357400,7.650357421875,0.2013683319091797,1.0706253051757812,-0.4842042922973633
1772728958153875500,7.65987548828125,0.09263420104980469,1.1859314441680908,-0.37991130352020264
1772728958163393300,7.669393310546875,-0.024849891662597656,1.273470163345337,-0.26164376735687256
1772728958172911400,7.678911376953125,-0.0160064697265625,1.3884897232055664,-0.10629689693450928
1772728958182429200,7.68842919921875,0.07283496856689453,1.4492628574371338,0.009591519832611084
1772728958191947300,7.697947265625,0.30594444274902344,1.4320988655090332,0.04674941301345825
1772728958201465300,7.70746533203125,0.6667594909667969,1.3406133651733398,0.009357303380966187
1772728958210983200,7.716983154296875,1.0480289459228516,1.1951720714569092,-0.019875168800354004
1772728958220501200,7.726501220703125,1.3762149810791016,1.054311990737915,-0.09146180748939514
1772728958230019300,7.736019287109375,1.6928491592407227,0.9922897815704346,-0.19184264540672302
1772728958239537200,7.745537109375,1.9487428665161133,0.9229404926300049,-0.2678290903568268
1772728958249055200,7.75505517578125,2.085139274597168,0.877657413482666,-0.31397107243537903
1772728958258573000,7.764572998046875,2.078892707824707,0.841120719909668,-0.3040248155593872
1772728958268091100,7.774091064453125,1.9062232971191406,0.8305597305297852,-0.3735726475715637
1772728958277609200,7.783609130859375,1.571615219116211,0.8407917022705078,-0.43750131130218506
1772728958287127300,7.793127197265625,1.2269258499145508,0.8536667823791504,-0.3704404830932617
1772728958296645000,7.80264501953125,0.9038724899291992,0.8662161827087402,-0.20271015167236328
1772728958306163200,7.8121630859375,0.7084293365478516,0.7648732662200928,-0.025423169136047363
1772728958315681300,7.821681396484375,0.6393013000488281,0.6356589794158936,0.1238929033279419
1772728958325199000,7.83119921875,0.6670713424682617,0.44378089904785156,0.16674429178237915
1772728958334717200,7.84071728515625,0.8058929443359375,0.31081295013427734,0.19829893112182617
1772728958344235300,7.8502353515625,1.0220928192138672,0.150421142578125,0.16684600710868835
1772728958353753000,7.859753173828125,1.2537193298339844,-0.03347897529602051,0.18267109990119934
1772728958363271200,7.869271240234375,1.451521873474121,-0.3049910068511963,0.10663342475891113
1772728958372789000,7.8787890625,1.6887168884277344,-0.6244618892669678,0.005249381065368652
1772728958382307000,7.88830712890625,1.8763437271118164,-0.9582424163818359,0.0024392008781433105
1772728958391825200,7.8978251953125,1.9351911544799805,-1.2323710918426514,0.1254763901233673
1772728958401343000,7.907343017578125,1.7811403274536133,-1.4267916679382324,0.3874693512916565
1772728958410861000,7.916861083984375,1.360687255859375,-1.5241169929504395,0.7169520854949951
1772728958420379000,7.92637890625,0.7364683151245117,-1.5594291687011719,0.9862600564956665
1772728958429897000,7.93589697265625,0.02017498016357422,-1.5371406078338623,1.1048431396484375
1772728958439415000,7.9454150390625,-0.6344766616821289,-1.491335153579712,1.1175832748413086
1772728958448933000,7.95493310546875,-1.2224817276000977,-1.4697084426879883,1.1055642366409302
1772728958458451000,7.964450927734375,-1.6862807273864746,-1.4987378120422363,1.1901119947433472
1772728958467969000,7.973968994140625,-2.025798797607422,-1.4977169036865234,1.3422906398773193
1772728958477487000,7.983487060546875,-2.2287893295288086,-1.4870054721832275,1.4089539051055908
1772728958487005000,7.9930048828125,-2.236876964569092,-1.4193806648254395,1.3498200178146362
1772728958496523000,8.00252294921875,-2.0432395935058594,-1.331207513809204,1.1884632110595703
1772728958506041000,8.012041015625,-1.6785202026367188,-1.3056879043579102,0.9903522729873657
1772728958515559000,8.021558837890625,-1.2730917930603027,-1.2093701362609863,0.8720145225524902
1772728958525077000,8.031076904296874,-0.727569580078125,-1.1723766326904297,0.6655338406562805
1772728958534594800,8.0405947265625,-0.16033649444580078,-1.1068806648254395,0.4528100788593292
1772728958544113000,8.05011279296875,0.30098819732666016,-1.066239356994629,0.20366626977920532
1772728958553631000,8.059630859375,0.6792840957641602,-1.0198850631713867,-0.014175057411193848
1772728958563148800,8.069148681640625,0.9162731170654297,-0.9183762073516846,-0.16588526964187622
1772728958572667000,8.0786669921875,0.9415473937988281,-0.7926998138427734,-0.2326764464378357
1772728958582184700,8.088184814453125,0.779850959777832,-0.6511294841766357,-0.23419612646102905
1772728958591702800,8.097702880859375,0.47429561614990234,-0.5076553821563721,-0.27720344066619873
1772728958601220900,8.107220947265626,-0.02341938018798828,-0.35060977935791016,-0.27586114406585693
1772728958610738700,8.11673876953125,-0.6450338363647461,-0.23360466957092285,-0.23337560892105103
1772728958620256800,8.1262568359375,-1.2364883422851562,-0.1360471248626709,-0.12547582387924194
1772728958629774800,8.13577490234375,-1.7372279167175293,-0.04943418502807617,0.009423434734344482
1772728958639293000,8.14529296875,-2.0029640197753906,0.0670173168182373,0.12183195352554321
1772728958648810800,8.154810791015626,-2.1017532348632812,0.08579564094543457,0.15708482265472412
1772728958658328800,8.164328857421875,-2.098613739013672,0.11734533309936523,0.22542491555213928
1772728958667847000,8.173846923828124,-2.000676155090332,0.11324143409729004,0.29062598943710327
1772728958677364700,8.18336474609375,-1.7718510627746582,0.15360450744628906,0.3597766160964966
1772728958686882800,8.1928828125,-1.4187870025634766,0.2150108814239502,0.41379374265670776
1772728958696400600,8.202400634765626,-1.0649490356445312,0.21410131454467773,0.47668612003326416
1772728958705918700,8.211918701171875,-0.7095327377319336,0.19919395446777344,0.5000943541526794
1772728958715436800,8.221436767578124,-0.3592414855957031,0.14759445190429688,0.50713711977005
1772728958724954600,8.23095458984375,-0.06380844116210938,0.16101312637329102,0.545168399810791
1772728958734472700,8.24047265625,0.1151885986328125,0.2048335075378418,0.5035400390625
1772728958743990800,8.24999072265625,0.22351837158203125,0.22830963134765625,0.5128653049468994
1772728958753508600,8.259508544921875,0.21831703186035156,0.2745482921600342,0.5347364544868469
1772728958763026700,8.269026611328124,0.1975870132446289,0.30068469047546387,0.5707733631134033
1772728958772544500,8.27854443359375,0.15158843994140625,0.3360731601715088,0.6049060225486755
1772728958782062600,8.2880625,0.046898841857910156,0.42186522483825684,0.608491063117981
1772728958791580700,8.29758056640625,-0.0686330795288086,0.5055491924285889,0.6726275086402893
1772728958801098500,8.307098388671875,-0.18526077270507812,0.6248524188995361,0.6920162439346313
1772728958810616600,8.316616455078124,-0.2718935012817383,0.715186357498169,0.6411008834838867
1772728958820134700,8.326134765625,-0.31914520263671875,0.7959451675415039,0.6298819184303284
1772728958829652500,8.335652587890625,-0.3057851791381836,0.8675906658172607,0.6489874720573425
1772728958839170600,8.345170654296876,-0.22257518768310547,0.9066052436828613,0.6716997027397156
1772728958848688600,8.354688720703125,-0.1320476531982422,0.9254922866821289,0.6488194465637207
1772728958858206700,8.364206787109374,-0.05384349822998047,0.9421923160552979,0.6083981990814209
1772728958867724500,8.373724609375,0.01884174346923828,0.9741988182067871,0.5972679257392883
1772728958877242600,8.38324267578125,0.14792633056640625,1.0287871360778809,0.576059103012085
1772728958886760400,8.392760498046876,0.29043006896972656,1.0339901447296143,0.5806112885475159
1772728958896278500,8.402278564453125,0.4152393341064453,0.9637393951416016,0.5962085127830505
1772728958905796600,8.411796630859374,0.5511131286621094,0.9064290523529053,0.5658367276191711
1772728958915314400,8.421314453125,0.7006092071533203,0.8521924018859863,0.6075782775878906
1772728958924832500,8.43083251953125,0.8114967346191406,0.7907614707946777,0.6666311025619507
1772728958934350300,8.440350341796876,0.8650999069213867,0.7524654865264893,0.6693418622016907
1772728958943868400,8.449868408203125,0.8692178726196289,0.7315354347229004,0.6676188707351685
1772728958953386500,8.459386474609374,0.7933168411254883,0.7584903240203857,0.5949497818946838
1772728958962904300,8.468904296875,0.7094306945800781,0.8018913269042969,0.47947999835014343
1772728958972422400,8.47842236328125,0.6510429382324219,0.823444128036499,0.38612595200538635
1772728958981940200,8.487940185546876,0.6680431365966797,0.8236207962036133,0.23589426279067993
1772728958991458300,8.497458251953125,0.6908035278320312,0.8626213073730469,0.04258018732070923
1772728959000976400,8.506976318359374,0.7162961959838867,0.8557775020599365,-0.15212106704711914
1772728959010494500,8.516494384765625,0.8034334182739258,0.8213660717010498,-0.2908703684806824
1772728959020012300,8.52601220703125,0.9346294403076172,0.7824051380157471,-0.43747180700302124
1772728959029530400,8.5355302734375,1.102071762084961,0.6589279174804688,-0.5543648600578308
1772728959039048400,8.54504833984375,1.3480520248413086,0.46189284324645996,-0.5924630761146545
1772728959048566300,8.554566162109374,1.6555252075195312,0.2393360137939453,-0.6437326669692993
1772728959058084400,8.56408447265625,1.9695358276367188,-0.009009361267089844,-0.7063432335853577
1772728959067602400,8.5736025390625,2.2784738540649414,-0.2603013515472412,-0.7197390198707581
1772728959077120300,8.583120361328126,2.595942497253418,-0.48287367820739746,-0.7920608520507812
1772728959086638300,8.592638427734375,2.810002326965332,-0.7569952011108398,-0.8258351683616638
1772728959096156200,8.60215625,2.717794418334961,-1.089949607849121,-0.7525939345359802
1772728959105674200,8.61167431640625,2.1729984283447266,-1.3880369663238525,-0.6284614205360413
1772728959115192300,8.6211923828125,1.353388786315918,-1.5386021137237549,-0.5206252336502075
1772728959124710100,8.630710205078126,0.5195198059082031,-1.4665238857269287,-0.4621242880821228
1772728959134228200,8.640228271484375,-0.25293540954589844,-1.3056178092956543,-0.5063187479972839
1772728959143746300,8.649746337890624,-0.9130477905273438,-1.169081211090088,-0.5033771395683289
1772728959153264000,8.65926416015625,-1.4846410751342773,-1.16392183303833,-0.5461024641990662
1772728959162782200,8.6687822265625,-1.8814277648925781,-1.1806528568267822,-0.505745530128479
1772728959172300000,8.678300048828126,-2.0363121032714844,-1.1368913650512695,-0.44078052043914795
1772728959181818000,8.687818115234375,-1.9608840942382812,-1.08735990524292,-0.45350372791290283
1772728959191336200,8.697336181640624,-1.7711124420166016,-1.0427398681640625,-0.5243176817893982
1772728959200854000,8.70685400390625,-1.455465316772461,-1.020143985748291,-0.632034957408905
1772728959210372000,8.7163720703125,-1.0570201873779297,-0.9897546768188477,-0.6991309523582458
1772728959219890200,8.72589013671875,-0.6300525665283203,-0.9680085182189941,-0.635962188243866
1772728959229408000,8.735407958984375,-0.16422748565673828,-0.9332623481750488,-0.5254371166229248
1772728959238926000,8.744926025390624,0.3145284652709961,-0.9233605861663818,-0.47503143548965454
1772728959248444200,8.754444091796875,0.653569221496582,-0.9180028438568115,-0.4383830428123474
1772728959257962000,8.7639619140625,0.7793283462524414,-0.8794054985046387,-0.34990280866622925
1772728959267480000,8.77347998046875,0.7262868881225586,-0.8415765762329102,-0.15963995456695557
1772728959276998100,8.782998046875,0.5462017059326172,-0.7581610679626465,0.0727386474609375
1772728959286516000,8.792515869140624,0.22149944305419922,-0.7000963687896729,0.2899264693260193
1772728959296034000,8.802033935546875,-0.19167137145996094,-0.6683945655822754,0.44199514389038086
1772728959305552100,8.81155224609375,-0.5565109252929688,-0.5825433731079102,0.6280531287193298
1772728959315070000,8.821070068359376,-0.8155136108398438,-0.4481503963470459,0.7111534476280212
1772728959324588000,8.830588134765625,-1.0261993408203125,-0.34679484367370605,0.7604451775550842
1772728959334105900,8.84010595703125,-1.193333625793457,-0.23347854614257812,0.7497066259384155
1772728959343624000,8.8496240234375,-1.3269672393798828,-0.16967153549194336,0.6919515132904053
1772728959353142000,8.85914208984375,-1.3753252029418945,-0.1087181568145752,0.6068221926689148
1772728959362659800,8.868659912109376,-1.3869576454162598,-0.0612940788269043,0.5292045474052429
1772728959372178000,8.878177978515625,-1.379345417022705,-0.0449373722076416,0.48004665970802307
1772728959381695700,8.88769580078125,-1.310251235961914,-0.017516613006591797,0.3917374014854431
1772728959391213800,8.8972138671875,-1.2066302299499512,-0.0136566162109375,0.2877767086029053
1772728959400732000,8.90673193359375,-1.107285499572754,0.005991935729980469,0.21273988485336304
1772728959410249700,8.916249755859376,-0.9504261016845703,0.025236845016479492,0.12059527635574341
1772728959419767800,8.925767822265625,-0.7717676162719727,0.050650835037231445,0.04200291633605957
1772728959429286000,8.935285888671874,-0.5828857421875,0.09067034721374512,-0.0357813835144043
1772728959438803700,8.9448037109375,-0.4095335006713867,0.11050891876220703,-0.04408019781112671
1772728959448321800,8.95432177734375,-0.23191547393798828,0.16353511810302734,-0.03558659553527832
1772728959457839900,8.96383984375,-0.06375980377197266,0.22422313690185547,-0.049085140228271484
1772728959467357700,8.973357666015625,0.01900768280029297,0.25592637062072754,-0.0857204794883728
1772728959476875800,8.982875732421874,0.026358604431152344,0.28463268280029297,-0.1085900068283081
1772728959486393900,8.992393798828125,-0.007932662963867188,0.31484389305114746,-0.11687135696411133
1772728959495911700,9.00191162109375,-0.02401256561279297,0.3821547031402588,-0.1105884313583374
1772728959505429800,9.0114296875,-0.08631420135498047,0.45998215675354004,-0.09736412763595581
1772728959514947800,9.02094775390625,-0.17557525634765625,0.5314254760742188,-0.12040942907333374
1772728959524465700,9.030465576171874,-0.27522945404052734,0.6614782810211182,-0.08171486854553223
1772728959533983700,9.039983642578125,-0.4096498489379883,0.7773032188415527,-0.043586671352386475
1772728959543501800,9.049501708984375,-0.5271196365356445,0.90248703956604,-0.03503304719924927
1772728959553019600,9.05901953125,-0.5713462829589844,1.020183801651001,0.013089478015899658
1772728959562537700,9.068537841796875,-0.5432147979736328,1.0964772701263428,0.05165135860443115
1772728959572055600,9.0780556640625,-0.4144268035888672,1.1964685916900635,0.02673208713531494
1772728959581573600,9.08757373046875,-0.1634693145751953,1.2337758541107178,-0.007357478141784668
1772728959591091700,9.097091796875,0.16692543029785156,1.202650785446167,-0.03784191608428955
1772728959600609500,9.106609619140626,0.579594612121582,1.1086947917938232,-0.11586976051330566
1772728959610127600,9.116127685546875,1.0035228729248047,0.993037223815918,-0.26090681552886963
1772728959619645400,9.1256455078125,1.399017333984375,0.898836612701416,-0.3702634572982788
1772728959629163500,9.13516357421875,1.7336063385009766,0.8594772815704346,-0.4930375814437866
1772728959638681600,9.144681640625,1.9676971435546875,0.8533244132995605,-0.5691027641296387
1772728959648199400,9.154199462890626,2.0065221786499023,0.8215970993041992,-0.5884047746658325
1772728959657717500,9.163717529296875,1.8696680068969727,0.8499898910522461,-0.6008431911468506
1772728959667235300,9.1732353515625,1.5805530548095703,0.9095373153686523,-0.5496770143508911
1772728959676753400,9.18275341796875,1.1139650344848633,0.9472999572753906,-0.4677245616912842
1772728959686271500,9.192271484375,0.663996696472168,1.0018072128295898,-0.3187006115913391
1772728959695789300,9.201789306640626,0.3433971405029297,1.0247957706451416,-0.1494693160057068
1772728959705307400,9.211307373046875,0.19855022430419922,1.0190680027008057,0.03295421600341797
1772728959714825500,9.220825439453124,0.1524677276611328,0.9996683597564697,0.14975503087043762
1772728959724343300,9.23034326171875,0.2771587371826172,0.9701046943664551,0.22417739033699036
1772728959733861400,9.239861328125,0.5256223678588867,0.8752737045288086,0.2306727170944214
1772728959743379500,9.24937939453125,0.8987159729003906,0.7078037261962891,0.21662622690200806
1772728959752897300,9.258897216796875,1.3112306594848633,0.45327186584472656,0.20404398441314697
1772728959762415400,9.268415283203124,1.6228580474853516,0.17946529388427734,0.1676580309867859
1772728959771933400,9.277933349609375,1.8180503845214844,-0.12521958351135254,0.052986323833465576
1772728959781451300,9.287451171875,1.9482192993164062,-0.4702749252319336,-0.030048251152038574
1772728959790969300,9.29696923828125,1.9669742584228516,-0.7893877029418945,0.01293957233428955
1772728959800487400,9.3064873046875,1.847062110900879,-1.0806398391723633,0.12564373016357422
1772728959810005200,9.316005126953126,1.4940710067749023,-1.2214577198028564,0.284878134727478
1772728959819523300,9.3255234375,0.9228677749633789,-1.3191330432891846,0.4272617697715759
1772728959829041400,9.33504150390625,0.3527803421020508,-1.31644606590271,0.5114825367927551
1772728959838559200,9.344559326171876,-0.1794443130493164,-1.2813563346862793,0.625636637210846
1772728959848077300,9.354077392578125,-0.6423406600952148,-1.2715327739715576,0.736831784248352
1772728959857595100,9.36359521484375,-1.0023880004882812,-1.2871036529541016,0.8892876505851746
1772728959867113200,9.37311328125,-1.2977571487426758,-1.3355977535247803,1.014945149421692
1772728959876631300,9.38263134765625,-1.525400161743164,-1.3350496292114258,1.0422219038009644
1772728959886149000,9.392149169921876,-1.667436122894287,-1.3240008354187012,1.0158519744873047
1772728959895667200,9.401667236328125,-1.662186622619629,-1.299699306488037,0.9828552007675171
1772728959905185000,9.41118505859375,-1.3876514434814453,-1.3089666366577148,0.8759715557098389
1772728959914703000,9.420703125,-0.965001106262207,-1.3282959461212158,0.7169817686080933
1772728959924221200,9.43022119140625,-0.45984935760498047,-1.3205668926239014,0.4712677299976349
1772728959933739000,9.439739013671876,-0.03544425964355469,-1.2867889404296875,0.2975425720214844
1772728959943257000,9.449257080078125,0.42173290252685547,-1.2533988952636719,0.17124003171920776
1772728959952775000,9.45877490234375,0.7165660858154297,-1.222165584564209,0.06913930177688599
1772728959962293000,9.46829296875,0.8692150115966797,-1.1901144981384277,-0.09162294864654541
1772728959971811000,9.47781103515625,0.8424139022827148,-1.0849568843841553,-0.2530423402786255
1772728959981329000,9.487328857421875,0.6391258239746094,-0.9456379413604736,-0.35149019956588745
1772728959990847000,9.496846923828125,0.3526458740234375,-0.7937102317810059,-0.3486873507499695
1772728960000365000,9.506364990234376,0.023261070251464844,-0.6523699760437012,-0.34208476543426514
1772728960009883000,9.5158828125,-0.4786100387573242,-0.5720729827880859,-0.3089646100997925
1772728960019401000,9.52540087890625,-1.0295257568359375,-0.46865367889404297,-0.20693278312683105
1772728960028919000,9.5349189453125,-1.4752979278564453,-0.39183664321899414,-0.11275309324264526
1772728960038436900,9.544436767578125,-1.7837085723876953,-0.32240962982177734,0.03277701139450073
1772728960047955000,9.553954833984376,-1.9436182975769043,-0.2612895965576172,0.1889793872833252
1772728960057473000,9.56347314453125,-1.9599919319152832,-0.22055411338806152,0.2616099715232849
1772728960066990800,9.572990966796874,-1.8853416442871094,-0.15073680877685547,0.318060964345932
1772728960076509000,9.582509033203126,-1.7720341682434082,-0.1006011962890625,0.352655291557312
1772728960086027000,9.592027099609375,-1.6293087005615234,-0.05678391456604004,0.38370057940483093
1772728960095544800,9.601544921875,-1.4233388900756836,-0.04638981819152832,0.4360276460647583
1772728960105063000,9.61106298828125,-1.144312858581543,-0.058305978775024414,0.5048835873603821
1772728960114581000,9.6205810546875,-0.837615966796875,-0.07862257957458496,0.5487480163574219
1772728960124098800,9.630098876953125,-0.5674924850463867,-0.03409838676452637,0.5834929347038269
1772728960133617000,9.639616943359375,-0.31203174591064453,0.024194002151489258,0.5136549472808838
1772728960143134700,9.649134765625,-0.06830310821533203,0.10435128211975098,0.4649982750415802
1772728960152652800,9.65865283203125,0.0733346939086914,0.14330101013183594,0.4032618999481201
1772728960162171000,9.6681708984375,0.17075824737548828,0.19998788833618164,0.3477635979652405
1772728960171688700,9.677688720703125,0.23856639862060547,0.1999349594116211,0.36784833669662476
1772728960181206800,9.687206787109375,0.25784969329833984,0.27915263175964355,0.3757479190826416
1772728960190724600,9.696724609375,0.20725154876708984,0.32294559478759766,0.3410254418849945
1772728960200242700,9.70624267578125,0.05797004699707031,0.41831421852111816,0.3362613916397095
1772728960209760800,9.7157607421875,-0.1041717529296875,0.5064206123352051,0.32139939069747925
1772728960219278600,9.725278564453125,-0.16501331329345703,0.5740087032318115,0.29151302576065063
1772728960228796700,9.734796630859375,-0.14412498474121094,0.6169259548187256,0.28969061374664307
1772728960238314500,9.744314453125,-0.08483123779296875,0.6379640102386475,0.2583351731300354
1772728960247832600,9.75383251953125,-0.03747367858886719,0.6540164947509766,0.2014939785003662
1772728960257350700,9.7633505859375,0.10045814514160156,0.6890277862548828,0.12499523162841797
1772728960266868500,9.772868408203125,0.22585105895996094,0.6858572959899902,0.01994377374649048
1772728960276386600,9.782386474609375,0.36015796661376953,0.7043137550354004,-0.06621372699737549
1772728960285904600,9.791904541015626,0.4842863082885742,0.6798624992370605,-0.10948401689529419
1772728960295422500,9.80142236328125,0.6293439865112305,0.6219968795776367,-0.07429230213165283
1772728960304940500,9.8109404296875,0.7763175964355469,0.5712146759033203,0.07092177867889404
1772728960314458400,9.820458251953125,0.8942909240722656,0.5272362232208252,0.1731853485107422
1772728960323976400,9.8299765625,0.9503631591796875,0.4866676330566406,0.19236642122268677
1772728960333494500,9.83949462890625,0.8972492218017578,0.494337797164917,0.24165958166122437
1772728960343012400,9.849012451171875,0.7331361770629883,0.5260257720947266,0.34458428621292114
1772728960352530400,9.858530517578124,0.5513992309570312,0.5989668369293213,0.4774009585380554
1772728960362048500,9.868048583984375,0.3924245834350586,0.6948518753051758,0.5865557789802551
1772728960371566300,9.87756640625,0.3037891387939453,0.7520592212677002,0.5895472764968872
1772728960381084400,9.88708447265625,0.3164329528808594,0.7776668071746826,0.4984181523323059
1772728960390602500,9.8966025390625,0.44194984436035156,0.7907805442810059,0.3834940791130066
1772728960400120300,9.906120361328124,0.588984489440918,0.7728886604309082,0.23834216594696045
1772728960409638400,9.915638427734375,0.7186660766601562,0.7013447284698486,0.09496450424194336
1772728960419156500,9.925156494140625,0.9023370742797852,0.5599327087402344,-0.09587490558624268
1772728960428674300,9.93467431640625,1.1610689163208008,0.3730888366699219,-0.1726619005203247
1772728960438192400,9.9441923828125,1.5035715103149414,0.1419210433959961,-0.15178906917572021
1772728960447710200,9.953710205078124,1.752176284790039,-0.06748843193054199,-0.2424083948135376
1772728960457228300,9.963228271484375,1.877939224243164,-0.2872443199157715,-0.36009395122528076
1772728960466746400,9.972746337890625,2.02439022064209,-0.49347949028015137,-0.4093139171600342
1772728960476264200,9.98226416015625,2.199848175048828,-0.7015373706817627,-0.4423915147781372
1772728960485782300,9.9917822265625,2.4186830520629883,-0.9394986629486084,-0.4946039915084839
1772728960495300400,10.00130029296875,2.8026199340820312,-1.3298192024230957,-0.3338361978530884
1772728960504818200,10.010818115234375,2.488163948059082,-1.4802041053771973,-0.14043760299682617
1772728960514336300,10.020336181640625,1.402409553527832,-1.5063519477844238,-0.17639005184173584
1772728960523854000,10.02985400390625,0.5759248733520508,-1.3228602409362793,-0.494387149810791
1772728960533372200,10.0393720703125,-0.19981861114501953,-1.262472152709961,-0.5920497179031372
1772728960542890200,10.04889013671875,-0.8750486373901367,-1.213538646697998,-0.35558265447616577
1772728960552408000,10.058407958984375,-1.4308528900146484,-1.2015447616577148,-0.08455252647399902
1772728960561926100,10.067926025390625,-1.8197531700134277,-1.2474031448364258,0.17390578985214233
1772728960571444200,10.0774443359375,-2.0062317848205566,-1.363034725189209,0.1795167326927185
