time,seconds_elapsed,z,y,x
1772728950587068700,0.093068603515625,0.07269290834665298,0.13683371245861053,0.06597339361906052
1772728950596586500,0.10258642578125,0.08613193035125732,0.18325942754745483,0.09529490768909454
1772728950606104600,0.1121044921875,0.10201441496610641,0.23212862014770508,0.12461641430854797
1772728950615622700,0.12162255859375,0.11911863088607788,0.277332603931427,0.1484401375055313
1772728950625140500,0.131140380859375,0.13500112295150757,0.3090975880622864,0.1588248461484909
1772728950634658600,0.140658447265625,0.15271618962287903,0.32620179653167725,0.1539379209280014
1772728950644176600,0.1501767578125,0.1692095398902893,0.32559093832969666,0.1337793916463852
1772728950653694500,0.159694580078125,0.18570289015769958,0.2968802750110626,0.10079269111156464
1772728950663212500,0.169212646484375,0.20647229254245758,0.23823726177215576,0.05803215503692627
1772728950672730600,0.178730712890625,0.22785256803035736,0.143553227186203,0.010384701192378998
1772728950682248700,0.188248779296875,0.2467893660068512,0.020158538594841957,-0.0360410213470459
1772728950691766500,0.1977666015625,0.2608392536640167,-0.08368847519159317,-0.07635809481143951
1772728950701284600,0.20728466796875,0.2706131041049957,-0.14294235408306122,-0.0977383628487587
1772728950710802700,0.216802734375,0.27550002932548523,-0.16676609218120575,-0.0922405794262886
1772728950720320800,0.22632080078125,0.2761108875274658,-0.1740964651107788,-0.04581485688686371
1772728950729838600,0.235838623046875,0.277332603931427,-0.14782927930355072,0.031154103577136993
1772728950739356700,0.245356689453125,0.27916520833969116,-0.10445787757635117,0.12522727251052856
1772728950748874500,0.25487451171875,0.2889390289783478,-0.056199558079242706,0.21991132199764252
1772728950758392600,0.264392578125,0.3078758418560028,-0.002443459117785096,0.3078758418560028
1772728950767910700,0.27391064453125,0.3237583339214325,0.06108647957444191,0.3799578845500946
1772728950777428500,0.283428466796875,0.3329212963581085,0.1233946830034256,0.42821621894836426
1772728950786946600,0.292946533203125,0.33169957995414734,0.18631376326084137,0.4422661066055298
1772728950796464600,0.302464599609375,0.3292561173439026,0.25900667905807495,0.4172206521034241
1772728950805982700,0.311982666015625,0.33047783374786377,0.3384190797805786,0.35674503445625305
1772728950815500500,0.32150048828125,0.33658650517463684,0.4056142270565033,0.2718348205089569
1772728950825018600,0.3310185546875,0.347582072019577,0.45448338985443115,0.17715078592300415
1772728950834536700,0.34053662109375,0.36163195967674255,0.4831940531730652,0.09040798991918564
1772728950844054500,0.350054443359375,0.3799578845500946,0.4929678738117218,0.023212861269712448
1772728950853572600,0.359572509765625,0.3970620930194855,0.4734202027320862,-0.025045456364750862
1772728950863090700,0.369090576171875,0.40866854786872864,0.43432486057281494,-0.06230820715427399
1772728950872608500,0.3786083984375,0.41355544328689575,0.3958403766155243,-0.10018182545900345
1772728950882126600,0.388126708984375,0.4202749729156494,0.3787361681461334,-0.1386663019657135
1772728950891644700,0.397644775390625,0.4318813979625702,0.35613417625427246,-0.17287473380565643
1772728950901162800,0.407162841796875,0.4367683231830597,0.3035998046398163,-0.19242240488529205
1772728950910680600,0.4166806640625,0.430659681558609,0.2309068888425827,-0.1899789422750473
1772728950920198700,0.42619873046875,0.42271843552589417,0.1594357043504715,-0.16676609218120575
1772728950929716500,0.435716552734375,0.41233372688293457,0.11423171311616898,-0.1233946830034256
1772728950939234600,0.445234619140625,0.3897317349910736,0.09651663154363632,-0.0824667438864708
1772728950948752600,0.454752685546875,0.3610210716724396,0.09957095980644226,-0.056199558079242706
1772728950958270700,0.464270751953125,0.33719736337661743,0.12644900381565094,-0.043982263654470444
1772728950967788500,0.47378857421875,0.3243691921234131,0.14477495849132538,-0.043371398001909256
1772728950977306600,0.483306640625,0.3194822669029236,0.13683371245861053,-0.043982263654470444
1772728950986824700,0.49282470703125,0.3176496922969818,0.13072505593299866,-0.03543015569448471
1772728950996342500,0.502342529296875,0.3176496922969818,0.12522727251052856,-0.014660755172371864
1772728951005860600,0.511860595703125,0.3182605504989624,0.11178825795650482,0.007330377586185932
1772728951015378700,0.521378662109375,0.3139844834804535,0.10629047453403473,0.024434590712189674
1772728951024896500,0.530896484375,0.31031930446624756,0.11728604137897491,0.025045456364750862
1772728951034414600,0.54041455078125,0.31031930446624756,0.15088360011577606,0.0054977829568088055
1772728951043932700,0.5499326171875,0.3090975880622864,0.18631376326084137,-0.033597562462091446
1772728951053450800,0.55945068359375,0.31154105067253113,0.20647229254245758,-0.08002328872680664
1772728951062968600,0.568968505859375,0.31093016266822815,0.21685700118541718,-0.11545344442129135
1772728951072486700,0.578486572265625,0.3072649836540222,0.21868959069252014,-0.13133592903614044
1772728951082004700,0.588004638671875,0.30482152104377747,0.2156352698802948,-0.12950333952903748
1772728951091522600,0.5975224609375,0.2993237376213074,0.2156352698802948,-0.11972949653863907
1772728951101040600,0.60704052734375,0.2889390289783478,0.20158538222312927,-0.11362084746360779
1772728951110558500,0.616558349609375,0.27366742491722107,0.18814635276794434,-0.11117739230394363
1772728951120076500,0.62607666015625,0.2571740746498108,0.20219624042510986,-0.11056652665138245
1772728951129594600,0.6355947265625,0.2412915825843811,0.22235478460788727,-0.10506874322891235
1772728951139112700,0.64511279296875,0.22663083672523499,0.22418737411499023,-0.0922405794262886
1772728951148630500,0.654630615234375,0.21502439677715302,0.23029601573944092,-0.07391463965177536
1772728951158148600,0.664148681640625,0.2003636509180069,0.2052505612373352,-0.05864302068948746
1772728951167666700,0.673666748046875,0.17531819641590118,0.08979712426662445,-0.03909534588456154
1772728951177184500,0.6831845703125,0.15577052533626556,-0.010995565913617611,-0.0256563201546669
1772728951186702600,0.69270263671875,0.13988803327083588,-0.08002328872680664,-0.03298669680953026
1772728951196220700,0.702220703125,0.12156209349632263,-0.12644900381565094,-0.05803215503692627
1772728951205738500,0.711738525390625,0.10629047453403473,-0.1496618688106537,-0.09162971377372742
1772728951215256600,0.721256591796875,0.1026252806186676,-0.15515965223312378,-0.12705987691879272
1772728951224774700,0.730774658203125,0.1026252806186676,-0.1331685185432434,-0.16126830875873566
1772728951234292700,0.740292724609375,0.09712749719619751,-0.09529490768909454,-0.19181154668331146
1772728951243810600,0.749810546875,0.07941242307424545,-0.03909534588456154,-0.20647229254245758
1772728951253328600,0.75932861328125,0.056810423731803894,0.007330377586185932,-0.19181154668331146
1772728951262846700,0.7688466796875,0.043371398001909256,0.040317077189683914,-0.15638138353824615
1772728951272364500,0.778364501953125,0.04214967042207718,0.0616973415017128,-0.10506874322891235
1772728951281882600,0.787882568359375,0.06108647957444191,0.039706211537122726,-0.039706211537122726
1772728951291400400,0.797400390625,0.09040798991918564,-0.028099779039621353,0.0256563201546669
1772728951300918500,0.80691845703125,0.12461641430854797,-0.10201441496610641,0.07941242307424545
1772728951310436600,0.8164365234375,0.1545487940311432,-0.16798780858516693,0.11606431007385254
1772728951319954700,0.82595458984375,0.16676609218120575,-0.21991132199764252,0.12461641430854797
1772728951329472800,0.83547265625,0.15638138353824615,-0.235793799161911,0.10384701192378998
1772728951338990600,0.844990478515625,0.14233149588108063,-0.2309068888425827,0.05925388261675835
1772728951348508700,0.8545087890625,0.13011419773101807,-0.21807873249053955,-0.0030543238390237093
1772728951358026500,0.864026611328125,0.11484257876873016,-0.19242240488529205,-0.07269290834665298
1772728951367544600,0.873544677734375,0.10506874322891235,-0.16615521907806396,-0.1386663019657135
1772728951377062700,0.883062744140625,0.10323614627122879,-0.13988803327083588,-0.19608759880065918
1772728951386580500,0.89258056640625,0.10629047453403473,-0.11911863088607788,-0.24312418699264526
1772728951396098600,0.9020986328125,0.11545344442129135,-0.10506874322891235,-0.2761108875274658
1772728951405616600,0.91161669921875,0.12705987691879272,-0.08674279600381851,-0.2828303873538971
1772728951415134700,0.921134765625,0.14172062277793884,-0.06536252796649933,-0.24495677649974823
1772728951424652500,0.930652587890625,0.16249002516269684,-0.056199558079242706,-0.15088360011577606
1772728951434170600,0.940170654296875,0.1698204129934311,-0.07880155742168427,-0.007330377586185932
1772728951443688700,0.949688720703125,0.15638138353824615,-0.13133592903614044,0.16615521907806396
1772728951453206500,0.95920654296875,0.12278381735086441,-0.20463970303535461,0.3433060050010681
1772728951462724600,0.968724609375,0.08307760953903198,-0.25350889563560486,0.4868592321872711
1772728951472242400,0.978242431640625,0.04764745384454727,-0.24006985127925873,0.5821541547775269
1772728951481760500,0.987760498046875,0.0256563201546669,-0.20341797173023224,0.6456840634346008
1772728951491278600,0.997278564453125,0.009773836471140385,-0.17104214429855347,0.676227331161499
1772728951500796700,1.006796630859375,-0.01893680728971958,-0.13927717506885529,0.6695078015327454
1772728951510314500,1.016314453125,-0.0616973415017128,-0.10934479534626007,0.6230821013450623
1772728951519832600,1.02583251953125,-0.10629047453403473,-0.07635809481143951,0.5314523577690125
1772728951529350700,1.0353505859375,-0.14110976457595825,-0.046425722539424896,0.4013381600379944
1772728951538868500,1.044868408203125,-0.1594357043504715,-0.023212861269712448,0.2461785078048706
1772728951548386600,1.054386474609375,-0.16737695038318634,-0.008552107028663158,0.08429934084415436
1772728951557904600,1.063904541015625,-0.17348559200763702,0.0054977829568088055,-0.0665842592716217
1772728951567422500,1.07342236328125,-0.18264856934547424,0.011606430634856224,-0.1954767256975174
1772728951576940500,1.0829404296875,-0.1899789422750473,0.001221729558892548,-0.28954991698265076
1772728951586458600,1.092458740234375,-0.18753549456596375,-0.020158538594841957,-0.3445277214050293
1772728951595976700,1.101976806640625,-0.1698204129934311,-0.036651886999607086,-0.3555232882499695
1772728951605494500,1.11149462890625,-0.1386663019657135,-0.03481929376721382,-0.31581708788871765
1772728951615012600,1.1210126953125,-0.10079269111156464,-0.030543239787220955,-0.2260199636220932
1772728951624530400,1.130530517578125,-0.06230820715427399,-0.03298669680953026,-0.0977383628487587
1772728951634048500,1.140048583984375,-0.024434590712189674,-0.03176496922969818,0.04764745384454727
1772728951643566600,1.149566650390625,0.015271619893610477,-0.023212861269712448,0.18570289015769958
1772728951653084400,1.15908447265625,0.053145237267017365,-0.01588248461484909,0.2968802750110626
1772728951662602500,1.1686025390625,0.08368847519159317,0.003665188793092966,0.3659079968929291
1772728951672120600,1.17812060546875,0.10629047453403473,0.033597562462091446,0.3860665261745453
1772728951681638700,1.187638671875,0.12522727251052856,0.06291907280683517,0.36224281787872314
1772728951691156500,1.197156494140625,0.13622283935546875,0.0977383628487587,0.30054548382759094
1772728951700674600,1.206674560546875,0.13927717506885529,0.12095122784376144,0.21319180727005005
1772728951710192600,1.216192626953125,0.13927717506885529,0.12156209349632263,0.11056652665138245
1772728951719710500,1.22571044921875,0.14110976457595825,0.08674279600381851,0.004276053514331579
1772728951729228500,1.235228515625,0.14477495849132538,0.021991131827235222,-0.10140355676412582
1772728951738746600,1.24474658203125,0.14721840620040894,-0.040317077189683914,-0.20158538222312927
1772728951748264400,1.254264404296875,0.14660754799842834,-0.06536252796649933,-0.28954991698265076
1772728951757782500,1.263782470703125,0.14721840620040894,-0.0513126403093338,-0.360410213470459
1772728951767300600,1.273300537109375,0.15088360011577606,-0.017104214057326317,-0.40317076444625854
1772728951776818700,1.282818603515625,0.1588248461484909,0.03481929376721382,-0.40805765986442566
1772728951786336500,1.29233642578125,0.16554436087608337,0.09407317638397217,-0.37140578031539917
1772728951795854600,1.3018544921875,0.1698204129934311,0.143553227186203,-0.2968802750110626
1772728951805372400,1.311372314453125,0.17165300250053406,0.17776164412498474,-0.19914191961288452
1772728951814890500,1.320890380859375,0.17653992772102356,0.2009745091199875,-0.09407317638397217
1772728951824408600,1.33040869140625,0.185092031955719,0.20769402384757996,0.006719512399286032
1772728951833926400,1.339926513671875,0.1954767256975174,0.1997527778148651,0.09529490768909454
1772728951843444500,1.349444580078125,0.20647229254245758,0.18692462146282196,0.16310089826583862
1772728951852962600,1.358962646484375,0.2205221801996231,0.17898337543010712,0.20341797173023224
1772728951862480600,1.368480712890625,0.23518294095993042,0.185092031955719,0.21685700118541718
1772728951871998500,1.37799853515625,0.24740023910999298,0.1954767256975174,0.20769402384757996
1772728951881516500,1.3875166015625,0.2620609998703003,0.20891575515270233,0.18142683804035187
1772728951891034600,1.39703466796875,0.27977606654167175,0.2309068888425827,0.15027274191379547
1772728951900552400,1.406552490234375,0.29443681240081787,0.24923282861709595,0.12156209349632263
1772728951910070500,1.416070556640625,0.3035998046398163,0.25534147024154663,0.09590577334165573
1772728951919588600,1.425588623046875,0.3072649836540222,0.2467893660068512,0.06902772188186646
1772728951929106400,1.4351064453125,0.31154105067253113,0.22235478460788727,0.03237583488225937
1772728951938624500,1.44462451171875,0.31459537148475647,0.17898337543010712,-0.010995565913617611
1772728951948142600,1.454142578125,0.3170388340950012,0.12095122784376144,-0.0513126403093338
1772728951957660700,1.46366064453125,0.30970844626426697,0.05558869615197182,-0.08857539296150208
1772728951967178500,1.473178466796875,0.2926042377948761,0.003665188793092966,-0.1233946830034256
1772728951976696600,1.482696533203125,0.2706131041049957,-0.023823726922273636,-0.15149445831775665
1772728951986214400,1.49221435546875,0.2528980076313019,-0.031154103577136993,-0.1692095398902893
1772728951995732500,1.501732421875,0.24251331388950348,-0.020769402384757996,-0.16676609218120575
1772728952005250600,1.51125048828125,0.24006985127925873,0.01649334840476513,-0.1441640853881836
1772728952014768400,1.520768310546875,0.2510654330253601,0.053756099194288254,-0.10567960888147354
1772728952024286500,1.530286376953125,0.27550002932548523,0.08918625861406326,-0.06047561392188072
1772728952033804500,1.539804443359375,0.31031930446624756,0.12705987691879272,-0.021380268037319183
1772728952043322600,1.549322509765625,0.34636032581329346,0.14599667489528656,0.004886918235570192
1772728952052840400,1.55884033203125,0.3811796307563782,0.16249002516269684,0.014660755172371864
1772728952062358500,1.568358642578125,0.41233372688293457,0.17592905461788177,0.004886918235570192
1772728952071876600,1.577876708984375,0.4453204274177551,0.1954767256975174,-0.02260199747979641
1772728952081394400,1.58739453125,0.4770853817462921,0.20463970303535461,-0.06902772188186646
1772728952090912500,1.59691259765625,0.5064069032669067,0.1899789422750473,-0.13072505593299866
1772728952100430300,1.606430419921875,0.5400044918060303,0.14721840620040894,-0.1844811588525772
1772728952109948400,1.615948486328125,0.5858193039894104,0.06414080411195755,-0.1954767256975174
1772728952119466500,1.625466552734375,0.6365211009979248,-0.027488915249705315,-0.14538581669330597
1772728952128984600,1.634984619140625,0.6707295179367065,-0.10201441496610641,-0.046425722539424896
1772728952138502400,1.64450244140625,0.6737838387489319,-0.1490510106086731,0.07513637095689774
1772728952148020500,1.6540205078125,0.6627882719039917,-0.1386663019657135,0.19853104650974274
1772728952157538600,1.66353857421875,0.665842592716217,-0.053145237267017365,0.30970844626426697
1772728952167056400,1.673056396484375,0.6780598759651184,0.1026252806186676,0.39889469742774963
1772728952176574500,1.682574462890625,0.6811142563819885,0.2834412455558777,0.46059203147888184
1772728952186092500,1.692092529296875,0.6603448390960693,0.43982264399528503,0.4923570156097412
1772728952195610400,1.7016103515625,0.6218603253364563,0.5632173418998718,0.49113526940345764
1772728952205128400,1.71112841796875,0.5778780579566956,0.6554579138755798,0.45326167345046997
1772728952214646500,1.720646484375,0.5473348498344421,0.7287616729736328,0.3860665261745453
1772728952224164600,1.73016455078125,0.5326740741729736,0.7800742983818054,0.2987128794193268
1772728952233682400,1.739682373046875,0.5277871489524841,0.7751874327659607,0.1997527778148651
1772728952243200500,1.749200439453125,0.535728394985199,0.7134900689125061,0.09346231073141098
1772728952252718600,1.758718505859375,0.5479456782341003,0.6108647584915161,-0.017104214057326317
1772728952262236400,1.768236328125,0.5564978122711182,0.45387253165245056,-0.12522727251052856
1772728952271754500,1.77775439453125,0.5558869242668152,0.27550002932548523,-0.21930044889450073
1772728952281272300,1.787272216796875,0.5491674542427063,0.1130099818110466,-0.29077163338661194
1772728952290790400,1.796790283203125,0.5406153202056885,-0.008552107028663158,-0.3280344009399414
1772728952300308500,1.80630859375,0.536339282989502,-0.0818558782339096,-0.3292561173439026
1772728952309826600,1.81582666015625,0.5314523577690125,-0.11239911615848541,-0.3078758418560028
1772728952319344400,1.825344482421875,0.5186241865158081,-0.09957095980644226,-0.2816086709499359
1772728952328862500,1.834862548828125,0.49602219462394714,-0.046425722539424896,-0.2620609998703003
1772728952338380500,1.844380615234375,0.4673115611076355,0.010384701192378998,-0.2461785078048706
1772728952347898400,1.8538984375,0.44409868121147156,0.04459312930703163,-0.23212862014770508
1772728952357416400,1.86341650390625,0.42271843552589417,0.06475166976451874,-0.22724169492721558
1772728952366934500,1.8729345703125,0.401949018239975,0.09162971377372742,-0.23273947834968567
1772728952376452400,1.882452392578125,0.38240134716033936,0.12217295914888382,-0.24495677649974823
1772728952385970400,1.891970458984375,0.36712974309921265,0.15699224174022675,-0.25900667905807495
1772728952395488500,1.901488525390625,0.35735589265823364,0.19364413619041443,-0.2718348205089569
1772728952405006600,1.911006591796875,0.35613417625427246,0.22785256803035736,-0.2779434621334076
1772728952414524400,1.9205244140625,0.36224281787872314,0.24740023910999298,-0.2761108875274658
1772728952424042500,1.93004248046875,0.37690356373786926,0.2577849328517914,-0.2657261788845062
1772728952433560600,1.939560546875,0.3964512348175049,0.26511532068252563,-0.24984370172023773
1772728952443078400,1.949078369140625,0.4166097939014435,0.2706131041049957,-0.2309068888425827
1772728952452596500,1.958596435546875,0.43432486057281494,0.2718348205089569,-0.21135921776294708
1772728952462114300,1.9681142578125,0.4428769648075104,0.27000224590301514,-0.1948658674955368
1772728952471632400,1.97763232421875,0.45509424805641174,0.2571740746498108,-0.1899789422750473
1772728952481150500,1.987150390625,0.4673115611076355,0.2364046722650528,-0.2009745091199875
1772728952490668300,1.996668212890625,0.4789179861545563,0.20952661335468292,-0.22235478460788727
1772728952500186400,2.006186279296875,0.48563748598098755,0.17776164412498474,-0.25350889563560486
1772728952509704400,2.015704345703125,0.48930269479751587,0.1484401375055313,-0.2828303873538971
1772728952519222500,2.025222412109375,0.48991355299949646,0.1380554437637329,-0.3017672002315521
1772728952528740400,2.034740234375,0.4868592321872711,0.13561198115348816,-0.30543237924575806
1772728952538258400,2.044258544921875,0.4868592321872711,0.13011419773101807,-0.29077163338661194
1772728952547776500,2.053776611328125,0.48563748598098755,0.12644900381565094,-0.2614501118659973
1772728952557294300,2.06329443359375,0.48502662777900696,0.11667517572641373,-0.22235478460788727
1772728952566812400,2.0728125,0.48441576957702637,0.09529490768909454,-0.18631376326084137
1772728952576330500,2.08233056640625,0.4819723069667816,0.06963858753442764,-0.16187916696071625
1772728952585848300,2.091848388671875,0.4770853817462921,0.06108647957444191,-0.14599667489528656
1772728952595366400,2.101366455078125,0.46547895669937134,0.059864748269319534,-0.13622283935546875
1772728952604884500,2.110884521484375,0.45326167345046997,0.07086031138896942,-0.1288924664258957
1772728952614402600,2.120402587890625,0.44470956921577454,0.09834922850131989,-0.1185077652335167
1772728952623920400,2.12992041015625,0.4355465769767761,0.13072505593299866,-0.09896009415388107
1772728952633438500,2.1394384765625,0.4312705397605896,0.1588248461484909,-0.0665842592716217
1772728952652474400,2.158474365234375,0.4312705397605896,0.17348559200763702,0.05070177838206291
1772728952661992400,2.167992431640625,0.430659681558609,0.13744457066059113,0.11911863088607788
1772728952671510300,2.17751025390625,0.4263836145401001,0.10323614627122879,0.17592905461788177
1772728952681028400,2.1870283203125,0.41844236850738525,0.07269290834665298,0.2052505612373352
1772728952690546400,2.19654638671875,0.401949018239975,0.04459312930703163,0.19914191961288452
1772728952700064500,2.206064453125,0.3805687427520752,0.03298669680953026,0.16004657745361328
1772728952709582300,2.215582275390625,0.3555232882499695,0.04153880476951599,0.09834922850131989
1772728952719100400,2.225100341796875,0.3329212963581085,0.049480047076940536,0.023823726922273636
1772728952728618500,2.234618408203125,0.3133736252784729,0.05253437161445618,-0.05742128938436508
1772728952738136300,2.24413623046875,0.3023780584335327,0.050090912729501724,-0.1484401375055313
1772728952747654400,2.253654296875,0.3017672002315521,0.03848448023200035,-0.24373504519462585
1772728952757172200,2.263172119140625,0.31154105067253113,0.015271619893610477,-0.3384190797805786
1772728952766690300,2.272690185546875,0.3231474757194519,-0.025045456364750862,-0.41905322670936584
1772728952776208400,2.28220849609375,0.3384190797805786,-0.10323614627122879,-0.4581485986709595
1772728952785726500,2.2917265625,0.36774060130119324,-0.20463970303535461,-0.4221075773239136
1772728952795244300,2.301244384765625,0.40317076444625854,-0.29565855860710144,-0.29077163338661194
1772728952804762400,2.310762451171875,0.41783151030540466,-0.35063639283180237,-0.08124501258134842
1772728952814280400,2.320280517578125,0.3946186602115631,-0.36285367608070374,0.16126830875873566
1772728952823798300,2.32979833984375,0.3610210716724396,-0.3390299379825592,0.3848448097705841
1772728952833316400,2.33931640625,0.36285367608070374,-0.2571740746498108,0.5778780579566956
1772728952842834400,2.34883447265625,0.370184063911438,-0.09346231073141098,0.7440332770347595
1772728952852352300,2.358352294921875,0.3750709891319275,0.047036588191986084,0.841160774230957
1772728952861870300,2.367870361328125,0.3707949221134186,0.14538581669330597,0.8869756460189819
1772728952871388400,2.377388427734375,0.3597993552684784,0.18753549456596375,0.8527672290802002
1772728952880906200,2.38690625,0.35613417625427246,0.20647229254245758,0.7373138070106506
1772728952890424300,2.39642431640625,0.3646862804889679,0.205861434340477,0.5619956254959106
1772728952899942100,2.405942138671875,0.3805687427520752,0.19181154668331146,0.35735589265823364
1772728952909460200,2.415460205078125,0.3915643095970154,0.18081597983837128,0.14660754799842834
1772728952918978300,2.424978271484375,0.39339691400527954,0.18325942754745483,-0.04825831577181816
1772728952928496400,2.434496337890625,0.3854556679725647,0.18631376326084137,-0.20219624042510986
1772728952938014200,2.44401416015625,0.37751442193984985,0.18142683804035187,-0.29993459582328796
1772728952947532300,2.4535322265625,0.37140578031539917,0.17104214429855347,-0.3249800503253937
1772728952957050400,2.46305029296875,0.3707949221134186,0.14599667489528656,-0.2718348205089569
1772728952966568200,2.472568115234375,0.37262752652168274,0.10934479534626007,-0.16065743565559387
1772728952976086300,2.482086181640625,0.379347026348114,0.07635809481143951,-0.01649334840476513
1772728952985604400,2.491604248046875,0.389120876789093,0.05558869615197182,0.12767073512077332
1772728952995122400,2.501122314453125,0.40378162264823914,0.05192350596189499,0.24251331388950348
1772728953004640300,2.51064013671875,0.41905322670936584,0.06719512492418289,0.3078758418560028
1772728953014158300,2.520158447265625,0.4312705397605896,0.08613193035125732,0.3170388340950012
1772728953023676400,2.529676513671875,0.4422661066055298,0.10018182545900345,0.27488914132118225
1772728953033194200,2.5391943359375,0.4557051360607147,0.1185077652335167,0.19914191961288452
1772728953042712300,2.54871240234375,0.46975502371788025,0.14294235408306122,0.10384701192378998
1772728953052230100,2.558230224609375,0.4783071279525757,0.16310089826583862,-0.000610864779446274
1772728953061748200,2.567748291015625,0.4783071279525757,0.18203771114349365,-0.1026252806186676
1772728953071266300,2.577266357421875,0.4770853817462921,0.19730933010578156,-0.19364413619041443
1772728953080784400,2.586784423828125,0.4740310609340668,0.21868959069252014,-0.26939135789871216
1772728953090302200,2.59630224609375,0.47036588191986084,0.23823726177215576,-0.3243691921234131
1772728953099820300,2.6058203125,0.4685332775115967,0.2406807243824005,-0.36285367608070374
1772728953109338400,2.61533837890625,0.4685332775115967,0.22785256803035736,-0.3854556679725647
1772728953118856200,2.624856201171875,0.4630354940891266,0.20769402384757996,-0.39828383922576904
1772728953128374300,2.634374267578125,0.45448338985443115,0.1905898153781891,-0.4050033390522003
1772728953137892400,2.643892333984375,0.4459312856197357,0.17043127119541168,-0.40317076444625854
1772728953147410200,2.65341015625,0.43982264399528503,0.14721840620040894,-0.39217519760131836
1772728953156928300,2.66292822265625,0.4428769648075104,0.12522727251052856,-0.3646862804889679
1772728953166446300,2.6724462890625,0.44837474822998047,0.0977383628487587,-0.3176496922969818
1772728953175964200,2.681964111328125,0.4514290690422058,0.08368847519159317,-0.2565632164478302
1772728953185482200,2.691482177734375,0.4477638900279999,0.09834922850131989,-0.18631376326084137
1772728953195000300,2.701000244140625,0.43921178579330444,0.143553227186203,-0.11728604137897491
1772728953204518100,2.71051806640625,0.4257727563381195,0.1948658674955368,-0.05803215503692627
1772728953214036200,2.7200361328125,0.41355544328689575,0.23945899307727814,-0.011606430634856224
1772728953223554300,2.72955419921875,0.401949018239975,0.2767217457294464,0.020769402384757996
1772728953233072000,2.739072021484375,0.3915643095970154,0.29626941680908203,0.034208428114652634
1772728953242590200,2.748590087890625,0.3860665261745453,0.29443681240081787,0.031154103577136993
1772728953252108300,2.7581083984375,0.38301220536231995,0.27916520833969116,0.013439024798572063
1772728953261626000,2.767626220703125,0.389120876789093,0.25473061203956604,-0.009773836471140385
1772728953271144200,2.777144287109375,0.4001164436340332,0.2205221801996231,-0.036651886999607086
1772728953280662300,2.786662353515625,0.411722868680954,0.1747073233127594,-0.06475166976451874
1772728953290180400,2.796180419921875,0.41783151030540466,0.13133592903614044,-0.08796452730894089
1772728953299698200,2.8056982421875,0.42088583111763,0.09834922850131989,-0.09957095980644226
1772728953309216300,2.81521630859375,0.42271843552589417,0.06597339361906052,-0.09590577334165573
1772728953318734000,2.824734130859375,0.4263836145401001,0.030543239787220955,-0.07757982611656189
1772728953328252200,2.834252197265625,0.4263836145401001,0.01649334840476513,-0.05070177838206291
1772728953337770200,2.843770263671875,0.42271843552589417,0.01282816007733345,-0.01282816007733345
1772728953347288000,2.8532880859375,0.40744680166244507,0.02626718580722809,0.034208428114652634
1772728953356806100,2.86280615234375,0.38728827238082886,0.053756099194288254,0.08613193035125732
1772728953366324200,2.87232421875,0.37140578031539917,0.10506874322891235,0.1331685185432434
1772728953375842300,2.88184228515625,0.3597993552684784,0.18875721096992493,0.17104214429855347
1772728953385360100,2.891360107421875,0.3549124300479889,0.27855435013771057,0.20402882993221283
1772728953394878200,2.900878173828125,0.3536907136440277,0.3707949221134186,0.23029601573944092
1772728953404396300,2.910396240234375,0.3555232882499695,0.44409868121147156,0.2516762912273407
1772728953413914000,2.9199140625,0.3585776388645172,0.4984656572341919,0.2675587832927704
1772728953423432200,2.92943212890625,0.36224281787872314,0.5351175665855408,0.27366742491722107
1772728953432950000,2.938949951171875,0.3640754222869873,0.5479456782341003,0.2675587832927704
1772728953442468000,2.948468017578125,0.36285367608070374,0.5387827157974243,0.24373504519462585
1772728953451986200,2.957986083984375,0.35735589265823364,0.5155698657035828,0.19608759880065918
1772728953461504300,2.967504150390625,0.35124725103378296,0.46914416551589966,0.12950333952903748
1772728953471022000,2.97702197265625,0.34636032581329346,0.3995055556297302,0.05497783049941063
1772728953480540200,2.9865400390625,0.34147340059280396,0.32559093832969666,-0.011606430634856224
1772728953490058200,2.996058349609375,0.34086254239082336,0.2767217457294464,-0.04825831577181816
1772728953499576000,3.005576171875,0.35674503445625305,0.2632827162742615,-0.04214967042207718
1772728953509094100,3.01509423828125,0.3964512348175049,0.2730565667152405,0.01649334840476513
1772728953518612200,3.0246123046875,0.44348782300949097,0.287106454372406,0.11362084746360779
1772728953528130000,3.034130126953125,0.48563748598098755,0.3078758418560028,0.23029601573944092
1772728953537648000,3.043648193359375,0.5198459029197693,0.34147340059280396,0.3451386094093323
1772728953547166200,3.053166259765625,0.5400044918060303,0.3958403766155243,0.4373791813850403
1772728953556684000,3.06268408203125,0.5479456782341003,0.45448338985443115,0.4972439408302307
1772728953566202000,3.0722021484375,0.5595521330833435,0.4935787320137024,0.5241219997406006
1772728953575720200,3.08172021484375,0.5717694163322449,0.5082395076751709,0.5161807537078857
1772728953585238300,3.09123828125,0.5790998339653015,0.5192350745201111,0.46914416551589966
1772728953594756000,3.100756103515625,0.5827649831771851,0.5375609993934631,0.3909534513950348
1772728953604274200,3.110274169921875,0.5882627964019775,0.5442805290222168,0.29565855860710144
1772728953613792000,3.1197919921875,0.5998691916465759,0.5381718873977661,0.19914191961288452
1772728953623310000,3.12931005859375,0.6133082509040833,0.5161807537078857,0.11239911615848541
1772728953632828200,3.138828125,0.62857985496521,0.47036588191986084,0.043371398001909256
1772728953642346000,3.148345947265625,0.637742817401886,0.40317076444625854,-0.010995565913617611
1772728953651864000,3.157864013671875,0.6432406306266785,0.3078758418560028,-0.05803215503692627
1772728953661382100,3.167382080078125,0.6426297426223755,0.18753549456596375,-0.10506874322891235
1772728953670900000,3.17689990234375,0.6316341757774353,0.07086031138896942,-0.1588248461484909
1772728953680418000,3.18641796875,0.6102539300918579,-0.02260199747979641,-0.21685700118541718
1772728953689936100,3.19593603515625,0.583375871181488,-0.08918625861406326,-0.2663370370864868
1772728953699454200,3.2054541015625,0.555276095867157,-0.1282816082239151,-0.3017672002315521
1772728953708972000,3.214971923828125,0.5296197533607483,-0.13927717506885529,-0.32192572951316833
1772728953718490000,3.224489990234375,0.5057960152626038,-0.11728604137897491,-0.32131487131118774
1772728953728008000,3.234008056640625,0.4776962697505951,-0.07574722915887833,-0.30482152104377747
1772728953737526000,3.243526123046875,0.4471530318260193,-0.01893680728971958,-0.2761108875274658
1772728953747044000,3.253044189453125,0.4153880476951599,0.047036588191986084,-0.23945899307727814
1772728953756562000,3.26256201171875,0.38301220536231995,0.11362084746360779,-0.2052505612373352
1772728953766080000,3.272080078125,0.3549124300479889,0.1692095398902893,-0.17348559200763702
1772728953775598000,3.28159814453125,0.3329212963581085,0.21930044889450073,-0.15210533142089844
1772728953785116200,3.2911162109375,0.31031930446624756,0.24984370172023773,-0.14172062277793884
1772728953794634000,3.300634033203125,0.2877173125743866,0.25473061203956604,-0.14538581669330597
1772728953804152000,3.310152099609375,0.2669478952884674,0.24984370172023773,-0.16126830875873566
1772728953813670100,3.319670166015625,0.24984370172023773,0.23762640357017517,-0.18325942754745483
1772728953823188000,3.32918798828125,0.23518294095993042,0.21930044889450073,-0.2101374864578247
1772728953832706000,3.3387060546875,0.21807873249053955,0.20647229254245758,-0.23823726177215576
1772728953842223900,3.348223876953125,0.19914191961288452,0.19425499439239502,-0.26450446248054504
1772728953851742000,3.357741943359375,0.1802051067352295,0.18387030065059662,-0.2889390289783478
1772728953861260000,3.367260009765625,0.16676609218120575,0.1795942485332489,-0.3042106628417969
1772728953870778000,3.376778076171875,0.15821397304534912,0.1649334877729416,-0.3072649836540222
1772728953880296000,3.3862958984375,0.15210533142089844,0.1282816082239151,-0.30115634202957153
1772728953889814000,3.39581396484375,0.14660754799842834,0.08368847519159317,-0.29016077518463135
1772728953899332000,3.40533203125,0.14172062277793884,0.04886918142437935,-0.27550002932548523
1772728953908850000,3.414849853515625,0.13683371245861053,0.020769402384757996,-0.258395791053772
1772728953918368000,3.424367919921875,0.13255766034126282,-0.006108647678047419,-0.23884813487529755
1772728953927886000,3.433885986328125,0.1288924664258957,-0.03176496922969818,-0.21380266547203064
1772728953937404000,3.44340380859375,0.12400554865598679,-0.053756099194288254,-0.18753549456596375
1772728953946922000,3.452921875,0.1178968995809555,-0.0665842592716217,-0.16615521907806396
1772728953956439800,3.462439697265625,0.10873392969369888,-0.0616973415017128,-0.15760311484336853
1772728953965958000,3.4719580078125,0.10018182545900345,-0.04886918142437935,-0.1649334877729416
1772728953975476000,3.48147607421875,0.0922405794262886,-0.027488915249705315,-0.18631376326084137
1772728953984994000,3.490994140625,0.08613193035125732,0.008552107028663158,-0.21746785938739777
1772728953994512000,3.500511962890625,0.08613193035125732,0.05497783049941063,-0.2461785078048706
1772728954004030000,3.510030029296875,0.09040798991918564,0.0977383628487587,-0.26878049969673157
1772728954013548000,3.519548095703125,0.09712749719619751,0.12156209349632263,-0.27366742491722107
1772728954023065900,3.52906591796875,0.1081230640411377,0.1178968995809555,-0.2632827162742615
1772728954032584000,3.538583984375,0.12522727251052856,0.09651663154363632,-0.23762640357017517
1772728954042102000,3.54810205078125,0.15271618962287903,0.09040798991918564,-0.1954767256975174
1772728954051619800,3.557619873046875,0.1844811588525772,0.10018182545900345,-0.12767073512077332
1772728954061138000,3.567137939453125,0.2156352698802948,0.09468404203653336,-0.03176496922969818
1772728954070656000,3.576656005859375,0.2370155304670334,0.07391463965177536,0.07819069176912308
1772728954080173800,3.586173828125,0.24495677649974823,0.05192350596189499,0.18387030065059662
1772728954089692000,3.59569189453125,0.2419024556875229,0.033597562462091446,0.26450446248054504
1772728954099210000,3.6052099609375,0.22724169492721558,0.027488915249705315,0.30970844626426697
1772728954108728000,3.61472802734375,0.20219624042510986,0.03543015569448471,0.3182605504989624
1772728954118246000,3.624245849609375,0.16798780858516693,0.05742128938436508,0.29504770040512085
1772728954127764000,3.633763916015625,0.13255766034126282,0.09957095980644226,0.2467893660068512
1772728954137281800,3.64328173828125,0.0977383628487587,0.1539379209280014,0.18142683804035187
1772728954146799900,3.6527998046875,0.07391463965177536,0.20830489695072174,0.1178968995809555
1772728954156318000,3.66231787109375,0.05253437161445618,0.24923282861709595,0.059864748269319534
1772728954165835800,3.671835693359375,0.0360410213470459,0.24251331388950348,-0.002443459117785096
1772728954175353900,3.681353759765625,0.03176496922969818,0.17898337543010712,-0.06108647957444191
1772728954184872000,3.690871826171875,0.04520399495959282,0.07635809481143951,-0.10873392969369888
1772728954194389800,3.7003896484375,0.07024945318698883,-0.04276053607463837,-0.1288924664258957
1772728954203907800,3.709907958984375,0.10445787757635117,-0.1539379209280014,-0.10995566099882126
1772728954213426000,3.719426025390625,0.14172062277793884,-0.24312418699264526,-0.04276053607463837
1772728954222944000,3.728944091796875,0.1698204129934311,-0.3139844834804535,0.06291907280683517
1772728954232461800,3.7384619140625,0.17776164412498474,-0.35735589265823364,0.18570289015769958
1772728954241980000,3.74797998046875,0.16676609218120575,-0.36774060130119324,0.3078758418560028
1772728954251497700,3.757497802734375,0.1545487940311432,-0.33658650517463684,0.4050033390522003
1772728954261015800,3.767015869140625,0.14660754799842834,-0.2816086709499359,0.46059203147888184
1772728954270534000,3.776533935546875,0.14049890637397766,-0.23212862014770508,0.472198486328125
1772728954280051700,3.7860517578125,0.12767073512077332,-0.19120067358016968,0.4379900395870209
1772728954289569800,3.79556982421875,0.10751219838857651,-0.14233149588108063,0.3610210716724396
1772728954299088000,3.805087890625,0.08063415437936783,-0.09101885557174683,0.2522871494293213
1772728954308606000,3.81460595703125,0.056810423731803894,-0.04276053607463837,0.12705987691879272
1772728954318123800,3.824123779296875,0.03787361457943916,-0.002443459117785096,0.002443459117785096
1772728954327641900,3.833641845703125,0.01649334840476513,0.033597562462091446,-0.11117739230394363
1772728954337160000,3.843159912109375,-0.010384701192378998,0.05558869615197182,-0.20647229254245758
1772728954346677800,3.852677734375,-0.03298669680953026,0.06780599057674408,-0.27977606654167175
1772728954356195800,3.86219580078125,-0.046425722539424896,0.07941242307424545,-0.32681265473365784
1772728954365713700,3.871713623046875,-0.04825831577181816,0.07513637095689774,-0.3445277214050293
1772728954375231700,3.881231689453125,-0.036651886999607086,0.04825831577181816,-0.32681265473365784
1772728954384749800,3.890749755859375,-0.01893680728971958,0.03543015569448471,-0.2761108875274658
1772728954394267600,3.900267578125,0.0054977829568088055,0.0513126403093338,-0.18570289015769958
1772728954403785700,3.90978564453125,0.034208428114652634,0.08002328872680664,-0.05925388261675835
1772728954413303800,3.9193037109375,0.06597339361906052,0.0818558782339096,0.07574722915887833
1772728954422822000,3.92882177734375,0.09712749719619751,0.06475166976451874,0.18387030065059662
1772728954432339700,3.938339599609375,0.1288924664258957,0.056810423731803894,0.23884813487529755
1772728954441857800,3.94785791015625,0.15699224174022675,0.05192350596189499,0.2406807243824005
1772728954451375900,3.9573759765625,0.1740964651107788,0.0409279391169548,0.19730933010578156
1772728954460893700,3.966893798828125,0.18081597983837128,0.030543239787220955,0.11667517572641373
1772728954470411800,3.976411865234375,0.18203771114349365,0.025045456364750862,0.013439024798572063
1772728954479929600,3.9859296875,0.18387030065059662,0.029932374134659767,-0.10629047453403473
1772728954489447700,3.99544775390625,0.18814635276794434,0.04764745384454727,-0.23029601573944092
1772728954498965800,4.0049658203125,0.19242240488529205,0.06047561392188072,-0.34147340059280396
1772728954508483800,4.01448388671875,0.19303326308727264,0.05070177838206291,-0.430659681558609
1772728954518001700,4.024001708984375,0.19303326308727264,0.020769402384757996,-0.49480047821998596
1772728954527519700,4.033519775390625,0.19242240488529205,0.000610864779446274,-0.5375609993934631
1772728954537037800,4.043037841796875,0.1899789422750473,-0.007330377586185932,-0.554665207862854
1772728954546555600,4.0525556640625,0.18387030065059662,-0.012217295356094837,-0.5381718873977661
1772728954556073700,4.06207373046875,0.17348559200763702,-0.003665188793092966,-0.4923570156097412
1772728954565591800,4.071591796875,0.1649334877729416,0.011606430634856224,-0.42394015192985535
1772728954575109600,4.081109619140625,0.16249002516269684,0.03298669680953026,-0.337808221578598
1772728954584627700,4.090627685546875,0.16310089826583862,0.06352993845939636,-0.2467893660068512
1772728954594145500,4.1001455078125,0.16676609218120575,0.09590577334165573,-0.1545487940311432
1772728954603663600,4.10966357421875,0.17348559200763702,0.10995566099882126,-0.07269290834665298
1772728954613181700,4.119181640625,0.17837251722812653,0.11362084746360779,-0.008552107028663158
1772728954622699800,4.12869970703125,0.17653992772102356,0.11606431007385254,0.03543015569448471
1772728954632217600,4.138217529296875,0.1692095398902893,0.12278381735086441,0.06108647957444191
1772728954641735700,4.147735595703125,0.1545487940311432,0.1331685185432434,0.07269290834665298
1772728954651253800,4.157253662109375,0.13683371245861053,0.13500112295150757,0.07574722915887833
1772728954660771600,4.166771484375,0.1185077652335167,0.12950333952903748,0.0665842592716217
1772728954670289700,4.17628955078125,0.10384701192378998,0.1178968995809555,0.050090912729501724
1772728954679807700,4.185807861328125,0.09162971377372742,0.0977383628487587,0.023212861269712448
1772728954689325600,4.19532568359375,0.07452550530433655,0.07024945318698883,-0.015271619893610477
1772728954698843600,4.20484375,0.05436696484684944,0.043982263654470444,-0.06475166976451874
1772728954708361700,4.21436181640625,0.03298669680953026,0.020158538594841957,-0.12034036219120026
1772728954717879600,4.223879638671875,0.014660755172371864,-0.004886918235570192,-0.17531819641590118
1772728954727397600,4.233397705078125,-0.002443459117785096,-0.03298669680953026,-0.2211330533027649
1772728954736915700,4.242915771484375,-0.011606430634856224,-0.06963858753442764,-0.2565632164478302
1772728954746433800,4.252433837890625,-0.014049889519810677,-0.10201441496610641,-0.27916520833969116
1772728954755951600,4.26195166015625,-0.01588248461484909,-0.1026252806186676,-0.2809978127479553
1772728954765469700,4.2714697265625,-0.012217295356094837,-0.07086031138896942,-0.25473061203956604
1772728954774987500,4.280987548828125,-0.001221729558892548,-0.02626718580722809,-0.18753549456596375
1772728954784505600,4.290505615234375,0.01588248461484909,0.04764745384454727,-0.09101885557174683
1772728954794023700,4.300023681640625,0.03848448023200035,0.12034036219120026,0.021380268037319183
1772728954803541500,4.30954150390625,0.06963858753442764,0.16676609218120575,0.1380554437637329
1772728954813059600,4.3190595703125,0.10445787757635117,0.18875721096992493,0.2406807243824005
1772728954822577700,4.32857763671875,0.14110976457595825,0.19730933010578156,0.3078758418560028
1772728954832095500,4.338095458984375,0.17348559200763702,0.20952661335468292,0.3298669755458832
1772728954841613600,4.347613525390625,0.20341797173023224,0.21502439677715302,0.3072649836540222
1772728954851131600,4.357131591796875,0.22846342623233795,0.20952661335468292,0.2571740746498108
1772728954860649700,4.366649658203125,0.2528980076313019,0.19425499439239502,0.19792018830776215
1772728954870167600,4.37616748046875,0.27977606654167175,0.1649334877729416,0.1496618688106537
1772728954879685600,4.385685546875,0.3084867000579834,0.1282816082239151,0.1288924664258957
1772728954889203500,4.395203369140625,0.337808221578598,0.09162971377372742,0.14110976457595825
1772728954898721500,4.404721435546875,0.3597993552684784,0.0665842592716217,0.18142683804035187
1772728954908239600,4.414239501953125,0.3750709891319275,0.05497783049941063,0.2364046722650528
1772728954917757400,4.42375732421875,0.3964512348175049,0.04520399495959282,0.2968802750110626
1772728954927275500,4.433275634765625,0.4355465769767761,0.050090912729501724,0.3555232882499695
1772728954936793600,4.442793701171875,0.45448338985443115,0.08613193035125732,0.42821621894836426
1772728954946311400,4.4523115234375,0.4508182108402252,0.11362084746360779,0.4819723069667816
1772728954955829500,4.46182958984375,0.43860089778900146,0.13927717506885529,0.5088503360748291
1772728954965347600,4.47134765625,0.42821621894836426,0.15699224174022675,0.49541133642196655
1772728954974865700,4.48086572265625,0.41905322670936584,0.18631376326084137,0.4361574649810791
1772728954984383500,4.490383544921875,0.4068359434604645,0.258395791053772,0.33597561717033386
1772728954993901600,4.499901611328125,0.3909534513950348,0.36163195967674255,0.20647229254245758
1772728955003419400,4.50941943359375,0.37751442193984985,0.45509424805641174,0.06352993845939636
1772728955012937500,4.5189375,0.3738492429256439,0.5216785073280334,-0.07086031138896942
1772728955022455600,4.52845556640625,0.3854556679725647,0.554665207862854,-0.1795942485332489
1772728955031973400,4.537973388671875,0.4043924808502197,0.5387827157974243,-0.258395791053772
1772728955041491500,4.547491455078125,0.41783151030540466,0.47952884435653687,-0.31093016266822815
1772728955051009500,4.557009521484375,0.4263836145401001,0.3756818473339081,-0.33108872175216675
1772728955060527400,4.56652734375,0.43432486057281494,0.2107483446598053,-0.3121519088745117
1772728955070045400,4.57604541015625,0.4379900395870209,0.026878049597144127,-0.2675587832927704
1772728955079563500,4.5855634765625,0.44348782300949097,-0.12217295914888382,-0.21258094906806946
1772728955089081600,4.59508154296875,0.43921178579330444,-0.21868959069252014,-0.1649334877729416
1772728955098599400,4.604599365234375,0.4202749729156494,-0.2614501118659973,-0.13133592903614044
1772728955108117500,4.614117431640625,0.3909534513950348,-0.26450446248054504,-0.10934479534626007
1772728955117635300,4.62363525390625,0.3585776388645172,-0.23335035145282745,-0.09529490768909454
1772728955127153400,4.6331533203125,0.3249800503253937,-0.17715078592300415,-0.08307760953903198
1772728955136671500,4.64267138671875,0.29138249158859253,-0.11606431007385254,-0.06963858753442764
1772728955146189300,4.652189208984375,0.25961753726005554,-0.06047561392188072,-0.05497783049941063
1772728955155707400,4.661707275390625,0.22907429933547974,-0.001832594396546483,-0.04214967042207718
1772728955165225500,4.6712255859375,0.20341797173023224,0.05925388261675835,-0.030543239787220955
1772728955174743600,4.68074365234375,0.18264856934547424,0.12095122784376144,-0.021991131827235222
1772728955184265200,4.69026513671875,0.1692095398902893,0.17715078592300415,-0.017104214057326317
1772728955193779500,4.699779541015625,0.16310089826583862,0.2101374864578247,-0.018325943499803543
1772728955203297500,4.709297607421875,0.16187916696071625,0.2205221801996231,-0.024434590712189674
1772728955212815400,4.7188154296875,0.16615521907806396,0.21930044889450073,-0.0360410213470459
1772728955222333400,4.72833349609375,0.1747073233127594,0.21258094906806946,-0.049480047076940536
1772728955231851500,4.7378515625,0.18631376326084137,0.20647229254245758,-0.06047561392188072
1772728955241369300,4.747369384765625,0.19914191961288452,0.19914191961288452,-0.07147117704153061
1772728955250887400,4.756887451171875,0.20463970303535461,0.18753549456596375,-0.07880155742168427
1772728955260405200,4.7664052734375,0.20463970303535461,0.17531819641590118,-0.08063415437936783
1772728955269923300,4.77592333984375,0.19853104650974274,0.1637117564678192,-0.07391463965177536
1772728955279441400,4.78544140625,0.18753549456596375,0.1484401375055313,-0.05742128938436508
1772728955288959500,4.79495947265625,0.1740964651107788,0.1282816082239151,-0.037262752652168274
1772728955298477300,4.804477294921875,0.1545487940311432,0.11117739230394363,-0.012217295356094837
1772728955307995400,4.813995361328125,0.13255766034126282,0.09468404203653336,0.017104214057326317
1772728955317513500,4.823513427734375,0.10629047453403473,0.05925388261675835,0.0513126403093338
1772728955327031300,4.83303125,0.0824667438864708,0.01954767294228077,0.08857539296150208
1772728955336549400,4.84254931640625,0.06230820715427399,-0.018325943499803543,0.12644900381565094
1772728955346067500,4.8520673828125,0.04520399495959282,-0.07269290834665298,0.15271618962287903
1772728955355585300,4.861585205078125,0.024434590712189674,-0.1380554437637329,0.15027274191379547
1772728955365103400,4.871103271484375,-0.001221729558892548,-0.19181154668331146,0.1130099818110466
1772728955374621200,4.88062109375,-0.02932151034474373,-0.22724169492721558,0.0409279391169548
1772728955384139300,4.89013916015625,-0.05558869615197182,-0.24006985127925873,-0.05253437161445618
1772728955393657300,4.8996572265625,-0.07269290834665298,-0.2211330533027649,-0.15271618962287903
1772728955403175400,4.909175537109375,-0.08368847519159317,-0.18814635276794434,-0.24434591829776764
1772728955412693200,4.918693359375,-0.08491020649671555,-0.14660754799842834,-0.31093016266822815
1772728955422211300,4.92821142578125,-0.0769689604640007,-0.0977383628487587,-0.3426951467990875
1772728955431729400,4.9377294921875,-0.06536252796649933,-0.05253437161445618,-0.3335321843624115
1772728955441247200,4.947247314453125,-0.049480047076940536,-0.0054977829568088055,-0.2864955961704254
1772728955450765300,4.956765380859375,-0.031154103577136993,0.0360410213470459,-0.20830489695072174
1772728955460283400,4.966283447265625,-0.01282816007733345,0.06597339361906052,-0.10995566099882126
1772728955469801200,4.97580126953125,0.008552107028663158,0.07513637095689774,-0.002443459117785096
1772728955479319300,4.9853193359375,0.025045456364750862,0.07391463965177536,0.09285144507884979
1772728955488837000,4.994837158203125,0.03237583488225937,0.07147117704153061,0.16187916696071625
1772728955498355200,5.004355224609375,0.02932151034474373,0.07330377399921417,0.1954767256975174
1772728955507873300,5.013873291015625,0.014660755172371864,0.07147117704153061,0.2003636509180069
1772728955517391400,5.023391357421875,-0.006719512399286032,0.06291907280683517,0.185092031955719
1772728955526909200,5.0329091796875,-0.03848448023200035,0.05192350596189499,0.15271618962287903
1772728955536427300,5.04242724609375,-0.07941242307424545,0.03848448023200035,0.09896009415388107
1772728955545945300,5.0519453125,-0.12767073512077332,0.021380268037319183,0.02626718580722809
1772728955555463200,5.061463134765625,-0.17653992772102356,-0.002443459117785096,-0.0616973415017128
1772728955564981200,5.070981201171875,-0.21991132199764252,-0.050090912729501724,-0.15088360011577606
1772728955574499300,5.080499267578125,-0.25411975383758545,-0.1233946830034256,-0.22357651591300964
1772728955584017200,5.09001708984375,-0.27366742491722107,-0.18753549456596375,-0.2565632164478302
1772728955593535200,5.09953515625,-0.27916520833969116,-0.23273947834968567,-0.23273947834968567
1772728955603053000,5.109052978515625,-0.27550002932548523,-0.2516762912273407,-0.1496618688106537
1772728955612571100,5.118571044921875,-0.27000224590301514,-0.24862197041511536,-0.01588248461484909
1772728955622089200,5.128089111328125,-0.2632827162742615,-0.24556763470172882,0.14660754799842834
1772728955631607300,5.137607177734375,-0.25900667905807495,-0.23396120965480804,0.3176496922969818
1772728955641125000,5.147125,-0.2571740746498108,-0.2107483446598053,0.4673115611076355
1772728955650643200,5.156643310546875,-0.25534147024154663,-0.17898337543010712,0.5760455131530762
1772728955660161300,5.166161376953125,-0.25534147024154663,-0.14477495849132538,0.6340776681900024
1772728955669679000,5.17567919921875,-0.258395791053772,-0.1386663019657135,0.6334667801856995
1772728955679197200,5.185197265625,-0.25900667905807495,-0.1484401375055313,0.5729911923408508
1772728955688715300,5.19471533203125,-0.25900667905807495,-0.1496618688106537,0.4612029194831848
1772728955698233000,5.204233154296875,-0.26389357447624207,-0.13011419773101807,0.3017672002315521
1772728955707751200,5.213751220703125,-0.2767217457294464,-0.08857539296150208,0.12217295914888382
1772728955717269000,5.22326904296875,-0.29565855860710144,-0.03176496922969818,-0.05742128938436508
1772728955726787000,5.232787109375,-0.3194822669029236,0.02260199747979641,-0.21502439677715302
1772728955736305200,5.24230517578125,-0.3451386094093323,0.05253437161445618,-0.3347539007663727
1772728955745823200,5.2518232421875,-0.3640754222869873,0.07024945318698883,-0.4068359434604645
1772728955755341000,5.261341064453125,-0.37323838472366333,0.08307760953903198,-0.43310311436653137
1772728955764859100,5.270859130859375,-0.37629270553588867,0.07819069176912308,-0.41294458508491516
1772728955774377200,5.280377197265625,-0.36712974309921265,0.05864302068948746,-0.3445277214050293
1772728955783895000,5.28989501953125,-0.3396408259868622,0.034208428114652634,-0.22846342623233795
1772728955793413000,5.2994130859375,-0.29993459582328796,0.011606430634856224,-0.08613193035125732
1772728955802931200,5.30893115234375,-0.25045454502105713,-0.024434590712189674,0.056810423731803894
1772728955812449000,5.318448974609375,-0.19608759880065918,-0.0720820426940918,0.17715078592300415
1772728955821967000,5.327967041015625,-0.13988803327083588,-0.1178968995809555,0.25350889563560486
1772728955831485000,5.33748486328125,-0.0873536616563797,-0.1539379209280014,0.277332603931427
1772728955841003000,5.3470029296875,-0.043371398001909256,-0.16615521907806396,0.2461785078048706
1772728955850521000,5.35652099609375,-0.011606430634856224,-0.16187916696071625,0.17226386070251465
1772728955860039200,5.3660390625,0.009773836471140385,-0.1533270627260208,0.0665842592716217
1772728955869557000,5.375556884765625,0.023212861269712448,-0.13744457066059113,-0.05742128938436508
1772728955879075000,5.385074951171875,0.03298669680953026,-0.11545344442129135,-0.17898337543010712
1772728955888593200,5.39459326171875,0.037262752652168274,-0.08857539296150208,-0.2767217457294464
1772728955898111000,5.404111083984375,0.03543015569448471,-0.06780599057674408,-0.34086254239082336
1772728955907629000,5.413629150390625,0.02871064469218254,-0.0616973415017128,-0.37262752652168274
1772728955917147100,5.423147216796875,0.020158538594841957,-0.0720820426940918,-0.37629270553588867
1772728955926665000,5.4326650390625,0.0054977829568088055,-0.09040798991918564,-0.360410213470459
1772728955936183000,5.44218310546875,-0.014660755172371864,-0.09407317638397217,-0.33536475896835327
1772728955945700900,5.451700927734375,-0.0360410213470459,-0.0824667438864708,-0.3084867000579834
1772728955955219000,5.461218994140625,-0.05803215503692627,-0.0616973415017128,-0.287106454372406
1772728955964737000,5.470737060546875,-0.07391463965177536,-0.037262752652168274,-0.2669478952884674
1772728955974255000,5.480255126953125,-0.07757982611656189,-0.014660755172371864,-0.23884813487529755
1772728955983773000,5.48977294921875,-0.07086031138896942,0.004886918235570192,-0.19364413619041443
1772728955993291000,5.499291015625,-0.05925388261675835,0.025045456364750862,-0.1233946830034256
1772728956002809000,5.50880908203125,-0.047036588191986084,0.05253437161445618,-0.03543015569448471
1772728956012327000,5.518326904296875,-0.0360410213470459,0.07635809481143951,0.05803215503692627
1772728956021845000,5.527844970703125,-0.02871064469218254,0.08674279600381851,0.14110976457595825
1772728956031363000,5.537363037109375,-0.021380268037319183,0.09651663154363632,0.1954767256975174
1772728956040881000,5.546880859375,-0.014660755172371864,0.10690133273601532,0.21746785938739777
1772728956050399000,5.55639892578125,-0.009773836471140385,0.1081230640411377,0.20341797173023224
1772728956059916800,5.565916748046875,-0.009162971749901772,0.0977383628487587,0.16004657745361328
1772728956069435000,5.575434814453125,-0.006108647678047419,0.07819069176912308,0.09285144507884979
1772728956078953000,5.584952880859375,-0.004276053514331579,0.0513126403093338,0.014049889519810677
1772728956088471000,5.594470947265625,-0.004886918235570192,0.017104214057326317,-0.06475166976451874
1772728956097988900,5.60398876953125,-0.006719512399286032,-0.018325943499803543,-0.13133592903614044
1772728956107507000,5.6135068359375,-0.012217295356094837,-0.06352993845939636,-0.17531819641590118
1772728956117025000,5.62302490234375,-0.017715077847242355,-0.10995566099882126,-0.19608759880065918
1772728956126542800,5.63254296875,-0.026878049597144127,-0.14049890637397766,-0.19425499439239502
1772728956136061000,5.64206103515625,-0.0360410213470459,-0.15149445831775665,-0.17348559200763702
1772728956145579000,5.6515791015625,-0.043982263654470444,-0.1496618688106537,-0.13194678723812103
1772728956155096800,5.661096923828125,-0.050090912729501724,-0.11423171311616898,-0.07086031138896942
1772728956164615000,5.670614990234375,-0.05436696484684944,-0.05803215503692627,0.003665188793092966
1772728956174132700,5.6801328125,-0.053145237267017365,0.01282816007733345,0.08124501258134842
1772728956183650800,5.68965087890625,-0.043371398001909256,0.07574722915887833,0.15149445831775665
1772728956193169000,5.6991689453125,-0.017715077847242355,0.13011419773101807,0.20647229254245758
1772728956202687000,5.70868701171875,0.017104214057326317,0.16310089826583862,0.23945899307727814
1772728956212204800,5.718204833984375,0.053756099194288254,0.17287473380565643,0.24495677649974823
1772728956221723000,5.727722900390625,0.08796452730894089,0.16798780858516693,0.22418737411499023
1772728956231241000,5.737240966796875,0.12217295914888382,0.15699224174022675,0.1795942485332489
1772728956240758800,5.7467587890625,0.15088360011577606,0.15271618962287903,0.12278381735086441
1772728956250276900,5.75627685546875,0.17287473380565643,0.14599667489528656,0.059864748269319534
1772728956259795000,5.765794921875,0.18814635276794434,0.13011419773101807,0.0030543238390237093
1772728956269312800,5.775312744140625,0.2052505612373352,0.11362084746360779,-0.034208428114652634
1772728956278830800,5.784830810546875,0.22296564280986786,0.10384701192378998,-0.039706211537122726
1772728956288348700,5.7943486328125,0.24495677649974823,0.10384701192378998,0.000610864779446274
1772728956297866800,5.80386669921875,0.26939135789871216,0.11667517572641373,0.09285144507884979
1772728956307384800,5.813384765625,0.287106454372406,0.13683371245861053,0.22174391150474548
1772728956316902700,5.822902587890625,0.2974911332130432,0.14049890637397766,0.3652971386909485
1772728956326420700,5.832420654296875,0.3072649836540222,0.13194678723812103,0.5045742988586426
1772728956335938800,5.841938720703125,0.318871408700943,0.1282816082239151,0.6175842881202698
1772728956345457000,5.851456787109375,0.3231474757194519,0.14049890637397766,0.685390293598175
1772728956354974700,5.860974609375,0.32559093832969666,0.16249002516269684,0.7024945020675659
1772728956364492800,5.870492919921875,0.3170388340950012,0.18631376326084137,0.6646208763122559
1772728956374011000,5.880010986328125,0.29626941680908203,0.21868959069252014,0.5729911923408508
1772728956383528700,5.88952880859375,0.2712239623069763,0.2614501118659973,0.43982264399528503
1772728956393046800,5.899046875,0.2528980076313019,0.3042106628417969,0.2816086709499359
1772728956402564600,5.908564697265625,0.24006985127925873,0.3280344009399414,0.12095122784376144
1772728956412082700,5.918082763671875,0.23457208275794983,0.33231043815612793,-0.023212861269712448
1772728956421600800,5.927600830078125,0.2315177470445633,0.30604326725006104,-0.13622283935546875
1772728956431118600,5.93711865234375,0.2254091054201126,0.24373504519462585,-0.21685700118541718
1772728956440636700,5.94663671875,0.2162461280822754,0.1594357043504715,-0.2724456787109375
1772728956450154800,5.95615478515625,0.205861434340477,0.06780599057674408,-0.3090975880622864
1772728956459672600,5.965672607421875,0.19608759880065918,-0.008552107028663158,-0.3335321843624115
1772728956469190700,5.975190673828125,0.18875721096992493,-0.06352993845939636,-0.34086254239082336
1772728956478708700,5.984708740234375,0.18631376326084137,-0.10201441496610641,-0.3274235129356384
1772728956488226800,5.994226806640625,0.1905898153781891,-0.12095122784376144,-0.2919933497905731
1772728956497744600,6.00374462890625,0.19364413619041443,-0.12461641430854797,-0.24006985127925873
1772728956507262700,6.0132626953125,0.1905898153781891,-0.11667517572641373,-0.18142683804035187
1772728956516780500,6.022780517578125,0.17715078592300415,-0.08674279600381851,-0.1282816082239151
1772728956526298600,6.032298583984375,0.16126830875873566,-0.049480047076940536,-0.08368847519159317
1772728956535816700,6.041816650390625,0.14782927930355072,-0.011606430634856224,-0.05436696484684944
1772728956545334500,6.05133447265625,0.1386663019657135,0.020158538594841957,-0.04276053607463837
1772728956554852600,6.0608525390625,0.13072505593299866,0.04764745384454727,-0.0513126403093338
1772728956564370700,6.07037060546875,0.12217295914888382,0.06475166976451874,-0.07574722915887833
1772728956573888500,6.079888427734375,0.10995566099882126,0.06963858753442764,-0.10873392969369888
1772728956583406600,6.089406494140625,0.09651663154363632,0.08307760953903198,-0.14538581669330597
1772728956592924700,6.098924560546875,0.08613193035125732,0.11728604137897491,-0.1747073233127594
1772728956602442800,6.10844287109375,0.07941242307424545,0.16554436087608337,-0.1905898153781891
1772728956611960600,6.117960693359375,0.07880155742168427,0.2101374864578247,-0.18264856934547424
1772728956621478700,6.127478759765625,0.08063415437936783,0.22785256803035736,-0.15515965223312378
1772728956630996500,6.13699658203125,0.08124501258134842,0.2156352698802948,-0.11484257876873016
1772728956640514600,6.1465146484375,0.0824667438864708,0.17715078592300415,-0.07147117704153061
1772728956650032600,6.15603271484375,0.08307760953903198,0.11911863088607788,-0.03176496922969818
1772728956659550500,6.165550537109375,0.08002328872680664,0.053145237267017365,-0.004276053514331579
1772728956669068500,6.175068603515625,0.07269290834665298,0.009773836471140385,0.008552107028663158
1772728956678586600,6.184586669921875,0.056810423731803894,-0.03481929376721382,0.009162971749901772
1772728956688104400,6.1941044921875,0.0409279391169548,-0.07330377399921417,0.0054977829568088055
1772728956697622500,6.20362255859375,0.027488915249705315,-0.09651663154363632,0.0054977829568088055
1772728956707140600,6.213140625,0.017715077847242355,-0.1185077652335167,0.010384701192378998
1772728956716658400,6.222658447265625,0.010995565913617611,-0.1288924664258957,0.020769402384757996
1772728956726176500,6.232176513671875,0.002443459117785096,-0.13194678723812103,0.03787361457943916
1772728956735694600,6.241694580078125,-0.007330377586185932,-0.13561198115348816,0.05803215503692627
1772728956745212400,6.25121240234375,-0.020158538594841957,-0.14049890637397766,0.07391463965177536
1772728956754730500,6.26073046875,-0.03543015569448471,-0.1484401375055313,0.0769689604640007
1772728956764248600,6.27024853515625,-0.0513126403093338,-0.14477495849132538,0.06475166976451874
1772728956773766400,6.279766357421875,-0.06414080411195755,-0.13194678723812103,0.040317077189683914
1772728956783284500,6.289284423828125,-0.07330377399921417,-0.11484257876873016,0.010995565913617611
1772728956792802600,6.298802490234375,-0.07513637095689774,-0.08918625861406326,-0.020158538594841957
1772728956802320400,6.3083203125,-0.06963858753442764,-0.059864748269319534,-0.04459312930703163
1772728956811838500,6.31783837890625,-0.05558869615197182,-0.04153880476951599,-0.059864748269319534
1772728956821356500,6.3273564453125,-0.03543015569448471,-0.0256563201546669,-0.06414080411195755
1772728956830874400,6.336874267578125,-0.01588248461484909,-0.002443459117785096,-0.05558869615197182
1772728956840392400,6.346392333984375,0.000610864779446274,0.009162971749901772,-0.033597562462091446
1772728956849910500,6.35591064453125,0.014049889519810677,0.003665188793092966,0.0030543238390237093
1772728956859428400,6.365428466796875,0.023823726922273636,-0.013439024798572063,0.04520399495959282
1772728956868946400,6.374946533203125,0.031154103577136993,-0.039706211537122726,0.08307760953903198
1772728956878464500,6.384464599609375,0.03481929376721382,-0.0824667438864708,0.10445787757635117
1772728956887982300,6.393982421875,0.03481929376721382,-0.1288924664258957,0.09590577334165573
1772728956897500400,6.40350048828125,0.030543239787220955,-0.15577052533626556,0.05192350596189499
1772728956907018500,6.4130185546875,0.01954767294228077,-0.16676609218120575,-0.021991131827235222
1772728956916536300,6.422536376953125,0.006108647678047419,-0.16065743565559387,-0.11362084746360779
1772728956926054400,6.432054443359375,-0.006719512399286032,-0.1539379209280014,-0.20341797173023224
1772728956935572200,6.441572265625,-0.011606430634856224,-0.15210533142089844,-0.27916520833969116
1772728956945090300,6.45109033203125,-0.012217295356094837,-0.15515965223312378,-0.33597561717033386
1772728956954608400,6.4606083984375,-0.01282816007733345,-0.16004657745361328,-0.3689623177051544
1772728956964126500,6.47012646484375,-0.01588248461484909,-0.15149445831775665,-0.3750709891319275
1772728956973644300,6.479644287109375,-0.01649334840476513,-0.15821397304534912,-0.34697118401527405
1772728956983162400,6.489162353515625,-0.008552107028663158,-0.1893680840730667,-0.2828303873538971
1772728956992680400,6.498680419921875,0.004886918235570192,-0.23762640357017517,-0.18203771114349365
1772728957002198800,6.50819873046875,0.014660755172371864,-0.27488914132118225,-0.053145237267017365
1772728957011716400,6.51771630859375,0.009162971749901772,-0.2761108875274658,0.08857539296150208
1772728957021234400,6.527234375,-0.007330377586185932,-0.24862197041511536,0.22357651591300964
1772728957030752300,6.536752197265625,-0.0256563201546669,-0.19730933010578156,0.33536475896835327
1772728957040270300,6.546270263671875,-0.03298669680953026,-0.12400554865598679,0.41233372688293457
1772728957049788200,6.5557880859375,-0.03481929376721382,-0.043371398001909256,0.4520399272441864
1772728957059306200,6.56530615234375,-0.04153880476951599,0.009773836471140385,0.4575377106666565
1772728957068824300,6.57482421875,-0.06108647957444191,0.043371398001909256,0.4251618981361389
1772728957078342100,6.584342041015625,-0.0873536616563797,0.07024945318698883,0.3591884970664978
1772728957087860200,6.593860107421875,-0.11178825795650482,0.06719512492418289,0.26389357447624207
1772728957097378300,6.60337841796875,-0.13133592903614044,0.04214967042207718,0.14538581669330597
1772728957106896400,6.612896484375,-0.14538581669330597,0.010384701192378998,0.014049889519810677
1772728957116414200,6.622414306640625,-0.15760311484336853,-0.01893680728971958,-0.11667517572641373
1772728957125932000,6.63193212890625,-0.1698204129934311,-0.03787361457943916,-0.23212862014770508
1772728957135450400,6.641450439453125,-0.17776164412498474,-0.047036588191986084,-0.3194822669029236
1772728957144968200,6.65096826171875,-0.18081597983837128,-0.05070177838206291,-0.3689623177051544
1772728957154486300,6.660486328125,-0.17531819641590118,-0.031154103577136993,-0.37629270553588867
1772728957164004000,6.670004150390625,-0.15577052533626556,0.0030543238390237093,-0.3347539007663727
1772728957173522200,6.679522216796875,-0.1282816082239151,0.02932151034474373,-0.2461785078048706
1772728957183040300,6.689040283203125,-0.09468404203653336,0.027488915249705315,-0.12217295914888382
1772728957192558000,6.69855810546875,-0.053756099194288254,0.003665188793092966,0.017715077847242355
1772728957202076200,6.708076171875,-0.01282816007733345,-0.024434590712189674,0.14599667489528656
1772728957211594200,6.71759423828125,0.021991131827235222,-0.04459312930703163,0.2315177470445633
1772728957221112000,6.727112060546875,0.04581485688686371,-0.053145237267017365,0.25534147024154663
1772728957230630100,6.736630126953125,0.05925388261675835,-0.05253437161445618,0.2211330533027649
1772728957240148200,6.746148193359375,0.06597339361906052,-0.0409279391169548,0.1496618688106537
1772728957249666000,6.755666015625,0.06536252796649933,-0.018325943499803543,0.05742128938436508
1772728957259184000,6.76518408203125,0.059864748269319534,0.01282816007733345,-0.037262752652168274
1772728957268702200,6.7747021484375,0.0513126403093338,0.040317077189683914,-0.12034036219120026
1772728957278220000,6.784219970703125,0.04214967042207718,0.05558869615197182,-0.18387030065059662
1772728957287738000,6.793738037109375,0.03298669680953026,0.0616973415017128,-0.2315177470445633
1772728957297256200,6.803256103515625,0.0256563201546669,0.05558869615197182,-0.2614501118659973
1772728957306774000,6.81277392578125,0.020769402384757996,0.026878049597144127,-0.27550002932548523
1772728957316292000,6.8222919921875,0.011606430634856224,-0.012217295356094837,-0.2822195291519165
1772728957325810000,6.831809814453125,0.000610864779446274,-0.046425722539424896,-0.287106454372406
1772728957335328000,6.841327880859375,-0.009773836471140385,-0.06352993845939636,-0.29077163338661194
1772728957344846000,6.85084619140625,-0.01893680728971958,-0.056199558079242706,-0.2926042377948761
1772728957354364000,6.860364013671875,-0.0256563201546669,-0.04581485688686371,-0.28527384996414185
1772728957363882000,6.869882080078125,-0.024434590712189674,-0.040317077189683914,-0.2657261788845062
1772728957373400000,6.879400146484375,-0.015271619893610477,-0.03298669680953026,-0.2315177470445633
1772728957382918100,6.888918212890625,-0.0030543238390237093,-0.024434590712189674,-0.18203771114349365
1772728957392436000,6.89843603515625,0.007941242307424545,-0.02871064469218254,-0.11667517572641373
1772728957401954000,6.9079541015625,0.017104214057326317,-0.03237583488225937,-0.03909534588456154
1772728957411472100,6.91747216796875,0.024434590712189674,-0.020769402384757996,0.034208428114652634
1772728957420990000,6.926989990234375,0.02871064469218254,0.001221729558892548,0.09346231073141098
1772728957430508000,6.936508056640625,0.03298669680953026,0.008552107028663158,0.13194678723812103
1772728957440025900,6.94602587890625,0.034208428114652634,0.010995565913617611,0.14233149588108063
1772728957449544000,6.9555439453125,0.0360410213470459,0.020769402384757996,0.12767073512077332
1772728957459062000,6.96506201171875,0.03543015569448471,0.029932374134659767,0.09162971377372742
1772728957468579800,6.974579833984375,0.03176496922969818,0.023212861269712448,0.04153880476951599
1772728957478098000,6.984097900390625,0.026878049597144127,-0.0030543238390237093,-0.015271619893610477
1772728957487616000,6.993615966796875,0.021380268037319183,-0.05070177838206291,-0.07941242307424545
1772728957497133800,7.0031337890625,0.01893680728971958,-0.09590577334165573,-0.1441640853881836
1772728957506652000,7.01265185546875,0.01282816007733345,-0.13927717506885529,-0.20219624042510986
1772728957516170000,7.022169921875,0.001832594396546483,-0.16554436087608337,-0.24740023910999298
1772728957525688000,7.03168798828125,-0.004276053514331579,-0.16065743565559387,-0.2724456787109375
1772728957535206000,7.041205810546875,-0.007330377586185932,-0.14049890637397766,-0.2675587832927704
1772728957544724000,7.050723876953125,-0.007330377586185932,-0.09346231073141098,-0.23396120965480804
1772728957554241800,7.06024169921875,-0.007941242307424545,-0.036651886999607086,-0.17043127119541168
1772728957563759900,7.069759765625,-0.006719512399286032,0.02932151034474373,-0.08307760953903198
1772728957573278000,7.07927783203125,-0.0030543238390237093,0.10445787757635117,0.014660755172371864
1772728957582795800,7.088795654296875,0.0030543238390237093,0.19608759880065918,0.10567960888147354
1772728957592313900,7.09831396484375,0.017104214057326317,0.2828303873538971,0.1740964651107788
1772728957601832000,7.10783203125,0.03543015569448471,0.34697118401527405,0.2101374864578247
1772728957611349800,7.117349853515625,0.056810423731803894,0.3805687427520752,0.2101374864578247
1772728957620867800,7.126867919921875,0.08063415437936783,0.3946186602115631,0.17592905461788177
1772728957630385700,7.1363857421875,0.10506874322891235,0.3799578845500946,0.11606431007385254
1772728957639903700,7.14590380859375,0.12767073512077332,0.33536475896835327,0.03848448023200035
1772728957649421800,7.155421875,0.14660754799842834,0.26022839546203613,-0.046425722539424896
1772728957658940000,7.16493994140625,0.1637117564678192,0.16249002516269684,-0.1386663019657135
1772728957668457700,7.174457763671875,0.17898337543010712,0.06841685622930527,-0.22479823231697083
1772728957677975800,7.183975830078125,0.1954767256975174,-0.006719512399286032,-0.2816086709499359
1772728957687494000,7.193493896484375,0.22296564280986786,-0.08613193035125732,-0.27855435013771057
1772728957697011700,7.20301171875,0.25534147024154663,-0.15149445831775665,-0.21441353857517242
1772728957706529800,7.21252978515625,0.27488914132118225,-0.185092031955719,-0.10934479534626007
1772728957716048000,7.2220478515625,0.27916520833969116,-0.17531819641590118,0.013439024798572063
1772728957725565700,7.231565673828125,0.27488914132118225,-0.11423171311616898,0.1337793916463852
1772728957735083800,7.241083740234375,0.2675587832927704,-0.015271619893610477,0.2467893660068512
1772728957744601600,7.2506015625,0.258395791053772,0.09651663154363632,0.3390299379825592
1772728957754119700,7.26011962890625,0.2467893660068512,0.205861434340477,0.4001164436340332
1772728957763637800,7.2696376953125,0.22968515753746033,0.3084867000579834,0.4263836145401001
1772728957773155600,7.279155517578125,0.2101374864578247,0.3958403766155243,0.41233372688293457
1772728957782673700,7.288673583984375,0.19425499439239502,0.4612029194831848,0.3652971386909485
1772728957792191700,7.298191650390625,0.18692462146282196,0.5094612240791321,0.29443681240081787
1772728957801709600,7.30770947265625,0.1905898153781891,0.5320632457733154,0.21502439677715302
1772728957811227600,7.3172275390625,0.2009745091199875,0.5247328281402588,0.12705987691879272
1772728957820745700,7.326745849609375,0.2205221801996231,0.49052441120147705,0.0409279391169548
1772728957830263800,7.336263916015625,0.24251331388950348,0.42332929372787476,-0.04276053607463837
1772728957839781600,7.34578173828125,0.2626718580722809,0.3280344009399414,-0.12156209349632263
1772728957849299700,7.3552998046875,0.2816086709499359,0.20830489695072174,-0.19425499439239502
1772728957858817500,7.364817626953125,0.29626941680908203,0.0720820426940918,-0.26022839546203613
1772728957868335600,7.374335693359375,0.2974911332130432,-0.03481929376721382,-0.3225366175174713
1772728957877853700,7.383853759765625,0.2864955961704254,-0.11362084746360779,-0.370184063911438
1772728957887371500,7.39337158203125,0.26939135789871216,-0.1740964651107788,-0.3915643095970154
1772728957896889600,7.4028896484375,0.24862197041511536,-0.20769402384757996,-0.3805687427520752
1772728957906407400,7.412407470703125,0.22357651591300964,-0.19669845700263977,-0.3481929302215576
1772728957915925500,7.421925537109375,0.19914191961288452,-0.14599667489528656,-0.30054548382759094
1772728957925443600,7.431443603515625,0.1802051067352295,-0.08552107214927673,-0.24312418699264526
1772728957934961400,7.44096142578125,0.1649334877729416,-0.031154103577136993,-0.17837251722812653
1772728957944479500,7.4504794921875,0.14782927930355072,0.010384701192378998,-0.11972949653863907
1772728957953997600,7.45999755859375,0.13072505593299866,0.04153880476951599,-0.06902772188186646
1772728957963515600,7.469515625,0.12095122784376144,0.06719512492418289,-0.031154103577136993
1772728957973033500,7.479033447265625,0.11667517572641373,0.07941242307424545,-0.018325943499803543
1772728957982551600,7.488551513671875,0.11606431007385254,0.09957095980644226,-0.031154103577136993
1772728957992069600,7.498069580078125,0.1178968995809555,0.1288924664258957,-0.06719512492418289
1772728958001587500,7.50758740234375,0.12950333952903748,0.14660754799842834,-0.11362084746360779
1772728958011105500,7.51710546875,0.1490510106086731,0.1539379209280014,-0.16737695038318634
1772728958020623400,7.526623291015625,0.17531819641590118,0.15577052533626556,-0.21807873249053955
1772728958030141400,7.536141357421875,0.19853104650974274,0.14721840620040894,-0.2614501118659973
1772728958039659500,7.545659423828125,0.21502439677715302,0.1288924664258957,-0.2938259541988373
1772728958049177300,7.55517724609375,0.22296564280986786,0.10201441496610641,-0.31520622968673706
1772728958058695400,7.5646953125,0.23029601573944092,0.07757982611656189,-0.32620179653167725
1772728958068213200,7.574213134765625,0.2364046722650528,0.046425722539424896,-0.3274235129356384
1772728958077731300,7.5837314453125,0.23762640357017517,0.017104214057326317,-0.32559093832969666
1772728958087249400,7.59324951171875,0.23029601573944092,0.001832594396546483,-0.3170388340950012
1772728958096767200,7.602767333984375,0.22479823231697083,-0.027488915249705315,-0.287106454372406
1772728958106285300,7.612285400390625,0.2156352698802948,-0.0616973415017128,-0.235793799161911
1772728958115803400,7.621803466796875,0.1997527778148651,-0.08918625861406326,-0.17715078592300415
1772728958125321500,7.631321533203125,0.18387030065059662,-0.10201441496610641,-0.11362084746360779
1772728958134839300,7.64083935546875,0.16859868168830872,-0.11239911615848541,-0.049480047076940536
1772728958144357400,7.650357421875,0.15088360011577606,-0.12522727251052856,0.010384701192378998
1772728958153875500,7.65987548828125,0.12644900381565094,-0.14294235408306122,0.053756099194288254
1772728958163393300,7.669393310546875,0.09712749719619751,-0.15577052533626556,0.06963858753442764
1772728958172911400,7.678911376953125,0.06475166976451874,-0.15088360011577606,0.05497783049941063
1772728958182429200,7.68842919921875,0.0256563201546669,-0.12217295914888382,0.01893680728971958
1772728958191947300,7.697947265625,-0.01282816007733345,-0.07941242307424545,-0.017715077847242355
1772728958201465300,7.70746533203125,-0.047036588191986084,-0.043982263654470444,-0.03909534588456154
1772728958210983200,7.716983154296875,-0.07513637095689774,-0.017715077847242355,-0.04581485688686371
1772728958220501200,7.726501220703125,-0.09285144507884979,0.008552107028663158,-0.03848448023200035
1772728958230019300,7.736019287109375,-0.1026252806186676,0.028099779039621353,-0.007330377586185932
1772728958239537200,7.745537109375,-0.10567960888147354,0.029932374134659767,0.0513126403093338
1772728958249055200,7.75505517578125,-0.10567960888147354,0.014049889519810677,0.1331685185432434
1772728958258573000,7.764572998046875,-0.09834922850131989,0.001832594396546483,0.2254091054201126
1772728958268091100,7.774091064453125,-0.08002328872680664,-0.02626718580722809,0.31093016266822815
1772728958277609200,7.783609130859375,-0.0513126403093338,-0.034208428114652634,0.37262752652168274
1772728958287127300,7.793127197265625,-0.0256563201546669,-0.02871064469218254,0.3958403766155243
1772728958296645000,7.80264501953125,-0.009773836471140385,-0.015271619893610477,0.37140578031539917
1772728958306163200,7.8121630859375,-0.0054977829568088055,0.01893680728971958,0.3084867000579834
1772728958315681300,7.821681396484375,-0.009773836471140385,0.05742128938436508,0.2205221801996231
1772728958325199000,7.83119921875,-0.015271619893610477,0.0977383628487587,0.12156209349632263
1772728958334717200,7.84071728515625,-0.023823726922273636,0.13011419773101807,0.02626718580722809
1772728958344235300,7.8502353515625,-0.03298669680953026,0.143553227186203,-0.06597339361906052
1772728958353753000,7.859753173828125,-0.04520399495959282,0.13194678723812103,-0.14721840620040894
1772728958363271200,7.869271240234375,-0.04764745384454727,0.1178968995809555,-0.20463970303535461
1772728958372789000,7.8787890625,-0.04276053607463837,0.10079269111156464,-0.22174391150474548
1772728958382307000,7.88830712890625,-0.031154103577136993,0.056199558079242706,-0.18570289015769958
1772728958391825200,7.8978251953125,-0.02260199747979641,-0.029932374134659767,-0.09407317638397217
1772728958401343000,7.907343017578125,-0.02871064469218254,-0.13255766034126282,0.040317077189683914
1772728958410861000,7.916861083984375,-0.053145237267017365,-0.2101374864578247,0.19303326308727264
1772728958420379000,7.92637890625,-0.08674279600381851,-0.24862197041511536,0.33536475896835327
1772728958429897000,7.93589697265625,-0.11056652665138245,-0.2559523284435272,0.44409868121147156
1772728958439415000,7.9454150390625,-0.11545344442129135,-0.23762640357017517,0.5033525824546814
1772728958448933000,7.95493310546875,-0.1130099818110466,-0.19242240488529205,0.5064069032669067
1772728958458451000,7.964450927734375,-0.11972949653863907,-0.1288924664258957,0.4581485986709595
1772728958467969000,7.973968994140625,-0.13927717506885529,-0.07147117704153061,0.36163195967674255
1772728958477487000,7.983487060546875,-0.16859868168830872,-0.020769402384757996,0.22357651591300964
1772728958487005000,7.9930048828125,-0.19669845700263977,0.03176496922969818,0.06291907280683517
1772728958496523000,8.00252294921875,-0.21685700118541718,0.08124501258134842,-0.09346231073141098
1772728958506041000,8.012041015625,-0.23396120965480804,0.11362084746360779,-0.22663083672523499
1772728958515559000,8.021558837890625,-0.25045454502105713,0.14049890637397766,-0.3274235129356384
1772728958525077000,8.031076904296874,-0.26450446248054504,0.16126830875873566,-0.38789913058280945
1772728958534594800,8.0405947265625,-0.26878049969673157,0.1649334877729416,-0.41355544328689575
1772728958544113000,8.05011279296875,-0.2614501118659973,0.15577052533626556,-0.40317076444625854
1772728958553631000,8.059630859375,-0.2370155304670334,0.13561198115348816,-0.360410213470459
1772728958563148800,8.069148681640625,-0.20219624042510986,0.10934479534626007,-0.2834412455558777
1772728958572667000,8.0786669921875,-0.16004657745361328,0.08429934084415436,-0.18203771114349365
1772728958582184700,8.088184814453125,-0.11667517572641373,0.05558869615197182,-0.06902772188186646
1772728958591702800,8.097702880859375,-0.06902772188186646,0.010384701192378998,0.03909534588456154
1772728958601220900,8.107220947265626,-0.023212861269712448,-0.03787361457943916,0.12278381735086441
1772728958610738700,8.11673876953125,0.01588248461484909,-0.06963858753442764,0.164322629570961
1772728958620256800,8.1262568359375,0.043982263654470444,-0.07269290834665298,0.16310089826583862
1772728958629774800,8.13577490234375,0.05925388261675835,-0.05436696484684944,0.12034036219120026
1772728958639293000,8.14529296875,0.06841685622930527,-0.030543239787220955,0.04825831577181816
1772728958648810800,8.154810791015626,0.07147117704153061,-0.007330377586185932,-0.040317077189683914
1772728958658328800,8.164328857421875,0.06780599057674408,0.01588248461484909,-0.1331685185432434
1772728958667847000,8.173846923828124,0.05925388261675835,0.03298669680953026,-0.21807873249053955
1772728958677364700,8.18336474609375,0.04581485688686371,0.047036588191986084,-0.28954991698265076
1772728958686882800,8.1928828125,0.03176496922969818,0.06108647957444191,-0.3396408259868622
1772728958696400600,8.202400634765626,0.017715077847242355,0.07635809481143951,-0.3646862804889679
1772728958705918700,8.211918701171875,0.0054977829568088055,0.08552107214927673,-0.36712974309921265
1772728958715436800,8.221436767578124,-0.009773836471140385,0.08368847519159317,-0.3549124300479889
1772728958724954600,8.23095458984375,-0.023823726922273636,0.07757982611656189,-0.33108872175216675
1772728958734472700,8.24047265625,-0.034208428114652634,0.06414080411195755,-0.29565855860710144
1772728958743990800,8.24999072265625,-0.03543015569448471,0.04459312930703163,-0.25473061203956604
1772728958753508600,8.259508544921875,-0.028099779039621353,0.027488915249705315,-0.2156352698802948
1772728958763026700,8.269026611328124,-0.013439024798572063,0.004886918235570192,-0.17898337543010712
1772728958772544500,8.27854443359375,0.004886918235570192,-0.008552107028663158,-0.15027274191379547
1772728958782062600,8.2880625,0.020769402384757996,0.004276053514331579,-0.1282816082239151
1772728958791580700,8.29758056640625,0.033597562462091446,0.01954767294228077,-0.10751219838857651
1772728958801098500,8.307098388671875,0.043982263654470444,0.03237583488225937,-0.08124501258134842
1772728958810616600,8.316616455078124,0.05436696484684944,0.05192350596189499,-0.05436696484684944
1772728958820134700,8.326134765625,0.06230820715427399,0.07086031138896942,-0.029932374134659767
1772728958829652500,8.335652587890625,0.06841685622930527,0.0922405794262886,-0.010384701192378998
1772728958839170600,8.345170654296876,0.07330377399921417,0.10873392969369888,0.0054977829568088055
1772728958848688600,8.354688720703125,0.0769689604640007,0.1081230640411377,0.01588248461484909
1772728958858206700,8.364206787109374,0.07941242307424545,0.09896009415388107,0.01282816007733345
1772728958867724500,8.373724609375,0.0769689604640007,0.0769689604640007,0.001221729558892548
1772728958877242600,8.38324267578125,0.07574722915887833,0.04276053607463837,-0.012217295356094837
1772728958886760400,8.392760498046876,0.07269290834665298,0.007941242307424545,-0.021991131827235222
1772728958896278500,8.402278564453125,0.06841685622930527,-0.031154103577136993,-0.03237583488225937
1772728958905796600,8.411796630859374,0.06475166976451874,-0.0665842592716217,-0.04153880476951599
1772728958915314400,8.421314453125,0.06414080411195755,-0.08918625861406326,-0.04764745384454727
1772728958924832500,8.43083251953125,0.05864302068948746,-0.11056652665138245,-0.04520399495959282
1772728958934350300,8.440350341796876,0.04825831577181816,-0.12950333952903748,-0.034208428114652634
1772728958943868400,8.449868408203125,0.033597562462091446,-0.13133592903614044,-0.012217295356094837
1772728958953386500,8.459386474609374,0.024434590712189674,-0.10018182545900345,0.014660755172371864
1772728958962904300,8.468904296875,0.018325943499803543,-0.04825831577181816,0.04459312930703163
1772728958972422400,8.47842236328125,0.014049889519810677,0.008552107028663158,0.07513637095689774
1772728958981940200,8.487940185546876,0.011606430634856224,0.06414080411195755,0.10079269111156464
1772728958991458300,8.497458251953125,0.01893680728971958,0.11606431007385254,0.12034036219120026
1772728959000976400,8.506976318359374,0.03176496922969818,0.1545487940311432,0.12400554865598679
1772728959010494500,8.516494384765625,0.050090912729501724,0.16859868168830872,0.11056652665138245
1772728959020012300,8.52601220703125,0.07147117704153061,0.16554436087608337,0.08002328872680664
1772728959029530400,8.5355302734375,0.09162971377372742,0.1545487940311432,0.0360410213470459
1772728959039048400,8.54504833984375,0.10751219838857651,0.13072505593299866,-0.021380268037319183
1772728959048566300,8.554566162109374,0.12217295914888382,0.09407317638397217,-0.08002328872680664
1772728959058084400,8.56408447265625,0.13255766034126282,0.04886918142437935,-0.13439024984836578
1772728959067602400,8.5736025390625,0.1484401375055313,-0.011606430634856224,-0.17653992772102356
1772728959077120300,8.583120361328126,0.17837251722812653,-0.07330377399921417,-0.17226386070251465
1772728959086638300,8.592638427734375,0.2162461280822754,-0.11056652665138245,-0.0977383628487587
1772728959096156200,8.60215625,0.2516762912273407,-0.1288924664258957,0.034208428114652634
1772728959105674200,8.61167431640625,0.26878049969673157,-0.1380554437637329,0.1893680840730667
1772728959115192300,8.6211923828125,0.268169641494751,-0.12950333952903748,0.3396408259868622
1772728959124710100,8.630710205078126,0.2657261788845062,-0.09040798991918564,0.4734202027320862
1772728959134228200,8.640228271484375,0.2712239623069763,-0.004276053514331579,0.5754346251487732
1772728959143746300,8.649746337890624,0.27977606654167175,0.10201441496610641,0.6322450637817383
1772728959153264000,8.65926416015625,0.2828303873538971,0.21135921776294708,0.6310232877731323
1772728959162782200,8.6687822265625,0.27427828311920166,0.3133736252784729,0.5827649831771851
1772728959172300000,8.678300048828126,0.25473061203956604,0.3995055556297302,0.4935787320137024
1772728959181818000,8.687818115234375,0.23762640357017517,0.46364638209342957,0.37201663851737976
1772728959191336200,8.697336181640624,0.23273947834968567,0.5088503360748291,0.23396120965480804
1772728959200854000,8.70685400390625,0.2406807243824005,0.526565432548523,0.09896009415388107
1772728959210372000,8.7163720703125,0.2577849328517914,0.5045742988586426,-0.02260199747979641
1772728959219890200,8.72589013671875,0.27916520833969116,0.4728093445301056,-0.12034036219120026
1772728959229408000,8.735407958984375,0.2993237376213074,0.42332929372787476,-0.19181154668331146
1772728959238926000,8.744926025390624,0.3176496922969818,0.3176496922969818,-0.23945899307727814
1772728959248444200,8.754444091796875,0.3329212963581085,0.1649334877729416,-0.2718348205089569
1772728959257962000,8.7639619140625,0.33597561717033386,-0.007941242307424545,-0.2974911332130432
1772728959267480000,8.77347998046875,0.3249800503253937,-0.1594357043504715,-0.31520622968673706
1772728959276998100,8.782998046875,0.3066541254520416,-0.25534147024154663,-0.31581708788871765
1772728959286516000,8.792515869140624,0.28466299176216125,-0.29626941680908203,-0.2974911332130432
1772728959296034000,8.802033935546875,0.25473061203956604,-0.2834412455558777,-0.2663370370864868
1772728959305552100,8.81155224609375,0.21380266547203064,-0.23518294095993042,-0.22663083672523499
1772728959315070000,8.821070068359376,0.16737695038318634,-0.17104214429855347,-0.17898337543010712
1772728959324588000,8.830588134765625,0.12095122784376144,-0.11056652665138245,-0.1282816082239151
1772728959334105900,8.84010595703125,0.08002328872680664,-0.04825831577181816,-0.07330377399921417
1772728959343624000,8.8496240234375,0.04825831577181816,0.001221729558892548,-0.02626718580722809
1772728959353142000,8.85914208984375,0.021991131827235222,0.030543239787220955,0.006719512399286032
1772728959362659800,8.868659912109376,-0.000610864779446274,0.050090912729501724,0.025045456364750862
1772728959372178000,8.878177978515625,-0.020769402384757996,0.06475166976451874,0.0256563201546669
1772728959381695700,8.88769580078125,-0.03176496922969818,0.07513637095689774,0.008552107028663158
1772728959391213800,8.8972138671875,-0.03298669680953026,0.08429934084415436,-0.023212861269712448
1772728959400732000,8.90673193359375,-0.025045456364750862,0.08796452730894089,-0.06841685622930527
1772728959410249700,8.916249755859376,-0.013439024798572063,0.08613193035125732,-0.12034036219120026
1772728959419767800,8.925767822265625,-0.000610864779446274,0.08002328872680664,-0.16554436087608337
1772728959429286000,8.935285888671874,0.010384701192378998,0.06414080411195755,-0.19792018830776215
1772728959438803700,8.9448037109375,0.01588248461484909,0.039706211537122726,-0.21441353857517242
1772728959448321800,8.95432177734375,0.01282816007733345,0.011606430634856224,-0.21197007596492767
1772728959457839900,8.96383984375,0.007330377586185932,-0.023823726922273636,-0.19120067358016968
1772728959467357700,8.973357666015625,-0.001832594396546483,-0.047036588191986084,-0.16065743565559387
1772728959476875800,8.982875732421874,-0.01649334840476513,-0.06047561392188072,-0.12583814561367035
1772728959486393900,8.992393798828125,-0.029932374134659767,-0.06352993845939636,-0.08796452730894089
1772728959495911700,9.00191162109375,-0.04520399495959282,-0.06719512492418289,-0.04764745384454727
1772728959505429800,9.0114296875,-0.05742128938436508,-0.07452550530433655,-0.004886918235570192
1772728959514947800,9.02094775390625,-0.06902772188186646,-0.08429934084415436,0.039706211537122726
1772728959524465700,9.030465576171874,-0.08063415437936783,-0.09346231073141098,0.07819069176912308
1772728959533983700,9.039983642578125,-0.08796452730894089,-0.10201441496610641,0.10140355676412582
1772728959543501800,9.049501708984375,-0.09529490768909454,-0.11484257876873016,0.10079269111156464
1772728959553019600,9.05901953125,-0.10140355676412582,-0.1288924664258957,0.07391463965177536
1772728959562537700,9.068537841796875,-0.10995566099882126,-0.13133592903614044,0.0256563201546669
1772728959572055600,9.0780556640625,-0.11423171311616898,-0.12095122784376144,-0.02932151034474373
1772728959581573600,9.08757373046875,-0.11423171311616898,-0.08979712426662445,-0.08002328872680664
1772728959591091700,9.097091796875,-0.11056652665138245,-0.04764745384454727,-0.1178968995809555
1772728959600609500,9.106609619140626,-0.10079269111156464,-0.014660755172371864,-0.13622283935546875
1772728959610127600,9.116127685546875,-0.08613193035125732,0.014660755172371864,-0.13194678723812103
1772728959619645400,9.1256455078125,-0.06963858753442764,0.043371398001909256,-0.10201441496610641
1772728959629163500,9.13516357421875,-0.050090912729501724,0.05864302068948746,-0.04520399495959282
1772728959638681600,9.144681640625,-0.030543239787220955,0.0513126403093338,0.03909534588456154
1772728959648199400,9.154199462890626,-0.015271619893610477,0.021991131827235222,0.13988803327083588
1772728959657717500,9.163717529296875,-0.0030543238390237093,-0.03176496922969818,0.24434591829776764
1772728959667235300,9.1732353515625,-0.001221729558892548,-0.09590577334165573,0.3243691921234131
1772728959676753400,9.18275341796875,-0.006719512399286032,-0.1545487940311432,0.3543015718460083
1772728959686271500,9.192271484375,-0.014049889519810677,-0.20769402384757996,0.32620179653167725
1772728959695789300,9.201789306640626,-0.021991131827235222,-0.24923282861709595,0.24862197041511536
1772728959705307400,9.211307373046875,-0.036651886999607086,-0.26389357447624207,0.13988803327083588
1772728959714825500,9.220825439453124,-0.056810423731803894,-0.25350889563560486,0.023823726922273636
1772728959724343300,9.23034326171875,-0.07330377399921417,-0.22296564280986786,-0.07757982611656189
1772728959733861400,9.239861328125,-0.08491020649671555,-0.18325942754745483,-0.1490510106086731
1772728959743379500,9.24937939453125,-0.09407317638397217,-0.1484401375055313,-0.18875721096992493
1772728959752897300,9.258897216796875,-0.09896009415388107,-0.1337793916463852,-0.19792018830776215
1772728959762415400,9.268415283203124,-0.09346231073141098,-0.13072505593299866,-0.18875721096992493
1772728959771933400,9.277933349609375,-0.08307760953903198,-0.12156209349632263,-0.15577052533626556
1772728959781451300,9.287451171875,-0.0720820426940918,-0.1130099818110466,-0.09529490768909454
1772728959790969300,9.29696923828125,-0.06963858753442764,-0.11972949653863907,0
1772728959800487400,9.3064873046875,-0.07635809481143951,-0.14294235408306122,0.12767073512077332
1772728959810005200,9.316005126953126,-0.09712749719619751,-0.16249002516269684,0.2730565667152405
1772728959819523300,9.3255234375,-0.12583814561367035,-0.17226386070251465,0.41355544328689575
1772728959829041400,9.33504150390625,-0.15088360011577606,-0.16249002516269684,0.526565432548523
1772728959838559200,9.344559326171876,-0.16676609218120575,-0.12583814561367035,0.5949822664260864
1772728959848077300,9.354077392578125,-0.17592905461788177,-0.07941242307424545,0.6120865345001221
1772728959857595100,9.36359521484375,-0.18875721096992493,-0.04764745384454727,0.5766563415527344
1772728959867113200,9.37311328125,-0.20952661335468292,-0.03237583488225937,0.49113526940345764
1772728959876631300,9.38263134765625,-0.23212862014770508,-0.018325943499803543,0.3689623177051544
1772728959886149000,9.392149169921876,-0.25534147024154663,0.013439024798572063,0.2211330533027649
1772728959895667200,9.401667236328125,-0.27977606654167175,0.06291907280683517,0.06841685622930527
1772728959905185000,9.41118505859375,-0.30054548382759094,0.10934479534626007,-0.06780599057674408
1772728959914703000,9.420703125,-0.3176496922969818,0.13133592903614044,-0.17104214429855347
1772728959924221200,9.43022119140625,-0.32681265473365784,0.14172062277793884,-0.23396120965480804
1772728959933739000,9.439739013671876,-0.3274235129356384,0.16737695038318634,-0.258395791053772
1772728959943257000,9.449257080078125,-0.32009315490722656,0.1905898153781891,-0.25411975383758545
1772728959952775000,9.45877490234375,-0.3072649836540222,0.19730933010578156,-0.22968515753746033
1772728959962293000,9.46829296875,-0.27855435013771057,0.19181154668331146,-0.18570289015769958
1772728959971811000,9.47781103515625,-0.2364046722650528,0.17104214429855347,-0.1233946830034256
1772728959981329000,9.487328857421875,-0.19303326308727264,0.14110976457595825,-0.05497783049941063
1772728959990847000,9.496846923828125,-0.1484401375055313,0.08674279600381851,0.01282816007733345
1772728960000365000,9.506364990234376,-0.1026252806186676,0.01282816007733345,0.0720820426940918
1772728960009883000,9.5158828125,-0.0616973415017128,-0.04886918142437935,0.1081230640411377
1772728960019401000,9.52540087890625,-0.023212861269712448,-0.08979712426662445,0.11117739230394363
1772728960028919000,9.5349189453125,0.007941242307424545,-0.10873392969369888,0.0818558782339096
1772728960038436900,9.544436767578125,0.02932151034474373,-0.10995566099882126,0.025045456364750862
1772728960047955000,9.553954833984376,0.03848448023200035,-0.08857539296150208,-0.04764745384454727
1772728960057473000,9.56347314453125,0.0409279391169548,-0.05558869615197182,-0.1178968995809555
1772728960066990800,9.572990966796874,0.039706211537122726,-0.020158538594841957,-0.1795942485332489
1772728960076509000,9.582509033203126,0.03298669680953026,0.001832594396546483,-0.22968515753746033
1772728960086027000,9.592027099609375,0.020769402384757996,0.011606430634856224,-0.2675587832927704
1772728960095544800,9.601544921875,0.0054977829568088055,0.031154103577136993,-0.29504770040512085
1772728960105063000,9.61106298828125,-0.014660755172371864,0.049480047076940536,-0.31154105067253113
1772728960114581000,9.6205810546875,-0.03481929376721382,0.05742128938436508,-0.3225366175174713
1772728960124098800,9.630098876953125,-0.049480047076940536,0.05742128938436508,-0.3249800503253937
1772728960133617000,9.639616943359375,-0.056810423731803894,0.06047561392188072,-0.318871408700943
1772728960143134700,9.649134765625,-0.0513126403093338,0.05742128938436508,-0.2974911332130432
1772728960152652800,9.65865283203125,-0.03848448023200035,0.04825831577181816,-0.2657261788845062
1772728960162171000,9.6681708984375,-0.021991131827235222,0.04276053607463837,-0.22479823231697083
1772728960171688700,9.677688720703125,-0.004886918235570192,0.03909534588456154,-0.17898337543010712
1772728960181206800,9.687206787109375,0.014049889519810677,0.04459312930703163,-0.13133592903614044
1772728960190724600,9.696724609375,0.036651886999607086,0.05803215503692627,-0.08491020649671555
1772728960200242700,9.70624267578125,0.0616973415017128,0.0824667438864708,-0.050090912729501724
1772728960209760800,9.7157607421875,0.08491020649671555,0.1130099818110466,-0.02626718580722809
1772728960219278600,9.725278564453125,0.1026252806186676,0.13927717506885529,-0.014049889519810677
1772728960228796700,9.734796630859375,0.11484257876873016,0.164322629570961,-0.007941242307424545
1772728960238314500,9.744314453125,0.1233946830034256,0.185092031955719,-0.0054977829568088055
1772728960247832600,9.75383251953125,0.13500112295150757,0.19792018830776215,-0.004886918235570192
1772728960257350700,9.7633505859375,0.15149445831775665,0.19669845700263977,-0.0054977829568088055
1772728960266868500,9.772868408203125,0.17043127119541168,0.17592905461788177,-0.008552107028663158
1772728960276386600,9.782386474609375,0.1905898153781891,0.15149445831775665,-0.012217295356094837
1772728960285904600,9.791904541015626,0.20891575515270233,0.1282816082239151,-0.015271619893610477
1772728960295422500,9.80142236328125,0.22174391150474548,0.10140355676412582,-0.01588248461484909
1772728960304940500,9.8109404296875,0.22907429933547974,0.08063415437936783,-0.014049889519810677
1772728960314458400,9.820458251953125,0.23029601573944092,0.05803215503692627,-0.008552107028663158
1772728960323976400,9.8299765625,0.22357651591300964,0.0360410213470459,0.009162971749901772
1772728960333494500,9.83949462890625,0.21502439677715302,0.02260199747979641,0.03298669680953026
1772728960343012400,9.849012451171875,0.20219624042510986,0.03176496922969818,0.059864748269319534
1772728960352530400,9.858530517578124,0.18203771114349365,0.06841685622930527,0.08063415437936783
1772728960362048500,9.868048583984375,0.15638138353824615,0.11911863088607788,0.09162971377372742
1772728960371566300,9.87756640625,0.13439024984836578,0.18264856934547424,0.09651663154363632
1772728960381084400,9.88708447265625,0.12095122784376144,0.24801109731197357,0.1026252806186676
1772728960390602500,9.8966025390625,0.11545344442129135,0.2993237376213074,0.10873392969369888
1772728960400120300,9.906120361328124,0.11911863088607788,0.3347539007663727,0.10751219838857651
1772728960409638400,9.915638427734375,0.13011419773101807,0.35613417625427246,0.0922405794262886
1772728960419156500,9.925156494140625,0.14721840620040894,0.36285367608070374,0.0720820426940918
1772728960428674300,9.93467431640625,0.16615521907806396,0.3597993552684784,0.047036588191986084
1772728960438192400,9.9441923828125,0.185092031955719,0.33597561717033386,0.010384701192378998
1772728960447710200,9.953710205078124,0.20402882993221283,0.2974911332130432,-0.043982263654470444
1772728960457228300,9.963228271484375,0.22418737411499023,0.2663370370864868,-0.11423171311616898
1772728960466746400,9.972746337890625,0.24801109731197357,0.2364046722650528,-0.1844811588525772
1772728960476264200,9.98226416015625,0.2828303873538971,0.18753549456596375,-0.21685700118541718
1772728960485782300,9.9917822265625,0.3280344009399414,0.1496618688106537,-0.11911863088607788
1772728960495300400,10.00130029296875,0.3341430425643921,0.047036588191986084,0.13011419773101807
1772728960504818200,10.010818115234375,0.3231474757194519,-0.12644900381565094,0.2938259541988373
1772728960514336300,10.020336181640625,0.32681265473365784,-0.2309068888425827,0.35246896743774414
1772728960523854000,10.02985400390625,0.36163195967674255,-0.24801109731197357,0.38301220536231995
1772728960533372200,10.0393720703125,0.3909534513950348,-0.20708316564559937,0.39217519760131836
1772728960542890200,10.04889013671875,0.3848448097705841,-0.1288924664258957,0.38728827238082886
1772728960552408000,10.058407958984375,0.34636032581329346,-0.014049889519810677,0.37690356373786926
1772728960561926100,10.067926025390625,0.29077163338661194,0.1288924664258957,0.36224281787872314
1772728960571444200,10.0774443359375,0.23396120965480804,0.28038692474365234,0.3488037884235382
