time,seconds_elapsed,z,y,x
1772728950588178700,0.0941787109375,10.01156997680664,4.412364959716797,-0.916451096534729
1772728950597696500,0.103696533203125,10.047462463378906,4.4243292808532715,-1.0336993932724
1772728950607214600,0.113214599609375,10.090533256530762,4.388436794281006,-1.1150553226470947
1772728950616732700,0.122732666015625,10.088140487670898,4.309473514556885,-1.1988041400909424
1772728950626250500,0.13225048828125,10.107282638549805,4.268795490264893,-1.2849457263946533
1772728950635768600,0.1417685546875,10.124032974243164,4.168296813964844,-1.4021940231323242
1772728950645286400,0.151286376953125,10.28195858001709,4.048655986785889,-1.5170495510101318
1772728950654804500,0.160804443359375,10.48534870147705,3.8261234760284424,-1.612762451171875
1772728950664322600,0.170322509765625,10.698309898376465,3.538984775543213,-1.6821542978286743
1772728950673840600,0.179840576171875,10.84427261352539,3.290131092071533,-1.674975872039795
1772728950683358700,0.189358642578125,10.882556915283203,3.053241729736328,-1.612762451171875
1772728950692876500,0.19887646484375,10.849058151245117,2.895315408706665,-1.5337992906570435
1772728950702394600,0.20839453125,10.671989440917969,2.699103832244873,-1.4141582250595093
1772728950711912700,0.21791259765625,10.411170959472656,2.5531418323516846,-1.2897313833236694
1772728950721430800,0.2274306640625,10.080962181091309,2.495713949203491,-1.2203395366668701
1772728950730948600,0.236948486328125,9.56889820098877,2.548356056213379,-1.2059825658798218
1772728950740466700,0.246466796875,9.09272575378418,2.60339093208313,-1.2562319040298462
1772728950749984500,0.255984619140625,8.63330364227295,2.682354211807251,-1.3208380937576294
1772728950759502600,0.265502685546875,8.252845764160156,2.770888566970825,-1.4093725681304932
1772728950769020700,0.275020751953125,7.903493404388428,2.778067111968994,-1.430907964706421
1772728950778538500,0.28453857421875,7.587640762329102,2.778067111968994,-1.423729419708252
1772728950788056600,0.294056640625,7.3986077308654785,2.8283164501190186,-1.4452649354934692
1772728950797574700,0.30357470703125,7.336394309997559,2.9383862018585205,-1.5002998113632202
1772728950807092700,0.3130927734375,7.436892986297607,3.06999135017395,-1.550549030303955
1772728950816610600,0.322610595703125,7.685746192932129,3.146561861038208,-1.6390835046768188
1772728950826128600,0.332128662109375,8.068597793579102,3.1752755641937256,-1.7228323221206665
1772728950835646700,0.341646728515625,8.425128936767578,3.2207393646240234,-1.7922241687774658
1772728950845164500,0.35116455078125,8.786444664001465,3.25663161277771,-1.8472590446472168
1772728950854682600,0.3606826171875,9.023334503173828,3.304488182067871,-1.8352949619293213
1772728950864200700,0.37020068359375,9.174081802368164,3.2997024059295654,-1.7611174583435059
1772728950873718500,0.379718505859375,9.351150512695312,3.2853455543518066,-1.6893328428268433
1772728950883236600,0.389236572265625,9.616754531860352,3.304488182067871,-1.6031911373138428
1772728950892754700,0.398754638671875,9.693324089050293,3.2997024059295654,-1.4715858697891235
1772728950902272800,0.408272705078125,9.585647583007812,3.314059257507324,-1.3543375730514526
1772728950911790600,0.41779052734375,9.346364974975586,3.3475589752197266,-1.2873386144638062
1772728950921308700,0.42730859375,9.011369705200195,3.3954153060913086,-1.2011969089508057
1772728950930826500,0.436826416015625,8.702695846557617,3.4408788681030273,-0.9858429431915283
1772728950940344600,0.446344482421875,8.367700576782227,3.562912940979004,-0.8087740540504456
1772728950949862700,0.455862548828125,8.073383331298828,3.658625841140747,-0.7417750358581543
1772728950959380700,0.465380615234375,7.975277900695801,3.730410575866699,-0.7776673436164856
1772728950968898600,0.474898681640625,8.049455642700195,3.7902309894561768,-0.8949156403541565
1772728950978416600,0.484416748046875,8.14516830444336,3.783052682876587,-0.9236295223236084
1772728950987934700,0.493934814453125,8.207381248474121,3.751945972442627,-0.8949156403541565
1772728950997452500,0.50345263671875,8.221738815307617,3.7160534858703613,-0.8231309652328491
1772728951006970600,0.512970703125,8.240880966186523,3.7471601963043213,-0.8183453679084778
1772728951016488700,0.52248876953125,8.260024070739746,3.759124279022217,-0.7848458290100098
1772728951026006500,0.532006591796875,8.236095428466797,3.8261234760284424,-0.7848458290100098
1772728951035524600,0.541524658203125,8.171489715576172,3.840480327606201,-0.7752745151519775
1772728951045042700,0.551042724609375,8.166703224182129,3.926621913909912,-0.8638089895248413
1772728951054560800,0.560560791015625,8.24566650390625,4.00319242477417,-0.9571290612220764
1772728951064078600,0.57007861328125,8.338987350463867,4.046263217926025,-0.9954141974449158
1772728951073596700,0.5795966796875,8.46341323852539,4.125226020812988,-0.9858429431915283
1772728951083114500,0.589114501953125,8.542376518249512,4.153940200805664,-1.0193424224853516
1772728951092632600,0.598632568359375,8.583054542541504,4.139583110809326,-1.057627558708191
1772728951102150700,0.608150634765625,8.709874153137207,4.1491546630859375,-1.100698471069336
1772728951111668500,0.61766845703125,8.700303077697754,4.182653903961182,-1.124626636505127
1772728951121186600,0.6271865234375,8.654839515686035,4.177868366241455,-1.0911271572113037
1772728951130704600,0.63670458984375,8.659625053405762,4.185046672821045,-1.0719845294952393
1772728951140222700,0.64622265625,8.623732566833496,4.273581027984619,-1.1509476900100708
1772728951149740500,0.655740478515625,8.315058708190918,4.412364959716797,-1.2562319040298462
1772728951159258600,0.665258544921875,8.408378601074219,4.553541660308838,-1.4404792785644531
1772728951168776700,0.674776611328125,8.458627700805664,4.618147850036621,-1.6031911373138428
1772728951178294500,0.68429443359375,8.367700576782227,4.627718925476074,-1.5936198234558105
1772728951187812600,0.6938125,8.331808090209961,4.661218643188477,-1.4859428405761719
1772728951197330400,0.703330322265625,8.439485549926758,4.7234320640563965,-1.4500504732131958
1772728951206848500,0.7128486328125,8.776873588562012,4.838287353515625,-1.4763715267181396
1772728951216366600,0.72236669921875,9.087940216064453,5.000999450683594,-1.4835500717163086
1772728951225884700,0.731884765625,9.408578872680664,5.087141036987305,-1.4883357286453247
1772728951235402800,0.74140283203125,9.741181373596191,5.00578498840332,-1.5290136337280273
1772728951244920600,0.750920654296875,10.102497100830078,4.8191447257995605,-1.6558332443237305
1772728951254438700,0.760438720703125,10.461421012878418,4.716253280639648,-1.7515461444854736
1772728951263956500,0.76995654296875,10.676774978637695,4.709074974060059,-1.7539390325546265
1772728951273474600,0.779474609375,10.815558433532715,4.7473602294921875,-1.8137595653533936
1772728951282992600,0.78899267578125,10.827522277832031,4.809573650360107,-1.9166508913040161
1772728951292510500,0.798510498046875,10.693524360656738,4.876572608947754,-1.9860427379608154
1772728951302028500,0.808028564453125,10.528419494628906,4.914857864379883,-1.9310078620910645
1772728951311546600,0.817546630859375,10.351350784301758,4.931607246398926,-1.710868239402771
1772728951321064700,0.827064697265625,10.15035343170166,4.910071849822998,-1.4141582250595093
1772728951330582500,0.83658251953125,9.970891952514648,4.855037212371826,-1.2131611108779907
1772728951340100600,0.8461005859375,9.958928108215332,4.855037212371826,-1.153340458869934
1772728951349618700,0.85561865234375,10.00439167022705,4.862215518951416,-1.100698471069336
1772728951359136500,0.865136474609375,10.133604049682617,4.797609329223633,-1.0552347898483276
1772728951368654600,0.874654541015625,10.320243835449219,4.59421968460083,-1.00259268283844
1772728951378172400,0.88417236328125,10.571490287780762,4.35254430770874,-0.9954141974449158
1772728951387690500,0.8936904296875,10.908878326416016,4.094119548797607,-1.0097711086273193
1772728951397208600,0.90320849609375,11.23190975189209,3.799802303314209,-1.1150553226470947
1772728951406726700,0.9127265625,11.593225479125977,3.4672000408172607,-1.2035897970199585
1772728951416244700,0.92224462890625,11.866007804870605,3.0723843574523926,-1.2323036193847656
1772728951425762600,0.931762451171875,11.892328262329102,2.706282377243042,-1.153340458869934
1772728951435280600,0.94128076171875,11.598011016845703,2.4335005283355713,-0.9332008361816406
1772728951444798500,0.950798583984375,11.071590423583984,2.297109842300415,-0.7226324677467346
1772728951454316500,0.960316650390625,10.432706832885742,2.311466693878174,-0.5479564070701599
1772728951463834600,0.969834716796875,9.643074989318848,2.313859462738037,-0.38285163044929504
1772728951473352400,0.9793525390625,8.992227554321289,2.3856441974639893,-0.2512463629245758
1772728951482870500,0.98887060546875,8.504091262817383,2.3784656524658203,-0.13878370821475983
1772728951492388600,0.998388671875,8.039883613586426,2.3784656524658203,-0.016749758273363113
1772728951501906700,1.00790673828125,7.668996810913086,2.3952155113220215,0.13160525262355804
1772728951511424500,1.017424560546875,7.3675007820129395,2.5363919734954834,0.18903298676013947
1772728951520942600,1.026942626953125,7.197610378265381,2.7182464599609375,0.12681959569454193
1772728951530460700,1.036460693359375,7.113861560821533,2.8689942359924316,-0.02871387079358101
1772728951539978500,1.045978515625,7.164111137390137,2.9838497638702393,-0.17228323221206665
1772728951549496600,1.05549658203125,7.470392227172852,2.9623143672943115,-0.2847459018230438
1772728951559014700,1.0650146484375,7.908278942108154,2.9072794914245605,-0.34217363595962524
1772728951568532500,1.074532470703125,8.425128936767578,2.8594231605529785,-0.4426721930503845
1772728951578050600,1.084050537109375,8.97787094116211,2.830709218978882,-0.607776939868927
1772728951587568600,1.093568603515625,9.468399047851562,2.847458839416504,-0.7680960893630981
1772728951597086700,1.103086669921875,9.820143699645996,2.857030153274536,-0.9188438653945923
1772728951606604500,1.1126044921875,10.030712127685547,2.9144580364227295,-0.9978070259094238
1772728951616122600,1.12212255859375,10.13599681854248,3.0652058124542236,-0.9978070259094238
1772728951625640400,1.131640380859375,9.970891952514648,3.1513473987579346,-0.9020941257476807
1772728951635158500,1.141158447265625,9.542576789855957,3.280559778213501,-0.9068797826766968
1772728951644676600,1.150676513671875,8.997013092041016,3.431307554244995,-0.9355936646461487
1772728951654194400,1.1601943359375,8.46580696105957,3.589233875274658,-0.9451649188995361
1772728951663712500,1.16971240234375,7.968099594116211,3.7232320308685303,-0.8709874153137207
1772728951673230600,1.179230712890625,7.566105365753174,3.814159393310547,-0.794417142868042
1772728951682748700,1.188748779296875,7.231110095977783,3.845266103744507,-0.7178468108177185
1772728951692266500,1.1982666015625,7.018148899078369,3.8668015003204346,-0.6843472719192505
1772728951701784600,1.20778466796875,6.967899322509766,3.950550079345703,-0.6795616149902344
1772728951711302700,1.217302734375,7.0683979988098145,4.029513359069824,-0.6915257573127747
1772728951720820500,1.226820556640625,7.223931789398193,4.101297855377197,-0.7465606927871704
1772728951730338600,1.236338623046875,7.427321434020996,4.144368648529053,-0.7489534616470337
1772728951739856600,1.245856689453125,7.668996810913086,4.18983268737793,-0.7106683254241943
1772728951749374500,1.25537451171875,7.984848976135254,4.182653903961182,-0.6221339106559753
1772728951758892500,1.264892578125,8.394021987915039,4.194618225097656,-0.5718846321105957
1772728951768410600,1.27441064453125,8.83669376373291,4.185046672821045,-0.6101697683334351
1772728951777928700,1.2839287109375,9.286544799804688,4.151547431945801,-0.6364908218383789
1772728951787446500,1.293446533203125,9.674181938171387,4.12761926651001,-0.6245267391204834
1772728951796964600,1.302964599609375,9.903892517089844,4.139583110809326,-0.607776939868927
1772728951806482400,1.312482421875,10.009177207946777,4.139583110809326,-0.6317051649093628
1772728951816000500,1.32200048828125,10.013962745666504,4.139583110809326,-0.6795616149902344
1772728951825518600,1.3315185546875,9.860821723937988,4.201796531677246,-0.7680960893630981
1772728951835036400,1.341036376953125,9.585647583007812,4.287938117980957,-0.8398807644844055
1772728951844554500,1.350554443359375,9.226723670959473,4.340580463409424,-0.8997012972831726
1772728951854072600,1.360072509765625,8.896514892578125,4.438685894012451,-0.9355936646461487
1772728951863590700,1.369590576171875,8.724231719970703,4.4961137771606445,-0.973878800868988
1772728951873108500,1.3791083984375,8.621339797973633,4.60139799118042,-0.9834501147270203
1772728951882626600,1.38862646484375,8.578269004821777,4.6372904777526855,-1.0360921621322632
1772728951892144600,1.39814453125,8.583054542541504,4.721039295196533,-1.031306505203247
1772728951901662500,1.407662353515625,8.645268440246582,4.761716842651367,-0.9643075466156006
1772728951911180500,1.4171806640625,8.767302513122559,4.7952165603637695,-0.9499505758285522
1772728951920698600,1.42669873046875,8.889336585998535,4.847858905792236,-0.9403793215751648
1772728951930216400,1.436216552734375,9.040083885192871,4.855037212371826,-0.9188438653945923
1772728951939734500,1.445734619140625,9.19561767578125,4.809573650360107,-0.8733802437782288
1772728951949252600,1.455252685546875,9.389435768127441,4.754538536071777,-0.763310432434082
1772728951958770400,1.4647705078125,9.516255378723145,4.666004180908203,-0.6340979933738708
1772728951968288500,1.47428857421875,9.588040351867676,4.560719966888428,-0.5359922647476196
1772728951977806600,1.483806640625,9.674181938171387,4.551148891448975,-0.48574298620224
1772728951987324400,1.493324462890625,9.731609344482422,4.613361835479736,-0.5431707501411438
1772728951996842500,1.502842529296875,9.80100154876709,4.701896667480469,-0.6364908218383789
1772728952006360600,1.512360595703125,9.853643417358398,4.833501815795898,-0.7992027401924133
1772728952015878400,1.52187841796875,9.884750366210938,4.917250633239746,-1.0193424224853516
1772728952025396500,1.531396484375,9.90149974822998,4.9124650955200195,-1.275374412536621
1772728952034914600,1.54091455078125,10.01156997680664,4.852644443511963,-1.4763715267181396
1772728952044432600,1.5504326171875,10.15035343170166,4.821537494659424,-1.6271194219589233
1772728952053950500,1.559950439453125,10.219745635986328,4.778466701507568,-1.7180466651916504
1772728952063468500,1.569468505859375,10.308279991149902,4.682754039764404,-1.852044701576233
1772728952072986600,1.578986572265625,10.459028244018555,4.40757942199707,-2.012363910675049
1772728952082504400,1.58850439453125,10.729416847229004,4.067798614501953,-2.0865414142608643
1772728952092022500,1.5980224609375,11.119446754455566,3.730410575866699,-2.163111686706543
1772728952101540400,1.607540283203125,11.509476661682129,3.335594654083252,-2.2372891902923584
1772728952111058400,1.617058349609375,11.662617683410645,2.926422119140625,-2.2205393314361572
1772728952120576500,1.626576416015625,11.368300437927246,2.572284460067749,-2.045863389968872
1772728952130094600,1.636094482421875,10.703095436096191,2.3712873458862305,-1.734796404838562
1772728952139612400,1.6456123046875,9.820143699645996,2.4263222217559814,-1.5792629718780518
1772728952149130500,1.655130615234375,8.987442016601562,2.579462766647339,-1.576870083808899
1772728952158648600,1.664648681640625,8.233702659606934,2.775674343109131,-1.5936198234558105
1772728952168166400,1.67416650390625,7.716853141784668,2.8737800121307373,-1.5170495510101318
1772728952177684500,1.6836845703125,7.458428382873535,2.9527430534362793,-1.4021940231323242
1772728952187202600,1.69320263671875,7.362715244293213,3.0005996227264404,-1.3423734903335571
1772728952196720400,1.702720458984375,7.348358154296875,3.129812002182007,-1.3351950645446777
1772728952206238500,1.712238525390625,7.458428382873535,3.28773832321167,-1.430907964706421
1772728952215756500,1.721756591796875,7.606783390045166,3.3882367610931396,-1.5936198234558105
1772728952225274600,1.731274658203125,7.8795647621154785,3.452843189239502,-1.7060825824737549
1772728952234792400,1.74079248046875,8.14516830444336,3.421736478805542,-1.7635103464126587
1772728952244310500,1.750310546875,8.389236450195312,3.342773199081421,-1.825723648071289
1772728952253828400,1.759828369140625,8.635697364807129,3.328416347503662,-1.7802600860595703
1772728952263346400,1.769346435546875,8.889336585998535,3.3619158267974854,-1.698904037475586
1772728952272864500,1.778864501953125,9.044869422912598,3.373879909515381,-1.6199408769607544
1772728952282382300,1.78838232421875,9.011369705200195,3.4241292476654053,-1.4524433612823486
1772728952291900400,1.797900390625,8.810373306274414,3.438486099243164,-1.277767300605774
1772728952301418500,1.80741845703125,8.539983749389648,3.541377544403076,-1.1078768968582153
1772728952310936600,1.8169365234375,8.260024070739746,3.610769271850586,-0.916451096534729
1772728952320454400,1.826454345703125,7.987242221832275,3.6777684688568115,-0.7345965504646301
1772728952329972500,1.835972412109375,7.812565803527832,3.751945972442627,-0.5862415432929993
1772728952339490600,1.845490478515625,7.7216386795043945,3.8261234760284424,-0.5120640397071838
1772728952349008400,1.85500830078125,7.6737823486328125,3.838087558746338,-0.5431707501411438
1772728952358526500,1.8645263671875,7.635497093200684,3.8261234760284424,-0.5551348328590393
1772728952368044300,1.874044189453125,7.700103282928467,3.8021950721740723,-0.550349235534668
1772728952377562400,1.883562255859375,7.791030406951904,3.783052682876587,-0.5479564070701599
1772728952387080400,1.89308056640625,7.915457248687744,3.7710886001586914,-0.5838487148284912
1772728952396598500,1.9025986328125,8.154739379882812,3.792623996734619,-0.6675975322723389
1772728952406116600,1.91211669921875,8.334200859069824,3.81655216217041,-0.8063812255859375
1772728952415634400,1.921634521484375,8.477770805358887,3.8356947898864746,-1.0217353105545044
1772728952425152500,1.931152587890625,8.549555778503418,3.845266103744507,-1.1724830865859985
1772728952434670300,1.94067041015625,8.583054542541504,3.8739798069000244,-1.2801600694656372
1772728952444188400,1.9501884765625,8.532805442810059,3.964907169342041,-1.3088740110397339
1772728952453706500,1.95970654296875,8.417949676513672,4.024727821350098,-1.3591232299804688
1772728952463224300,1.969224365234375,8.315058708190918,4.1491546630859375,-1.4428720474243164
1772728952472742400,1.978742431640625,8.240880966186523,4.230510234832764,-1.5122638940811157
1772728952482260500,1.988260498046875,8.154739379882812,4.249652862548828,-1.612762451171875
1772728952491778300,1.9977783203125,8.128418922424316,4.3070807456970215,-1.667797327041626
1772728952501296400,2.00729638671875,8.169096946716309,4.393222332000732,-1.6606189012527466
1772728952510814500,2.016814453125,8.240880966186523,4.453042984008789,-1.6295121908187866
1772728952520332500,2.02633251953125,8.37966537475586,4.522434711456299,-1.5840486288070679
1772728952529850400,2.035850341796875,8.518448829650879,4.618147850036621,-1.5314065217971802
1772728952539368400,2.045368408203125,8.6907320022583,4.704289436340332,-1.4883357286453247
1772728952548886300,2.05488623046875,8.903693199157715,4.744967460632324,-1.4763715267181396
1772728952558404400,2.064404296875,9.135796546936035,4.843072891235352,-1.4093725681304932
1772728952567922400,2.07392236328125,9.346364974975586,4.9052863121032715,-1.368694543838501
1772728952577440500,2.0834404296875,9.475577354431152,5.008177757263184,-1.28255295753479
1772728952586958300,2.092958251953125,9.578469276428223,5.065605640411377,-1.1820544004440308
1772728952596476400,2.102476318359375,9.681360244750977,5.017749309539795,-1.1174482107162476
1772728952605994500,2.111994384765625,9.80817985534668,5.0225348472595215,-1.1030912399291992
1772728952615512300,2.12151220703125,10.013962745666504,5.01296329498291,-1.1270195245742798
1772728952625030400,2.131030517578125,10.26042366027832,5.00578498840332,-1.1629117727279663
1772728952634548500,2.140548583984375,10.425528526306152,4.967499732971191,-1.2921242713928223
1772728952644066300,2.15006640625,10.552348136901855,4.9531426429748535,-1.3471591472625732
1772728952653584400,2.15958447265625,10.573883056640625,4.914857864379883,-1.430907964706421
1772728952663102200,2.169102294921875,10.449456214904785,4.907679080963135,-1.495514154434204
1772728952672620300,2.178620361328125,10.250852584838867,4.960321426391602,-1.4261223077774048
1772728952682138400,2.188138427734375,10.080962181091309,5.015356063842773,-1.2658032178878784
1772728952691656400,2.197656494140625,9.93260669708252,5.077569484710693,-1.1461620330810547
1772728952701174500,2.207174560546875,9.868000984191895,5.099104881286621,-1.057627558708191
1772728952710692400,2.2166923828125,9.915857315063477,5.06082010269165,-0.9451649188995361
1772728952720210400,2.22621044921875,10.104889869689941,4.962714195251465,-0.8877372145652771
1772728952729728300,2.235728271484375,10.363314628601074,4.752145767211914,-0.9188438653945923
1772728952739246300,2.245246337890625,10.770094871520996,4.4721856117248535,-1.0552347898483276
1772728952748764400,2.254764404296875,11.282158851623535,4.096512317657471,-1.1222338676452637
1772728952758282200,2.2642822265625,11.849257469177246,3.610769271850586,-1.1102696657180786
1772728952767800300,2.27380029296875,12.382857322692871,3.091526746749878,-1.098305583000183
1772728952777318400,2.283318359375,12.825529098510742,2.5986053943634033,-1.1270195245742798
1772728952786836500,2.29283642578125,13.043275833129883,2.251646041870117,-1.1389836072921753
1772728952796354300,2.302354248046875,12.780065536499023,2.03629207611084,-0.9379864931106567
1772728952805872400,2.311872314453125,12.038290977478027,1.9357935190200806,-0.5288137793540955
1772728952815390500,2.321390380859375,11.040483474731445,2.007578134536743,-0.23688943684101105
1772728952824908300,2.330908203125,10.021141052246094,2.1272194385528564,-0.23210379481315613
1772728952834426400,2.34042626953125,9.360722541809082,2.4287149906158447,-0.3278166949748993
1772728952843944200,2.349944091796875,8.559126853942871,2.438286304473877,-0.28953152894973755
1772728952853462300,2.359462158203125,8.030312538146973,2.4981069564819336,-0.14835500717163086
1772728952862980400,2.36898046875,7.597211837768555,2.6153552532196045,-0.07896314561367035
1772728952872498400,2.37849853515625,7.226324558258057,2.7589244842529297,-0.18903298676013947
1772728952882016300,2.388016357421875,6.960721015930176,2.9168508052825928,-0.37806597352027893
1772728952891534300,2.397534423828125,6.8482584953308105,3.074777126312256,-0.5575276613235474
1772728952901052200,2.40705224609375,6.948757171630859,3.1920254230499268,-0.6317051649093628
1772728952910570200,2.4165703125,7.252645492553711,3.177668571472168,-0.6101697683334351
1772728952920088300,2.42608837890625,7.788637638092041,3.1106693744659424,-0.6173482537269592
1772728952929606400,2.4356064453125,8.405985832214355,2.9718856811523438,-0.6556333899497986
1772728952939124200,2.445124267578125,9.042476654052734,2.8689942359924316,-0.7322037220001221
1772728952948642300,2.454642333984375,9.66221809387207,2.794816732406616,-0.7992027401924133
1772728952958160400,2.464160400390625,9.968499183654785,2.8139593601226807,-0.851844847202301
1772728952967678200,2.47367822265625,9.923035621643066,2.885744094848633,-0.8709874153137207
1772728952977196300,2.4831962890625,9.58325481414795,3.019742250442505,-0.8757730722427368
1772728952986714400,2.49271435546875,9.047262191772461,3.170490026473999,-0.8303094506263733
1772728952996232400,2.502232421875,8.484949111938477,3.3308091163635254,-0.7680960893630981
1772728953005750300,2.511750244140625,7.929814338684082,3.524627685546875,-0.6675975322723389
1772728953015268400,2.521268310546875,7.444071292877197,3.6849467754364014,-0.5790630578994751
1772728953024786200,2.5307861328125,7.039684295654297,3.809373617172241,-0.5886343717575073
1772728953034304300,2.54030419921875,6.747759819030762,3.9218363761901855,-0.5599204897880554
1772728953043822300,2.549822265625,6.601797580718994,4.00319242477417,-0.5359922647476196
1772728953053340200,2.559340087890625,6.597012042999268,4.098905086517334,-0.46420758962631226
1772728953062858200,2.568858154296875,6.7070817947387695,4.1970109939575195,-0.4307080805301666
1772728953072376300,2.578376220703125,6.915257453918457,4.256831645965576,-0.4498506486415863
1772728953081894400,2.587894287109375,7.2813591957092285,4.29033088684082,-0.4378865361213684
1772728953091412200,2.597412109375,7.7216386795043945,4.2831525802612305,-0.40677985548973083
1772728953100930300,2.606930419921875,8.116454124450684,4.299902439117432,-0.39481574296951294
1772728953110448400,2.616448486328125,8.446663856506348,4.304687976837158,-0.37088751792907715
1772728953119966200,2.62596630859375,8.738588333129883,4.311866283416748,-0.3326023519039154
1772728953129484300,2.635484375,9.040083885192871,4.302295207977295,-0.3038884699344635
1772728953139002000,2.645002197265625,9.31047248840332,4.316651821136475,-0.29431718587875366
1772728953148520200,2.654520263671875,9.528220176696777,4.295116424560547,-0.23688943684101105
1772728953158038300,2.664038330078125,9.719645500183105,4.302295207977295,-0.19142581522464752
1772728953167556400,2.673556396484375,9.755537986755371,4.340580463409424,-0.14117653667926788
1772728953177074200,2.68307421875,9.635896682739258,4.340580463409424,-0.05742774158716202
1772728953186592300,2.69259228515625,9.42054271697998,4.398007869720459,0.040677983313798904
1772728953196110300,2.7021103515625,9.243474006652832,4.479363918304443,0.1339980661869049
1772728953205628200,2.711628173828125,9.09272575378418,4.551148891448975,0.19381862878799438
1772728953215146200,2.721146240234375,8.989834785461426,4.634897232055664,0.19142581522464752
1772728953224664300,2.730664306640625,8.886942863464355,4.713860511779785,0.12442677468061447
1772728953234182100,2.74018212890625,8.824729919433594,4.797609329223633,0.04785645380616188
1772728953243700200,2.7497001953125,8.81515884399414,4.893322467803955,-0.03349951654672623
1772728953253218300,2.75921826171875,8.855836868286133,4.941178798675537,-0.12442677468061447
1772728953262736100,2.768736083984375,8.963513374328613,4.974678039550781,-0.1986042857170105
1772728953272254200,2.778254150390625,9.07119083404541,4.991427898406982,-0.24406790733337402
1772728953281772300,2.787772216796875,9.176474571228027,4.981856822967529,-0.2512463629245758
1772728953291290400,2.797290283203125,9.346364974975586,4.977071285247803,-0.2273181527853012
1772728953300808200,2.80680810546875,9.554540634155273,4.938786029815674,-0.17706887423992157
1772728953310326300,2.816326171875,9.678967475891113,4.898108005523682,-0.1459621787071228
1772728953319844000,2.825843994140625,9.755537986755371,4.821537494659424,-0.13160525262355804
1772728953329362200,2.835362060546875,9.856036186218262,4.783252239227295,-0.0933200865983963
1772728953338880300,2.84488037109375,9.89432144165039,4.716253280639648,-0.02871387079358101
1772728953348398000,2.854398193359375,9.841679573059082,4.680361270904541,0
1772728953357916200,2.863916259765625,9.760323524475098,4.706682205200195,-0.0023928226437419653
1772728953367434000,2.87343408203125,9.623932838439941,4.780859470367432,-0.11964113265275955
1772728953376952300,2.882952392578125,9.571290969848633,4.835894584655762,-0.24167509377002716
1772728953386470100,2.89247021484375,9.626325607299805,4.869394302368164,-0.38285163044929504
1772728953395988200,2.90198828125,9.688538551330566,4.867001056671143,-0.576670229434967
1772728953405506300,2.91150634765625,9.781859397888184,4.914857864379883,-0.794417142868042
1772728953415024000,2.921024169921875,9.836894035339355,4.919643402099609,-0.9595218896865845
1772728953424542200,2.930542236328125,9.848857879638672,4.919643402099609,-1.1150553226470947
1772728953434060000,2.94006005859375,9.882357597351074,4.840680122375488,-1.2490534782409668
1772728953443578000,2.949578125,9.958928108215332,4.766502857208252,-1.332802176475525
1772728953453096200,2.95909619140625,10.104889869689941,4.632504463195801,-1.423729419708252
1772728953462614300,2.9686142578125,10.341779708862305,4.481756687164307,-1.526620864868164
1772728953472132000,2.978132080078125,10.619346618652344,4.342973232269287,-1.5170495510101318
1772728953481650200,2.987650146484375,10.908878326416016,4.086941242218018,-1.5433706045150757
1772728953491168300,2.997168212890625,11.078768730163574,3.7663028240203857,-1.6151553392410278
1772728953500686000,3.00668603515625,11.133803367614746,3.452843189239502,-1.698904037475586
1772728953510204200,3.0162041015625,11.01416301727295,3.1752755641937256,-1.7084753513336182
1772728953519722200,3.02572216796875,10.64806079864502,3.046063184738159,-1.6582261323928833
1772728953529240000,3.035239990234375,10.073782920837402,3.077169895172119,-1.612762451171875
1772728953538758100,3.044758056640625,9.442078590393066,3.098705291748047,-1.6462619304656982
1772728953548276000,3.05427587890625,8.85344409942627,3.139383316040039,-1.6295121908187866
1772728953557794000,3.0637939453125,8.3629150390625,3.1657042503356934,-1.674975872039795
1772728953567312100,3.07331201171875,8.047062873840332,3.1896326541900635,-1.7276179790496826
1772728953576830200,3.082830322265625,7.843672752380371,3.2303106784820557,-1.7180466651916504
1772728953586348300,3.092348388671875,7.712067604064941,3.321237802505493,-1.7539390325546265
1772728953595866000,3.1018662109375,7.685746192932129,3.4265220165252686,-1.7180466651916504
1772728953605384200,3.11138427734375,7.762316703796387,3.4791641235351562,-1.698904037475586
1772728953614902000,3.120902099609375,7.927421569824219,3.4719855785369873,-1.6654045581817627
1772728953624420000,3.130420166015625,8.159524917602539,3.452843189239502,-1.5433706045150757
1772728953633938200,3.139938232421875,8.391629219055176,3.4337005615234375,-1.3878371715545654
1772728953643456000,3.1494560546875,8.571090698242188,3.4121651649475098,-1.2490534782409668
1772728953652974000,3.15897412109375,8.671588897705078,3.3930225372314453,-1.062413215637207
1772728953662492200,3.1684921875,8.707481384277344,3.4025938510894775,-0.8470591902732849
1772728953672010000,3.178010009765625,8.669196128845215,3.407379388809204,-0.6125625967979431
1772728953681528000,3.187528076171875,8.532805442810059,3.421736478805542,-0.39481574296951294
1772728953691046100,3.197046142578125,8.365307807922363,3.431307554244995,-0.17706887423992157
1772728953700564200,3.206564208984375,8.169096946716309,3.4887354373931885,-0.04307080805301666
1772728953710082000,3.21608203125,7.9657063484191895,3.5916268825531006,0.019142581149935722
1772728953719600000,3.22560009765625,7.769495010375977,3.696911096572876,0.09810572862625122
1772728953729118000,3.235117919921875,7.590033531188965,3.7399818897247314,0.1459621787071228
1772728953738636000,3.244635986328125,7.499105930328369,3.82373046875,0.15314064919948578
1772728953748154000,3.254154052734375,7.429714202880859,3.8261234760284424,0.09092725813388824
1772728953757672000,3.263671875,7.3675007820129395,3.8668015003204346,0.038285162299871445
1772728953767190000,3.27318994140625,7.3675007820129395,3.8979079723358154,-0.062213387340307236
1772728953776708000,3.2827080078125,7.424928665161133,3.9433717727661133,-0.1818545162677765
1772728953786226200,3.29222607421875,7.511070251464844,3.9744784832000732,-0.28235307335853577
1772728953795744000,3.301743896484375,7.611568927764893,4.034298896789551,-0.3852444589138031
1772728953805262000,3.311261962890625,7.735995769500732,4.115654945373535,-0.5024927258491516
1772728953814780200,3.3207802734375,7.814958572387695,4.161118507385254,-0.6149554252624512
1772728953824298000,3.330298095703125,7.886743545532227,4.213760852813721,-0.6508477330207825
1772728953833816000,3.339816162109375,7.963313579559326,4.235296249389648,-0.6771687865257263
1772728953843334000,3.349333984375,8.09252643585205,4.29033088684082,-0.7250252366065979
1772728953852852000,3.35885205078125,8.22413158416748,4.316651821136475,-0.7896314859390259
1772728953862370000,3.3683701171875,8.331808090209961,4.338187217712402,-0.9092726111412048
1772728953871888100,3.37788818359375,8.437092781066895,4.357329845428467,-1.031306505203247
1772728953881406000,3.387406005859375,8.518448829650879,4.400400638580322,-1.1030912399291992
1772728953890924000,3.396924072265625,8.590232849121094,4.47697114944458,-1.1270195245742798
1772728953900442000,3.406442138671875,8.599804878234863,4.551148891448975,-1.0863415002822876
1772728953909960000,3.4159599609375,8.595019340515137,4.613361835479736,-1.0791629552841187
1772728953919478000,3.42547802734375,8.61176872253418,4.709074974060059,-1.0791629552841187
1772728953928996000,3.43499609375,8.592626571655273,4.792823791503906,-1.0528420209884644
1772728953938514000,3.444513916015625,8.556734085083008,4.9052863121032715,-0.9834501147270203
1772728953948032000,3.454031982421875,8.539983749389648,5.039284706115723,-0.9284151792526245
1772728953957549800,3.4635498046875,8.530412673950195,5.158925533294678,-0.8087740540504456
1772728953967068000,3.47306787109375,8.638090133666992,5.197210788726807,-0.7393822073936462
1772728953976586000,3.4825859375,8.834300994873047,5.237888813018799,-0.698704183101654
1772728953986104000,3.49210400390625,9.154939651489258,5.247459888458252,-0.729810893535614
1772728953995622000,3.501621826171875,9.509077072143555,5.233103275299072,-0.7992027401924133
1772728954005140000,3.511139892578125,9.889535903930664,5.19242525100708,-0.9212366938591003
1772728954014658000,3.520657958984375,10.301101684570312,5.091926574707031,-1.074377417564392
1772728954024175900,3.53017578125,10.669595718383789,5.044070243835449,-1.2562319040298462
1772728954033694000,3.53969384765625,10.944770812988281,5.034498691558838,-1.4763715267181396
1772728954043212000,3.5492119140625,11.251051902770996,4.986642360687256,-1.5720844268798828
1772728954052729900,3.558729736328125,11.47119140625,4.967499732971191,-1.5672988891601562
1772728954062248000,3.568248046875,11.478370666503906,4.969892501831055,-1.5002998113632202
1772728954071766000,3.57776611328125,11.25344467163086,4.962714195251465,-1.3926228284835815
1772728954081283800,3.587283935546875,10.875378608703613,4.9986066818237305,-1.2634103298187256
1772728954090802000,3.596802001953125,10.470992088317871,5.039284706115723,-1.1078768968582153
1772728954100320000,3.606320068359375,10.097711563110352,5.063212871551514,-0.97148597240448
1772728954109838000,3.615838134765625,9.760323524475098,5.06082010269165,-0.8255237936973572
1772728954119356000,3.62535595703125,9.509077072143555,5.0703911781311035,-0.7154539823532104
1772728954128874000,3.6348740234375,9.401400566101074,5.07517671585083,-0.6364908218383789
1772728954138391800,3.644391845703125,9.521040916442871,5.010570526123047,-0.6652047038078308
1772728954147910000,3.653909912109375,9.789037704467773,4.855037212371826,-0.7345965504646301
1772728954157428000,3.663427978515625,10.097711563110352,4.515256404876709,-0.7704889178276062
1772728954166945800,3.67294580078125,10.459028244018555,4.201796531677246,-0.8877372145652771
1772728954176464000,3.6824638671875,10.796415328979492,3.9433717727661133,-1.0671988725662231
1772728954185982000,3.69198193359375,10.992627143859863,3.7160534858703613,-1.1820544004440308
1772728954195499800,3.701499755859375,11.054841041564941,3.483949661254883,-1.2442678213119507
1772728954205017900,3.711017822265625,10.961520195007324,3.2518460750579834,-1.2299108505249023
1772728954214536000,3.720535888671875,10.681560516357422,3.067598581314087,-0.9834501147270203
1772728954224054000,3.730053955078125,10.205389022827148,2.9718856811523438,-0.6125625967979431
1772728954233571800,3.73957177734375,9.671789169311523,2.9359934329986572,-0.2632105052471161
1772728954243090000,3.74908984375,9.131011009216309,2.8977081775665283,-0.016749758273363113
1772728954252607700,3.758607666015625,8.609375953674316,2.861815929412842,0.13160525262355804
1772728954262125800,3.768125732421875,8.164310455322266,2.8689942359924316,0.22013968229293823
1772728954271644000,3.777643798828125,7.802994728088379,2.885744094848633,0.3158525824546814
1772728954281161700,3.78716162109375,7.503891944885254,2.9168508052825928,0.380458801984787
1772728954290679800,3.7966796875,7.293323516845703,2.998206853866577,0.4139583110809326
1772728954300198000,3.806197998046875,7.190432071685791,3.074777126312256,0.3613162338733673
1772728954309716000,3.815716064453125,7.204789161682129,3.187239646911621,0.2799602448940277
1772728954319233800,3.82523388671875,7.439285755157471,3.2135608196258545,0.14835500717163086
1772728954328751900,3.834751953125,7.8388872146606445,3.2279176712036133,0.064606212079525
1772728954338270000,3.84427001953125,8.319844245910645,3.2590243816375732,-0.02632104977965355
1772728954347787800,3.853787841796875,8.74337387084961,3.2374889850616455,-0.15074782073497772
1772728954357305900,3.863305908203125,9.198010444641113,3.1968109607696533,-0.28235307335853577
1772728954366823700,3.87282373046875,9.607182502746582,3.1441688537597656,-0.46899324655532837
1772728954376341800,3.882341796875,9.884750366210938,3.1417760848999023,-0.6317051649093628
1772728954385859800,3.89185986328125,9.937392234802246,3.1752755641937256,-0.6843472719192505
1772728954395377700,3.901377685546875,9.870393753051758,3.2518460750579834,-0.672383189201355
1772728954404895700,3.910895751953125,9.56889820098877,3.421736478805542,-0.6556333899497986
1772728954414413800,3.920413818359375,9.06401252746582,3.541377544403076,-0.6795616149902344
1772728954423932000,3.929931884765625,8.461020469665527,3.7112679481506348,-0.698704183101654
1772728954433449700,3.93944970703125,7.903493404388428,3.8739798069000244,-0.6628118753433228
1772728954442967800,3.9489677734375,7.420143127441406,4.01754903793335,-0.5599204897880554
1772728954452486000,3.95848583984375,7.020541667938232,4.108476638793945,-0.42352959513664246
1772728954462003700,3.968003662109375,6.704689025878906,4.156332969665527,-0.33499518036842346
1772728954471521800,3.977521728515625,6.530013084411621,4.201796531677246,-0.2799602448940277
1772728954481039600,3.98703955078125,6.477370738983154,4.242474555969238,-0.3038884699344635
1772728954490557700,3.9965576171875,6.656832695007324,4.261617183685303,-0.2632105052471161
1772728954500075800,4.00607568359375,7.058826923370361,4.299902439117432,-0.24167509377002716
1772728954509593900,4.01559375,7.4847493171691895,4.29033088684082,-0.22971096634864807
1772728954519111700,4.025111572265625,7.8317084312438965,4.295116424560547,-0.27038896083831787
1772728954528629800,4.034629638671875,8.15234661102295,4.3070807456970215,-0.2392822653055191
1772728954538147800,4.04414794921875,8.568697929382324,4.292723655700684,-0.14356936514377594
1772728954547665700,4.053665771484375,8.980263710021973,4.285545349121094,-0.038285162299871445
1772728954557183700,4.063183837890625,9.367900848388672,4.261617183685303,0.031106693670153618
1772728954566701800,4.072701904296875,9.607182502746582,4.268795490264893,0.0526420995593071
1772728954576219600,4.0822197265625,9.743574142456055,4.309473514556885,0.08374879509210587
1772728954585737700,4.09173779296875,9.77707290649414,4.374079704284668,0.12921242415905
1772728954595255600,4.101255615234375,9.734002113342285,4.4410786628723145,0.11246266216039658
1772728954604773600,4.110773681640625,9.580862045288086,4.5200419425964355,0.08374879509210587
1772728954614291700,4.120291748046875,9.336793899536133,4.613361835479736,0.09571290761232376
1772728954623809800,4.129809814453125,9.123832702636719,4.692325115203857,0.12681959569454193
1772728954633327600,4.13932763671875,8.965906143188477,4.7712883949279785,0.12681959569454193
1772728954642845700,4.148845703125,8.846264839172363,4.843072891235352,0.1579262912273407
1772728954652363800,4.15836376953125,8.774480819702148,4.864608287811279,0.1746760457754135
1772728954661881600,4.167881591796875,8.762516975402832,4.926821708679199,0.12442677468061447
1772728954671399700,4.177399658203125,8.793622970581055,4.960321426391602,0.11964113265275955
1772728954680917800,4.186917724609375,8.877371788024902,5.01296329498291,0.11485548317432404
1772728954690435600,4.196435546875,8.980263710021973,4.967499732971191,0.1339980661869049
1772728954699953700,4.20595361328125,9.154939651489258,4.917250633239746,0.16749759018421173
1772728954709471500,4.215471435546875,9.34875774383545,4.8191447257995605,0.1986042857170105
1772728954718989600,4.224989501953125,9.609575271606445,4.706682205200195,0.25363919138908386
1772728954728507600,4.234507568359375,9.908679008483887,4.570291042327881,0.1866401731967926
1772728954738025700,4.244025634765625,10.226923942565918,4.5200419425964355,0.064606212079525
1772728954747543800,4.253543701171875,10.48534870147705,4.474578380584717,-0.07417750358581543
1772728954757061600,4.2630615234375,10.691131591796875,4.417150497436523,-0.24646073579788208
1772728954766579700,4.272579833984375,10.918449401855469,4.445864677429199,-0.4259224236011505
1772728954776097500,4.28209765625,11.073983192443848,4.534399032592773,-0.5790630578994751
1772728954785615600,4.29161572265625,11.196017265319824,4.54636287689209,-0.6604190468788147
1772728954795133700,4.3011337890625,11.284551620483398,4.603790760040283,-0.8470591902732849
1772728954804651500,4.310651611328125,11.241480827331543,4.656432628631592,-1.0504491329193115
1772728954814169600,4.320169677734375,11.050054550170898,4.701896667480469,-1.1892328262329102
1772728954823687700,4.329687744140625,10.794022560119629,4.682754039764404,-1.222732424736023
1772728954833205500,4.33920556640625,10.564311981201172,4.620540618896484,-1.2370892763137817
1772728954842723600,4.3487236328125,10.478170394897461,4.48414945602417,-1.210768222808838
1772728954852241700,4.35824169921875,10.494919776916504,4.309473514556885,-1.2418749332427979
1772728954861759700,4.367759765625,10.6025972366333,4.1036906242370605,-1.2897313833236694
1772728954871277600,4.377277587890625,10.715060234069824,3.8500516414642334,-1.3040883541107178
1772728954880795600,4.386795654296875,10.810772895812988,3.5748770236968994,-1.31365966796875
1772728954890313500,4.3963134765625,10.77248764038086,3.3379876613616943,-1.2897313833236694
1772728954899831600,4.40583154296875,10.504491806030273,3.060420274734497,-1.246660590171814
1772728954909349600,4.415349609375,10.061819076538086,2.840280532836914,-1.2801600694656372
1772728954918867500,4.424867431640625,9.372686386108398,2.730210542678833,-1.3854442834854126
1772728954928385500,4.434385498046875,8.93240737915039,2.9048867225646973,-1.3902299404144287
1772728954937903400,4.4439033203125,8.37727165222168,2.9958138465881348,-1.2801600694656372
1772728954947421400,4.45342138671875,7.867600917816162,3.077169895172119,-1.2538390159606934
1772728954956939500,4.462939453125,7.338787078857422,3.1752755641937256,-1.2490534782409668
1772728954966457600,4.47245751953125,6.879364967346191,3.2542388439178467,-1.246660590171814
1772728954975975700,4.4819755859375,6.613761901855469,3.3475589752197266,-1.1892328262329102
1772728954985493500,4.491493408203125,6.618547439575195,3.376272678375244,-1.0217353105545044
1772728954995011600,4.501011474609375,6.876972198486328,3.397808074951172,-0.9595218896865845
1772728955004529400,4.510529296875,7.35314416885376,3.390629768371582,-1.0193424224853516
1772728955014047500,4.520047607421875,7.994420528411865,3.3714871406555176,-1.1365907192230225
1772728955023565600,4.529565673828125,8.662017822265625,3.3786656856536865,-1.2394821643829346
1772728955033083400,4.53908349609375,9.229117393493652,3.314059257507324,-1.2705888748168945
1772728955042601500,4.5486015625,9.707681655883789,3.3020951747894287,-1.2370892763137817
1772728955052119600,4.55811962890625,10.222138404846191,3.3236305713653564,-1.1509476900100708
1772728955061637400,4.567637451171875,10.39920711517334,3.31884503364563,-0.9954141974449158
1772728955071155500,4.577155517578125,10.262816429138184,3.314059257507324,-0.8590233325958252
1772728955080673500,4.586673583984375,9.841679573059082,3.342773199081421,-0.6436693072319031
1772728955090191600,4.596191650390625,9.312865257263184,3.4408788681030273,-0.3158525824546814
1772728955099709400,4.60570947265625,8.779266357421875,3.531806230545044,0.014356935396790504
1772728955109227500,4.6152275390625,8.281558990478516,3.6370904445648193,0.27756741642951965
1772728955118745300,4.624745361328125,7.795815944671631,3.7663028240203857,0.4331009089946747
1772728955128263400,4.634263427734375,7.45364236831665,3.893122434616089,0.5982056856155396
1772728955137781500,4.643781494140625,7.221538543701172,3.9936211109161377,0.6771687865257263
1772728955147299300,4.65329931640625,7.106683254241943,4.091726779937744,0.6915257573127747
1772728955156817400,4.6628173828125,7.087540626525879,4.175475597381592,0.6699903607368469
1772728955166335500,4.67233544921875,7.226324558258057,4.170690059661865,0.5694918036460876
1772728955175853600,4.681853515625,7.401000499725342,4.153940200805664,0.4450650215148926
1772728955185375200,4.691375244140625,7.616354465484619,4.1347975730896,0.3158525824546814
1772728955194889500,4.700889404296875,7.769495010375977,4.161118507385254,0.14356936514377594
1772728955204407600,4.710407470703125,7.877171993255615,4.163511276245117,-0.035892341285943985
1772728955213925400,4.71992529296875,7.992027759552002,4.1659040451049805,-0.21774685382843018
1772728955223443500,4.729443359375,8.176275253295898,4.144368648529053,-0.3445664644241333
1772728955232961300,4.738961181640625,8.350951194763184,4.122833251953125,-0.46420758962631226
1772728955242479400,4.748479248046875,8.551948547363281,4.1036906242370605,-0.5407779216766357
1772728955251997400,4.75799755859375,8.719446182250977,4.106083869934082,-0.5790630578994751
1772728955261515300,4.767515380859375,8.846264839172363,4.108476638793945,-0.6364908218383789
1772728955271033300,4.777033447265625,8.920442581176758,4.110869407653809,-0.6556333899497986
1772728955280551400,4.786551513671875,8.96112060546875,4.130012035369873,-0.6939185857772827
1772728955290069500,4.796069580078125,8.915657043457031,4.158725738525391,-0.698704183101654
1772728955299587300,4.80558740234375,8.819944381713867,4.232903480529785,-0.727418065071106
1772728955309105400,4.81510546875,8.733802795410156,4.34536600112915,-0.698704183101654
1772728955318623500,4.82462353515625,8.645268440246582,4.517649173736572,-0.6699903607368469
1772728955328141300,4.834141357421875,8.592626571655273,4.716253280639648,-0.6652047038078308
1772728955337659400,4.843659423828125,8.518448829650879,4.876572608947754,-0.6675975322723389
1772728955347177200,4.85317724609375,8.374878883361816,5.024927616119385,-0.6125625967979431
1772728955356695300,4.8626953125,8.248059272766113,5.151747226715088,-0.5647061467170715
1772728955366213400,4.87221337890625,8.157132148742676,5.302495002746582,-0.4618147611618042
1772728955375731200,4.881731201171875,8.202595710754395,5.419743061065674,-0.3924229145050049
1772728955385249300,4.891249267578125,8.420342445373535,5.520241737365723,-0.34217363595962524
1772728955394767400,4.900767333984375,8.779266357421875,5.515456199645996,-0.3445664644241333
1772728955404285400,4.910285400390625,9.20997428894043,5.489135265350342,-0.45224347710609436
1772728955413803300,4.91980322265625,9.628718376159668,5.407779216766357,-0.5934200286865234
1772728955423321300,4.9293212890625,10.066604614257812,5.3216376304626465,-0.7465606927871704
1772728955432839400,4.93883935546875,10.542776107788086,5.233103275299072,-0.8279166221618652
1772728955442357200,4.948357177734375,10.96869945526123,5.190032482147217,-0.9020941257476807
1772728955451875300,4.957875244140625,11.255837440490723,5.1565327644348145,-0.8805587291717529
1772728955461393200,4.96739306640625,11.454442024230957,5.123033046722412,-0.851844847202301
1772728955470911200,4.9769111328125,11.387442588806152,5.089533805847168,-0.8446664214134216
1772728955480429300,4.98642919921875,11.186446189880371,5.032105922698975,-0.8087740540504456
1772728955489947100,4.995947021484375,10.88973617553711,4.934000492095947,-0.6819544434547424
1772728955499465200,5.00546533203125,10.619346618652344,4.898108005523682,-0.5910272002220154
1772728955508983300,5.0149833984375,10.430314064025879,4.871787071228027,-0.4713860750198364
1772728955518501400,5.02450146484375,10.265209197998047,4.809573650360107,-0.4091726839542389
1772728955528019200,5.034019287109375,10.061819076538086,4.677968502044678,-0.2991028428077698
1772728955537537300,5.043537353515625,9.973284721374512,4.500899314880371,-0.20099709928035736
1772728955547055400,5.053055419921875,10.037891387939453,4.338187217712402,-0.14117653667926788
1772728955556573200,5.0625732421875,10.26042366027832,4.130012035369873,-0.16271193325519562
1772728955566091300,5.07209130859375,10.569097518920898,3.8763725757598877,-0.22492532432079315
1772728955575609000,5.081609130859375,10.841879844665527,3.6227335929870605,-0.33499518036842346
1772728955585127200,5.091127197265625,11.026126861572266,3.359523057937622,-0.4091726839542389
1772728955594645200,5.100645263671875,11.059626579284668,3.115455150604248,-0.3852444589138031
1772728955604163000,5.1101630859375,10.96630573272705,2.8809585571289062,-0.2991028428077698
1772728955613681200,5.11968115234375,10.715060234069824,2.730210542678833,-0.19142581522464752
1772728955623199200,5.12919921875,10.234102249145508,2.706282377243042,-0.059820566326379776
1772728955632717300,5.13871728515625,9.633503913879395,2.7182464599609375,0.08853443711996078
1772728955642235100,5.148235107421875,8.989834785461426,2.761317253112793,0.15314064919948578
1772728955651753200,5.157753173828125,8.394021987915039,2.7804598808288574,0.23210379481315613
1772728955661271300,5.167271240234375,7.872386455535889,2.8211379051208496,0.2847459018230438
1772728955670789000,5.1767890625,7.3986077308654785,2.9216363430023193,0.32542386651039124
1772728955680307200,5.18630712890625,7.022934436798096,3.053241729736328,0.35413774847984314
1772728955689825000,5.195824951171875,6.747759819030762,3.1992039680480957,0.4043870270252228
1772728955699343000,5.205343017578125,6.613761901855469,3.297309637069702,0.4570291340351105
1772728955708861200,5.214861083984375,6.757331371307373,3.4337005615234375,0.4953143000602722
1772728955718379000,5.22437890625,7.144968509674072,3.4743785858154297,0.4666004180908203
1772728955727897000,5.23389697265625,7.743174076080322,3.4576287269592285,0.3613162338733673
1772728955737415200,5.243415283203125,8.405985832214355,3.390629768371582,0.16749759018421173
1772728955746933200,5.252933349609375,9.08554744720459,3.31884503364563,-0.062213387340307236
1772728955756451000,5.262451171875,9.671789169311523,3.2231321334838867,-0.2560320198535919
1772728955765969200,5.27196923828125,10.176674842834473,3.160918712615967,-0.4259224236011505
1772728955775487200,5.2814873046875,10.51645565032959,3.1752755641937256,-0.6340979933738708
1772728955785005000,5.291005126953125,10.528419494628906,3.2039895057678223,-0.8398807644844055
1772728955794523100,5.300523193359375,10.214960098266602,3.3332018852233887,-0.916451096534729
1772728955804041000,5.310041015625,9.707681655883789,3.4815568923950195,-0.9523434042930603
1772728955813559000,5.31955908203125,8.987442016601562,3.6945180892944336,-0.9379864931106567
1772728955823077000,5.3290771484375,8.24566650390625,3.84765887260437,-0.9284151792526245
1772728955832595000,5.338594970703125,7.561319351196289,3.9864425659179688,-0.8877372145652771
1772728955842113000,5.348113037109375,7.054041385650635,4.048655986785889,-0.7178468108177185
1772728955851631000,5.357631103515625,6.678368091583252,4.1347975730896,-0.5647061467170715
1772728955861149200,5.367149169921875,6.467799663543701,4.206582069396973,-0.4785645306110382
1772728955870667000,5.3766669921875,6.486942291259766,4.271188259124756,-0.45224347710609436
1772728955880185000,5.38618505859375,6.721438884735107,4.273581027984619,-0.4498506486415863
1772728955889703200,5.395703125,7.094718933105469,4.2592244148254395,-0.40677985548973083
1772728955899221000,5.405220947265625,7.506284713745117,4.211368083953857,-0.3613162338733673
1772728955908739000,5.414739013671875,7.89631462097168,4.177868366241455,-0.2967100143432617
1772728955918257000,5.4242568359375,8.197810173034668,4.1659040451049805,-0.20578274130821228
1772728955927775000,5.43377490234375,8.48016357421875,4.1419758796691895,-0.11246266216039658
1772728955937293000,5.44329296875,8.72183895111084,4.1659040451049805,0.009571290574967861
1772728955946811000,5.452810791015625,8.906085968017578,4.137190341949463,0.07178468257188797
1772728955956329000,5.462328857421875,9.119047164916992,4.120440483093262,0.064606212079525
1772728955965847000,5.471846923828125,9.365508079528809,4.170690059661865,-0.01196411345154047
1772728955975365000,5.481365234375,9.592825889587402,4.175475597381592,-0.1052841991186142
1772728955984883000,5.490883056640625,9.729216575622559,4.208974838256836,-0.15074782073497772
1772728955994401000,5.500401123046875,9.755537986755371,4.29033088684082,-0.16510476171970367
1772728956003919000,5.509919189453125,9.600004196166992,4.376472473144531,-0.14356936514377594
1772728956013437000,5.51943701171875,9.387042999267578,4.534399032592773,-0.14356936514377594
1772728956022955000,5.528955078125,9.166903495788574,4.673182487487793,-0.17706887423992157
1772728956032472800,5.538472900390625,8.965906143188477,4.821537494659424,-0.2105683982372284
1772728956041991000,5.547990966796875,8.819944381713867,4.88853645324707,-0.17228323221206665
1772728956051509000,5.557509033203125,8.707481384277344,4.9292144775390625,-0.17706887423992157
1772728956061026800,5.56702685546875,8.669196128845215,4.984249591827393,-0.17946170270442963
1772728956070545000,5.576544921875,8.72183895111084,5.024927616119385,-0.23449662327766418
1772728956080063000,5.58606298828125,8.8438720703125,5.034498691558838,-0.22492532432079315
1772728956089581000,5.5955810546875,9.121439933776855,5.020142078399658,-0.1986042857170105
1772728956099099000,5.605098876953125,9.44447135925293,5.000999450683594,-0.1459621787071228
1772728956108617000,5.614616943359375,9.765109062194824,4.919643402099609,-0.10289137065410614
1772728956118135000,5.624135009765625,9.999606132507324,4.831109046936035,-0.07417750358581543
1772728956127652900,5.63365283203125,10.13599681854248,4.792823791503906,-0.06699903309345245
1772728956137171000,5.6431708984375,10.246066093444824,4.831109046936035,-0.0933200865983963
1772728956146688800,5.652688720703125,10.303494453430176,4.807180881500244,-0.16031911969184875
1772728956156206800,5.662206787109375,10.351350784301758,4.804787635803223,-0.2392822653055191
1772728956165725000,5.671724853515625,10.29153060913086,4.780859470367432,-0.3206382393836975
1772728956175242800,5.68124267578125,10.210174560546875,4.768895626068115,-0.4546363055706024
1772728956184760800,5.6907607421875,10.097711563110352,4.816751956939697,-0.6747759580612183
1772728956194279000,5.70027880859375,10.013962745666504,4.910071849822998,-0.885344386100769
1772728956203797000,5.709796875,9.978070259094238,4.9435715675354,-1.0241280794143677
1772728956213314800,5.719314697265625,9.949356079101562,4.9124650955200195,-1.124626636505127
1772728956222833000,5.7288330078125,9.9469633102417,4.886143684387207,-1.2059825658798218
1772728956232351000,5.73835107421875,10.03549861907959,4.840680122375488,-1.2969099283218384
1772728956241868800,5.747868896484375,10.15753173828125,4.6995038986206055,-1.301695466041565
1772728956251387000,5.757386962890625,10.310672760009766,4.510470867156982,-1.2969099283218384
1772728956260904700,5.76690478515625,10.590633392333984,4.266402721405029,-1.2921242713928223
1772728956270422800,5.7764228515625,10.963912963867188,4.01037073135376,-1.337587833404541
1772728956279940900,5.78594091796875,11.320444107055664,3.730410575866699,-1.3471591472625732
1772728956289458700,5.795458740234375,11.598011016845703,3.397808074951172,-1.337587833404541
1772728956298976800,5.804976806640625,11.562119483947754,3.074777126312256,-1.2729816436767578
1772728956308494800,5.814494873046875,11.12183952331543,2.854637384414673,-1.196411371231079
1772728956318012700,5.8240126953125,10.437492370605469,2.825923442840576,-1.1892328262329102
1772728956327530800,5.83353076171875,9.597611427307129,2.912065267562866,-1.2083754539489746
1772728956337048800,5.843048828125,8.719446182250977,3.0723843574523926,-1.1724830865859985
1772728956346567000,5.85256689453125,7.960920810699463,3.249453067779541,-1.098305583000183
1772728956356084700,5.862084716796875,7.3292155265808105,3.3714871406555176,-1.0001999139785767
1772728956365602800,5.871602783203125,6.833901405334473,3.436093330383301,-0.8781659007072449
1772728956375120600,5.88112060546875,6.503692150115967,3.4983067512512207,-0.8327022790908813
1772728956384638700,5.890638671875,6.455835342407227,3.565305709838867,-0.8614161610603333
1772728956394156800,5.90015673828125,6.702296257019043,3.603590965270996,-0.882951557636261
1772728956403674600,5.909674560546875,7.09711217880249,3.5820555686950684,-0.9260223507881165
1772728956413192700,5.919192626953125,7.573283672332764,3.5533416271209717,-0.9786644577980042
1772728956422710800,5.928710693359375,8.051848411560059,3.5150563716888428,-0.9403793215751648
1772728956432228600,5.938228515625,8.518448829650879,3.4719855785369873,-0.8327022790908813
1772728956441746700,5.94774658203125,8.882157325744629,3.4169507026672363,-0.7322037220001221
1772728956451264800,5.9572646484375,9.164510726928711,3.390629768371582,-0.641276478767395
1772728956460782600,5.966782470703125,9.339186668395996,3.376272678375244,-0.5527420043945312
1772728956470300700,5.97630078125,9.377471923828125,3.4265220165252686,-0.4833501875400543
1772728956479818800,5.98581884765625,9.257830619812012,3.4911282062530518,-0.42831525206565857
1772728956489336800,5.9953369140625,9.030512809753418,3.5365917682647705,-0.33738797903060913
1772728956498854700,6.004854736328125,8.654839515686035,3.620340585708618,-0.19142581522464752
1772728956508372700,6.014372802734375,8.276773452758789,3.6945180892944336,-0.05024927482008934
1772728956517890600,6.023890625,7.946564197540283,3.8213376998901367,0.07417750358581543
1772728956527408600,6.03340869140625,7.6498541831970215,3.981656789779663,0.07896314561367035
1772728956536926700,6.0429267578125,7.417750358581543,4.043870449066162,0.08135596662759781
1772728956546444500,6.052444580078125,7.259823799133301,4.1347975730896,0.016749758273363113
1772728956555962600,6.061962646484375,7.231110095977783,4.194618225097656,-0.02632104977965355
1772728956565480700,6.071480712890625,7.314858913421631,4.249652862548828,-0.03349951654672623
1772728956574998500,6.08099853515625,7.465606689453125,4.316651821136475,-0.02871387079358101
1772728956584516600,6.0905166015625,7.659425258636475,4.400400638580322,-0.09571290761232376
1772728956594034700,6.10003466796875,7.953742504119873,4.4410786628723145,-0.19142581522464752
1772728956603552800,6.109552734375,8.365307807922363,4.455435752868652,-0.33499518036842346
1772728956613070600,6.119070556640625,8.752944946289062,4.426722049713135,-0.5216353535652161
1772728956622588700,6.128588623046875,9.004191398620605,4.398007869720459,-0.6867401003837585
1772728956632106500,6.1381064453125,9.157332420349121,4.412364959716797,-0.7968099117279053
1772728956641624600,6.14762451171875,9.18843936920166,4.503292083740234,-0.8757730722427368
1772728956651142700,6.157142578125,9.116654396057129,4.53200626373291,-0.916451096534729
1772728956660660500,6.166660400390625,8.96829891204834,4.5583271980285645,-0.9690931439399719
1772728956670178600,6.176178466796875,8.831908226013184,4.579862594604492,-0.9571290612220764
1772728956679696600,6.185696533203125,8.71226692199707,4.644468784332275,-0.9092726111412048
1772728956689214500,6.19521435546875,8.566305160522461,4.72582483291626,-0.8877372145652771
1772728956698732500,6.204732666015625,8.47298526763916,4.816751956939697,-0.8949156403541565
1772728956708250600,6.214250732421875,8.422736167907715,4.948357105255127,-0.9092726111412048
1772728956717768400,6.2237685546875,8.420342445373535,5.027320384979248,-0.8566305041313171
1772728956727286500,6.23328662109375,8.441878318786621,5.091926574707031,-0.763310432434082
1772728956736804600,6.2428046875,8.484949111938477,5.123033046722412,-0.698704183101654
1772728956746322400,6.252322509765625,8.520841598510742,5.20678186416626,-0.638883650302887
1772728956755840500,6.261840576171875,8.535198211669922,5.242674350738525,-0.6101697683334351
1772728956765358600,6.271358642578125,8.602197647094727,5.285745143890381,-0.5910272002220154
1772728956774876400,6.28087646484375,8.719446182250977,5.312066078186035,-0.5790630578994751
1772728956784394500,6.29039453125,8.86062240600586,5.295316696166992,-0.6101697683334351
1772728956793912300,6.299912353515625,9.08554744720459,5.252245903015137,-0.6747759580612183
1772728956803430400,6.309430419921875,9.312865257263184,5.2354960441589355,-0.7872386574745178
1772728956812948500,6.318948486328125,9.53779125213623,5.2115678787231445,-0.9499505758285522
1772728956822466600,6.328466552734375,9.748359680175781,5.230710506439209,-1.038485050201416
1772728956831984400,6.337984375,9.91107177734375,5.230710506439209,-1.062413215637207
1772728956841502500,6.34750244140625,10.013962745666504,5.271388053894043,-1.0504491329193115
1772728956851020500,6.3570205078125,9.997213363647461,5.335994720458984,-1.057627558708191
1772728956860538400,6.366538330078125,9.899106979370117,5.405386447906494,-1.0528420209884644
1772728956870056400,6.376056396484375,9.65503978729248,5.458028316497803,-1.0169496536254883
1772728956879574500,6.385574462890625,9.425328254699707,5.4556355476379395,-0.9810572862625122
1772728956889092400,6.39509228515625,9.231510162353516,5.405386447906494,-0.9116654396057129
1772728956898610400,6.4046103515625,9.183652877807617,5.326423168182373,-0.794417142868042
1772728956908128300,6.414128173828125,9.308079719543457,5.1876397132873535,-0.641276478767395
1772728956917646300,6.423646240234375,9.516255378723145,5.0943193435668945,-0.5814558863639832
1772728956927164400,6.433164306640625,9.743574142456055,4.917250633239746,-0.5742774605751038
1772728956936682200,6.44268212890625,10.088140487670898,4.685146808624268,-0.5647061467170715
1772728956946200300,6.452200439453125,10.473384857177734,4.429114818572998,-0.5742774605751038
1772728956955718400,6.461718505859375,10.928021430969238,4.163511276245117,-0.49292147159576416
1772728956965236500,6.471236572265625,11.37069320678711,3.8835511207580566,-0.4211367964744568
1772728956974754300,6.48075439453125,11.665010452270508,3.565305709838867,-0.4163511395454407
1772728956984272400,6.4902724609375,11.736795425415039,3.263810157775879,-0.5072783827781677
1772728956993790500,6.49979052734375,11.492727279663086,3.036491870880127,-0.5216353535652161
1772728957003308800,6.509308837890625,10.973484992980957,2.933600664138794,-0.3397808074951172
1772728957012826400,6.518826416015625,10.339386940002441,2.9527430534362793,-0.07896314561367035
1772728957022344200,6.52834423828125,9.681360244750977,2.9838497638702393,0.11724831163883209
1772728957031862300,6.5378623046875,9.05444049835205,3.0101709365844727,0.20338992774486542
1772728957041380400,6.54738037109375,8.585447311401367,3.0556344985961914,0.24646073579788208
1772728957050898200,6.556898193359375,8.171489715576172,3.115455150604248,0.31345975399017334
1772728957060416300,6.566416259765625,7.829315662384033,3.153740167617798,0.3684946894645691
1772728957069934300,6.575934326171875,7.534998416900635,3.2039895057678223,0.397208571434021
1772728957079452200,6.5854521484375,7.381857872009277,3.280559778213501,0.3517449200153351
1772728957088970200,6.59497021484375,7.314858913421631,3.414557933807373,0.26081767678260803
1772728957098488300,6.60448828125,7.3914289474487305,3.483949661254883,0.10767702013254166
1772728957108006400,6.61400634765625,7.64028263092041,3.510270833969116,-0.038285162299871445
1772728957117524200,6.623524169921875,7.977670669555664,3.4911282062530518,-0.11964113265275955
1772728957127042000,6.6330419921875,8.405985832214355,3.4337005615234375,-0.18424734473228455
1772728957136560000,6.64256005859375,8.839086532592773,3.3619158267974854,-0.27756741642951965
1772728957146078200,6.652078125,9.20997428894043,3.335594654083252,-0.363709032535553
1772728957155596300,6.66159619140625,9.595218658447266,3.345165967941284,-0.46899324655532837
1772728957165114000,6.671114013671875,9.868000984191895,3.404986619949341,-0.5862415432929993
1772728957174632200,6.680632080078125,9.93978500366211,3.500699520111084,-0.6484549641609192
1772728957184150000,6.69014990234375,9.7938232421875,3.594019651412964,-0.6652047038078308
1772728957193668000,6.699668212890625,9.339186668395996,3.704089403152466,-0.7178468108177185
1772728957203186200,6.709186279296875,8.757730484008789,3.809373617172241,-0.7034898400306702
1772728957212704300,6.718704345703125,8.102097511291504,3.9290146827697754,-0.6101697683334351
1772728957222222000,6.72822216796875,7.546962738037109,4.058227062225342,-0.519242525100708
1772728957231740200,6.737740234375,7.16650390625,4.1730828285217285,-0.4378865361213684
1772728957241258200,6.74725830078125,6.912864685058594,4.264009952545166,-0.35892340540885925
1772728957250776000,6.756776123046875,6.838686943054199,4.302295207977295,-0.31106695532798767
1772728957260294100,6.766294189453125,6.903293132781982,4.369294166564941,-0.30628129839897156
1772728957269812200,6.775812255859375,7.082755088806152,4.3788652420043945,-0.33020952343940735
1772728957279330000,6.785330078125,7.334001541137695,4.388436794281006,-0.32542386651039124
1772728957288848100,6.79484814453125,7.642675399780273,4.3788652420043945,-0.33738797903060913
1772728957298366000,6.804365966796875,7.999206066131592,4.359723091125488,-0.38285163044929504
1772728957307884000,6.813884033203125,8.291130065917969,4.366901397705078,-0.37806597352027893
1772728957317402000,6.823402099609375,8.547162055969238,4.364508628845215,-0.28953152894973755
1772728957326920000,6.832919921875,8.7505521774292,4.383651256561279,-0.21296121180057526
1772728957336438000,6.84243798828125,8.910871505737305,4.383651256561279,-0.15074782073497772
1772728957345956000,6.8519560546875,9.073583602905273,4.383651256561279,-0.09571290761232376
1772728957355474000,6.861473876953125,9.241081237792969,4.374079704284668,-0.07896314561367035
1772728957364992000,6.870991943359375,9.339186668395996,4.398007869720459,-0.0933200865983963
1772728957374510000,6.880510009765625,9.418149948120117,4.400400638580322,-0.0933200865983963
1772728957384028200,6.890028076171875,9.430113792419434,4.426722049713135,-0.07178468257188797
1772728957393546000,6.8995458984375,9.370293617248535,4.474578380584717,-0.02392822690308094
1772728957403064000,6.90906396484375,9.231510162353516,4.543970108032227,0.014356935396790504
1772728957412582100,6.91858203125,9.047262191772461,4.632504463195801,0.07417750358581543
1772728957422100000,6.928099853515625,8.831908226013184,4.721039295196533,0.12442677468061447
1772728957431618000,6.9376181640625,8.606983184814453,4.821537494659424,0.08853443711996078
1772728957441135900,6.947135986328125,8.441878318786621,4.922036170959473,0.04546362906694412
1772728957450654000,6.956654052734375,8.37009334564209,5.01296329498291,0.035892341285943985
1772728957460172000,6.966172119140625,8.3629150390625,5.017749309539795,0.0526420995593071
1772728957469689900,6.97568994140625,8.449056625366211,5.010570526123047,0.0023928226437419653
1772728957479208000,6.9852080078125,8.575876235961914,4.979464054107666,0.0023928226437419653
1772728957488726000,6.99472607421875,8.724231719970703,4.960321426391602,-0.009571290574967861
1772728957498243800,7.004243896484375,8.930013656616211,4.922036170959473,0.04785645380616188
1772728957507762000,7.013761962890625,9.123832702636719,4.902893543243408,0.14117653667926788
1772728957517280000,7.023280029296875,9.329615592956543,4.876572608947754,0.1818545162677765
1772728957526798000,7.032798095703125,9.616754531860352,4.852644443511963,0.14356936514377594
1772728957536316000,7.04231591796875,9.832108497619629,4.840680122375488,0.062213387340307236
1772728957545834000,7.051833984375,10.01156997680664,4.847858905792236,-0.04785645380616188
1772728957555351800,7.061351806640625,10.076175689697266,4.855037212371826,-0.1986042857170105
1772728957564870000,7.070869873046875,10.138389587402344,4.9124650955200195,-0.33499518036842346
1772728957574388000,7.080387939453125,10.045069694519043,4.934000492095947,-0.5048855543136597
1772728957583905800,7.08990576171875,9.961320877075195,4.967499732971191,-0.7202396392822266
1772728957593424000,7.099423828125,9.868000984191895,4.967499732971191,-0.9379864931106567
1772728957602941700,7.108941650390625,9.824930191040039,4.967499732971191,-1.1461620330810547
1772728957612459800,7.118459716796875,9.839286804199219,4.962714195251465,-1.3232308626174927
1772728957621977900,7.127977783203125,9.970891952514648,4.900500774383545,-1.5002998113632202
1772728957631495700,7.13749560546875,10.147960662841797,4.764110088348389,-1.612762451171875
1772728957641013800,7.147013671875,10.39920711517334,4.6061835289001465,-1.6510475873947144
1772728957650531800,7.15653173828125,10.664810180664062,4.42193603515625,-1.6390835046768188
1772728957660050000,7.1660498046875,10.913663864135742,4.144368648529053,-1.6271194219589233
1772728957669567700,7.175567626953125,11.24626636505127,3.84765887260437,-1.5792629718780518
1772728957679085800,7.1850859375,11.624332427978516,3.5030922889709473,-1.545763373374939
1772728957688604000,7.19460400390625,11.732009887695312,3.177668571472168,-1.5026925802230835
1772728957698121700,7.204121826171875,11.385049819946289,2.878565549850464,-1.3184453248977661
1772728957707639800,7.213639892578125,10.774880409240723,2.699103832244873,-1.0911271572113037
1772728957717157600,7.22315771484375,10.088140487670898,2.6464617252349854,-0.885344386100769
1772728957726675700,7.23267578125,9.439684867858887,2.66560435295105,-0.7896314859390259
1772728957736193800,7.24219384765625,8.848658561706543,2.737389087677002,-0.7585247755050659
1772728957745711600,7.251711669921875,8.417949676513672,2.8283164501190186,-0.7226324677467346
1772728957755229700,7.261229736328125,8.037490844726562,2.9072794914245605,-0.6939185857772827
1772728957764747800,7.270747802734375,7.829315662384033,2.9862427711486816,-0.7082754969596863
1772728957774265600,7.280265625,7.719245910644531,3.0484559535980225,-0.7776673436164856
1772728957783783700,7.28978369140625,7.762316703796387,3.081955671310425,-0.9236295223236084
1772728957793301800,7.2993017578125,7.913064479827881,3.1178479194641113,-1.0408778190612793
1772728957802819600,7.308819580078125,8.008777618408203,3.0891339778900146,-1.124626636505127
1772728957812337700,7.318337646484375,8.171489715576172,3.0795626640319824,-1.1820544004440308
1772728957821855700,7.327855712890625,8.374878883361816,3.1178479194641113,-1.246660590171814
1772728957831373600,7.33737353515625,8.63330364227295,3.1657042503356934,-1.2394821643829346
1772728957840891600,7.3468916015625,8.886942863464355,3.1728827953338623,-1.1629117727279663
1772728957850409700,7.35640966796875,9.142974853515625,3.1585259437561035,-1.0887342691421509
1772728957859927600,7.365927490234375,9.276973724365234,3.1106693744659424,-0.8973084688186646
1772728957869445600,7.375445556640625,9.32722282409668,3.0939197540283203,-0.641276478767395
1772728957878963500,7.38496337890625,9.231510162353516,3.0652058124542236,-0.39960137009620667
1772728957888481500,7.3944814453125,9.037691116333008,3.074777126312256,-0.2105683982372284
1772728957897999600,7.40399951171875,8.767302513122559,3.1728827953338623,-0.09810572862625122
1772728957907517400,7.413517333984375,8.516056060791016,3.2518460750579834,0.007178467698395252
1772728957917035500,7.423035400390625,8.293522834777832,3.38105845451355,0.009571290574967861
1772728957926553600,7.4325537109375,8.085348129272461,3.4432718753814697,0.009571290574967861
1772728957936071400,7.442071533203125,7.865208148956299,3.538984775543213,0.016749758273363113
1772728957945589500,7.451589599609375,7.625925540924072,3.6155550479888916,0.02632104977965355
1772728957955107600,7.461107666015625,7.448856830596924,3.7495529651641846,-0.062213387340307236
1772728957964625700,7.470625732421875,7.29810905456543,3.81655216217041,-0.17706887423992157
1772728957974143500,7.4801435546875,7.216753005981445,3.8596229553222656,-0.28953152894973755
1772728957983661600,7.48966162109375,7.23589563369751,3.9290146827697754,-0.32542386651039124
1772728957993179400,7.499179443359375,7.35314416885376,4.036691665649414,-0.3900300860404968
1772728958002697500,7.508697509765625,7.503891944885254,4.074976921081543,-0.5407779216766357
1772728958012215600,7.518215576171875,7.733603000640869,4.094119548797607,-0.7465606927871704
1772728958021733400,7.5277333984375,8.032705307006836,4.120440483093262,-0.9044869542121887
1772728958031251500,7.53725146484375,8.346165657043457,4.139583110809326,-0.9954141974449158
1772728958040769500,7.54676953125,8.657232284545898,4.1659040451049805,-1.0336993932724
1772728958050287400,7.556287353515625,8.920442581176758,4.1730828285217285,-1.1030912399291992
1772728958059805400,7.565805419921875,9.147761344909668,4.201796531677246,-1.191625714302063
1772728958069323300,7.5753232421875,9.257830619812012,4.266402721405029,-1.222732424736023
1772728958078841300,7.58484130859375,9.329615592956543,4.3070807456970215,-1.1724830865859985
1772728958088359400,7.594359375,9.394221305847168,4.302295207977295,-1.2035897970199585
1772728958097877200,7.603877197265625,9.468399047851562,4.381258487701416,-1.210768222808838
1772728958107395300,7.613395263671875,9.485149383544922,4.445864677429199,-1.1772687435150146
1772728958116913400,7.622913330078125,9.475577354431152,4.54636287689209,-1.1318050622940063
1772728958126431500,7.632431396484375,9.468399047851562,4.6995038986206055,-1.0863415002822876
1772728958135949300,7.64194921875,9.382257461547852,4.797609329223633,-1.0169496536254883
1772728958145467400,7.65146728515625,9.272188186645508,4.922036170959473,-0.8973084688186646
1772728958154985500,7.6609853515625,9.152546882629395,5.020142078399658,-0.763310432434082
1772728958164503300,7.67050341796875,9.159725189208984,5.144568920135498,-0.5934200286865234
1772728958174021400,7.680021484375,9.248259544372559,5.2115678787231445,-0.4666004180908203
1772728958183539200,7.689539306640625,9.482755661010742,5.197210788726807,-0.42352959513664246
1772728958193057300,7.699057373046875,9.846465110778809,5.106283664703369,-0.45942193269729614
1772728958202575400,7.708575439453125,10.231709480285645,4.960321426391602,-0.4905286431312561
1772728958212093200,7.71809326171875,10.564311981201172,4.8191447257995605,-0.5670989751815796
1772728958221611300,7.727611328125,10.884950637817383,4.759324073791504,-0.6747759580612183
1772728958231129000,7.737129150390625,11.143375396728516,4.697110652923584,-0.7585247755050659
1772728958240647200,7.746647216796875,11.279766082763672,4.666004180908203,-0.8111668825149536
1772728958250165200,7.756165283203125,11.270195007324219,4.651647090911865,-0.8063812255859375
1772728958259683000,7.76568310546875,11.09073257446289,4.67078971862793,-0.8781659007072449
1772728958269201200,7.775201171875,10.746166229248047,4.716253280639648,-0.9427721500396729
1772728958278719200,7.78471923828125,10.389636039733887,4.766502857208252,-0.8757730722427368
1772728958288237300,7.7942373046875,10.054640769958496,4.814359188079834,-0.7082754969596863
1772728958297755100,7.803755126953125,9.848857879638672,4.742574691772461,-0.5335994362831116
1772728958307273200,7.813273193359375,9.772287368774414,4.634897232055664,-0.3900300860404968
1772728958316791300,7.822791259765625,9.796216011047363,4.455435752868652,-0.3565305769443512
1772728958326309000,7.83230908203125,9.934999465942383,4.326223373413086,-0.33738797903060913
1772728958335827200,7.8418271484375,10.155138969421387,4.161118507385254,-0.38285163044929504
1772728958345345000,7.851344970703125,10.394421577453613,3.964907169342041,-0.380458801984787
1772728958354863000,7.860863037109375,10.6025972366333,3.675375461578369,-0.46899324655532837
1772728958364381200,7.870381103515625,10.85145092010498,3.335594654083252,-0.5814558863639832
1772728958373899000,7.87989892578125,11.050054550170898,2.9838497638702393,-0.5910272002220154
1772728958383417000,7.8894169921875,11.117053985595703,2.699103832244873,-0.4666004180908203
1772728958392935000,7.898934814453125,10.96630573272705,2.5052852630615234,-0.19381862878799438
1772728958402453000,7.908452880859375,10.542776107788086,2.421536445617676,0.15314064919948578
1772728958411971000,7.91797119140625,9.908679008483887,2.4119651317596436,0.4426721930503845
1772728958421489000,7.927489013671875,9.176474571228027,2.469393014907837,0.5814558863639832
1772728958431007000,7.937007080078125,8.50169849395752,2.555534601211548,0.6125625967979431
1772728958440525000,7.946525146484375,7.891529083251953,2.6177480220794678,0.6149554252624512
1772728958450043100,7.956043212890625,7.405786037445068,2.6249263286590576,0.7082754969596863
1772728958459561000,7.96556103515625,7.046862602233887,2.6536402702331543,0.8638089895248413
1772728958469079000,7.9750791015625,6.829115867614746,2.6799614429473877,0.9284151792526245
1772728958478597000,7.98459716796875,6.812366008758545,2.7493531703948975,0.8614161610603333
1772728958488115000,7.994114990234375,7.003791809082031,2.825923442840576,0.6867401003837585
1772728958497633000,8.003633056640625,7.372286796569824,2.8283164501190186,0.4713860750198364
1772728958507150800,8.01315087890625,7.786244869232178,2.8929226398468018,0.3326023519039154
1772728958516669000,8.0226689453125,8.343772888183594,2.8929226398468018,0.10289137065410614
1772728958526187000,8.03218701171875,8.925228118896484,2.919243574142456,-0.1339980661869049
1772728958535704800,8.041704833984374,9.401400566101074,2.9216363430023193,-0.40677985548973083
1772728958545223000,8.051222900390625,9.7938232421875,2.933600664138794,-0.6460621356964111
1772728958554741000,8.060740966796875,10.04267692565918,3.0077781677246094,-0.8159525394439697
1772728958564258800,8.0702587890625,10.076175689697266,3.115455150604248,-0.8973084688186646
1772728958573777000,8.07977685546875,9.91825008392334,3.249453067779541,-0.9092726111412048
1772728958583294700,8.089294677734374,9.611968994140625,3.3954153060913086,-0.9571290612220764
1772728958592812800,8.098812744140625,9.109476089477539,3.562912940979004,-0.9547362327575684
1772728958602331000,8.108330810546875,8.48016357421875,3.6945180892944336,-0.9068797826766968
1772728958611848700,8.1178486328125,7.8795647621154785,3.806980848312378,-0.7920243144035339
1772728958621366800,8.12736669921875,7.369893550872803,3.9050865173339844,-0.6508477330207825
1772728958630884900,8.136884765625,7.09711217880249,4.027120590209961,-0.5335994362831116
1772728958640403000,8.14640283203125,6.994220733642578,4.043870449066162,-0.4953143000602722
1772728958649920800,8.155920654296875,6.996613502502441,4.06540584564209,-0.4259224236011505
1772728958659438800,8.16543896484375,7.09711217880249,4.043870449066162,-0.3613162338733673
1772728958668957000,8.17495703125,7.331608772277832,4.060619831085205,-0.29431718587875366
1772728958678474800,8.184474853515624,7.692924976348877,4.094119548797607,-0.24406790733337402
1772728958687992800,8.193992919921875,8.056633949279785,4.063013076782227,-0.1866401731967926
1772728958697510700,8.2035107421875,8.422736167907715,4.01754903793335,-0.1698904037475586
1772728958707028700,8.21302880859375,8.784051895141602,3.9361932277679443,-0.1698904037475586
1772728958716546800,8.222546875,9.090332984924316,3.9218363761901855,-0.13878370821475983
1772728958726064600,8.232064697265624,9.279366493225098,3.94097900390625,-0.1866401731967926
1772728958735582700,8.241582763671875,9.396614074707031,3.9433717727661133,-0.1818545162677765
1772728958745100500,8.2511005859375,9.399007797241211,3.972085475921631,-0.16271193325519562
1772728958754618600,8.26061865234375,9.384650230407715,3.9840497970581055,-0.12681959569454193
1772728958764136700,8.27013671875,9.343972206115723,4.0079779624938965,-0.09092725813388824
1772728958773654500,8.279654541015624,9.243474006652832,4.084548473358154,-0.08614161610603333
1772728958783172600,8.289172607421875,9.131011009216309,4.161118507385254,-0.02153540402650833
1772728958792690700,8.298690673828125,9.016156196594238,4.275974273681641,-0.0023928226437419653
1772728958802208500,8.30820849609375,8.930013656616211,4.364508628845215,-0.05503492057323456
1772728958811726600,8.3177265625,8.882157325744629,4.445864677429199,-0.06939185410737991
1772728958821244700,8.32724462890625,8.894122123718262,4.5200419425964355,-0.05503492057323456
1772728958830762500,8.336762451171875,8.975478172302246,4.563112735748291,-0.038285162299871445
1772728958840280600,8.346280517578125,9.06401252746582,4.587040901184082,-0.06699903309345245
1772728958849798700,8.355798583984376,9.140582084655762,4.60857629776001,-0.11246266216039658
1772728958859316500,8.36531640625,9.212367057800293,4.644468784332275,-0.12681959569454193
1772728958868834600,8.37483447265625,9.34157943725586,4.701896667480469,-0.14835500717163086
1772728958878352600,8.3843525390625,9.485149383544922,4.709074974060059,-0.14117653667926788
1772728958887870500,8.393870361328124,9.611968994140625,4.639683246612549,-0.11964113265275955
1772728958897388500,8.403388427734376,9.750752449035645,4.5822553634643555,-0.14117653667926788
1772728958906906600,8.41290673828125,9.903892517089844,4.527220249176025,-0.08853443711996078
1772728958916424400,8.422424560546874,10.01874828338623,4.4650068283081055,-0.016749758273363113
1772728958925942500,8.431942626953125,10.076175689697266,4.426722049713135,0
1772728958935460400,8.44146044921875,10.083354949951172,4.40757942199707,0.01196411345154047
1772728958944978400,8.450978515625,10.009177207946777,4.438685894012451,-0.05024927482008934
1772728958954496500,8.46049658203125,9.92542839050293,4.488935470581055,-0.16031911969184875
1772728958964014300,8.470014404296874,9.865608215332031,4.5200419425964355,-0.25363919138908386
1772728958973532400,8.479532470703125,9.879964828491211,4.53200626373291,-0.4091726839542389
1772728958983050200,8.48905029296875,9.899106979370117,4.584648132324219,-0.6125625967979431
1772728958992568300,8.498568359375,9.920642852783203,4.591826438903809,-0.8207381963729858
1772728959002086400,8.50808642578125,10.00439167022705,4.570291042327881,-0.973878800868988
1772728959011604500,8.5176044921875,10.133604049682617,4.541577339172363,-1.1341979503631592
1772728959021122300,8.527122314453125,10.301101684570312,4.4243292808532715,-1.2634103298187256
1772728959030640400,8.536640380859374,10.549955368041992,4.2281174659729,-1.3112667798995972
1772728959040158500,8.546158447265626,10.863414764404297,4.000799655914307,-1.368694543838501
1772728959049676300,8.55567626953125,11.186446189880371,3.7423746585845947,-1.4333007335662842
1772728959059194400,8.5651943359375,11.507083892822266,3.476771354675293,-1.4428720474243164
1772728959068712400,8.57471240234375,11.83729362487793,3.239881753921509,-1.5050854682922363
1772728959078230300,8.584230224609374,12.06221866607666,2.957528829574585,-1.5242279767990112
1772728959087748400,8.593748291015626,11.97607707977295,2.6273193359375,-1.4333007335662842
1772728959097266200,8.60326611328125,11.430513381958008,2.344966173171997,-1.2897313833236694
1772728959106784300,8.6127841796875,10.6025972366333,2.2229323387145996,-1.1629117727279663
1772728959116302300,8.62230224609375,9.753145217895508,2.335394859313965,-1.0887342691421509
1772728959125820200,8.631820068359374,8.958727836608887,2.5459632873535156,-1.124626636505127
1772728959135338200,8.641338134765626,8.271987915039062,2.737389087677002,-1.1222338676452637
1772728959144856000,8.65085595703125,7.671389579772949,2.7972097396850586,-1.1748759746551514
1772728959154374100,8.6603740234375,7.245467185974121,2.830709218978882,-1.153340458869934
1772728959163892200,8.669892333984375,7.063612461090088,2.9168508052825928,-1.1150553226470947
1772728959173410000,8.67941015625,7.1162543296813965,2.998206853866577,-1.160519003868103
1772728959182928100,8.68892822265625,7.288537979125977,3.0628130435943604,-1.2681959867477417
1772728959192446200,8.6984462890625,7.592426300048828,3.0939197540283203,-1.4141582250595093
1772728959201964000,8.707964111328126,7.984848976135254,3.122633457183838,-1.5170495510101318
1772728959211482000,8.717482177734375,8.410771369934082,3.1345977783203125,-1.4859428405761719
1772728959221000200,8.727000244140624,8.879764556884766,3.153740167617798,-1.4021940231323242
1772728959230518000,8.73651806640625,9.365508079528809,3.1441688537597656,-1.368694543838501
1772728959240036000,8.7460361328125,9.714859962463379,3.1274192333221436,-1.3351950645446777
1772728959249554200,8.75555419921875,9.853643417358398,3.1417760848999023,-1.2346965074539185
1772728959259072000,8.765072021484375,9.81535816192627,3.153740167617798,-1.0193424224853516
1772728959268590000,8.774590087890624,9.650253295898438,3.211168050765991,-0.7537391185760498
1772728959278108200,8.784108154296876,9.339186668395996,3.2446675300598145,-0.5000999569892883
1772728959287626000,8.7936259765625,8.937192916870117,3.2542388439178467,-0.31345975399017334
1772728959297144000,8.80314404296875,8.58066177368164,3.321237802505493,-0.09810572862625122
1772728959306662100,8.812662109375,8.327022552490234,3.4408788681030273,0.007178467698395252
1772728959316180000,8.822179931640624,8.118846893310547,3.531806230545044,0.07178468257188797
1772728959325698000,8.831697998046875,7.95134973526001,3.6394832134246826,0.06939185410737991
1772728959335215900,8.8412158203125,7.814958572387695,3.7016966342926025,0.014356935396790504
1772728959344734000,8.85073388671875,7.762316703796387,3.7639100551605225,-0.07178468257188797
1772728959354252000,8.860251953125,7.7455668449401855,3.814159393310547,-0.15314064919948578
1772728959363769900,8.869769775390624,7.747959613800049,3.8333017826080322,-0.20817556977272034
1772728959373288000,8.879287841796875,7.812565803527832,3.862015724182129,-0.3038884699344635
1772728959382805800,8.8888056640625,7.913064479827881,3.864408493041992,-0.4163511395454407
1772728959392323800,8.89832373046875,8.011170387268066,3.87876558303833,-0.5000999569892883
1772728959401842000,8.907842041015625,8.169096946716309,3.8883368968963623,-0.6005984544754028
1772728959411359700,8.91735986328125,8.350951194763184,3.900300979614258,-0.6867401003837585
1772728959420877800,8.9268779296875,8.544769287109375,3.924229145050049,-0.7704889178276062
1772728959430396000,8.93639599609375,8.724231719970703,3.926621913909912,-0.7824530005455017
1772728959439913700,8.945913818359376,8.908478736877441,3.9625144004821777,-0.7752745151519775
1772728959449431800,8.955431884765625,9.083154678344727,4.0079779624938965,-0.7872386574745178
1772728959458950000,8.964949951171874,9.1716890335083,4.027120590209961,-0.8207381963729858
1772728959468467700,8.9744677734375,9.183652877807617,4.046263217926025,-0.8398807644844055
1772728959477985800,8.98398583984375,9.152546882629395,4.070191383361816,-0.8446664214134216
1772728959487504000,8.99350390625,9.138189315795898,4.1347975730896,-0.8350951075553894
1772728959497021700,9.003021728515625,9.075976371765137,4.213760852813721,-0.8183453679084778
1772728959506539800,9.012539794921874,8.9850492477417,4.29033088684082,-0.8374879360198975
1772728959516057900,9.022057861328125,8.882157325744629,4.429114818572998,-0.794417142868042
1772728959525575700,9.03157568359375,8.74337387084961,4.555934429168701,-0.7513462901115417
1772728959535093800,9.04109375,8.621339797973633,4.692325115203857,-0.7369893789291382
1772728959544611600,9.050611572265625,8.57348346710205,4.8191447257995605,-0.6819544434547424
1772728959554129700,9.060129638671874,8.599804878234863,4.900500774383545,-0.6364908218383789
1772728959563647700,9.069647705078125,8.72901725769043,5.000999450683594,-0.6556333899497986
1772728959573165600,9.07916552734375,8.982656478881836,5.034498691558838,-0.6867401003837585
1772728959582683600,9.08868359375,9.317651748657227,4.996213912963867,-0.7178468108177185
1772728959592201700,9.09820166015625,9.736394882202148,4.893322467803955,-0.7992027401924133
1772728959601719600,9.107719482421874,10.16710376739502,4.768895626068115,-0.9499505758285522
1772728959611237600,9.117237548828125,10.569097518920898,4.668396949768066,-1.0671988725662231
1772728959620755500,9.12675537109375,10.908878326416016,4.627718925476074,-1.1988041400909424
1772728959630273500,9.1362734375,11.145768165588379,4.627718925476074,-1.28255295753479
1772728959639791600,9.14579150390625,11.184053421020508,4.610969066619873,-1.306481122970581
1772728959649309400,9.155309326171874,11.042876243591309,4.66361141204834,-1.3184453248977661
1772728959658827500,9.16482763671875,10.746166229248047,4.754538536071777,-1.2610175609588623
1772728959668345300,9.174345458984375,10.269994735717773,4.826323509216309,-1.1676974296569824
1772728959677863400,9.183863525390626,9.810572624206543,4.9124650955200195,-1.00259268283844
1772728959687381500,9.193381591796875,9.482755661010742,4.960321426391602,-0.8135597109794617
1772728959696899300,9.2028994140625,9.33440113067627,4.969892501831055,-0.6101697683334351
1772728959706417400,9.21241748046875,9.28893756866455,4.955535888671875,-0.4737788736820221
1772728959715935500,9.221935546875,9.418149948120117,4.922036170959473,-0.38285163044929504
1772728959725453300,9.231453369140626,9.674181938171387,4.816751956939697,-0.363709032535553
1772728959734971400,9.240971435546875,10.05703353881836,4.634897232055664,-0.3684946894645691
1772728959744489500,9.250489501953124,10.480563163757324,4.364508628845215,-0.3732803463935852
1772728959754007300,9.26000732421875,10.803594589233398,4.074976921081543,-0.4019941985607147
1772728959763525400,9.269525390625,11.009376525878906,3.7567315101623535,-0.5096712112426758
1772728959773043500,9.27904345703125,11.148160934448242,3.4025938510894775,-0.5862415432929993
1772728959782561300,9.288561279296875,11.172088623046875,3.081955671310425,-0.5359922647476196
1772728959792079400,9.298079345703124,11.052447319030762,2.799602508544922,-0.4139583110809326
1772728959801597400,9.307597412109375,10.693524360656738,2.6799614429473877,-0.24406790733337402
1772728959811115300,9.317115234375,10.109675407409668,2.6153552532196045,-0.09092725813388824
1772728959820633300,9.32663330078125,9.521040916442871,2.6608188152313232,0.0023928226437419653
1772728959830151200,9.336151123046875,8.965906143188477,2.744567632675171,0.12203395366668701
1772728959839669200,9.345669189453124,8.477770805358887,2.8043880462646484,0.23449662327766418
1772728959849187300,9.355187255859375,8.09252643585205,2.8354947566986084,0.3852444589138031
1772728959858705200,9.364705078125,7.774280548095703,2.825923442840576,0.5072783827781677
1772728959868223200,9.37422314453125,7.527820110321045,2.854637384414673,0.5288137793540955
1772728959877741000,9.383740966796875,7.372286796569824,2.8809585571289062,0.49292147159576416
1772728959887259100,9.393259033203124,7.369893550872803,2.9072794914245605,0.4450650215148926
1772728959896777200,9.402777099609375,7.642675399780273,2.888136863708496,0.31824541091918945
1772728959906295000,9.412294921875,8.068597793579102,2.8498518466949463,0.13639089465141296
1772728959915813000,9.421813232421876,8.58066177368164,2.833101987838745,-0.1339980661869049
1772728959925331200,9.431331298828125,9.013762474060059,2.840280532836914,-0.33499518036842346
1772728959934849000,9.44084912109375,9.480362892150879,2.847458839416504,-0.4905286431312561
1772728959944367000,9.4503671875,9.784252166748047,2.854637384414673,-0.6221339106559753
1772728959953885000,9.459885009765625,9.944570541381836,2.8666014671325684,-0.8111668825149536
1772728959963403000,9.469403076171876,9.923035621643066,2.957528829574585,-0.9978070259094238
1772728959972921000,9.478921142578125,9.722038269042969,3.0891339778900146,-1.1174482107162476
1772728959982439000,9.48843896484375,9.43489933013916,3.239881753921509,-1.129412293434143
1772728959991957000,9.49795703125,9.10229778289795,3.3858439922332764,-1.129412293434143
1772728960001475000,9.50747509765625,8.595019340515137,3.4743785858154297,-1.0959128141403198
1772728960010993000,9.516992919921876,8.037490844726562,3.586841106414795,-0.9882357716560364
1772728960020511000,9.526510986328125,7.585247993469238,3.6705899238586426,-0.885344386100769
1772728960030029000,9.536029052734374,7.271788120269775,3.7423746585845947,-0.729810893535614
1772728960039547000,9.545546875,7.109076023101807,3.799802303314209,-0.5647061467170715
1772728960049065000,9.55506494140625,7.0923261642456055,3.830909013748169,-0.48574298620224
1772728960058583000,9.5645830078125,7.168896675109863,3.88594388961792,-0.4259224236011505
1772728960068100900,9.574100830078125,7.286144733428955,3.91705060005188,-0.3900300860404968
1772728960077619000,9.583618896484374,7.434499740600586,3.9385859966278076,-0.35892340540885925
1772728960087137000,9.593136962890625,7.6474609375,3.924229145050049,-0.3086741268634796
1772728960096654800,9.60265478515625,7.934599876403809,3.88594388961792,-0.24406790733337402
1772728960106173000,9.6121728515625,8.250452041625977,3.838087558746338,-0.20578274130821228
1772728960115690800,9.621690673828125,8.530412673950195,3.85483717918396,-0.17706887423992157
1772728960125208800,9.631208740234374,8.796015739440918,3.88594388961792,-0.25363919138908386
1772728960134727000,9.640726806640625,9.049654960632324,3.94097900390625,-0.3086741268634796
1772728960144244700,9.65024462890625,9.200403213500977,3.957728624343872,-0.3756731450557709
1772728960153762800,9.6597626953125,9.305686950683594,3.996013879776001,-0.43549370765686035
1772728960163280600,9.66928076171875,9.379864692687988,3.981656789779663,-0.41874396800994873
1772728960172798700,9.678798828125,9.403793334960938,4.051048755645752,-0.4139583110809326
1772728960182316800,9.68831689453125,9.355937004089355,4.089334011077881,-0.45224347710609436
1772728960191834600,9.697834716796875,9.207581520080566,4.182653903961182,-0.4618147611618042
1772728960201352700,9.707352783203126,9.044869422912598,4.271188259124756,-0.4833501875400543
1772728960210870800,9.716870849609375,8.982656478881836,4.340580463409424,-0.5216353535652161
1772728960220388600,9.726388671875,9.001798629760742,4.386044025421143,-0.5335994362831116
1772728960229906700,9.73590673828125,9.059226989746094,4.409972190856934,-0.576670229434967
1772728960239424500,9.745424560546875,9.104690551757812,4.429114818572998,-0.6460621356964111
1772728960248942600,9.754942626953126,9.241081237792969,4.467400074005127,-0.7345965504646301
1772728960258460700,9.764460693359375,9.365508079528809,4.467400074005127,-0.849452018737793
1772728960267978500,9.773978515625,9.499505996704102,4.488935470581055,-0.9427721500396729
1772728960277496600,9.78349658203125,9.623932838439941,4.467400074005127,-0.9906286001205444
1772728960287014400,9.793014404296875,9.76989459991455,4.412364959716797,-0.9571290612220764
1772728960296532500,9.802532470703126,9.91825008392334,4.364508628845215,-0.8111668825149536
1772728960306050600,9.812050537109375,10.037891387939453,4.323830604553223,-0.7058826684951782
1772728960315568400,9.821568359375,10.095318794250488,4.287938117980957,-0.6819544434547424
1772728960325086500,9.83108642578125,10.04267692565918,4.302295207977295,-0.6269195079803467
1772728960334604500,9.8406044921875,9.877572059631348,4.342973232269287,-0.519242525100708
1772728960344122400,9.850122314453126,9.693324089050293,4.426722049713135,-0.3852444589138031
1772728960353640400,9.859640380859375,9.53061294555664,4.534399032592773,-0.2799602448940277
1772728960363158500,9.869158447265624,9.437292098999023,4.603790760040283,-0.2871387302875519
1772728960372676400,9.87867626953125,9.44447135925293,4.642076015472412,-0.39481574296951294
1772728960382194400,9.8881943359375,9.564111709594727,4.668396949768066,-0.5312066078186035
1772728960391712500,9.89771240234375,9.705288887023926,4.66361141204834,-0.7010970115661621
1772728960401230300,9.907230224609375,9.829715728759766,4.603790760040283,-0.8709874153137207
1772728960410748400,9.91674853515625,10.009177207946777,4.4721856117248535,-1.0887342691421509
1772728960420266500,9.9262666015625,10.265209197998047,4.292723655700684,-1.191625714302063
1772728960429784300,9.935784423828125,10.607382774353027,4.06540584564209,-1.1940184831619263
1772728960439302400,9.945302490234376,10.85862922668457,3.85483717918396,-1.3040883541107178
1772728960448820200,9.9548203125,10.990234375,3.627519130706787,-1.4380863904953003
1772728960458338300,9.96433837890625,11.145768165588379,3.407379388809204,-1.5002998113632202
1772728960467856400,9.9738564453125,11.33240795135498,3.1824541091918945,-1.5409778356552124
1772728960477374200,9.983374267578125,11.559725761413574,2.9359934329986572,-1.5960127115249634
1772728960486892300,9.992892333984376,11.944971084594727,2.557927370071411,-1.428515076637268
1772728960496410400,10.002410400390625,11.626725196838379,2.4335005283355713,-1.2131611108779907
1772728960505928200,10.01192822265625,10.533205032348633,2.438286304473877,-1.2179467678070068
1772728960515446300,10.0214462890625,9.695717811584473,2.6560330390930176,-1.5026925802230835
1772728960524964000,10.030964111328124,8.906085968017578,2.7517459392547607,-1.5696916580200195
1772728960534482200,10.040482177734376,8.214560508728027,2.8354947566986084,-1.3088740110397339
1772728960544000300,10.050000244140625,7.64028263092041,2.8809585571289062,-1.0241280794143677
1772728960553518000,10.05951806640625,7.231110095977783,2.8666014671325684,-0.7657032608985901
1772728960563036200,10.0690361328125,7.022934436798096,2.7804598808288574,-0.7752745151519775
1772728960572554000,10.078553955078124,7.008577346801758,2.857030153274536,-0.9667003750801086
