time,seconds_elapsed,z,y,x
1772708677846940700,0.052940673828125,-0.5518798828125,-0.7295989990234375,0.14495849609375
1772708677856966000,0.0629658203125,-0.569549560546875,-0.736846923828125,0.138458251953125
1772708677866990800,0.072990966796875,-0.583099365234375,-0.7366180419921875,0.1444549560546875
1772708677877015800,0.083015869140625,-0.5952301025390625,-0.7230987548828125,0.143707275390625
1772708677887041800,0.093041748046875,-0.5999603271484375,-0.7019195556640625,0.129547119140625
1772708677897066800,0.103066650390625,-0.58575439453125,-0.676666259765625,0.1009521484375
1772708677907092000,0.113092041015625,-0.568267822265625,-0.662841796875,0.07611083984375
1772708677917117000,0.123116943359375,-0.55712890625,-0.6617889404296875,0.079620361328125
1772708677927141600,0.1331416015625,-0.550994873046875,-0.65966796875,0.0996551513671875
1772708677937166600,0.14316650390625,-0.5553741455078125,-0.6504364013671875,0.113525390625
1772708677947191800,0.15319189453125,-0.5861053466796875,-0.64581298828125,0.11114501953125
1772708677957216800,0.163216796875,-0.62115478515625,-0.633514404296875,0.09503173828125
1772708677967241700,0.17324169921875,-0.6529541015625,-0.606689453125,0.0962677001953125
1772708677977266700,0.1832666015625,-0.714599609375,-0.5902862548828125,0.1063690185546875
1772708677987292700,0.193292724609375,-0.77276611328125,-0.572021484375,0.11224365234375
1772708677997318000,0.20331787109375,-0.7920684814453125,-0.546112060546875,0.1190032958984375
1772708678007342800,0.2133427734375,-0.772979736328125,-0.504730224609375,0.1312713623046875
1772708678017367800,0.223367919921875,-0.7495880126953125,-0.4677734375,0.14501953125
1772708678027392800,0.233392822265625,-0.7316131591796875,-0.434356689453125,0.1515655517578125
1772708678037417700,0.243417724609375,-0.6981658935546875,-0.4051361083984375,0.1455841064453125
1772708678047442700,0.253442626953125,-0.6440887451171875,-0.402557373046875,0.1161041259765625
1772708678057467600,0.263467529296875,-0.5816192626953125,-0.409637451171875,0.08251953125
1772708678067492600,0.27349267578125,-0.542724609375,-0.39556884765625,0.0904998779296875
1772708678077517800,0.283517822265625,-0.5332183837890625,-0.319671630859375,0.1283721923828125
1772708678087543800,0.293543701171875,-0.5727691650390625,-0.3181610107421875,0.1678314208984375
1772708678097568800,0.30356884765625,-0.6168060302734375,-0.34912109375,0.205352783203125
1772708678107593700,0.31359375,-0.5997314453125,-0.3365936279296875,0.2644195556640625
1772708678117618700,0.32361865234375,-0.5333251953125,-0.2811279296875,0.32965087890625
1772708678127644000,0.333643798828125,-0.429107666015625,-0.195953369140625,0.396240234375
1772708678137668900,0.3436689453125,-0.348724365234375,-0.1361083984375,0.4585418701171875
1772708678147693800,0.35369384765625,-0.357177734375,-0.1825103759765625,0.49627685546875
1772708678157718800,0.36371875,-0.3986663818359375,-0.281890869140625,0.652099609375
1772708678167743700,0.37374365234375,-0.799560546875,-0.4953460693359375,0.89208984375
1772708678177768700,0.383768798828125,-0.830169677734375,-0.675872802734375,0.931427001953125
1772708678187794700,0.393794677734375,-1.357940673828125,-0.7172393798828125,0.7621612548828125
1772708678197819600,0.403819580078125,-1.7111358642578125,-0.806732177734375,0.599212646484375
1772708678207844600,0.4138447265625,-1.942108154296875,-0.8681182861328125,0.4492645263671875
1772708678217869800,0.423869873046875,-2.156494140625,-0.93841552734375,0.4678192138671875
1772708678257970000,0.463969970703125,-1.882049560546875,-1.3123779296875,0.667572021484375
1772708678267994600,0.47399462890625,-1.7995758056640625,-1.283538818359375,0.6781158447265625
1772708678278019600,0.48401953125,-1.8623199462890625,-1.2723388671875,0.735931396484375
1772708678288045600,0.494045654296875,-1.892578125,-1.2125091552734375,0.8523406982421875
1772708678298070800,0.50407080078125,-1.857635498046875,-1.1814727783203125,0.8854522705078125
1772708678308095700,0.514095703125,-1.7507781982421875,-1.194610595703125,0.898162841796875
1772708678318120700,0.52412060546875,-1.7096405029296875,-1.239715576171875,0.8640289306640625
1772708678328145700,0.534145751953125,-1.7296295166015625,-1.289215087890625,0.743896484375
1772708678338171000,0.5441708984375,-1.725341796875,-1.2527618408203125,0.585601806640625
1772708678348195800,0.55419580078125,-1.654083251953125,-1.1297607421875,0.373779296875
1772708678358220800,0.564220703125,-1.45501708984375,-0.947418212890625,0.2009429931640625
1772708678368245800,0.574245849609375,-1.116912841796875,-0.8435516357421875,0.107757568359375
1772708678378271700,0.584271728515625,-0.6361846923828125,-0.82904052734375,0.054718017578125
1772708678388297000,0.594296875,-0.117584228515625,-0.784576416015625,0.08209228515625
1772708678398322000,0.604322021484375,0.296295166015625,-0.7573699951171875,0.097442626953125
1772708678408346600,0.6143466796875,0.52105712890625,-0.6942901611328125,0.0258941650390625
1772708678418371600,0.62437158203125,0.660980224609375,-0.4752655029296875,-0.0159454345703125
1772708678428396800,0.634396728515625,0.7015533447265625,-0.2977142333984375,-0.000335693359375
1772708678438421800,0.644421875,0.6055755615234375,-0.2309722900390625,0.050567626953125
1772708678448446700,0.65444677734375,0.3633270263671875,-0.189849853515625,0.120513916015625
1772708678458471700,0.6644716796875,0.0681915283203125,-0.1497955322265625,0.1457672119140625
1772708678468497000,0.674496826171875,-0.115081787109375,-0.1161956787109375,0.1653594970703125
1772708678478523000,0.68452294921875,-0.151123046875,-0.10107421875,0.179443359375
1772708678488547800,0.6945478515625,-0.0708465576171875,-0.107696533203125,0.193115234375
1772708678498572800,0.70457275390625,0.045074462890625,-0.12469482421875,0.2115936279296875
1772708678508597800,0.71459765625,0.116455078125,-0.150482177734375,0.2288360595703125
1772708678518623000,0.724623046875,0.1345367431640625,-0.1782073974609375,0.230194091796875
1772708678528647700,0.734647705078125,0.1029052734375,-0.2040863037109375,0.2182769775390625
1772708678538672600,0.744672607421875,0.0494842529296875,-0.237548828125,0.2098388671875
1772708678548697600,0.754697509765625,-0.00213623046875,-0.2641754150390625,0.1692047119140625
1772708678558722800,0.764722900390625,-0.0531463623046875,-0.3133392333984375,0.0681915283203125
1772708678568747800,0.774747802734375,-0.14532470703125,-0.3612213134765625,-0.0402679443359375
1772708678578775000,0.784775146484375,-0.24908447265625,-0.3665313720703125,-0.11053466796875
1772708678588800000,0.794800048828125,-0.3367767333984375,-0.3553924560546875,-0.1527862548828125
1772708678598825000,0.804824951171875,-0.4040985107421875,-0.3222503662109375,-0.1571502685546875
1772708678608850000,0.814849853515625,-0.4405059814453125,-0.2650604248046875,-0.1379852294921875
1772708678618875100,0.824875244140625,-0.4462890625,-0.19305419921875,-0.090576171875
1772708678628900000,0.834900146484375,-0.450164794921875,-0.1155242919921875,-0.0756378173828125
1772708678638925000,0.844925048828125,-0.460968017578125,-0.0457763671875,-0.1577911376953125
1772708678648950000,0.854949951171875,-0.3610076904296875,-0.1403961181640625,-0.078826904296875
1772708678658975200,0.864975341796875,-0.3704833984375,-0.183441162109375,-0.0622100830078125
1772708678669000000,0.875,-0.4161376953125,-0.13275146484375,-0.0911102294921875
1772708678679026200,0.885026123046875,-0.456146240234375,-0.0424652099609375,-0.03424072265625
1772708678689051000,0.89505078125,-0.5807952880859375,-0.021759033203125,0.0236053466796875
1772708678699075800,0.905075927734375,-0.725067138671875,-0.069915771484375,0.0727691650390625
1772708678709101000,0.91510107421875,-0.8339691162109375,-0.0634918212890625,0.055419921875
1772708678719126000,0.9251259765625,-0.9748382568359375,0.0007781982421875,0.0439910888671875
1772708678729151000,0.93515087890625,-0.830291748046875,-0.0066070556640625,0.00048828125
1772708678739176000,0.945176025390625,-0.6618804931640625,-0.10986328125,-0.177001953125
1772708678749201200,0.955201171875,-0.4624786376953125,-0.28619384765625,-0.2448272705078125
1772708678759226000,0.96522607421875,-0.3306732177734375,-0.4547576904296875,-0.0521240234375
1772708678769251000,0.9752509765625,-0.314544677734375,-0.681365966796875,0.2372283935546875
1772708678779277000,0.985277099609375,-0.5178375244140625,-1.007415771484375,0.51336669921875
1772708678789302000,0.995302001953125,-1.0172576904296875,-1.35638427734375,0.7188873291015625
1772708678799327000,1.005326904296875,-1.6562042236328125,-1.6543731689453125,0.676025390625
1772708678809352000,1.01535205078125,-1.8056793212890625,-1.7134857177734375,0.2358856201171875
1772708678819377000,1.025376953125,-1.4563751220703125,-2.05322265625,-0.0638427734375
1772708678829401900,1.03540185546875,-0.940032958984375,-2.455535888671875,-0.2082366943359375
1772708678925893000,1.13189306640625,-1.194976806640625,-1.715728759765625,0.3155059814453125
1772708678935919000,1.141919189453125,-1.159332275390625,-1.354827880859375,-0.134185791015625
1772708678945944000,1.151944091796875,-0.912750244140625,-1.0595550537109375,-0.3584442138671875
1772708678955969000,1.161968994140625,-0.6212005615234375,-0.7916717529296875,-0.34075927734375
1772708678965994200,1.171994140625,-0.465972900390625,-0.56890869140625,-0.1722259521484375
1772708678976019000,1.18201904296875,-0.459503173828125,-0.411346435546875,0.003204345703125
1772708678986044000,1.1920439453125,-0.4449005126953125,-0.2636260986328125,0.0575714111328125
1772708678996068900,1.20206884765625,-0.4235076904296875,-0.2227325439453125,0.022186279296875
1772708679006094000,1.212093994140625,-0.442108154296875,-0.248504638671875,-0.0355682373046875
1772708679016119000,1.222119140625,-0.41455078125,-0.2233123779296875,-0.112396240234375
1772708679026144000,1.23214404296875,-0.317047119140625,-0.2178802490234375,-0.1829833984375
1772708679036170000,1.242169921875,-0.2185516357421875,-0.2674713134765625,-0.20281982421875
1772708679046195000,1.25219482421875,-0.1122283935546875,-0.2494354248046875,-0.2670135498046875
1772708679056220200,1.26222021484375,0.0112457275390625,-0.2001800537109375,-0.308837890625
1772708679066245000,1.2722451171875,0.06268310546875,-0.1951446533203125,-0.2814788818359375
1772708679076270000,1.28227001953125,0.0673370361328125,-0.2064056396484375,-0.220977783203125
1772708679086295000,1.292294921875,0.0115509033203125,-0.24755859375,-0.133056640625
1772708679096320000,1.302320068359375,-0.061370849609375,-0.2868194580078125,-0.014068603515625
1772708679106345000,1.312344970703125,-0.1091156005859375,-0.3470916748046875,0.1226654052734375
1772708679116370000,1.322369873046875,-0.121002197265625,-0.3867950439453125,0.2555084228515625
1772708679126395000,1.332394775390625,-0.147705078125,-0.407257080078125,0.2257232666015625
1772708679136420900,1.3424208984375,-0.16058349609375,-0.3975372314453125,0.0633392333984375
1772708679146446000,1.352446044921875,-0.150787353515625,-0.4322509765625,-0.0936279296875
1772708679156471000,1.362470947265625,-0.1418914794921875,-0.433013916015625,-0.2295074462890625
1772708679166496000,1.37249609375,-0.1192779541015625,-0.36114501953125,-0.3225555419921875
1772708679176521000,1.38252099609375,-0.124755859375,-0.2899627685546875,-0.31219482421875
1772708679186546200,1.392546142578125,-0.1526031494140625,-0.2856903076171875,-0.197723388671875
1772708679196571100,1.402571044921875,-0.200408935546875,-0.28326416015625,-0.08648681640625
1772708679206595800,1.412595947265625,-0.2305755615234375,-0.2266387939453125,-0.0250091552734375
1772708679216620800,1.422620849609375,-0.242706298828125,-0.1737060546875,0.0492706298828125
1772708679226646000,1.43264599609375,-0.2424163818359375,-0.1125030517578125,0.1397552490234375
1772708679236671000,1.4426708984375,-0.2727508544921875,-0.063812255859375,0.1700897216796875
1772708679246697000,1.452697021484375,-0.312835693359375,-0.0557861328125,0.147552490234375
1772708679256722000,1.462721923828125,-0.287628173828125,-0.099090576171875,0.114471435546875
1772708679266747000,1.472746826171875,-0.24359130859375,-0.135284423828125,-0.0077667236328125
1772708679276772000,1.482772216796875,-0.3004913330078125,-0.1661834716796875,-0.185516357421875
1772708679286797000,1.492797119140625,-0.36334228515625,-0.20294189453125,-0.2566070556640625
1772708679296822000,1.502822021484375,-0.5595245361328125,-0.25054931640625,-0.2002410888671875
1772708679306847000,1.512846923828125,-0.610748291015625,-0.3591156005859375,-0.1424102783203125
1772708679316872200,1.5228720703125,-0.543243408203125,-0.4774627685546875,0.1224822998046875
1772708679326897000,1.53289697265625,-0.4477691650390625,-0.523773193359375,0.3047027587890625
1772708679336921900,1.542921875,-0.539306640625,-0.6622314453125,0.4825286865234375
1772708679346947800,1.55294775390625,-0.720672607421875,-0.8653564453125,0.6645660400390625
1772708679356973000,1.56297314453125,-0.8724365234375,-1.0883636474609375,0.71685791015625
1772708679366998000,1.572998046875,-1.037017822265625,-1.37261962890625,0.608612060546875
1772708679377023000,1.58302294921875,-1.1693572998046875,-1.662322998046875,0.3760223388671875
1772708679387048000,1.5930478515625,-1.2461395263671875,-1.8035430908203125,0.12396240234375
1772708679397073200,1.6030732421875,-1.12286376953125,-1.8007354736328125,0.0681915283203125
1772708679407098000,1.61309814453125,-0.9284210205078125,-1.84747314453125,0.3680572509765625
1772708679417123000,1.623123046875,-0.8014068603515625,-2.068511962890625,0.8386993408203125
1772708679427148000,1.63314794921875,-0.737762451171875,-2.196197509765625,1.213653564453125
1772708679507349000,1.713348876953125,-0.2532806396484375,-1.7367401123046875,0.3534698486328125
1772708679517374000,1.7233740234375,-0.384613037109375,-1.362457275390625,0.209625244140625
1772708679527399200,1.733399169921875,-0.4600982666015625,-1.0305633544921875,0.078826904296875
1772708679537425200,1.743425048828125,-0.548095703125,-0.84259033203125,0.0093536376953125
1772708679547450000,1.7534501953125,-0.7434234619140625,-0.7262725830078125,0.0795440673828125
1772708679557475000,1.76347509765625,-0.954132080078125,-0.5679931640625,0.179046630859375
1772708679567500000,1.7735,-1.0769195556640625,-0.383514404296875,0.1678924560546875
1772708679577525000,1.78352490234375,-1.0465087890625,-0.363800048828125,0.0913543701171875
1772708679587549000,1.793548828125,-0.914337158203125,-0.4517364501953125,0.0692901611328125
1772708679597574000,1.803573974609375,-0.79400634765625,-0.433013916015625,0.1051788330078125
1772708679607598800,1.813598876953125,-0.71124267578125,-0.3988494873046875,0.17816162109375
1772708679617623800,1.823623779296875,-0.5395050048828125,-0.44354248046875,0.2232666015625
1772708679627648800,1.833648681640625,-0.2995758056640625,-0.4100189208984375,0.21124267578125
1772708679637674800,1.8436748046875,-0.1511688232421875,-0.2594757080078125,0.1566314697265625
1772708679647699700,1.85369970703125,-0.1658172607421875,-0.1492919921875,0.1527862548828125
1772708679657725000,1.863724853515625,-0.2360992431640625,-0.1298370361328125,0.19830322265625
1772708679667750000,1.87375,-0.24847412109375,-0.130035400390625,0.115264892578125
1772708679677774800,1.88377490234375,-0.222930908203125,-0.1429595947265625,-0.1322174072265625
1772708679687799800,1.8937998046875,-0.2362060546875,-0.197021484375,-0.32269287109375
1772708679697825000,1.903824951171875,-0.248382568359375,-0.2310333251953125,-0.3924102783203125
1772708679707850000,1.91385009765625,-0.2442169189453125,-0.2707977294921875,-0.42987060546875
1772708679717875000,1.923875,-0.2438507080078125,-0.291046142578125,-0.44940185546875
1772708679727900000,1.93389990234375,-0.242218017578125,-0.2789459228515625,-0.4450836181640625
1772708679737926000,1.94392578125,-0.23211669921875,-0.256378173828125,-0.410919189453125
1772708679747950800,1.953950927734375,-0.184112548828125,-0.2269134521484375,-0.34759521484375
1772708679757975800,1.963975830078125,-0.1349639892578125,-0.2093353271484375,-0.28729248046875
1772708679768000800,1.974000732421875,-0.086883544921875,-0.1903076171875,-0.213043212890625
1772708679778026000,1.98402587890625,-0.022552490234375,-0.1708831787109375,-0.1136627197265625
1772708679788051000,1.994051025390625,0.041351318359375,-0.1600341796875,-0.0662994384765625
1772708679798076000,2.004075927734375,0.06396484375,-0.1886749267578125,-0.0604400634765625
1772708679808100900,2.014100830078125,0.063323974609375,-0.2290496826171875,-0.07000732421875
1772708679818126000,2.0241259765625,0.050140380859375,-0.23284912109375,-0.1015777587890625
1772708679828152000,2.034152099609375,0.02813720703125,-0.2075958251953125,-0.1212158203125
1772708679838177000,2.044177001953125,-0.007965087890625,-0.17132568359375,-0.114166259765625
1772708679848202000,2.054201904296875,-0.048095703125,-0.1523895263671875,-0.11798095703125
1772708679858226700,2.064226806640625,-0.0877532958984375,-0.161773681640625,-0.147216796875
1772708679868252000,2.074251953125,-0.1485595703125,-0.1931304931640625,-0.161956787109375
1772708679878276900,2.08427685546875,-0.2686614990234375,-0.2622222900390625,-0.1070098876953125
1772708679888301800,2.0943017578125,-0.3077545166015625,-0.25238037109375,-0.0863037109375
1772708679898326800,2.104326904296875,-0.3753662109375,-0.2017974853515625,-0.15234375
1772708679908352000,2.11435205078125,-0.451324462890625,-0.136016845703125,-0.1706085205078125
1772708679918377000,2.124376953125,-0.6391754150390625,-0.190887451171875,-0.1442718505859375
1772708679928403000,2.13440283203125,-0.9143524169921875,-0.429718017578125,-0.0231170654296875
1772708679938428000,2.144427978515625,-1.110809326171875,-0.65899658203125,0.170867919921875
1772708679948452900,2.154452880859375,-1.2596282958984375,-0.8683013916015625,0.3163909912109375
1772708679958478000,2.16447802734375,-1.3246002197265625,-1.112152099609375,0.4135284423828125
1772708679968503000,2.1745029296875,-1.2751007080078125,-1.4773101806640625,0.44085693359375
1772708679978527700,2.18452783203125,-1.2008056640625,-1.872802734375,0.3512725830078125
1772708679988552700,2.194552734375,-1.1909942626953125,-2.2436065673828125,0.1689910888671875
1772708680108853800,2.314853759765625,-1.890533447265625,-1.0233154296875,-0.08282470703125
1772708680118879700,2.324879638671875,-1.6722564697265625,-0.9213104248046875,-0.211700439453125
1772708680128904700,2.33490478515625,-1.4709014892578125,-0.76812744140625,-0.2176055908203125
1772708680138930000,2.344929931640625,-1.2252960205078125,-0.555023193359375,-0.145233154296875
1772708680148955000,2.354954833984375,-0.931427001953125,-0.3145751953125,-0.006622314453125
1772708680158979800,2.364979736328125,-0.6605377197265625,-0.071258544921875,0.270782470703125
1772708680169004800,2.3750048828125,-0.39581298828125,0.1178741455078125,0.6298828125
1772708680179030000,2.385030029296875,-0.1907501220703125,0.2154388427734375,0.90020751953125
1772708680189055000,2.395054931640625,-0.13397216796875,0.2000274658203125,0.9302520751953125
1772708680199080000,2.405079833984375,-0.0775146484375,0.1107330322265625,0.7169647216796875
1772708680209105000,2.41510498046875,-0.012969970703125,0.0285491943359375,0.382232666015625
1772708680219131000,2.425130859375,-0.056121826171875,-0.0173797607421875,0.058502197265625
1772708680229155800,2.43515576171875,-0.2087860107421875,-0.0659027099609375,-0.1665496826171875
1772708680239180800,2.445180908203125,-0.3051910400390625,-0.142669677734375,-0.25250244140625
1772708680249205800,2.455205810546875,-0.3507232666015625,-0.204254150390625,-0.25482177734375
1772708680259231000,2.46523095703125,-0.354248046875,-0.2263641357421875,-0.2237091064453125
1772708680269256000,2.475255859375,-0.30206298828125,-0.2028656005859375,-0.1820220947265625
1772708680279281000,2.485281005859375,-0.2587127685546875,-0.1594696044921875,-0.1344146728515625
1772708680289305900,2.495305908203125,-0.215972900390625,-0.1279144287109375,-0.0521240234375
1772708680299331000,2.5053310546875,-0.1298370361328125,-0.090362548828125,0.0593719482421875
1772708680309356000,2.51535595703125,-0.04559326171875,-0.10174560546875,0.10369873046875
1772708680319382000,2.525382080078125,0.0102996826171875,-0.163421630859375,0.07305908203125
1772708680329407000,2.535406982421875,0.0472564697265625,-0.2279052734375,0.0150909423828125
1772708680339432000,2.545431884765625,0.0606536865234375,-0.27508544921875,-0.031219482421875
1772708680349457000,2.555456787109375,0.067962646484375,-0.3050384521484375,-0.0461273193359375
1772708680359481900,2.56548193359375,0.0819244384765625,-0.323944091796875,-0.02496337890625
1772708680369506800,2.5755068359375,0.0541839599609375,-0.2755279541015625,0.0575408935546875
1772708680379531800,2.58553173828125,-0.0293426513671875,-0.230621337890625,0.124481201171875
1772708680389557000,2.595556884765625,-0.126495361328125,-0.1834259033203125,0.10272216796875
1772708680399582000,2.60558203125,-0.2110137939453125,-0.1328887939453125,0.0550689697265625
1772708680409607000,2.61560693359375,-0.258941650390625,-0.12860107421875,0.0200042724609375
1772708680419633000,2.6256328125,-0.2608795166015625,-0.1636962890625,-0.019287109375
1772708680429657900,2.635657958984375,-0.2425994873046875,-0.21734619140625,-0.0491790771484375
1772708680439683000,2.64568310546875,-0.2474822998046875,-0.29058837890625,-0.0415802001953125
1772708680449708000,2.6557080078125,-0.28021240234375,-0.388427734375,-0.016845703125
1772708680459732700,2.665732666015625,-0.335205078125,-0.555450439453125,-0.0062255859375
1772708680469757700,2.6757578125,-0.480712890625,-0.687591552734375,-0.04156494140625
1772708680479783000,2.685782958984375,-0.7146148681640625,-0.6354522705078125,-0.124755859375
1772708680489808000,2.695807861328125,-1.092864990234375,-0.6231536865234375,-0.101959228515625
1772708680499832800,2.705832763671875,-1.4268798828125,-0.7159271240234375,-0.0691070556640625
1772708680509857800,2.71585791015625,-1.4336090087890625,-0.8230438232421875,-0.115966796875
1772708680519883800,2.7258837890625,-1.156036376953125,-1.0819854736328125,-0.120880126953125
1772708680529909000,2.735908935546875,-0.769378662109375,-1.406646728515625,-0.11456298828125
1772708680539934000,2.745933837890625,-0.5210723876953125,-1.748291015625,-0.178619384765625
1772708680549959000,2.755958984375,-0.4562225341796875,-2.002777099609375,-0.315185546875
1772708680559983900,2.76598388671875,-0.3187103271484375,-2.1180419921875,-0.369720458984375
1772708680660235000,2.866235107421875,-0.0061187744140625,-1.90057373046875,0.084503173828125
1772708680670260000,2.876260009765625,-0.1057891845703125,-1.5985565185546875,-0.0264739990234375
1772708680680285000,2.886284912109375,-0.1638946533203125,-1.3249969482421875,-0.1200714111328125
1772708680690310000,2.896309814453125,-0.130706787109375,-1.0874176025390625,-0.1044158935546875
1772708680700335000,2.906335205078125,-0.1194000244140625,-0.90289306640625,-0.05291748046875
1772708680710360000,2.916360107421875,-0.1936187744140625,-0.71954345703125,-0.1187744140625
1772708680720386000,2.926385986328125,-0.2886962890625,-0.6475982666015625,-0.25897216796875
1772708680730411000,2.936410888671875,-0.3283843994140625,-0.6072235107421875,-0.4474334716796875
1772708680740436000,2.94643603515625,-0.3724212646484375,-0.52178955078125,-0.5303802490234375
1772708680750461200,2.956461181640625,-0.4342498779296875,-0.4035491943359375,-0.429962158203125
1772708680760486100,2.966486083984375,-0.4414825439453125,-0.2700042724609375,-0.2644805908203125
1772708680770510800,2.9765107421875,-0.3497314453125,-0.171630859375,-0.196441650390625
1772708680780536000,2.9865361328125,-0.2071075439453125,-0.15521240234375,-0.166656494140625
1772708680790561000,2.99656103515625,-0.0800933837890625,-0.199249267578125,-0.103179931640625
1772708680800586000,3.0065859375,-0.0577239990234375,-0.2591094970703125,-0.0138397216796875
1772708680810611000,3.01661083984375,-0.0204315185546875,-0.279937744140625,0.078643798828125
1772708680820637000,3.026636962890625,0.00836181640625,-0.2890625,0.1270599365234375
1772708680830662000,3.036661865234375,0.00250244140625,-0.3088836669921875,0.0857696533203125
1772708680840687000,3.04668701171875,-0.03369140625,-0.3317413330078125,-0.01434326171875
1772708680850712000,3.056712158203125,-0.10003662109375,-0.34417724609375,-0.0991668701171875
1772708680860737000,3.066737060546875,-0.1847381591796875,-0.3513031005859375,-0.138702392578125
1772708680870762000,3.076761962890625,-0.2187347412109375,-0.384429931640625,-0.1358184814453125
1772708680880787000,3.086786865234375,-0.161041259765625,-0.4027099609375,-0.118896484375
1772708680890812000,3.09681201171875,-0.0726776123046875,-0.4153289794921875,-0.104583740234375
1772708680900836900,3.1068369140625,0.012969970703125,-0.444671630859375,-0.0848236083984375
1772708680910862000,3.116862060546875,0.1016998291015625,-0.4911041259765625,-0.048736572265625
1772708680920888000,3.12688818359375,0.18231201171875,-0.5150604248046875,0.028411865234375
1772708680930913000,3.1369130859375,0.2356109619140625,-0.5122528076171875,0.1127777099609375
1772708680940938000,3.14693798828125,0.2339019775390625,-0.4689178466796875,0.0914764404296875
1772708680950963000,3.156962890625,0.1253509521484375,-0.4154815673828125,-0.014190673828125
1772708680960988200,3.16698828125,-0.1031494140625,-0.404083251953125,-0.0913238525390625
1772708680971013000,3.17701318359375,-0.329559326171875,-0.396209716796875,-0.15643310546875
1772708680981038000,3.1870380859375,-0.4484405517578125,-0.36090087890625,-0.2047882080078125
1772708680991063000,3.19706298828125,-0.468048095703125,-0.35479736328125,-0.2439727783203125
1772708681001088000,3.207087890625,-0.423248291015625,-0.382720947265625,-0.249359130859375
1772708681011113000,3.217113037109375,-0.359344482421875,-0.3907012939453125,-0.21099853515625
1772708681021139000,3.227138916015625,-0.3087005615234375,-0.3829803466796875,-0.162994384765625
1772708681031164000,3.237163818359375,-0.2716064453125,-0.3433990478515625,-0.0839996337890625
1772708681041188900,3.24718896484375,-0.31048583984375,-0.25506591796875,0.0643463134765625
1772708681051214000,3.257214111328125,-0.490814208984375,-0.2066650390625,0.138885498046875
1772708681061239000,3.267239013671875,-0.761871337890625,-0.247314453125,0.14984130859375
1772708681071264000,3.277263916015625,-0.9945831298828125,-0.3369140625,0.2177581787109375
1772708681081289000,3.2872890625,-1.14019775390625,-0.47314453125,0.330352783203125
1772708681091314200,3.297314208984375,-1.2767333984375,-0.7602386474609375,0.42474365234375
1772708681101339100,3.307339111328125,-1.4553070068359375,-1.0806884765625,0.2911529541015625
1772708681111364000,3.317364013671875,-1.688507080078125,-1.4510040283203125,0.0405426025390625
1772708681121388800,3.327388916015625,-1.455230712890625,-1.93896484375,-0.236114501953125
1772708681131415000,3.3374150390625,-0.7484283447265625,-2.3242645263671875,-0.3820343017578125
1772708681241691100,3.447691162109375,-0.8125762939453125,-1.823394775390625,-0.120086669921875
1772708681251715800,3.4577158203125,-0.7487945556640625,-1.635467529296875,-0.3250885009765625
1772708681261740800,3.46774072265625,-0.49530029296875,-1.4369964599609375,-0.3678741455078125
1772708681271766000,3.47776611328125,-0.3289794921875,-1.32293701171875,-0.3236846923828125
1772708681281791000,3.487791015625,-0.10833740234375,-1.1926727294921875,-0.223480224609375
1772708681291816000,3.49781591796875,0.158935546875,-0.96240234375,-0.1282196044921875
1772708681301841000,3.5078408203125,0.16748046875,-0.828094482421875,-0.070465087890625
1772708681311866000,3.5178662109375,0.1531524658203125,-0.6824798583984375,-0.0008087158203125
1772708681321891000,3.52789111328125,0.132659912109375,-0.49517822265625,0.01495361328125
1772708681331917000,3.5379169921875,-0.0748748779296875,-0.455291748046875,-0.0006103515625
1772708681341942000,3.54794189453125,-0.312255859375,-0.4441680908203125,-0.0338134765625
1772708681351967000,3.557967041015625,-0.472564697265625,-0.3545379638671875,-0.073333740234375
1772708681361992200,3.5679921875,-0.5255584716796875,-0.30255126953125,-0.0885467529296875
1772708681372017000,3.578016845703125,-0.46173095703125,-0.280609130859375,-0.0741424560546875
1772708681382041900,3.588041748046875,-0.3438720703125,-0.2701568603515625,-0.0389862060546875
1772708681392067000,3.598067138671875,-0.19940185546875,-0.27117919921875,-0.0256195068359375
1772708681402092000,3.608092041015625,-0.0279998779296875,-0.2804107666015625,-0.0280914306640625
1772708681412117000,3.618116943359375,0.0832977294921875,-0.312957763671875,-0.1156158447265625
1772708681422142000,3.628141845703125,0.0373992919921875,-0.3488006591796875,-0.207672119140625
1772708681432167200,3.638167236328125,-0.0259246826171875,-0.345367431640625,-0.2081756591796875
1772708681442193200,3.648193115234375,-0.0355224609375,-0.32122802734375,-0.1730499267578125
1772708681452218000,3.658218017578125,-0.064208984375,-0.3050384521484375,-0.1253204345703125
1772708681462243000,3.6682431640625,-0.133514404296875,-0.2800445556640625,-0.1042938232421875
1772708681472268000,3.67826806640625,-0.20135498046875,-0.2300262451171875,-0.1224212646484375
1772708681482293200,3.688293212890625,-0.2474517822265625,-0.2032318115234375,-0.184173583984375
1772708681492318000,3.69831787109375,-0.29705810546875,-0.2080230712890625,-0.274688720703125
1772708681502343000,3.708343017578125,-0.33990478515625,-0.2086944580078125,-0.3065643310546875
1772708681512367900,3.718367919921875,-0.301177978515625,-0.1920318603515625,-0.294647216796875
1772708681522393000,3.72839306640625,-0.230987548828125,-0.20709228515625,-0.277130126953125
1772708681532418000,3.73841796875,-0.1995697021484375,-0.208953857421875,-0.248260498046875
1772708681542444000,3.748444091796875,-0.1861572265625,-0.2037353515625,-0.243408203125
1772708681552469000,3.758468994140625,-0.2011260986328125,-0.19610595703125,-0.2357177734375
1772708681562494000,3.768493896484375,-0.311370849609375,-0.1569976806640625,-0.22796630859375
1772708681572519200,3.778519287109375,-0.4240570068359375,-0.1138916015625,-0.1991119384765625
1772708681582544100,3.788544189453125,-0.4832000732421875,-0.1175537109375,-0.18701171875
1772708681592569000,3.798569091796875,-0.506378173828125,-0.1620330810546875,-0.1837615966796875
1772708681602593800,3.80859375,-0.4751434326171875,-0.2196044921875,-0.1266326904296875
1772708681612619000,3.818618896484375,-0.427825927734375,-0.327362060546875,-0.0980224609375
1772708681622644000,3.82864404296875,-0.4284820556640625,-0.412628173828125,-0.0935821533203125
1772708681632669000,3.8386689453125,-0.3982086181640625,-0.4896087646484375,-0.034423828125
1772708681642694000,3.84869384765625,-0.4950103759765625,-0.67376708984375,0.0565948486328125
1772708681652719900,3.858719970703125,-0.6344451904296875,-0.8762664794921875,0.046142578125
1772708681662745000,3.8687451171875,-0.694854736328125,-1.0156402587890625,0.0577850341796875
1772708681672770000,3.87877001953125,-0.8111724853515625,-1.254608154296875,0.174835205078125
1772708681682795000,3.888794921875,-0.9590606689453125,-1.4084014892578125,0.3838348388671875
1772708681692820000,3.898820068359375,-0.9527130126953125,-1.4820404052734375,0.5792694091796875
1772708681702845200,3.90884521484375,-0.742584228515625,-1.7600555419921875,0.6285858154296875
1772708681712870100,3.9188701171875,-0.47137451171875,-2.083099365234375,0.4029541015625
1772708681722894800,3.928894775390625,-0.4853363037109375,-2.4248199462890625,0.1392669677734375
1772708681793071000,3.999071044921875,-0.4288482666015625,-1.8783721923828125,0.5941162109375
1772708681803096000,4.009095947265625,-0.5855560302734375,-1.4574737548828125,0.5753631591796875
1772708681813121000,4.01912109375,-0.872802734375,-1.071319580078125,0.331695556640625
1772708681823146000,4.02914599609375,-1.2064971923828125,-0.8138580322265625,0.0379180908203125
1772708681833171200,4.039171142578125,-1.31878662109375,-0.6297149658203125,-0.216583251953125
1772708681843196000,4.04919580078125,-1.5447540283203125,-0.8209991455078125,-0.4145355224609375
1772708681853220900,4.059220947265625,-1.9012908935546875,-1.0563507080078125,-0.6728363037109375
1772708681863246800,4.069246826171875,-2.031768798828125,-1.0343780517578125,-0.9650726318359375
1772708681877031200,4.08303125,-1.856048583984375,-0.8675537109375,-1.044525146484375
1772708681887056100,4.09305615234375,-1.53826904296875,-0.7516326904296875,-0.8376312255859375
1772708681897080800,4.103080810546875,-1.1363983154296875,-0.5963134765625,-0.5625
1772708681907106000,4.11310595703125,-0.7545623779296875,-0.39654541015625,-0.2825469970703125
1772708681917131800,4.1231318359375,-0.4185943603515625,-0.19622802734375,-0.043365478515625
1772708681927157000,4.133156982421875,-0.1599273681640625,-0.0888671875,0.1082763671875
1772708681937182000,4.143181884765625,0.0225677490234375,-0.0459442138671875,0.22222900390625
1772708681947207000,4.15320703125,0.114715576171875,-0.0351104736328125,0.209747314453125
1772708681957231900,4.16323193359375,0.1326904296875,0.017547607421875,0.229522705078125
1772708681967257000,4.173257080078125,0.0947418212890625,-0.0098114013671875,0.3001556396484375
1772708681977282000,4.183281982421875,0.047760009765625,-0.0729827880859375,0.347900390625
1772708681987307000,4.19330712890625,-0.0177154541015625,-0.145782470703125,0.3778076171875
1772708681997332200,4.203332275390625,-0.1401214599609375,-0.2392120361328125,0.29364013671875
1772708682007357200,4.213357177734375,-0.218170166015625,-0.263336181640625,0.0970916748046875
1772708682017382000,4.2233818359375,-0.3585662841796875,-0.219390869140625,-0.06268310546875
1772708682027408100,4.233408203125,-0.4822998046875,-0.1761474609375,-0.1771087646484375
1772708682037432800,4.243432861328125,-0.5694732666015625,-0.113922119140625,-0.253814697265625
1772708682047458000,4.2534580078125,-0.5935516357421875,-0.0558929443359375,-0.2730560302734375
1772708682057483000,4.26348291015625,-0.536895751953125,-0.038787841796875,-0.2244415283203125
1772708682067508000,4.273508056640625,-0.4832763671875,-0.07073974609375,-0.1363677978515625
1772708682077533000,4.283532958984375,-0.4438018798828125,-0.088836669921875,-0.0947723388671875
1772708682087558100,4.29355810546875,-0.3784332275390625,-0.0760955810546875,-0.0720977783203125
1772708682097583000,4.3035830078125,-0.28955078125,-0.0550994873046875,-0.0357666015625
1772708682107608000,4.313608154296875,-0.1830902099609375,-0.0372314453125,0.020904541015625
1772708682117633000,4.323633056640625,-0.0762481689453125,-0.0357818603515625,0.073822021484375
1772708682127658200,4.333658203125,0.0069732666015625,-0.0337982177734375,0.0995635986328125
1772708682137684200,4.343684326171875,0.0603179931640625,-0.022247314453125,0.1219024658203125
1772708682147709000,4.353708984375,0.0760040283203125,-0.0192718505859375,0.1551055908203125
1772708682157734000,4.36373388671875,0.063690185546875,-0.05059814453125,0.1762847900390625
1772708682167758800,4.3737587890625,0.057891845703125,-0.1348876953125,0.1683349609375
1772708682177784000,4.3837841796875,0.038848876953125,-0.2169036865234375,0.1721954345703125
1772708682187809000,4.39380908203125,-0.0440673828125,-0.2852020263671875,0.2305450439453125
1772708682197834000,4.403833984375,-0.1486663818359375,-0.3927764892578125,0.3136444091796875
1772708682207859000,4.41385888671875,-0.209808349609375,-0.547271728515625,0.393707275390625
1772708682217884200,4.42388427734375,-0.2342376708984375,-0.6622161865234375,0.5020904541015625
1772708682227909000,4.4339091796875,-0.224273681640625,-0.84466552734375,0.6064605712890625
1772708682237934000,4.44393408203125,-0.194305419921875,-1.1417388916015625,0.6167144775390625
1772708682247960000,4.4539599609375,-0.122833251953125,-1.3603057861328125,0.53759765625
1772708682257985000,4.463985107421875,-0.0485382080078125,-1.473388671875,0.33642578125
1772708682268010000,4.474010009765625,0.0285797119140625,-1.552032470703125,0.193878173828125
1772708682278035000,4.484034912109375,0.160614013671875,-1.762481689453125,0.1571807861328125
1772708682288060000,4.494059814453125,0.2285308837890625,-2.0833282470703125,0.145416259765625
1772708682298084900,4.5040849609375,0.107879638671875,-2.2013397216796875,0.1905975341796875
1772708682374526000,4.58052587890625,-0.263580322265625,-1.87884521484375,0.07073974609375
1772708682384551200,4.59055126953125,-0.31683349609375,-1.734771728515625,-0.2209320068359375
1772708682394576100,4.600576171875,-0.3846893310546875,-1.5345611572265625,-0.4991302490234375
1772708682404601000,4.61060107421875,-0.4697418212890625,-1.2922515869140625,-0.64434814453125
1772708682414627000,4.620626953125,-0.519622802734375,-1.119354248046875,-0.5431060791015625
1772708682424652000,4.630652099609375,-0.682220458984375,-1.0301666259765625,-0.406829833984375
1772708682434677200,4.64067724609375,-0.936981201171875,-0.8056640625,-0.407318115234375
1772708682444702000,4.650701904296875,-1.1144866943359375,-0.5273590087890625,-0.3710479736328125
1772708682454727000,4.660726806640625,-1.1520843505859375,-0.41412353515625,-0.2442626953125
1772708682464751900,4.670751953125,-1.1303253173828125,-0.4308929443359375,-0.114288330078125
1772708682474777000,4.680777099609375,-1.064544677734375,-0.3885650634765625,-0.02410888671875
1772708682484802000,4.690802001953125,-0.9196624755859375,-0.3368988037109375,0.06280517578125
1772708682494827000,4.700826904296875,-0.7586212158203125,-0.343536376953125,0.1387481689453125
1772708682504852000,4.71085205078125,-0.5374298095703125,-0.367767333984375,0.110931396484375
1772708682514877200,4.720877197265625,-0.2940216064453125,-0.4605560302734375,0.0128936767578125
1772708682524903200,4.730903076171875,-0.1248016357421875,-0.5693206787109375,-0.102020263671875
1772708682534928100,4.74092822265625,-0.050506591796875,-0.5973052978515625,-0.16888427734375
1772708682544953000,4.750953125,-0.0475921630859375,-0.571563720703125,-0.1876220703125
1772708682554977800,4.760977783203125,-0.154052734375,-0.5298004150390625,-0.1934661865234375
1772708682565003000,4.7710029296875,-0.322509765625,-0.50225830078125,-0.1988372802734375
1772708682575028000,4.781028076171875,-0.4555206298828125,-0.488861083984375,-0.1705322265625
1772708682585052400,4.791052490234375,-0.5230865478515625,-0.487457275390625,-0.1332550048828125
1772708682595077400,4.801077392578125,-0.524169921875,-0.483154296875,-0.126068115234375
1772708682605102300,4.811102294921875,-0.448822021484375,-0.4622344970703125,-0.145538330078125
1772708682615127300,4.821127197265625,-0.3563690185546875,-0.472442626953125,-0.1769561767578125
1772708682625152300,4.83115234375,-0.2988433837890625,-0.4883270263671875,-0.215789794921875
1772708682635178200,4.84117822265625,-0.265411376953125,-0.464111328125,-0.258056640625
1772708682645203500,4.851203369140625,-0.2280120849609375,-0.417572021484375,-0.2939605712890625
1772708682655228400,4.861228515625,-0.195587158203125,-0.36968994140625,-0.308074951171875
1772708682665253400,4.87125341796875,-0.1784820556640625,-0.332977294921875,-0.2984771728515625
1772708682675278300,4.8812783203125,-0.1483917236328125,-0.306427001953125,-0.26055908203125
1772708682685303600,4.891303466796875,-0.1087493896484375,-0.2982940673828125,-0.1872406005859375
1772708682695328500,4.90132861328125,-0.0874786376953125,-0.3018798828125,-0.0853118896484375
1772708682705353500,4.911353515625,-0.1244964599609375,-0.286529541015625,-0.006317138671875
1772708682715378200,4.921378173828125,-0.20941162109375,-0.2718353271484375,0.0239715576171875
1772708682725403400,4.9314033203125,-0.2819061279296875,-0.2745513916015625,-0.0010223388671875
1772708682735428400,4.941428466796875,-0.338897705078125,-0.3134765625,-0.0537109375
1772708682745454300,4.951454345703125,-0.4024200439453125,-0.4029541015625,-0.062652587890625
1772708682755479300,4.961479248046875,-0.4743499755859375,-0.4862823486328125,-0.0326385498046875
1772708682765504300,4.971504150390625,-0.53369140625,-0.52490234375,-0.0058135986328125
1772708682775529500,4.981529541015625,-0.5508270263671875,-0.5342254638671875,-0.0055999755859375
1772708682785554400,4.991554443359375,-0.5896453857421875,-0.5827484130859375,-0.022674560546875
1772708682795579400,5.001579345703125,-0.715362548828125,-0.66864013671875,-0.0170440673828125
1772708682805604400,5.011604248046875,-0.933258056640625,-0.746734619140625,0.0467376708984375
1772708682815629600,5.021629638671875,-1.22589111328125,-0.834442138671875,0.1827850341796875
1772708682825654300,5.031654296875,-1.4619293212890625,-0.9532623291015625,0.282257080078125
1772708682835679200,5.04167919921875,-1.50494384765625,-1.036041259765625,0.2281036376953125
1772708682845704200,5.0517041015625,-1.317138671875,-1.0969390869140625,0.053985595703125
1772708682855729400,5.0617294921875,-1.0159149169921875,-1.3119354248046875,-0.1567840576171875
1772708682865755400,5.07175537109375,-0.828399658203125,-1.82232666015625,-0.153106689453125
1772708682875780400,5.0817802734375,-0.6955718994140625,-2.199371337890625,0.0247039794921875
1772708682889564200,5.095564208984375,-0.68408203125,-1.9304351806640625,0.2961883544921875
1772708682899589400,5.10558935546875,-0.8171844482421875,-1.6328277587890625,0.3600921630859375
1772708682909615400,5.115615478515625,-0.8525390625,-1.6156768798828125,0.3585968017578125
1772708682919640300,5.125640380859375,-0.7935943603515625,-1.789306640625,0.47216796875
1772708682929665300,5.135665283203125,-0.8636322021484375,-1.8867340087890625,0.4109039306640625
1772708682939690200,5.145690185546875,-0.9742584228515625,-1.81915283203125,-0.00927734375
1772708682949715500,5.155715576171875,-0.9474334716796875,-1.7389373779296875,-0.4255523681640625
1772708682959740400,5.165740478515625,-0.8022003173828125,-1.7681427001953125,-0.7934112548828125
1772708682969765400,5.175765380859375,-0.5779876708984375,-1.710479736328125,-0.9471435546875
1772708682979790300,5.185790283203125,-0.40704345703125,-1.54327392578125,-0.8194122314453125
1772708682989815600,5.195815673828125,-0.3765716552734375,-1.267120361328125,-0.537994384765625
1772708682999840500,5.205840576171875,-0.39788818359375,-0.9461212158203125,-0.1630859375
1772708683009865200,5.215865234375,-0.4729156494140625,-0.789154052734375,0.1346435546875
1772708683019890400,5.225890380859375,-0.63104248046875,-0.7388153076171875,0.18353271484375
1772708683029916200,5.235916259765625,-0.819183349609375,-0.677490234375,0.0857391357421875
1772708683039941400,5.24594140625,-0.9504547119140625,-0.6365814208984375,-0.040252685546875
1772708683049966300,5.25596630859375,-0.98321533203125,-0.6084136962890625,-0.1713714599609375
1772708683059991300,5.2659912109375,-0.9738616943359375,-0.5784759521484375,-0.22564697265625
1772708683070016500,5.2760166015625,-0.9324798583984375,-0.54583740234375,-0.2679290771484375
1772708683080041500,5.28604150390625,-0.8558502197265625,-0.481781005859375,-0.2984466552734375
1772708683090066400,5.29606640625,-0.7128448486328125,-0.4302825927734375,-0.27447509765625
1772708683100091400,5.30609130859375,-0.5325927734375,-0.4325714111328125,-0.1681365966796875
1772708683110116600,5.31611669921875,-0.3603057861328125,-0.4511871337890625,-0.01434326171875
1772708683120767200,5.326767333984375,-0.18853759765625,-0.4514923095703125,0.1374969482421875
1772708683130792400,5.33679248046875,-0.055450439453125,-0.4320831298828125,0.2574462890625
1772708683140817400,5.3468173828125,-0.069488525390625,-0.432861328125,0.3089447021484375
1772708683150842400,5.35684228515625,-0.3004302978515625,-0.3665618896484375,0.2982940673828125
1772708683160867300,5.366867431640625,-0.5845947265625,-0.2778167724609375,0.2322540283203125
1772708683170892500,5.376892578125,-0.772308349609375,-0.205535888671875,0.118499755859375
1772708683180917500,5.38691748046875,-0.8404998779296875,-0.1775665283203125,0.0157318115234375
1772708683190943500,5.396943603515625,-0.8247528076171875,-0.21087646484375,-0.04656982421875
1772708683200968400,5.406968505859375,-0.744476318359375,-0.242523193359375,-0.066375732421875
1772708683210993400,5.416993408203125,-0.626678466796875,-0.263336181640625,-0.077392578125
1772708683221018400,5.427018310546875,-0.5279541015625,-0.2699127197265625,-0.1031494140625
1772708683231043300,5.437043212890625,-0.4365234375,-0.2572021484375,-0.12115478515625
1772708683241068300,5.447068359375,-0.335296630859375,-0.2458648681640625,-0.129150390625
1772708683251093500,5.457093505859375,-0.246917724609375,-0.247314453125,-0.1359100341796875
1772708683261118500,5.467118408203125,-0.19781494140625,-0.2482757568359375,-0.1187896728515625
1772708683271143400,5.477143310546875,-0.193878173828125,-0.2283935546875,-0.0745849609375
1772708683281168400,5.48716845703125,-0.2208251953125,-0.203033447265625,-0.03900146484375
1772708683291193600,5.497193603515625,-0.2616729736328125,-0.1775360107421875,-0.03704833984375
1772708683301218300,5.50721826171875,-0.301513671875,-0.14813232421875,-0.0609893798828125
1772708683311244500,5.51724462890625,-0.3078460693359375,-0.1219024658203125,-0.088623046875
1772708683321269200,5.527269287109375,-0.3167266845703125,-0.1251983642578125,-0.12530517578125
1772708683331294200,5.537294189453125,-0.3291015625,-0.1285858154296875,-0.1633758544921875
1772708683341319400,5.5473193359375,-0.292022705078125,-0.1046295166015625,-0.1668701171875
1772708683351344400,5.557344482421875,-0.25152587890625,-0.100677490234375,-0.122955322265625
1772708683361369300,5.567369384765625,-0.214141845703125,-0.162872314453125,-0.0779571533203125
1772708683371394300,5.577394287109375,-0.1915130615234375,-0.22052001953125,-0.0622100830078125
1772708683381419500,5.58741943359375,-0.2211761474609375,-0.266204833984375,-0.0095367431640625
1772708683391444500,5.597444580078125,-0.3135833740234375,-0.40374755859375,0.14031982421875
1772708683401469400,5.607469482421875,-0.485748291015625,-0.73077392578125,0.331878662109375
1772708683411494400,5.617494384765625,-0.7142181396484375,-1.1792755126953125,0.4791412353515625
1772708683421519400,5.627519287109375,-1.0147857666015625,-1.60406494140625,0.49200439453125
1772708683432172300,5.63817236328125,-1.0993804931640625,-1.7785186767578125,0.20819091796875
1772708683442197200,5.648197265625,-0.9755706787109375,-1.88629150390625,-0.1699981689453125
1772708683452222500,5.658222412109375,-1.0249481201171875,-2.2423858642578125,-0.4326324462890625
1772708683512373500,5.71837353515625,-1.1834259033203125,-1.858184814453125,0.2609100341796875
1772708683522398500,5.7283984375,-1.530548095703125,-1.693115234375,0.206756591796875
1772708683532423400,5.73842333984375,-1.8262176513671875,-1.3514556884765625,0.036346435546875
1772708683542448400,5.748448486328125,-1.836273193359375,-1.09857177734375,-0.1771240234375
1772708683552473300,5.758473388671875,-1.614959716796875,-0.9861602783203125,-0.3649444580078125
1772708683562498300,5.768498291015625,-1.21649169921875,-0.8596343994140625,-0.420379638671875
1772708683572523300,5.778523193359375,-0.79144287109375,-0.7748260498046875,-0.2916717529296875
1772708683582548500,5.788548583984375,-0.55267333984375,-0.6418609619140625,-0.0788421630859375
1772708683592573700,5.79857373046875,-0.5162811279296875,-0.477142333984375,0.0846405029296875
1772708683602598700,5.8085986328125,-0.581878662109375,-0.37115478515625,0.18359375
1772708683612623600,5.81862353515625,-0.6667938232421875,-0.306793212890625,0.284912109375
1772708683622649600,5.828649658203125,-0.8327789306640625,-0.3248443603515625,0.3228302001953125
1772708683632674800,5.8386748046875,-0.968475341796875,-0.3205718994140625,0.2678985595703125
1772708683642699800,5.84869970703125,-0.9269866943359375,-0.28729248046875,0.1388397216796875
1772708683652724700,5.858724853515625,-0.736419677734375,-0.349884033203125,-0.08746337890625
1772708683662749700,5.868749755859375,-0.5011749267578125,-0.4463958740234375,-0.319427490234375
1772708683672775000,5.87877490234375,-0.2994232177734375,-0.4878082275390625,-0.4779052734375
1772708683682799900,5.8887998046875,-0.2000274658203125,-0.5024566650390625,-0.5226593017578125
1772708683692824800,5.898824951171875,-0.259857177734375,-0.467742919921875,-0.4517364501953125
1772708683702849800,5.908849853515625,-0.39727783203125,-0.3513336181640625,-0.298919677734375
1772708683712874800,5.918874755859375,-0.5164642333984375,-0.2527923583984375,-0.128692626953125
1772708683722901000,5.92890087890625,-0.644073486328125,-0.2314910888671875,-0.0354461669921875
1772708683732925700,5.93892578125,-0.7674560546875,-0.2043914794921875,-0.0188446044921875
1772708683742950700,5.94895068359375,-0.8105010986328125,-0.1579742431640625,-0.0791015625
1772708683752975600,5.9589755859375,-0.7800140380859375,-0.1403350830078125,-0.197479248046875
1772708683763000800,5.969000732421875,-0.693878173828125,-0.1779022216796875,-0.341217041015625
1772708683773025800,5.97902587890625,-0.578338623046875,-0.20123291015625,-0.39324951171875
1772708683783050800,5.98905078125,-0.4871978759765625,-0.18829345703125,-0.329132080078125
1772708683793075700,5.99907568359375,-0.4406280517578125,-0.1437835693359375,-0.22271728515625
1772708683803101000,6.009100830078125,-0.3997955322265625,-0.0988006591796875,-0.112762451171875
1772708683813126000,6.0191259765625,-0.343170166015625,-0.09014892578125,-0.0277252197265625
1772708683823150800,6.02915087890625,-0.27789306640625,-0.1009368896484375,0.017608642578125
1772708683833175600,6.039175537109375,-0.2200927734375,-0.1050262451171875,0.035400390625
1772708683843201800,6.049201904296875,-0.1857452392578125,-0.115936279296875,0.050048828125
1772708683853226800,6.059226806640625,-0.1692047119140625,-0.1353302001953125,0.039825439453125
1772708683863251700,6.069251708984375,-0.1674346923828125,-0.1519927978515625,0.00531005859375
1772708683873276700,6.079276611328125,-0.1978302001953125,-0.187103271484375,-0.0603790283203125
1772708683883301600,6.089301513671875,-0.245697021484375,-0.1948394775390625,-0.1223602294921875
1772708683893326800,6.099326904296875,-0.2717132568359375,-0.1842193603515625,-0.1697998046875
1772708683903351800,6.109351806640625,-0.2593231201171875,-0.180511474609375,-0.194732666015625
1772708683913376800,6.119376708984375,-0.2392730712890625,-0.1566162109375,-0.190582275390625
1772708683923401700,6.129401611328125,-0.2486419677734375,-0.1244659423828125,-0.074798583984375
1772708683933427000,6.139427001953125,-0.2869415283203125,-0.1535186767578125,0.0986328125
1772708683943451600,6.14945166015625,-0.300689697265625,-0.2488555908203125,0.2368316650390625
1772708683953478000,6.159477783203125,-0.2959747314453125,-0.427490234375,0.2877197265625
1772708683963502600,6.169502685546875,-0.298797607421875,-0.66961669921875,0.222076416015625
1772708683973527600,6.179527587890625,-0.4083709716796875,-0.9351654052734375,0.134063720703125
1772708683983552800,6.189552734375,-0.6247406005859375,-1.3121490478515625,0.196319580078125
1772708683993577700,6.19957763671875,-0.7496185302734375,-1.7845458984375,0.359527587890625
1772708684003602700,6.209602783203125,-0.518707275390625,-2.0977935791015625,0.2845306396484375
1772708684013627600,6.219627685546875,-0.2099151611328125,-2.259918212890625,-0.021636962890625
1772708684113878800,6.319878662109375,-0.48345947265625,-1.937957763671875,-0.0771636962890625
1772708684123903700,6.32990380859375,-0.359710693359375,-1.5801544189453125,-0.201904296875
1772708684133928700,6.3399287109375,-0.30126953125,-1.18585205078125,-0.0790557861328125
1772708684143954000,6.349953857421875,-0.4021759033203125,-0.8057403564453125,0.1866607666015625
1772708684153979000,6.359978759765625,-0.5839996337890625,-0.550872802734375,0.4349212646484375
1772708684164003800,6.37000390625,-0.8480377197265625,-0.5165863037109375,0.364837646484375
1772708684174029800,6.38002978515625,-1.0522308349609375,-0.498291015625,-0.038818359375
1772708684184054800,6.3900546875,-1.0896148681640625,-0.4868316650390625,-0.4410247802734375
1772708684194080000,6.400080078125,-0.99249267578125,-0.543060302734375,-0.7294464111328125
1772708684204104700,6.410104736328125,-0.7776947021484375,-0.560760498046875,-0.780914306640625
1772708684214129700,6.420129638671875,-0.5182342529296875,-0.58013916015625,-0.6561279296875
1772708684224154600,6.430154541015625,-0.2965850830078125,-0.5808258056640625,-0.457672119140625
1772708684234179800,6.440179931640625,-0.0890350341796875,-0.496124267578125,-0.26666259765625
1772708684244204800,6.450204833984375,0.0706634521484375,-0.4037628173828125,-0.111114501953125
1772708684254229800,6.460229736328125,0.158477783203125,-0.3234405517578125,0.0018310546875
1772708684264254700,6.470254638671875,0.194122314453125,-0.21380615234375,0.07196044921875
1772708684274280000,6.480280029296875,0.105682373046875,-0.1305694580078125,0.127685546875
1772708684284306000,6.490305908203125,-0.2592010498046875,-0.1441650390625,0.2300567626953125
1772708684294331000,6.500330810546875,-0.6254730224609375,-0.17523193359375,0.231475830078125
1772708684304355800,6.51035595703125,-0.818145751953125,-0.0650177001953125,0.0876007080078125
1772708684314380500,6.520380615234375,-0.860687255859375,-0.077056884765625,0.0132293701171875
1772708684324405800,6.53040576171875,-0.7162017822265625,-0.1390838623046875,-0.0349273681640625
1772708684334430700,6.5404306640625,-0.5139923095703125,-0.1553497314453125,-0.04638671875
1772708684344455700,6.55045556640625,-0.3164825439453125,-0.14910888671875,-0.04632568359375
1772708684354480600,6.560480712890625,-0.1789703369140625,-0.172149658203125,-0.021636962890625
1772708684364505900,6.570505859375,-0.1243438720703125,-0.2108001708984375,-0.014404296875
1772708684374530800,6.58053076171875,-0.147186279296875,-0.21697998046875,-0.000152587890625
1772708684384555800,6.5905556640625,-0.2372589111328125,-0.2057647705078125,0.0082855224609375
1772708684394581800,6.600581787109375,-0.3503875732421875,-0.1890106201171875,-0.0029296875
1772708684404606700,6.610606689453125,-0.4396209716796875,-0.16033935546875,-0.0078582763671875
1772708684414632000,6.6206318359375,-0.4858551025390625,-0.124420166015625,0.0007476806640625
1772708684424657000,6.630656982421875,-0.48382568359375,-0.1042633056640625,0.003814697265625
1772708684434681600,6.640681640625,-0.4413299560546875,-0.1212005615234375,-0.0176849365234375
1772708684444706600,6.65070654296875,-0.3863983154296875,-0.14300537109375,-0.0371856689453125
1772708684454731800,6.660731689453125,-0.33642578125,-0.1504058837890625,-0.0176239013671875
1772708684464756700,6.6707568359375,-0.291778564453125,-0.1646575927734375,0.0031280517578125
1772708684474781700,6.68078173828125,-0.2724609375,-0.1944122314453125,0.0050048828125
1772708684484806700,6.690806640625,-0.2798309326171875,-0.26727294921875,0.0243988037109375
1772708684494831900,6.700831787109375,-0.295166015625,-0.3790283203125,0.06072998046875
1772708684504857900,6.71085791015625,-0.3164825439453125,-0.4681396484375,0.0763397216796875
1772708684514882800,6.7208828125,-0.3854217529296875,-0.550201416015625,0.0583343505859375
1772708684524907800,6.73090771484375,-0.581146240234375,-0.688262939453125,0.06842041015625
1772708684534932700,6.7409326171875,-0.927093505859375,-0.92071533203125,0.1889801025390625
1772708684544958000,6.7509580078125,-1.25091552734375,-1.2279052734375,0.2148284912109375
1772708684554982700,6.760982666015625,-1.3987579345703125,-1.5610504150390625,0.0487823486328125
1772708684565007600,6.771007568359375,-1.3262176513671875,-1.88055419921875,-0.212127685546875
1772708684575032800,6.78103271484375,-1.077850341796875,-1.9925537109375,-0.564117431640625
1772708684605108000,6.81110791015625,-1.6339569091796875,-1.8769073486328125,-0.0541229248046875
1772708684615134000,6.821134033203125,-1.51141357421875,-1.8569183349609375,0.230072021484375
1772708684625159000,6.831158935546875,-1.0567169189453125,-1.999298095703125,0.321868896484375
1772708684635183900,6.841183837890625,-0.793182373046875,-2.1662139892578125,0.3475341796875
1772708684665259000,6.871259033203125,-1.1709136962890625,-1.8240814208984375,0.275787353515625
1772708684675284000,6.881283935546875,-1.4799957275390625,-1.5869140625,0.1358489990234375
1772708684685309000,6.891308837890625,-1.7212982177734375,-1.3054656982421875,-0.0323486328125
1772708684695334000,6.901333984375,-1.7559661865234375,-1.02459716796875,-0.1044158935546875
1772708684705359000,6.911359130859375,-1.604736328125,-0.7942047119140625,-0.1107177734375
1772708684715384000,6.921384033203125,-1.3580780029296875,-0.722686767578125,-0.0605010986328125
1772708684725410000,6.93141015625,-1.0894927978515625,-0.7596435546875,-0.0761566162109375
1772708684735435000,6.94143505859375,-0.8250885009765625,-0.7238922119140625,-0.21270751953125
1772708684745460000,6.9514599609375,-0.6009979248046875,-0.68560791015625,-0.3371734619140625
1772708684755485000,6.96148486328125,-0.4737091064453125,-0.6404266357421875,-0.3817596435546875
1772708684765510000,6.971510009765625,-0.4583282470703125,-0.544342041015625,-0.3292236328125
1772708684775534800,6.981534912109375,-0.515472412109375,-0.43719482421875,-0.19207763671875
1772708684785559800,6.991559814453125,-0.5544586181640625,-0.33294677734375,-0.01971435546875
1772708684795585000,7.0015849609375,-0.526519775390625,-0.2483062744140625,0.1220550537109375
1772708684805610000,7.01160986328125,-0.4348907470703125,-0.1898651123046875,0.1938323974609375
1772708684815635000,7.021635009765625,-0.297210693359375,-0.1508026123046875,0.2384796142578125
1772708684825661000,7.031660888671875,-0.1573486328125,-0.1331787109375,0.266571044921875
1772708684835686000,7.041685791015625,-0.080291748046875,-0.15045166015625,0.234527587890625
1772708684845711000,7.051711181640625,-0.0723114013671875,-0.1685028076171875,0.1522369384765625
1772708684855736000,7.061736083984375,-0.113067626953125,-0.18896484375,0.07806396484375
1772708684865761000,7.071760986328125,-0.17529296875,-0.2139739990234375,0.0318450927734375
1772708684875785700,7.08178564453125,-0.23028564453125,-0.224517822265625,-0.00335693359375
1772708684885811000,7.09181103515625,-0.2819366455078125,-0.2364349365234375,-0.0304107666015625
1772708684895836000,7.1018359375,-0.3258209228515625,-0.245880126953125,-0.03759765625
1772708684905860900,7.11186083984375,-0.338409423828125,-0.2349853515625,-0.041351318359375
1772708684915885800,7.1218857421875,-0.3221282958984375,-0.239166259765625,-0.03851318359375
1772708684925911000,7.1319111328125,-0.3279266357421875,-0.26788330078125,-0.0540008544921875
1772708684935937000,7.14193701171875,-0.35626220703125,-0.2836456298828125,-0.102783203125
1772708684945962000,7.1519619140625,-0.38763427734375,-0.286529541015625,-0.172027587890625
1772708684955987000,7.161987060546875,-0.3961029052734375,-0.2675323486328125,-0.2080841064453125
1772708684966012000,7.172011962890625,-0.3532562255859375,-0.2522735595703125,-0.171234130859375
1772708684976037000,7.182037109375,-0.2736968994140625,-0.2502899169921875,-0.107879638671875
1772708684986061800,7.192061767578125,-0.2259063720703125,-0.251007080078125,-0.04449462890625
1772708684996086800,7.202086669921875,-0.215179443359375,-0.234466552734375,-0.00567626953125
1772708685006111700,7.21211181640625,-0.24420166015625,-0.2205963134765625,0.0123748779296875
1772708685016137000,7.222136962890625,-0.27691650390625,-0.209014892578125,0.0083465576171875
1772708685026162000,7.232161865234375,-0.3162689208984375,-0.1992950439453125,-0.041290283203125
1772708685036187000,7.242186767578125,-0.393280029296875,-0.176239013671875,-0.0869140625
1772708685046212900,7.252212890625,-0.48504638671875,-0.17071533203125,-0.0985870361328125
1772708685056237800,7.26223779296875,-0.540130615234375,-0.1612396240234375,-0.1024169921875
1772708685066263000,7.272262939453125,-0.5305023193359375,-0.1011199951171875,-0.0731048583984375
1772708685076288000,7.2822880859375,-0.5254974365234375,-0.050567626953125,0.0132904052734375
1772708685086313000,7.29231298828125,-0.542877197265625,-0.066314697265625,0.161529541015625
1772708685096338000,7.302337890625,-0.544586181640625,-0.131683349609375,0.27862548828125
1772708685106363000,7.31236279296875,-0.5890350341796875,-0.2821197509765625,0.2837677001953125
1772708685116387800,7.322387939453125,-0.6812896728515625,-0.5033721923828125,0.252197265625
1772708685126412800,7.332412841796875,-0.735107421875,-0.8006439208984375,0.162994384765625
1772708685136438000,7.34243798828125,-0.6559600830078125,-1.16107177734375,-0.015899658203125
1772708685146463000,7.352462890625,-0.4936676025390625,-1.3762054443359375,-0.298004150390625
1772708685156489000,7.362489013671875,-0.38525390625,-1.3712615966796875,-0.4378814697265625
1772708685166514000,7.372513916015625,-0.429168701171875,-1.510894775390625,-0.3529510498046875
1772708685176539000,7.382538818359375,-0.5887451171875,-1.82403564453125,-0.06915283203125
1772708685186564000,7.392564208984375,-0.5746917724609375,-2.0334014892578125,0.0460662841796875
1772708685196589000,7.402589111328125,-0.3810577392578125,-2.1679534912109375,-0.1438446044921875
