time,seconds_elapsed,z,y,x
1772708677851953700,0.05795361328125,1.536789296528697,-0.5130494756251573,0.14927176612205803
1772708677861979000,0.067978759765625,1.4264543601095676,-0.5864028811275959,0.1822773060798645
1772708677872003800,0.07800390625,1.3248340605437754,-0.5281880080461502,0.22180574500039218
1772708677882028800,0.08802880859375,1.2649474548578261,-0.36371348516047,0.14735263462774453
1772708677892053800,0.0980537109375,1.3590157316088676,-0.13736498216390608,-0.0776980105780065
1772708677902079000,0.108078857421875,1.5666326461285351,0.030767478707432745,-0.3434102634526789
1772708677912103700,0.118103759765625,1.7231097405195235,0.04648936397433281,-0.4251319035235792
1772708677922128600,0.128128662109375,1.8276140710890292,0.019665654456615448,-0.24490217762328684
1772708677932153600,0.138153564453125,1.8764263250529765,0.051961657905578613,-0.07662855471558869
1772708677942179600,0.1481796875,1.7234031705081463,0.07741115646064281,-0.011863383207842707
1772708677952204800,0.158204833984375,1.3895885645270347,0.09771803143024443,-0.15742986507117748
1772708677962229800,0.168229736328125,1.1453332334399222,0.272747850599885,-0.24708675512075423
1772708677972254700,0.178254638671875,0.6937240226835012,0.41812078265249725,-0.16824037822522223
1772708677982279700,0.18827978515625,0.08676292217373847,0.5285732079714537,-0.14781338400729
1772708677992305000,0.198304931640625,-0.23703940835893153,0.7061497890144586,-0.1260775722131133
1772708678002329900,0.208329833984375,-0.13878303226828576,1.0323007284998893,-0.07652560579776764
1772708678012354800,0.218354736328125,0.11626666455566882,1.4068670315861702,-0.01798734598085284
1772708678022379800,0.2283798828125,0.2858119148343801,1.7180840213119983,0.020118951182067392
1772708678032404700,0.23840478515625,0.5271235936850309,2.0269652615666387,-0.07718859975114464
1772708678042431000,0.248430908203125,0.9862141001075506,2.186049908107519,-0.35189416029006243
1772708678052455700,0.25845556640625,1.5624129826068878,2.058317262163758,-0.8580353178314865
1772708678062480600,0.268480712890625,2.0572230371862648,2.116087898609042,-1.0476656170226633
1772708678072505600,0.278505615234375,2.2452555457919834,2.576888131558895,-0.8840161467842758
1772708678082530800,0.28853076171875,2.041298907345533,2.995338000035286,-0.627027006330341
1772708678092555800,0.2985556640625,1.5326941361695527,2.5790052698433397,-0.39270898575931784
1772708678102580700,0.308580810546875,1.4401684126853942,2.5033365731358526,-0.07551628262475132
1772708678112605700,0.318605712890625,1.9367577518969774,2.8214287093281745,0.43292146142125126
1772708678122631000,0.328630859375,2.809560576879978,3.556722759762406,0.8953779371455312
1772708678132657000,0.338656982421875,3.785471309638023,4.2628637809485195,1.4080088950976728
1772708678142681900,0.348681884765625,4.023833491033315,4.1759576509118075,1.6089762886002659
1772708678152706800,0.358706787109375,3.585296527817845,3.2417280050635338,2.565662388667464
1772708678162731500,0.3687314453125,1.7734107717365026,1.795465367156267,4.559529390491545
1772708678172756700,0.3787568359375,-0.7206833412796259,-0.9071014004260302,6.293684548899531
1772708678182781700,0.38878173828125,-3.447074052041769,-1.4540841253131627,4.67145773358196
1772708678192806700,0.398806640625,-8.330778405770658,-2.3402882836610077,3.260606016273796
1772708678202832000,0.408831787109375,-10.550078841572999,-3.0499808598488567,1.4210779277682304
1772708678212856800,0.41885693359375,-12.927117770004271,-3.6925510338783263,1.059418452528119
1772708678222881800,0.4288818359375,-12.96499712654352,-3.615726152873039,1.095959546200931
1772708678232907800,0.43890771484375,-13.037328203260898,-3.497356378558278,1.1253618740350007
1772708678242932700,0.4489326171875,-13.128995264089106,-3.385430958077311,1.106095740289986
1772708678252957700,0.458957763671875,-13.228427113699912,-3.3135686679154635,1.0084002129524945
1772708678262983000,0.46898291015625,-11.27580836032629,-7.17913525853157,3.050890960431099
1772708678273007900,0.4790078125,-10.552439140963553,-6.862444221308827,3.0371368681058284
1772708678283032600,0.489032470703125,-11.241328583097458,-6.72329060216248,3.508212411354482
1772708678293057800,0.499057861328125,-11.605804869323968,-6.087830552399158,4.598435751990974
1772708678303082800,0.509082763671875,-11.321385870152712,-5.708676337000727,4.932047821137309
1772708678313107700,0.519107666015625,-10.312768799579143,-5.741857306590676,5.13661703852415
1772708678323132700,0.529132568359375,-9.930607219058274,-6.070111940357089,4.952699564021826
1772708678333158700,0.53915869140625,-10.140906504529713,-6.417738214069605,3.9947652174592014
1772708678343184000,0.549183837890625,-10.125331334257126,-5.886970710924268,2.7319109354883433
1772708678353208800,0.559208740234375,-9.493577153274416,-4.456294349205494,1.0104317187801002
1772708678363233800,0.56923388671875,-7.67632723981142,-2.394227379119396,-0.29738515598922965
1772708678373258800,0.5792587890625,-4.559959306341409,-1.0852291856110095,-0.8515455174207687
1772708678383284000,0.589283935546875,-0.07187514964342116,-0.6773632549911737,-1.0744514787480235
1772708678393309000,0.599308837890625,4.8132139364421365,-0.03616261574923992,-0.5841651852034032
1772708678403333600,0.609333740234375,8.736758668774366,0.3582534661889076,-0.29119463078603147
1772708678413358600,0.619358642578125,10.887130529779196,1.0258885233700274,-0.9347466554597019
1772708678423383800,0.6293837890625,12.286770532721281,3.1509809816896914,-1.3612424677476287
1772708678433409800,0.639409912109375,12.780527863377332,4.809524434274435,-1.2736455789677799
1772708678443434800,0.649434814453125,11.976654782235622,5.3423360104680055,-0.8607771638855337
1772708678453459700,0.659459716796875,9.740715346321464,5.616532890832424,-0.26078458721414205
1772708678463484700,0.669484619140625,6.952187620598077,5.90632481521368,-0.08486220311895012
1772708678473510000,0.679510009765625,5.212245987743139,6.176977739360928,0.06156695998832583
1772708678483534800,0.689534912109375,4.8731847132802,6.3091013137400145,0.18256518311053513
1772708678493559800,0.699559814453125,5.6496390416204925,6.255860137417912,0.32744068703502416
1772708678503584800,0.709584716796875,6.7687886170119045,6.1115866910398005,0.5424719694644212
1772708678513609700,0.719609619140625,7.455949627918004,5.879612749376893,0.7595762587755918
1772708678523636000,0.729635986328125,7.630556837761402,5.620103735056519,0.8236250987075269
1772708678533660700,0.73966064453125,7.32745827256143,5.368328529858589,0.7489819456554949
1772708678543685600,0.749685546875,6.8174068097084755,5.033481073698401,0.6939464332625269
1772708678553710600,0.759710693359375,6.331463367673754,4.757896538367867,0.3118427204087376
1772708678563735800,0.76973583984375,5.857644078674912,4.254774582517147,-0.6682165103308856
1772708678573760800,0.7797607421875,4.979833654662967,3.7639246637403962,-1.7232887503482401
1772708678583787000,0.789787109375,3.9810558410584926,3.6972447446525094,-2.402013795211911
1772708678593812000,0.79981201171875,3.1273171975076197,3.8033722925096747,-2.8031062861740588
1772708678603837000,0.8098369140625,2.459043842422962,4.1371868984907865,-2.836427541017532
1772708678613862100,0.819862060546875,2.082098535245657,4.714629059049487,-2.653403215962648
1772708678623888100,0.82988818359375,1.9975094499796628,5.440702276673913,-2.2129221329420803
1772708678633913000,0.8399130859375,1.9190952539563177,6.224082020363212,-2.130747269210964
1772708678643938000,0.84993798828125,1.7657266469746826,6.928454278311133,-3.0399013643831014
1772708678653963000,0.859962890625,2.7124919492691753,6.009025311231613,-2.361309444379806
1772708678663988200,0.86998828125,2.5905320415079593,5.597745188254118,-2.2606894078977406
1772708678674013000,0.880012939453125,2.1107067900925873,6.1225470609933135,-2.540471833309531
1772708678684038000,0.890037841796875,1.6715221766233443,7.069736726179719,-1.8749740804180501
1772708678694062800,0.900062744140625,0.3608066578030586,7.384675366777182,-1.09484252486974
1772708678704088000,0.910088134765625,-1.1993746202290057,7.067814818206429,-0.34144802346900105
1772708678714113000,0.920113037109375,-2.460920157688856,7.302441320204735,-0.27710882228836414
1772708678724138000,0.930137939453125,-4.063894283264875,8.10108234591186,-0.24711678493283687
1772708678734164000,0.9401640625,-2.865841267028451,8.176319665464758,-0.6375333489060402
1772708678744189000,0.95018896484375,-1.395693895664811,7.271086396998166,-2.451971712079644
1772708678754214100,0.960214111328125,0.43422494523525235,5.603370042398572,-3.264590409734845
1772708678764239000,0.970239013671875,1.6615911497175693,3.9721968272984025,-1.5217773130968213
1772708678774264000,0.98026416015625,1.7995941375240683,1.7534294754594564,1.249539165584743
1772708678784289000,0.9902890625,-0.19965981803536414,-1.4332453354239463,4.018218281500041
1772708678794314000,1.00031396484375,-5.141253466153144,-4.811873627749085,6.200495393070578
1772708678804339000,1.0103388671875,-11.526901428478956,-7.6503949261754745,5.969467207825184
1772708678814364000,1.020364013671875,-13.172006722819804,-8.124596492490172,1.7899185466840861
1772708678824388900,1.030388916015625,-9.912017084878682,-11.367954729104042,-1.0810619829289614
1772708678834414800,1.040414794921875,-4.937994162321091,-15.269375307911634,-2.500024087586999
1772708678844440000,1.050440185546875,-4.922309101933241,-15.280531492698191,-2.5632801697060463
1772708678854465000,1.060465087890625,-4.811287352293729,-15.343451766991615,-2.6814710803225634
1772708678864490000,1.070489990234375,-4.655938092888891,-15.436993974041938,-2.8428128581404684
1772708678874515000,1.080514892578125,-4.512854733078181,-15.531783550804853,-3.0140351017206903
1772708678884540200,1.0905400390625,-4.38499232327491,-15.621992814040183,-3.1642224483177066
1772708678894565000,1.100565185546875,-4.23272524779439,-15.726949564552307,-3.2784424094766376
1772708678904590000,1.110590087890625,-4.030126453697681,-15.859553031402825,-3.3324902260065077
1772708678914615000,1.120614990234375,-3.8072663773387667,-16.000636741828917,-3.3080601336270568
1772708678924640000,1.130639892578125,-6.111462772399187,-8.866951567351817,1.9151798340782522
1772708678934666000,1.140666015625,-5.6125289158880705,-5.421634588110447,-2.4013600074782966
1772708678944691000,1.15069091796875,-3.0730010854303833,-2.609504453003406,-4.550738181270659
1772708678954716000,1.1607158203125,-0.08560556883215904,-0.0814157159268856,-4.380053990089893
1772708678964740900,1.170740966796875,1.5931231781691313,1.973502551448345,-2.760964596015215
1772708678974766000,1.18076611328125,1.8350667251825332,3.3633167414247986,-1.0819584933772683
1772708678984791000,1.190791015625,2.160536696666479,4.647316687276959,-0.577122792411223
1772708678994816000,1.20081591796875,2.5431197174698115,4.888789694169163,-0.9233798966623842
1772708679004841200,1.21084130859375,2.5089976676374675,4.497136062681674,-1.4622045956656335
1772708679014866200,1.2208662109375,2.8894185419708487,4.640381335055828,-2.1737474758952855
1772708679024891000,1.230890869140625,3.9152790082901716,4.63060579097271,-2.810038715785742
1772708679034917000,1.240917236328125,4.9146881055355065,4.120496460452675,-2.9276310759872195
1772708679044941800,1.25094189453125,5.9629842755466695,4.303560532996058,-3.46592722107172
1772708679054967000,1.260967041015625,7.168138648220896,4.803287001189589,-3.785715639787912
1772708679064992000,1.270991943359375,7.668963433045149,4.8642017808794975,-3.4442961117610333
1772708679075017000,1.281016845703125,7.720826891273259,4.752086975306272,-2.801638259448111
1772708679085042000,1.2910419921875,7.188678162902593,4.335118285298347,-1.9156418986320494
1772708679095067100,1.301067138671875,6.489211797174811,3.9339264256149526,-0.7461202726140618
1772708679105092000,1.311092041015625,6.0316053918302055,3.331568434986472,0.5934489637142047
1772708679115117000,1.321116943359375,5.917236669850349,2.9413164869904516,1.912136228598654
1772708679125142000,1.33114208984375,5.650095553216338,2.749921223953366,1.663772439279407
1772708679135168000,1.34116796875,5.508143243262172,2.86565597358942,0.12256850464623421
1772708679145193200,1.351193115234375,5.577870274960994,2.5562030709266663,-1.366563808900863
1772708679155218200,1.36121826171875,5.6271337798237795,2.590321613627672,-2.6611466696962713
1772708679165243000,1.371242919921875,5.8019075784057375,3.3441263032644986,-3.554721356812119
1772708679175267800,1.381267822265625,5.695105492287874,4.0953205181419845,-3.4566184177175163
1772708679185293000,1.39129296875,5.365567248451709,4.1916397886902095,-2.3582333979353307
1772708679195318000,1.401318115234375,4.837213236188888,4.2705104963094,-1.3128469778910279
1772708679205343000,1.411343017578125,4.478852217972278,4.881026074430347,-0.7757276215009391
1772708679215368000,1.421367919921875,4.294802641522884,5.4545425859779115,-0.1319441261589527
1772708679225393200,1.43139306640625,4.230680005702376,6.10787556156218,0.6603536680012941
1772708679235418000,1.441418212890625,3.862862007832527,6.638916036430001,0.8593998111177236
1772708679245444000,1.451444091796875,3.3894378556311127,6.7772098238766185,0.5368229307267814
1772708679255469000,1.461468994140625,3.5434494366914033,6.420924442890286,0.11421513885334134
1772708679265494000,1.471493896484375,3.8766900421768424,6.139141637441516,-1.1602528624132276
1772708679275519000,1.48151904296875,3.2171541202992198,5.910009641206264,-2.971956539925933
1772708679285544000,1.4915439453125,2.4951924296468495,5.6215574409961695,-3.7526115348264573
1772708679295569000,1.50156884765625,0.4600853626787662,5.224084894096851,-3.3060850341618058
1772708679305593900,1.51159375,-0.1663087525755167,4.227932752820849,-2.8814631990522144
1772708679315619000,1.521619140625,0.3669073127657175,3.132525872066617,-0.4339790076501667
1772708679325644000,1.53164404296875,1.1934563360959292,2.731926133057475,1.2355622242890298
1772708679335669000,1.5416689453125,0.2107809315085411,1.416070913261175,2.901260955455899
1772708679345695000,1.551695068359375,-1.638346467730403,-0.5351081626981496,4.652945048552751
1772708679355720000,1.561719970703125,-3.19973478346467,-2.667988206154108,5.185847225639224
1772708679365745200,1.5717451171875,-4.911908703950047,-5.376854950663447,4.186273877742886
1772708679375770000,1.58177001953125,-6.350433441081643,-8.111065979787707,1.9852249918155371
1772708679385795000,1.591795166015625,-7.295020230293273,-9.36686157541871,-0.4246221273705363
1772708679395819800,1.60181982421875,-6.307327874326705,-9.209047094944118,-0.9548628301627934
1772708679405845000,1.611844970703125,-4.604209951478243,-9.562746551090479,1.9565935022234915
1772708679415870000,1.621869873046875,-3.514661441363394,-11.662387757289409,6.509117105606198
1772708679425895000,1.63189501953125,-2.9951924540847537,-12.878950828206538,10.105518380284309
1772708679435921000,1.6419208984375,-3.06841960285902,-12.858595437920092,10.033841968083381
1772708679445945900,1.65194580078125,-3.1225597738474606,-12.840550078141689,9.99813001871109
1772708679455971000,1.66197119140625,-3.151003778043389,-12.827886995923519,9.994792398720978
1772708679465996000,1.67199609375,-3.1586069465234874,-12.822820360183716,10.001680404669045
1772708679476021000,1.68202099609375,-3.1532702616706487,-12.826189544355868,9.997697472512721
1772708679486046000,1.6920458984375,-3.1143428573831913,-12.846622091531753,9.988196653717756
1772708679496071200,1.7020712890625,-3.0181983588799834,-12.890187677013873,10.000318468666077
1772708679506096000,1.71209619140625,1.8826468070030211,-8.44931710691154,1.6093134116001426
1772708679516120800,1.722120849609375,0.7728828995943069,-4.856735098260641,0.26920827829688787
1772708679526146000,1.73214599609375,0.22373335206210612,-1.6895067461252211,-0.9297149449028074
1772708679536172000,1.742172119140625,-0.4302455202102661,0.04969897367060184,-1.5266653773993253
1772708679546197000,1.752197021484375,-2.1232652428925034,1.0684598371177911,-0.7631742832675575
1772708679556222000,1.762221923828125,-3.976325305405259,2.4938123734652993,0.2747644511193037
1772708679566247000,1.772246826171875,-5.002632930970192,4.188087064644694,0.20168430960029363
1772708679576272100,1.782272216796875,-4.582493794232606,4.29249728718996,-0.5611893832854926
1772708679586295800,1.7922958984375,-3.2222914831876754,3.37651875282526,-0.8142870692588389
1772708679596320800,1.80232080078125,-2.02750419074893,3.5472108350515366,-0.47296004182100293
1772708679606346000,1.812345947265625,-1.2543091564655304,3.918698461344838,0.28598464105278254
1772708679616371000,1.822370849609375,0.3434516183763742,3.5606577611237764,0.828215495237708
1772708679626396000,1.83239599609375,2.588885443344712,3.9870015977203845,0.8472191055890173
1772708679636422000,1.842421875,3.948200450161099,5.5506327239453785,0.46564891509003936
1772708679646446800,1.85244677734375,3.7333980080515143,6.697602034154534,0.5854116050679237
1772708679656472000,1.86247216796875,2.991891074451804,6.938751800441741,1.1920819790028034
1772708679666497000,1.8724970703125,2.8308582164525986,6.9758297774702305,0.5442336453747004
1772708679676521700,1.882521728515625,3.0526047786116597,6.877590352514385,-1.7142017730511725
1772708679686546700,1.892546630859375,2.9003391644358634,6.367642934557795,-3.4292066791787743
1772708679696572000,1.902572021484375,2.7597026132553815,6.050490709564089,-3.9850019483357664
1772708679706596900,1.912596923828125,2.777075772860646,5.676203807941079,-4.251350161026418
1772708679716621800,1.922621826171875,2.751497094967961,5.495656102132797,-4.367912301397324
1772708679726646800,1.932646728515625,2.730016500043869,5.636908739385008,-4.275371964865923
1772708679736672800,1.9426728515625,2.7820021233469245,5.886430612698197,-3.9143376357868314
1772708679746698000,1.952697998046875,3.1987615545183417,6.207621883949637,-3.2905674392953514
1772708679756723000,1.962722900390625,3.6250539531886576,6.4130789900869125,-2.720767610183358
1772708679766748000,1.972747802734375,4.043735876855254,6.630735652583837,-2.0390321314573288
1772708679776772900,1.98277294921875,4.629689845171571,6.847077140828967,-1.132166512548551
1772708679786798000,1.992798095703125,5.226916318130493,6.969632091873883,-0.74736384293437
1772708679796822800,2.00282275390625,5.4386552810162305,6.69298372670412,-0.7768278378278016
1772708679806847700,2.01284765625,5.4394391248703,6.290557941311597,-0.9632907590292393
1772708679816873000,2.022873046875,5.330899839696288,6.237750480231642,-1.3721993305698037
1772708679826898700,2.032898681640625,5.148420289042591,6.461037257570028,-1.6710782322481275
1772708679836924000,2.042923828125,4.841155251812935,6.782706667727232,-1.7125367624484003
1772708679846948900,2.052948974609375,4.509455446028709,6.923338542732596,-1.8641475659772753
1772708679856973800,2.062973876953125,4.19741895661354,6.774376061755419,-2.270528080344945
1772708679866998800,2.072998779296875,3.6929403254568576,6.397371717867255,-2.538829034538567
1772708679877024000,2.08302392578125,2.6191046405196188,5.639767635947465,-2.118510449580848
1772708679887049000,2.093049072265625,2.3510282888621092,5.646689544165134,-2.0217454810917377
1772708679897074000,2.103073974609375,1.8133868082940579,6.0418818711727855,-2.7774516204357145
1772708679907099000,2.113098876953125,1.2084843938797711,6.569642593717575,-3.072269264024496
1772708679917123800,2.123123779296875,-0.47860652327537534,5.89490968722999,-2.9402666856765745
1772708679927149800,2.13314990234375,-3.0240912163108584,3.4075521889925002,-1.8897966787576674
1772708679937174800,2.1431748046875,-4.818125089359283,1.0250263535827397,-0.11283084488809109
1772708679947199700,2.15319970703125,-6.1744824154138565,-1.1346212852895259,1.2245176831834017
1772708679957225000,2.163224853515625,-6.748641316518187,-3.5915497429937124,2.1294782721884546
1772708679967250000,2.17325,-6.240904560348391,-7.191882511901855,2.396499123443663
1772708679977275000,2.18327490234375,-5.517336603543162,-11.055208630114793,1.5594687458485363
1772708679987299800,2.1932998046875,-5.443013476225733,-14.665920754218101,-0.20089067500457167
1772708679997325000,2.203324951171875,-5.450669543936848,-14.660264920413493,-0.20423545538783072
1772708680007350000,2.21335009765625,-5.422741672569513,-14.687209041440486,-0.21660291566029188
1772708680017375000,2.223375,-5.365287846988439,-14.740920757883787,-0.2327186225503683
1772708680027401000,2.23340087890625,-5.282187538975477,-14.814854593622684,-0.23586714970916509
1772708680037426000,2.243426025390625,-5.176297891527414,-14.906311226570605,-0.22001740027889607
1772708680047451000,2.253450927734375,-5.03643057115376,-15.025248571640253,-0.17554580586776136
1772708680057475800,2.263475830078125,-4.851408934801817,-15.190551362043617,-0.11642740807533264
1772708680067500800,2.273500732421875,-4.6325440655589105,-15.407315459614992,-0.07917991969883441
1772708680077525800,2.28352587890625,-4.408627173623443,-15.652285076451301,-0.06908259631544351
1772708680087551000,2.293551025390625,-4.20804965622127,-15.886462081116436,-0.0580859860047698
1772708680097576000,2.303575927734375,-4.052426548311114,-16.073178246426583,-0.028466216027736663
1772708680107601000,2.313600830078125,-10.808704058796167,-4.228925855511426,-2.4513189472593364
1772708680117627000,2.323626953125,-8.612553612434864,-3.2878654868602752,-3.6599902420133352
1772708680127651800,2.33365185546875,-6.629374885624647,-1.7851602462410925,-3.6733781313747165
1772708680137677000,2.343677001953125,-4.255970514303446,0.35339842737317084,-2.958615704576671
1772708680147702000,2.353701904296875,-1.4421458502382039,2.7868478098124263,-1.6540487715139984
1772708680157727000,2.36372705078125,1.1228075133770703,5.25786149149239,0.9462759113423526
1772708680167751700,2.373751708984375,3.6106355517357587,7.199126491680741,4.3017210426092145
1772708680177777000,2.38377685546875,5.50919070648849,8.243840127030014,6.79865593200922
1772708680187801900,2.3938017578125,5.948778640061617,8.197291726344824,6.991643432673811
1772708680197826800,2.403826904296875,6.379040526884794,7.451632349240779,4.867708327695727
1772708680207851800,2.413851806640625,6.892052593109011,6.790819247034191,1.624872507520765
1772708680217877800,2.423877685546875,6.362959160655737,6.484117688906192,-1.4494552964687346
1772708680227903000,2.433903076171875,4.765937806004286,6.148122231754661,-3.5263378506317733
1772708680237928000,2.443927978515625,3.7133974225521085,5.537402655494213,-4.231398383104801
1772708680247953000,2.453952880859375,3.146104900085926,5.082199804159998,-4.111550937452912
1772708680257977900,2.463977783203125,2.973507276499271,5.020909761416911,-3.6673560946062205
1772708680268003000,2.474003173828125,3.3346798450052737,5.406780133327842,-3.1324007843822237
1772708680278027800,2.48402783203125,3.603178805989027,5.980856032323837,-2.5609432511910795
1772708680288052700,2.494052734375,3.8664498031914234,6.425125401711464,-1.6866624626100062
1772708680298077700,2.50407763671875,4.564775766712427,6.910650326073169,-0.5568338914897293
1772708680308103000,2.51410302734375,5.261363362133503,6.897775646930933,-0.0983145360186696
1772708680318129000,2.52412890625,5.699958777537941,6.3741235287487505,-0.3760981888286769
1772708680328153900,2.53415380859375,5.9713838551014655,5.808436687913536,-0.9179062144916504
1772708680338178800,2.5441787109375,6.0264481551975,5.40109390438497,-1.3443154444746672
1772708680348203800,2.554203857421875,6.034516310840845,5.152375748670101,-1.468954946708679
1772708680358229000,2.56422900390625,6.124468384444714,4.999139828157425,-1.250080140593648
1772708680368254000,2.57425390625,5.825936688768864,5.492735246250033,-0.4277296649318188
1772708680378279000,2.58427880859375,4.996035432401299,5.943412144592404,0.25670827768594023
1772708680388304000,2.594303955078125,4.038777962186932,6.413652990582585,0.08249277057386935
1772708680398328800,2.604328857421875,3.204592744889855,6.9171426107019185,-0.3443282550804317
1772708680408353800,2.614353759765625,2.7231366774022576,6.970013784667849,-0.6550825226653367
1772708680418379800,2.6243798828125,2.68667186383605,6.63938423846364,-1.0168282148841767
1772708680428404700,2.63440478515625,2.845384754455089,6.127745798680186,-1.2954019220933317
1772708680438430000,2.644429931640625,2.7758459388047454,5.423633068451285,-1.2158826874375344
1772708680448455000,2.654454833984375,2.433965515267849,4.477488528403639,-0.9710543787680566
1772708680458479900,2.66447998046875,1.87226102206707,2.8544658865332604,-0.857181915872544
1772708680468504800,2.6745048828125,0.411060342746973,1.5815730256289242,-1.18495037355721
1772708680478530000,2.684530029296875,-1.942166917464137,2.131848362320661,-1.971576259560883
1772708680488555000,2.694554931640625,-5.751590180575847,2.315706800112128,-1.7080092020213602
1772708680498580000,2.704580078125,-9.189822754514218,1.503670286259055,-1.3359944831140338
1772708680508605000,2.71460498046875,-9.493896886748075,0.5880301900684833,-1.726381163405627
1772708680518631000,2.724630859375,-7.070358072948455,-1.7939052782326936,-1.6675637943863868
1772708680528656000,2.73465576171875,-3.6098593066662548,-4.817725860908627,-1.4436438337109982
1772708680538680800,2.744680908203125,-1.5159987296953796,-8.021477478799223,-1.8830933817267417
1772708680548705800,2.754705810546875,-1.2327788771808146,-10.385113904821871,-3.0465012010395527
1772708680558730800,2.764730712890625,-0.25431641411334277,-11.395906565868854,-3.4350384540721772
1772708680568756000,2.774755859375,-0.620425854499638,-11.294304971003532,-3.3268726783856746
1772708680578781200,2.78478125,-0.9468214163959026,-11.216056194674968,-3.2667464187249537
1772708680588806000,2.794805908203125,-1.1947259176403284,-11.163873587495088,-3.241404764458537
1772708680598830800,2.804830810546875,-1.3640011188060044,-11.1320323420763,-3.2258664190649986
1772708680608856000,2.81485595703125,-1.4708387146286666,-11.114440571284293,-3.1951407336726785
1772708680618882000,2.824882080078125,-1.519660028681904,-11.108492476534844,-3.1464789940953253
1772708680628907000,2.834906982421875,-1.5167239752300083,-11.11107138711214,-3.1060528756827113
1772708680638932000,2.844931884765625,-1.4721001128666102,-11.119397316908836,-3.0915856666520236
1772708680648957000,2.85495703125,-1.3997143833525478,-11.132250953263044,-3.0884853625491258
1772708680658982100,2.864982177734375,1.7529269327647983,-9.016132074993848,1.3748599280811846
1772708680669007000,2.875007080078125,0.874611335709691,-6.074720310935378,0.3065919602736831
1772708680679032000,2.885031982421875,0.41560047039464115,-3.415792194071412,-0.5939269564894959
1772708680689057000,2.89505712890625,0.8595265793025493,-1.112630987277627,-0.42569761111494153
1772708680699082000,2.90508203125,1.0957711840219795,0.666827247929573,0.09716229724362492
1772708680709107000,2.91510693359375,0.49420229794457554,2.4320868619143963,-0.5209817299291492
1772708680719133000,2.9251328125,-0.32498218796700235,3.1060622280329464,-1.8629887513309715
1772708680729158000,2.935157958984375,-0.6212187584429979,3.4756618486225603,-3.6944495609760284
1772708680739182800,2.945182861328125,-0.9773217685997485,4.293944563388824,-4.530907107119262
1772708680749208000,2.9552080078125,-1.5286530440852044,5.441806438523531,-3.6067324068173763
1772708680759233000,2.96523291015625,-1.5758523098945616,6.749141082733869,-2.0599951322481034
1772708680769258000,2.975258056640625,-0.6844713334307074,7.720348752367496,-1.469438054050505
1772708680779283000,2.985282958984375,0.6903107071086764,7.891611912479997,-1.2516472437798976
1772708680789308200,2.99530810546875,1.921735831592977,7.466398541218042,-0.6984281087212264
1772708680799333000,3.0053330078125,2.1431319728791713,6.880857245355844,0.10770361980115994
1772708680809358000,3.015358154296875,2.5274308576896787,6.672595018669963,0.9547464372415095
1772708680819384000,3.025384033203125,2.8408289908468722,6.574691109278798,1.394224407634139
1772708680829409000,3.035408935546875,2.8190602266311644,6.36990912592411,0.9804409965988248
1772708680839434000,3.04543408203125,2.4990803769961,6.1351551981538535,0.007234033773606642
1772708680849459000,3.055458984375,1.8788862854257224,6.003728958389162,-0.8096629165895283
1772708680859484000,3.06548388671875,1.0678554414838552,5.927613102436065,-1.1844327063586562
1772708680869508900,3.0755087890625,0.7361041977733374,5.602155990433692,-1.1514384184472262
1772708680879534000,3.0855341796875,1.286130528140068,5.427812984484434,-0.9904640857022255
1772708680889559000,3.09555908203125,2.126550255912542,5.312255929502845,-0.8638805367283523
1772708680899584000,3.105583984375,2.9389418668136,5.0331432200461625,-0.6924616745974869
1772708680909609000,3.11560888671875,3.7922798206090924,4.583226200160384,-0.37023853954765945
1772708680919635000,3.125635009765625,4.589941479890048,4.3465112014502285,0.3509639667678624
1772708680929660200,3.13566015625,5.15521243340075,4.361405403721332,1.1524286715935914
1772708680939685000,3.14568505859375,5.226259315526485,4.759351997873186,0.9344006915662437
1772708680949709800,3.155709716796875,4.29633028948158,5.240135280665755,-0.10114763141958974
1772708680959735000,3.165735107421875,2.224812477222085,5.294464252224564,-0.8610508662603795
1772708680969760000,3.175760009765625,0.18834405877292154,5.305389550864696,-1.5187212865270674
1772708680979785000,3.185784912109375,-0.7967001207724214,5.582320824629068,-2.0311206276804206
1772708680989810000,3.195809814453125,-0.8239861871048808,5.574986828479171,-2.4713632257699967
1772708680999835100,3.205835205078125,-0.24142975227236746,5.239356112986803,-2.594210145498812
1772708681009860000,3.215860107421875,0.5065133518546819,5.1056929079502815,-2.2988344296358525
1772708681019886000,3.225885986328125,1.1053954830661414,5.131807592415809,-1.9182861295305191
1772708681029911000,3.2359111328125,1.5603291620701552,5.473589816275239,-1.2271189517229795
1772708681039936000,3.24593603515625,1.2702765409260988,6.293154972067475,0.17595285229869187
1772708681049961200,3.255961181640625,-0.4037584953010082,6.720309540525078,0.8963836070567369
1772708681059986200,3.265986083984375,-2.972497222673893,6.2773296264261,1.0289999333888291
1772708681070011000,3.276010986328125,-5.182630017158389,5.363505639746785,1.7460620154313742
1772708681080035800,3.286035888671875,-6.563685146617889,4.005539124929904,2.921414101168513
1772708681090061000,3.29606103515625,-7.886235480138659,1.1843822182804344,3.945175841642916
1772708681100086000,3.3060859375,-9.672397596898675,-1.9371844528764486,2.7637726391732693
1772708681110111000,3.316111083984375,-12.094175246244669,-5.498144411817193,0.45187977132610974
1772708681120136000,3.326135986328125,-10.07295349676609,-10.154122544455527,-2.1241920023486016
1772708681130162000,3.336161865234375,-3.476441600823402,-13.785336189317702,-3.4238349230125547
1772708681140187100,3.346187255859375,-3.7606636161178346,-13.673938007581233,-3.299330006943643
1772708681150212000,3.356212158203125,-3.995007209521532,-13.590236811065672,-3.2090459249064325
1772708681160237000,3.366237060546875,-4.215790187345445,-13.51808576709032,-3.1270456870898604
1772708681170262000,3.376261962890625,-4.40853949533999,-13.461398834228515,-3.042199119931459
1772708681180287200,3.386287353515625,-4.514536694815755,-13.434669817256927,-2.96766234986335
1772708681190312000,3.39631201171875,-4.4852132774367925,-13.447171571433543,-2.9255960630282756
1772708681200337000,3.4063369140625,-4.329012369638681,-13.49609839168787,-2.9280060467794535
1772708681210361900,3.41636181640625,-4.090701626169682,-13.57459500529766,-2.951716884973645
1772708681220387000,3.426386962890625,-3.819987034963071,-13.672846120691299,-2.9711411318898198
1772708681230413000,3.4364130859375,-3.5542803350463505,-13.779393939787148,-2.976826191788912
1772708681240438000,3.44643798828125,-3.9600346803396937,-8.964658492866159,-0.4074527467090636
1772708681250463000,3.456462890625,-3.1799016634866595,-7.1921426241427655,-2.4262357977986335
1772708681260488000,3.466488037109375,-0.6166022045582532,-5.281884756636619,-2.854531352984905
1772708681270513200,3.47651318359375,1.0163102554246783,-4.166213671010732,-2.3984365212470293
1772708681280538000,3.4865380859375,3.149180069747567,-2.8778894322186708,-1.3721419012941418
1772708681290563000,3.49656298828125,5.786205566883087,-0.6306546953082084,-0.40322248872816563
1772708681300587800,3.506587890625,5.981273965474963,0.63281508821249,0.15656564945727586
1772708681310613000,3.516613037109375,6.052253627583384,1.9597306312054394,0.7652305582102388
1772708681320638000,3.526637939453125,6.140441614124178,3.64867915892601,0.7943042386118322
1772708681330664000,3.536663818359375,4.419233323311805,3.8642058236569166,0.4818514965459704
1772708681340689000,3.54668896484375,2.370896187892556,3.8021979880332943,-0.016836203184351323
1772708681350713900,3.5567138671875,1.0018407083064318,4.546833282786608,-0.5597980750575662
1772708681360739000,3.566739013671875,0.5913941135436296,4.980270292514562,-0.8250512590531259
1772708681370764000,3.576763916015625,1.241044016700983,5.178332612225413,-0.7508452553093433
1772708681380789000,3.5867890625,2.3552146346360443,5.310885810193419,-0.4227886283330619
1772708681390814000,3.59681396484375,3.6884102808117865,5.360420533213019,-0.26542317026760426
1772708681400839200,3.606839111328125,5.265710451427101,5.3416801769077775,-0.2307291292335838
1772708681410864000,3.616864013671875,6.254158009675145,5.091268661278486,-1.0103960629448294
1772708681420888800,3.626888916015625,5.708719591620564,4.800975801637769,-1.8362357689619064
1772708681430914000,3.6369140625,4.998979669159651,4.889976858127117,-1.781727933704853
1772708681440939800,3.646939697265625,4.825806876033544,5.174958751878142,-1.3959836723916232
1772708681450965000,3.656965087890625,4.478540667805075,5.373202273374796,-0.8975263473510742
1772708681460990000,3.666989990234375,3.746097915148735,5.649258517870306,-0.6654647274047136
1772708681471015000,3.677014892578125,3.039152591842413,6.163637780794501,-0.8187222752273082
1772708681481040100,3.6870400390625,2.5532459746867415,6.445346936485171,-1.4002804928027093
1772708681491065000,3.697065185546875,2.033364022693038,6.416978920134902,-2.2674100944548843
1772708681501090000,3.707090087890625,1.5710925481468438,6.434203611180186,-2.5668887155920266
1772708681511115000,3.717114990234375,1.8979940137386322,6.627644116309285,-2.4437970273219047
1772708681521140200,3.72714013671875,2.5297885267317293,6.5119795092999935,-2.2728933481715616
1772708681531165200,3.737165283203125,2.7848633579969406,6.523668193528056,-1.9974619575761257
1772708681541191200,3.747191162109375,2.873297428253293,6.59951049323678,-1.9693705662101506
1772708681551216000,3.757216064453125,2.6987790657371282,6.690940822699666,-1.926519266477227
1772708681561240800,3.76724072265625,1.600833606415987,7.085471470928192,-1.8960415644966064
1772708681571266000,3.77726611328125,0.4802978373631835,7.518680517119169,-1.6732536765910684
1772708681581291000,3.787291015625,-0.1196750116944313,7.495580212038755,-1.6301574621863661
1772708681591316000,3.79731591796875,-0.37558600152283905,7.076296230825782,-1.6913853994786738
1772708681601341000,3.8073408203125,-0.11332330458015202,6.535603545993566,-1.232725247297436
1772708681611366100,3.8173662109375,0.29189123474806544,5.508896107456088,-1.0536936451405285
1772708681621391000,3.82739111328125,0.21658903326541185,4.706021974223852,-1.117858001210913
1772708681631416000,3.837416015625,0.4467915813416242,3.9811318289041515,-0.6510244063809514
1772708681641441000,3.84744091796875,-0.5618029851391911,2.1999410708159206,0.13687402030918747
1772708681651467000,3.857467041015625,-1.9874919138342142,0.23689853858351706,-0.06697093792371452
1772708681661492200,3.8674921875,-2.63057237547338,-1.1127321095645426,-0.0602334463622421
1772708681671517000,3.877516845703125,-3.808552617757022,-3.447510105371475,0.9731232939966022
1772708681681542000,3.8875419921875,-5.298398669064045,-4.945560213661193,2.9296570288568735
1772708681691566800,3.89756689453125,-5.30295852432549,-5.638825386661291,4.8277054031312465
1772708681701592000,3.907592041015625,-3.3359964805617928,-8.314540387675166,5.408230916658043
1772708681711617000,3.917616943359375,-0.7573328637629747,-11.432663640379905,3.394939375656843
1772708681721642000,3.92764208984375,-0.9413315868079661,-14.75240310588479,1.0404014712385832
1772708681731667000,3.9376669921875,-0.9704539286568761,-14.73511177934408,1.2436974538192151
1772708681741692200,3.947692138671875,-0.9694242933481931,-14.734772756648063,1.3968769679695368
1772708681751718100,3.95771826171875,-0.9065656861141324,-14.76217514283657,1.4901929650485515
1772708681761743000,3.9677431640625,-0.7611451155275106,-14.825972199964523,1.507893895303458
1772708681771768000,3.97776806640625,-0.5302861493691802,-14.93200213266611,1.456225667386502
1772708681781793000,3.98779296875,-0.22902210611999033,-15.081961223465203,1.3797330870755016
1772708681791818000,3.99781787109375,0.6834887521341443,-9.919539881598949,5.802405006533861
1772708681801843000,4.007843017578125,-0.4574538451313972,-6.032170624497533,5.652530086886882
1772708681811868000,4.017867919921875,-2.871125929433107,-2.5184073010176418,3.3662323366105555
1772708681821892900,4.027892822265625,-5.770393665245175,-0.276349089962244,0.6286647636000067
1772708681831918000,4.03791796875,-6.551221386364102,1.258224284082651,-1.692492045546323
1772708681841943000,4.047943115234375,-8.506088210925459,-0.8655372178941965,-3.425310840784013
1772708681851968000,4.057968017578125,-11.81458790501356,-3.373700188273191,-5.753426163831353
1772708681861994000,4.067993896484375,-12.992408865082263,-3.28050869435668,-8.460548110499978
1772708681872019000,4.07801904296875,-12.980493970882891,-3.306422303292155,-8.370116144424676
1772708681882044200,4.088044189453125,-11.327385402828455,-1.6034569406569004,-9.127310476499796
1772708681892069000,4.098069091796875,-8.345794188594818,-0.3297358122348785,-7.132450664246082
1772708681902094000,4.108093994140625,-4.584377123761177,1.3711539131700992,-4.504075798816979
1772708681912118800,4.118118896484375,-1.0473001447111367,3.524471179977059,-1.8430971791639923
1772708681922144000,4.12814404296875,2.0258891567677257,5.682693754482269,0.42062253634035585
1772708681932169000,4.1381689453125,4.3368484700918195,6.918904944199324,1.8420568763308225
1772708681942194000,4.14819384765625,5.907423131844401,7.505104996231198,2.9182059527769684
1772708681952219100,4.15821923828125,6.613231560075283,7.75146869777441,2.769456822289526
1772708681962244000,4.168244140625,6.627613136649131,8.377614975747466,2.9360300710201264
1772708681972270000,4.17827001953125,6.138553023898601,8.18633252543509,3.6003012047260996
1772708681982295000,4.188294921875,5.6113166174888605,7.609722724047303,4.050102781538665
1772708681992320000,4.198320068359375,4.947327807855606,6.909195451089739,4.344572050081193
1772708682002345000,4.208344970703125,3.7577620494574306,5.984733166018128,3.539346677547693
1772708682012370200,4.2183701171875,3.0186189223796127,5.728934112131595,1.6485475437492132
1772708682022395000,4.228394775390625,1.6598451828330754,6.144204766049981,0.13296791624873877
1772708682032419800,4.238419921875,0.43458676428496834,6.569910304743051,-0.9278801306910812
1772708682042445000,4.248445068359375,-0.47828854336738585,7.209522213488817,-1.6164261662147938
1772708682052470000,4.258469970703125,-0.821035228344798,7.836985419279337,-1.7486933868482708
1772708682062495000,4.268494873046875,-0.405405677986145,8.082005304998159,-1.2307900414511561
1772708682072520000,4.27852001953125,-0.03609714929759502,7.854638564869761,-0.3495663018643856
1772708682082546000,4.2885458984375,0.18856763839572668,7.766206248179078,0.04379793293327093
1772708682092571100,4.298571044921875,0.6712240215837955,7.978054516658187,0.2158516589015722
1772708682102596000,4.30859619140625,1.3954203394204376,8.264657874131203,0.49045580489262935
1772708682112621000,4.31862109375,2.3072066827923057,8.511433663606644,0.9432765833958983
1772708682122646000,4.32864599609375,3.2433962305366992,8.585093943101167,1.3478259368136525
1772708682132671200,4.338671142578125,3.9705724409669636,8.651166543945669,1.48231624032408
1772708682142696000,4.348696044921875,4.4272079554528,8.798924909830093,1.5825500539675355
1772708682152721000,4.358720947265625,4.534729588016868,8.851884346601366,1.7921980359233916
1772708682162745900,4.368745849609375,4.379226891615986,8.561718328210711,1.8937571068212389
1772708682172771000,4.37877099609375,4.294278909909725,7.747956890261173,1.7188363009840248
1772708682182796000,4.388796142578125,4.082208230851591,6.954247475737333,1.6677477726511656
1772708682192822000,4.398822021484375,3.237402250818908,6.296767317345738,2.1589828913532196
1772708682202847000,4.408846923828125,2.1682126381218434,5.258099391901493,2.900009786351025
1772708682212872000,4.418871826171875,1.5114841748803853,3.7641456130146977,3.6230513811945912
1772708682222897200,4.428897216796875,1.1960258943229913,2.6652771936297417,4.651886479410529
1772708682232922000,4.438922119140625,1.1936240938782692,0.9138011903256177,5.681695391094684
1772708682242947000,4.448947021484375,1.3682663750350474,-1.9551240141928194,5.830104329842329
1772708682252972000,4.458971923828125,1.9511846289172767,-4.05610903621614,5.13025802488625
1772708682262997000,4.4689970703125,2.5761148090988395,-5.129595761585235,3.2394498309984803
1772708682273022000,4.47902197265625,3.2527953425228593,-5.874966384875774,1.9205835928179322
1772708682283047000,4.489046875,4.520667160394788,-7.93067609488964,1.63368475952968
1772708682293072000,4.49907177734375,5.229072034859657,-11.091410408830642,1.5825266730919478
1772708682303097900,4.509097900390625,4.134613833132386,-12.279115634053944,2.1002885641917586
1772708682313123000,4.519123046875,4.2263501598045226,-12.312944253897665,2.1995469569317994
1772708682323148000,4.52914794921875,4.277023239204287,-12.33505788602829,2.310983278721571
1772708682333173000,4.539173095703125,4.30117948307842,-12.347127094006538,2.3813014081813395
1772708682343198000,4.549197998046875,4.351901954577863,-12.365125692033766,2.3820216852799057
1772708682353223200,4.55922314453125,4.47048566390425,-12.407800466156004,2.3721987949237224
1772708682363248000,4.569248046875,4.660680903501809,-12.481885108542441,2.392114624749124
1772708682373272800,4.57927294921875,1.2637901015162467,-9.422873385497928,1.256696636123955
1772708682383298000,4.589298095703125,1.0302207073554397,-8.140911667475104,-1.5735995625317096
1772708682393323000,4.599322998046875,0.6852133839696646,-6.33298195554316,-4.318824737623333
1772708682403348000,4.609347900390625,0.18599340399354694,-4.13147261249721,-5.819260279744864
1772708682413374000,4.6193740234375,0.019754501783847807,-2.620350256666541,-4.91815081321001
1772708682423399000,4.62939892578125,-1.2789455850720406,-1.9317671040028332,-3.6331814378038048
1772708682433424000,4.639423828125,-3.5177193676292893,0.09207096545398234,-3.6423739213019606
1772708682443449000,4.649448974609375,-5.047407892242074,2.6666028892755507,-3.271365895219147
1772708682453474000,4.65947412109375,-5.256975356307626,3.654413903185725,-2.01435054853484
1772708682463499000,4.6694990234375,-4.925335171756148,3.39582083466649,-0.7383479581121355
1772708682473524000,4.67952392578125,-4.197726999649405,3.7443811743587254,0.12777038413826375
1772708682483549200,4.689549072265625,-2.7302783658504484,4.213429595693945,0.955476139755547
1772708682493574000,4.699573974609375,-1.1388356881141661,4.138291060340404,1.6969105926409362
1772708682503598800,4.709598876953125,1.0092822564840316,3.916078049713373,1.4699386970490216
1772708682513624000,4.7196240234375,3.3513509938210246,3.037256987354159,0.6155896665148437
1772708682523650000,4.729650146484375,4.959595753276348,2.001091984641552,-0.35662338076904415
1772708682533675000,4.739675048828125,5.6449833247691386,1.7448352501153945,-0.8371457476031035
1772708682543700000,4.749699951171875,5.650304227530956,1.9957477010041473,-0.8504262310672551
1772708682553725000,4.759724853515625,4.612180491966009,2.3807523959964514,-0.7660632096420973
1772708682563750100,4.769750244140625,2.9929157413244245,2.609318575042486,-0.7230532852813601
1772708682573775000,4.779775146484375,1.7356296148747206,2.6941712796807287,-0.39873526031151413
1772708682583799300,4.78979931640625,1.1196785677015781,2.6674405091434714,-0.02376373742520809
1772708682593824500,4.799824462890625,1.1437328125059605,2.682160523891449,0.036498861966282124
1772708682603849500,4.809849365234375,1.895944679993391,2.8777310267865657,-0.16438786751553416
1772708682613874400,4.81987451171875,2.7904244992554186,2.7872353478252885,-0.46829015031382437
1772708682623899400,4.8298994140625,3.3183389510571955,2.658310277226567,-0.8276604917034507
1772708682633925400,4.83992529296875,3.591514671680331,2.936231731072068,-1.212870207748562
1772708682643950300,4.849950439453125,3.8946740271568294,3.4409663828164336,-1.543267114240676
1772708682653975600,4.8599755859375,4.151718112668394,3.959950509187579,-1.683129027786851
1772708682664000300,4.870000244140625,4.269935911291838,4.365656046903133,-1.6254761725023388
1772708682674025200,4.880025146484375,4.530500572144985,4.665370230361819,-1.327798463307321
1772708682684050400,4.890050537109375,4.899908469554782,4.776217792478204,-0.7137493772979825
1772708682694075400,4.900075439453125,5.101198519140482,4.763198151907324,0.1660872918445617
1772708682704100400,4.910100341796875,4.734292375418543,4.930540339183807,0.8278875053923577
1772708682714125300,4.920125244140625,3.8901965894818304,5.09351731698811,1.0315993752975017
1772708682724150500,4.930150634765625,3.1538340330332515,5.093507964637875,0.7126364476200193
1772708682734175500,4.940175537109375,2.556452077251673,4.746520573350787,0.1321844377208501
1772708682744201500,4.950201416015625,1.8883090705484151,3.908131474623084,-0.022140008680894968
1772708682754226400,4.960226318359375,1.1356178951114415,3.131305974882841,0.1943804893929511
1772708682764251400,4.97025146484375,0.5061749136805535,2.792592490944266,0.3652887351205572
1772708682774276600,4.980276611328125,0.2971294276624918,2.7355373092919586,0.2618138571966439
1772708682784301300,4.99030126953125,-0.1076584106862545,2.2806477616906164,-0.022758432840183376
1772708682794326300,5.000326171875,-1.3436767081797123,1.4427058222085236,-0.09134542765840888
1772708682804351200,5.010351318359375,-3.469972112548351,0.6696481505692005,0.41901802375316616
1772708682814376400,5.02037646484375,-6.341426543283462,-0.19016425993740557,1.6658533372066915
1772708682824401400,5.0304013671875,-8.705276319795846,-1.3214414954960345,2.6017384951770306
1772708682834426400,5.04042626953125,-9.24585969903469,-2.050866361635923,2.088345612941682
1772708682844451300,5.050451416015625,-7.592655269390344,-2.522217214694619,0.4388840230874717
1772708682854476500,5.0604765625,-4.8609354725599285,-4.490652545881271,-1.5673483931824563
1772708682864502500,5.07050244140625,-3.234431126053631,-9.370084629118441,-1.5050909667119383
1772708682874527500,5.080527587890625,-2.108821706998348,-12.968256420600413,0.239938636931777
1772708682884552400,5.090552490234375,-2.248699548766017,-12.8931219769001,0.2700298786117695
1772708682894577400,5.100577392578125,-2.2554048916235563,-10.194679011249542,3.026145518492162
1772708682904602400,5.110602294921875,-3.667311963203549,-7.22598410346806,3.803263571438193
1772708682914627300,5.12062744140625,-4.084696540535986,-7.031144252935052,3.9796339915618297
1772708682924652300,5.13065234375,-3.510653667026758,-8.747180694067477,5.325409425586462
1772708682934677200,5.14067724609375,-4.137884817627072,-9.754565592497586,4.9686494128257035
1772708682944702500,5.150702392578125,-5.120186712726951,-9.167497525459527,1.049657229231298
1772708682954727400,5.1607275390625,-4.720232285884022,-8.4680790905267,-2.9187831681430336
1772708682964752400,5.17075244140625,-3.1201316699177024,-8.849343429946899,-6.533764640128612
1772708682974778400,5.1807783203125,-0.6981482688665389,-8.394014321884512,-8.172820717433094
1772708682984803300,5.19080322265625,1.2507108397126196,-6.893911957240104,-7.15116004089117
1772708682994828500,5.20082861328125,1.8557436025083065,-4.363048494753241,-4.668997773209214
1772708683004853500,5.210853515625,1.9646295091629027,-1.4279799622416496,-1.243755613747239
1772708683014878200,5.220878173828125,1.5409487542957068,-0.12575053221583365,1.5035504592716693
1772708683024903400,5.2309033203125,0.2787713486731052,0.12596037557423115,1.9017926753692327
1772708683034928400,5.240928466796875,-1.3216244508475063,0.5053858091294765,0.9379822033148258
1772708683044953300,5.250953369140625,-2.4158073427647353,0.7193845336407423,-0.2507559086201712
1772708683054978300,5.260978271484375,-2.590245625782013,0.8449012571007013,-1.4631687645226716
1772708683065003500,5.27100341796875,-2.3929829320162535,1.0246031597346066,-1.9192272097729146
1772708683075028500,5.281028564453125,-1.920778676998615,1.2703390847682952,-2.2785817690715193
1772708683085054500,5.291054443359375,-1.1387088468641042,1.8642776220977306,-2.5644939294099807
1772708683095079400,5.301079345703125,0.27000936554670335,2.36419347538352,-2.364718229909986
1772708683105104400,5.3111044921875,2.035249105787277,2.34774444488585,-1.397480486820638
1772708683119514400,5.325514404296875,3.731957746115327,2.1611212185561657,-0.02711775142769329
1772708683129539600,5.33553955078125,5.442634121519327,2.1299778922736645,1.3860161128677426
1772708683139564300,5.345564208984375,6.802887870490551,2.2586159626245497,2.531221482144296
1772708683149589200,5.35558935546875,6.7410051225513214,2.164199310827255,3.057214902755618
1772708683159614200,5.3656142578125,4.546133610084652,2.732048882654309,3.007681641040742
1772708683169639400,5.375639404296875,1.8002613692611455,3.5525112795472142,2.4237702844679356
1772708683179664400,5.385664306640625,-0.03695347386598587,4.255352090144157,1.3668009786576032
1772708683189689300,5.395689453125,-0.7386123812019825,4.567276351356506,0.4066506365459412
1772708683199714300,5.40571435546875,-0.6492062510430813,4.315521019902825,-0.16587416055053472
1772708683209740300,5.415740234375,0.04980944830775261,4.104992601850628,-0.32681813468988985
1772708683219765500,5.425765625,1.1025503227680922,4.013868561857938,-0.40809232325423506
1772708683229790500,5.43579052734375,1.9608377156645058,4.0673879705995315,-0.6470305875044315
1772708683239815400,5.4458154296875,2.748094008526206,4.306635702657699,-0.8271068764086812
1772708683249840400,5.45584033203125,3.640706280350685,4.520339828136563,-0.9251765708208084
1772708683259865300,5.465865234375,4.422462806752324,4.591490755158662,-1.0234412763483822
1772708683269890300,5.475890380859375,4.834924248468876,4.650290150129795,-0.8923905918978154
1772708683279915300,5.485915283203125,4.815263270187377,4.901704120799899,-0.49162638304196293
1772708683289940500,5.4959404296875,4.494522080790996,5.2038014000028365,-0.16460901771923525
1772708683299965400,5.50596533203125,4.030530358323454,5.512310299813747,-0.15500179767403752
1772708683309990400,5.515990478515625,3.563146070808172,5.8695607264399525,-0.38610670141745357
1772708683320015400,5.526015380859375,3.4079321282207964,6.208300513863563,-0.6451991342935711
1772708683330041300,5.536041259765625,3.211825618752837,6.2690112954139705,-0.9979615287855267
1772708683340066600,5.546066650390625,2.9717829369246958,6.334443844789266,-1.3785383243329823
1772708683350091500,5.556091552734375,3.212594265037775,6.668569416415691,-1.4343103343069552
1772708683360116500,5.566116455078125,3.490498183226585,6.8008917282372705,-1.0414818868864326
1772708683370141200,5.57614111328125,3.758479257816076,6.2664148491799825,-0.6572827361233532
1772708683380166400,5.58616650390625,3.9185236892998216,5.7474698857754465,-0.5798928051138297
1772708683390191400,5.59619140625,3.6076901459336277,5.313928246629238,-0.14330145954079926
1772708683400216300,5.60621630859375,2.7134265997707843,3.9558950963169335,1.2756374834373592
1772708683410241300,5.6162412109375,1.0548165116906165,0.7271119130223989,3.1617759319484233
1772708683420266500,5.6262666015625,-1.163397882440686,-3.6871535587489603,4.680422253543139
1772708683439691300,5.645691162109375,-3.766861886236071,-10.593367363679409,-1.463467309077829
1772708683449716200,5.65571630859375,-4.265833736670017,-14.076348595404625,-3.9816152285069224
1772708683459741400,5.665741455078125,-4.254559478461742,-14.083849180293083,-4.005506099443138
1772708683469766400,5.675766357421875,-4.239636634618043,-14.092908100539445,-4.08087581320405
1772708683479791400,5.685791259765625,-4.225644934144616,-14.101974035048483,-4.162176378318668
1772708683489816300,5.69581640625,-4.179381195619702,-14.136008406597375,-4.209915157832205
1772708683499842300,5.70584228515625,-4.06800697928071,-14.220508060014247,-4.212206191378832
1772708683509867500,5.715867431640625,-5.44106175763607,-10.595796636652945,2.6146461998060344
1772708683519892500,5.725892578125,-8.615541688334941,-9.168917329129576,2.1263256533764303
1772708683529917400,5.73591748046875,-11.280531297194957,-6.02751315408051,0.5029225608211011
1772708683539942400,5.7459423828125,-11.178507677525282,-3.7379116860836743,-1.5476292549729347
1772708683549967400,5.75596728515625,-8.856455892300605,-2.78706525195539,-3.3552547232612966
1772708683559992300,5.765992431640625,-4.841423547360301,-1.6580319959312677,-3.8670869320511816
1772708683570017300,5.776017333984375,-0.5933282964766026,-0.9132909027159214,-2.5476494698539374
1772708683580042200,5.786042236328125,1.8145289640665054,0.31247254274487496,-0.346986916363053
1772708683590068000,5.79606787109375,2.2293781777024266,1.8505834432661532,1.425121942462027
1772708683600092700,5.8060927734375,1.6409855840623377,2.80834477134943,2.5812656159907577
1772708683610117600,5.81611767578125,0.8706792569577694,3.345755365771055,3.736809862321615
1772708683620143600,5.8261435546875,-0.6848615017920732,3.0644460230529305,4.227910540989041
1772708683630168600,5.83616845703125,-1.949854549357295,3.0136218447446823,3.7631384817987676
1772708683640193800,5.84619384765625,-1.505751768708229,3.286358589428663,2.5381454361885782
1772708683650218800,5.85621875,0.36185061389803885,2.6692548650890586,0.34354536107443273
1772708683660243700,5.86624365234375,2.6342665538161993,1.7616519448816774,-1.9117472292810678
1772708683670268700,5.8762685546875,4.559810253259539,1.4162626364409923,-3.446570194172859
1772708683680294000,5.8862939453125,5.482161245265603,1.3319944536924362,-3.868322026804089
1772708683690318800,5.89631884765625,4.858480480623245,1.715257273453474,-3.168576259613037
1772708683700343800,5.90634375,3.490575340116024,2.882411878079176,-1.6791491643704473
1772708683710368800,5.91636865234375,2.310488773202896,3.864998435339331,-0.02558466924205422
1772708683720394800,5.926394775390625,1.0535293944895268,4.084426783683896,0.8676100786454976
1772708683730420000,5.936419921875,-0.1620119321644306,4.362707718491554,0.9982056397397071
1772708683740444700,5.946444580078125,-0.5962053132176399,4.841194414779544,0.3556341505359858
1772708683750469600,5.9564697265625,-0.3191705790787935,5.052233704963326,-0.8810280708841979
1772708683760494600,5.96649462890625,0.4912602531433105,4.7386166683584445,-2.39325488082543
1772708683770519800,5.976519775390625,1.57662037165761,4.579408103176951,-3.0230116043806072
1772708683780544800,5.986544677734375,2.4061720839351413,4.789866378602385,-2.506913262578845
1772708683790569700,5.99656982421875,2.778207991760969,5.325739095932245,-1.5518357667520641
1772708683800594700,6.0065947265625,3.0728181300789115,5.881988830858469,-0.5339883283553645
1772708683810620000,6.016619873046875,3.5067712726354596,6.091925712758302,0.25724154431242496
1772708683820644900,6.026644775390625,4.022029656481743,6.109939508354664,0.6607682401515543
1772708683830669800,6.036669921875,4.473707840821147,6.180887606281042,0.7826346244104206
1772708683840695800,6.04669580078125,4.714014726543426,6.165283794435858,0.8573842335116117
1772708683850720800,6.056720703125,4.7998581957846875,6.0464230217337605,0.673211103747785
1772708683860745700,6.066745849609375,4.7545840528190135,5.940283783438802,0.24521805690573528
1772708683870770700,6.076770751953125,4.396850811111927,5.648628403273224,-0.484826676431857
1772708683880795600,6.086795654296875,3.8596903920590875,5.630317670556902,-1.1718078372590244
1772708683890820900,6.09682080078125,3.520336856651306,5.803602691885828,-1.7118905734993517
1772708683900845800,6.106845703125,3.5368969463080164,5.923247892963886,-2.031289846767485
1772708683910870800,6.116870849609375,3.609534312495589,6.252216227957606,-2.073900323481858
1772708683920895700,6.126895751953125,3.3784359846234318,6.668988518610596,-1.0334063516542316
1772708683930921000,6.1369208984375,2.851749028789997,6.488956945630908,0.5684941533409059
1772708683940946000,6.14694580078125,2.5625024633318185,5.6560506622284645,1.8293344651408492
1772708683950972000,6.156971923828125,2.462577861768007,3.996878848612308,2.252076623983681
1772708683960996900,6.166996826171875,2.3069424788981676,1.7014935365170238,1.5616140873141586
1772708683971021600,6.177021484375,1.1279232489556072,-0.839118582046032,0.6756140001710504
1772708683981046800,6.187046875,-1.0878583650708198,-4.480305339390039,1.2683436731673776
1772708683991071700,6.19707177734375,-2.417017887598276,-9.052360157194734,2.8518752855181693
1772708684001096700,6.2070966796875,-0.26128479182124137,-12.06166296969652,2.1168086140990257
1772708684011121700,6.21712158203125,2.70461317871809,-13.61575703676939,-0.8757986457981168
1772708684021147000,6.22714697265625,2.7273487421393394,-13.62981829534769,-0.8929421613659709
1772708684031171800,6.237171875,2.8281834442853926,-13.691639668488502,-0.9465005869437009
1772708684041196800,6.24719677734375,2.943564558178186,-13.765733663225173,-1.0171601502522825
1772708684051221800,6.2572216796875,3.0117548818290234,-13.812433455079793,-1.0742777296163142
1772708684061247700,6.267247802734375,3.024784459272027,-13.822261606132983,-1.0924852942191063
1772708684071273000,6.27727294921875,3.033590866062045,-13.823942691087723,-1.0567879578940569
1772708684081298000,6.2872978515625,3.084311583995819,-13.8459908567667,-0.9614783027797937
1772708684091322600,6.297322509765625,3.179339645689726,-13.894259505373238,-0.8249404921550303
1772708684101347600,6.30734765625,3.3069290837705134,-13.96730954401493,-0.6867262727506458
1772708684111372800,6.317372802734375,0.7825316024273633,-10.910537124329805,-1.132751545894891
1772708684121397800,6.327397705078125,2.192059377655387,-7.537543038499355,-2.3249711798027155
1772708684131422700,6.337422607421875,3.005125234556198,-3.8502012637019156,-1.1501502783328295
1772708684141447700,6.34744775390625,2.286259171831608,-0.33983810405433174,1.4135846494033932
1772708684151473000,6.357472900390625,0.7722726587414741,1.930987936323881,3.8740766448080537
1772708684161497900,6.367497802734375,-1.5837375101864337,2.060177210816741,3.33412688729763
1772708684171523800,6.37752392578125,-3.4189375063598155,2.0820400830566883,-0.38168545090910044
1772708684181548800,6.387548828125,-3.69664736328125,2.099935220709443,-4.054489910581708
1772708684191573800,6.39757373046875,-2.7230624431222674,1.5137112032800912,-6.648883303692936
1772708684201598700,6.4075986328125,-0.6399778194487095,1.3506249198824167,-6.996393257549404
1772708684211623700,6.417623779296875,1.8595371495723723,1.198150631392002,-5.694430954027175
1772708684221648600,6.427648681640625,3.986970618060231,1.2366776381850242,-3.7389670403555035
1772708684231673600,6.437673583984375,5.992099310871958,2.10212308614254,-1.912416214583814
1772708684241698800,6.44769873046875,7.554394804579019,3.0194869373857975,-0.46985951852239666
1772708684251723800,6.457723876953125,8.444072191995382,3.7869624249786136,0.5412658816102892
1772708684261748700,6.467748779296875,8.858156266477703,4.803839374375343,1.1393151421941816
1772708684271773700,6.477773681640625,8.087759338480234,5.524582921409607,1.62649967033118
1772708684281799700,6.487799560546875,4.616972986939549,5.278386977648735,2.6248250639930366
1772708684291825000,6.497824951171875,1.1056348447799682,4.8837107834696765,2.685539352674782
1772708684301849900,6.507849853515625,-0.7534872942507267,5.925770104917883,1.3517800812669098
1772708684311874800,6.517874755859375,-1.1959861468344926,5.829582351794839,0.6975959687460214
1772708684321899800,6.527899658203125,0.15527940903902052,5.287881951224803,0.2804662429574877
1772708684331924700,6.5379248046875,2.054295167040825,5.214973366880416,0.1986888541113585
1772708684341949700,6.54794970703125,3.911498905229568,5.358654692584276,0.20406031801663338
1772708684351974700,6.557974609375,5.202468690094351,5.192894806063175,0.43046961128972466
1772708684362000000,6.567999755859375,5.709180194869637,4.8454608400523655,0.4749593258794397
1772708684372024800,6.57802490234375,5.48106643576622,4.7912370824337005,0.5887313971403986
1772708684382049800,6.5880498046875,4.608751102039218,4.89202268474102,0.6497450340948998
1772708684392075800,6.59807568359375,3.5135716003000734,5.043773919653892,0.5179301968714222
1772708684402100700,6.608100830078125,2.645725520941615,5.31989095442593,0.4405129029309377
1772708684412126000,6.6181259765625,2.1856734760105607,5.681719941014051,0.48503279346320777
1772708684422151000,6.62815087890625,2.1801859845101834,5.908109360542893,0.4654759331433102
1772708684432175900,6.63817578125,2.5509108097374438,5.790725090134144,0.20184761040322483
1772708684442200600,6.64820068359375,3.024917145740986,5.642579770758748,-0.03999569110609591
1772708684452225800,6.658225830078125,3.436654364836216,5.646951409971714,0.10401503094891086
1772708684462250800,6.668250732421875,3.7887662595301865,5.588851103180646,0.26382981839524583
1772708684472275700,6.678275634765625,3.8905356121778487,5.378188829615712,0.24214493307070806
1772708684482300700,6.68830078125,3.733103409019112,4.740460834920406,0.3909541049160063
1772708684492326000,6.698325927734375,3.50259311016798,3.7150329147994516,0.7020788863137364
1772708684502352000,6.708351806640625,3.2244115440815686,2.9006273337274786,0.8080718480058013
1772708684512376800,6.718376953125,2.499658176884055,2.1369600062459706,0.5839446012552827
1772708684522401800,6.72840185546875,0.5547387458413839,0.8041822932213545,0.6397579661529511
1772708684532426800,6.7384267578125,-2.855881598550081,-1.4606103122115135,1.801765636344254
1772708684542452000,6.748451904296875,-6.0679603152811525,-4.443113380593061,2.0731253935866056
1772708684552476700,6.7584765625,-7.587246688345074,-7.653973369184136,0.5000138337675482
1772708684562501600,6.768501708984375,-6.969393022421002,-10.713808099049329,-1.9865382663711904
1772708684572526600,6.778526611328125,-4.6132758859872816,-11.751492274153232,-5.385637976577877
1772708684582552000,6.788552001953125,-4.639904949715733,-11.731050374627113,-5.393761661800742
1772708684592577000,6.798576904296875,-4.621534595766663,-11.744012732052802,-5.4755076325953
1772708684602602000,6.80860205078125,-10.063342787855863,-10.618957732009887,-0.5976226326696574
1772708684612628000,6.8186279296875,-8.887635458940267,-10.40505428456664,2.068192759490013
1772708684622653000,6.82865283203125,-4.460701644253731,-11.77949087266922,2.8839921330079434
1772708684632678100,6.83867822265625,-1.8618226301610468,-13.429158944880962,3.0873370692968365
1772708684642702800,6.848702880859375,-1.7714064461767673,-13.500073140537738,3.0502684446185824
1772708684652727800,6.858727783203125,-1.6092565668463705,-13.63041450767517,3.014164865580201
1772708684662752800,6.868752685546875,-5.103642989683151,-10.450904181593655,2.298091940705478
1772708684672778000,6.878778076171875,-7.9105276253521435,-8.322076628398895,0.9498765661828219
1772708684682803000,6.888802978515625,-10.076296961975098,-5.747524246311188,-0.6468306079529226
1772708684692828000,6.898827880859375,-10.265044925373791,-3.1391338920295238,-1.2816123200632632
1772708684702852900,6.908852783203125,-8.689649711596966,-0.971151555532217,-1.2528975361019372
1772708684712878000,6.918878173828125,-6.234660697522759,-0.3053980743139982,-0.6374005893718451
1772708684722904000,6.928904052734375,-3.602103870233893,-0.6672124478548764,-0.6326520796705037
1772708684732929000,6.938928955078125,-1.0239876581847667,-0.30610651484429835,-1.80330234439224
1772708684742954000,6.9489541015625,1.1684843919247387,0.06711772598326206,-2.879765162962675
1772708684752979000,6.95897900390625,2.438441199377179,0.48109834009110924,-3.224375303724408
1772708684763004000,6.96900390625,2.6383453475624323,1.3688625873625277,-2.675191269400716
1772708684773028900,6.97902880859375,2.138419557404518,2.355654779618978,-1.341540719064325
1772708684783053800,6.9890537109375,1.8068676356583833,3.3250171136468647,0.31823457687031476
1772708684793078800,6.999078857421875,2.1059353379070758,4.128967351678013,1.6877241004921495
1772708684803104000,7.00910400390625,2.9984920801520345,4.708237312185764,2.3982623337239026
1772708684813129000,7.01912890625,4.3165246439874165,5.12356232663989,2.875836883603036
1772708684823155000,7.029155029296875,5.641846780309081,5.3404883367747065,3.2234041206046937
1772708684833180000,7.039179931640625,6.352445949947834,5.210471379286051,3.001249854427576
1772708684843204900,7.049204833984375,6.4000429829031225,5.05603075915873,2.2843444242514668
1772708684853230000,7.05922998046875,5.989145137241483,4.858370590507984,1.6288894880771636
1772708684863255000,7.069255126953125,5.38647325835824,4.5992339166313405,1.220166867562756
1772708684873279700,7.07927978515625,4.866982351508736,4.472111511540413,0.8942487869851291
1772708684883305000,7.089304931640625,4.382044287124276,4.331577251690626,0.632858050571382
1772708684893330000,7.099329833984375,3.9643712482392788,4.224898499691486,0.5651815216615795
1772708684903355000,7.10935498046875,3.8360780458033084,4.334602736991644,0.5449924278527498
1772708684913379800,7.1193798828125,3.9714135679662226,4.314100047188997,0.6114554893195628
1772708684923405000,7.129405029296875,3.8745617979764937,4.0663323240667575,0.5168932185065
1772708684933430800,7.1394306640625,3.5469162360191344,3.953957990774512,0.10183657266497612
1772708684943456000,7.1494560546875,3.1849557320058346,3.9729578747987744,-0.5233049852449446
1772708684953481000,7.15948095703125,3.0486832212537527,4.20915031093955,-0.8507621119581162
1772708684963506000,7.169505859375,3.4236949300199746,4.406101454538106,-0.4997252260845154
1772708684973531000,7.17953076171875,4.1714217610478395,4.464644244399667,0.08147489876821637
1772708684983556000,7.18955615234375,4.620673010501266,4.48560052318871,0.6480781237959862
1772708684993580800,7.199580810546875,4.7143923276841635,4.667175233957171,0.9754765060592442
1772708685003605800,7.209605712890625,4.417292710638046,4.8209465765208,1.114292417683825
1772708685013631000,7.219630859375,4.073760428240895,4.958763978627323,1.0593909069340675
1772708685023656000,7.229656005859375,3.6530034518659114,5.087265855377912,0.5755154302798211
1772708685033681000,7.239680908203125,2.8530519280821083,5.355073911488056,0.1347998078510165
1772708685043707000,7.249706787109375,1.8968647174477575,5.462466364714503,0.01781871141567826
1772708685053731800,7.25973193359375,1.2891899157106876,5.620875888472795,-0.04312997054383159
1772708685063757000,7.269757080078125,1.3093734565615653,6.28396979509294,0.19518077292516828
1772708685073782000,7.279781982421875,1.2804735252916812,6.8569847868591545,0.9736358466286211
1772708685083807000,7.289806884765625,1.0236211629599332,6.784995655447244,2.3564395002558824
1772708685093832000,7.29983203125,0.907927914378047,6.231627613437175,3.461207206812501
1772708685103857200,7.309857177734375,0.3613017478436231,4.84666437062323,3.5147336298167704
1772708685113881900,7.3198818359375,-0.6698632546246052,2.77180981515646,3.2594407718867062
1772708685123906800,7.32990673828125,-1.346314070945978,-0.039509003567695614,2.476318802350759
1772708685133931800,7.339931884765625,-0.742746120005846,-3.4600106905043124,0.828527410731092
1772708685143957000,7.34995703125,0.671090750592947,-5.45736115052998,-1.8427923509985207
1772708685153983000,7.35998291015625,1.5915058061003684,-5.321762008994817,-3.149194682794809
1772708685164008000,7.370008056640625,1.0760405015051364,-6.639120034569501,-2.2920316177532074
1772708685174033000,7.380032958984375,-0.5253302805274724,-9.685807113569973,0.4859592241257429
1772708685184057900,7.390057861328125,-0.3995300639510154,-11.731233914500475,1.6153455313712357
1772708685194083000,7.4000830078125,1.5228841052949427,-13.067543308782577,-0.23470446260534225
1772708685204108000,7.41010791015625,1.6141519376724958,-13.12744043586254,-0.2306994647476822
1772708685214133000,7.420133056640625,1.7749731987476347,-13.231840721535681,-0.2563001352764666
