time,seconds_elapsed,z,y,x
1772708677851953700,0.05795361328125,0.15266232192516327,0.24888533353805542,-0.4718235731124878
1772708677861979000,0.067978759765625,0.11077026277780533,0.0718647688627243,-0.42885908484458923
1772708677872003800,0.07800390625,0.07036223262548447,-0.0710199773311615,-0.3765200674533844
1772708677882028800,0.08802880859375,0.03223562613129616,-0.16801363229751587,-0.32145386934280396
1772708677892053800,0.0980537109375,-0.01944202184677124,-0.21444103121757507,-0.300397127866745
1772708677902079000,0.108078857421875,-0.09222567826509476,-0.2356826663017273,-0.3167577087879181
1772708677912103700,0.118103759765625,-0.1664319932460785,-0.24747194349765778,-0.36751890182495117
1772708677922128600,0.128128662109375,-0.22527383267879486,-0.2672068476676941,-0.44289112091064453
1772708677932153600,0.138153564453125,-0.2685469686985016,-0.3174598813056946,-0.5293060541152954
1772708677942179600,0.1481796875,-0.3252371549606323,-0.3417266011238098,-0.6002859473228455
1772708677952204800,0.158204833984375,-0.4058484733104706,-0.2564796507358551,-0.6420051455497742
1772708677962229800,0.168229736328125,-0.48181405663490295,-0.1208813413977623,-0.6610826849937439
1772708677972254700,0.178254638671875,-0.5450324416160583,-0.045762039721012115,-0.6336085796356201
1772708677982279700,0.18827978515625,-0.6104164719581604,0.03092661127448082,-0.5269755721092224
1772708677992305000,0.198304931640625,-0.684012770652771,0.11583507061004639,-0.3712770938873291
1772708678002329900,0.208329833984375,-0.7365284562110901,0.2171129584312439,-0.21408456563949585
1772708678012354800,0.218354736328125,-0.7568712830543518,0.3129502832889557,-0.08059747517108917
1772708678022379800,0.2283798828125,-0.7669870257377625,0.42055290937423706,0.017781563103199005
1772708678032404700,0.23840478515625,-0.7720780968666077,0.5529961585998535,0.07997734844684601
1772708678042431000,0.248430908203125,-0.8015047311782837,0.6843451261520386,0.09287130832672119
1772708678052455700,0.25845556640625,-0.9030729532241821,0.7821332216262817,0.03690238669514656
1772708678062480600,0.268480712890625,-1.0509883165359497,0.823593020439148,-0.07432852685451508
1772708678072505600,0.278505615234375,-1.0946853160858154,0.8429659605026245,-0.22328704595565796
1772708678082530800,0.28853076171875,-1.0218297243118286,1.0135198831558228,-0.3433833718299866
1772708678092555800,0.2985556640625,-0.8611230254173279,1.216200828552246,-0.4089685380458832
1772708678102580700,0.308580810546875,-0.638677716255188,1.5120333433151245,-0.4585121273994446
1772708678112605700,0.318605712890625,-0.45100948214530945,1.8026061058044434,-0.5144971013069153
1772708678122631000,0.328630859375,-0.35628724098205566,1.9538627862930298,-0.5600387454032898
1772708678132657000,0.338656982421875,-0.39013561606407166,1.84763765335083,-0.5678993463516235
1772708678142681900,0.348681884765625,-0.5314673781394958,1.382756233215332,-0.5423729419708252
1772708678152706800,0.358706787109375,-0.6707257628440857,0.3746868371963501,-0.4663393199443817
1772708678162731500,0.3687314453125,-0.5716686844825745,1.1268521547317505,-1.1541999578475952
1772708678172756700,0.3787568359375,0.19813857972621918,0.24090707302093506,-1.6137919425964355
1772708678182781700,0.38878173828125,0.6027544736862183,0.9570231437683105,-1.425094485282898
1772708678192806700,0.398806640625,0.7565454840660095,1.0620261430740356,-0.9888631701469421
1772708678202832000,0.408831787109375,0.7895836234092712,0.47204387187957764,-0.3962733745574951
1772708678212856800,0.41885693359375,0.6711392402648926,0.009681832045316696,0.36648157238960266
1772708678222881800,0.4288818359375,0.4845621883869171,-0.12447037547826767,1.1326240301132202
1772708678232907800,0.43890771484375,0.2465490996837616,-0.1080571711063385,1.6392967700958252
1772708678242932700,0.4489326171875,0.038505084812641144,0.8882066011428833,1.2077206373214722
1772708678252957700,0.458957763671875,0.23249934613704681,1.7765023708343506,0.6691527366638184
1772708678262983000,0.46898291015625,0.45835059881210327,1.9811279773712158,0.3716296851634979
1772708678273007900,0.4790078125,0.6880218386650085,2.1379756927490234,0.021140996366739273
1772708678283032600,0.489032470703125,1.0628734827041626,1.9629260301589966,-0.053157202899456024
1772708678293057800,0.499057861328125,1.517927646636963,1.6132709980010986,0.0713081806898117
1772708678303082800,0.509082763671875,1.974090576171875,1.0458717346191406,0.17879122495651245
1772708678313107700,0.519107666015625,2.243588924407959,0.2740841209888458,0.3160034716129303
1772708678323132700,0.529132568359375,2.2315399646759033,-0.7239967584609985,0.6680363416671753
1772708678333158700,0.53915869140625,1.9248713254928589,-1.9602370262145996,1.3009361028671265
1772708678343184000,0.549183837890625,1.5279017686843872,-3.3337903022766113,2.2040958404541016
1772708678353208800,0.559208740234375,1.3178685903549194,-4.367995262145996,3.230743885040283
1772708678363233800,0.56923388671875,1.170947790145874,-4.573636054992676,3.9836857318878174
1772708678373258800,0.5792587890625,0.9734109044075012,-4.0889153480529785,4.167760372161865
1772708678383284000,0.589283935546875,0.8289716839790344,-3.2181363105773926,3.6778206825256348
1772708678393309000,0.599308837890625,0.7440768480300903,-2.103494882583618,2.631458282470703
1772708678403333600,0.609333740234375,0.6164584159851074,-0.8975703716278076,1.3674776554107666
1772708678413358600,0.619358642578125,0.3803284466266632,0.2226153016090393,0.11989933252334595
1772708678423383800,0.6293837890625,0.1359943449497223,0.9728085994720459,-0.986595869064331
1772708678433409800,0.639409912109375,-0.07094062119722366,1.2826987504959106,-1.7963628768920898
1772708678443434800,0.649434814453125,-0.20517805218696594,1.2042311429977417,-2.1381566524505615
1772708678453459700,0.659459716796875,-0.28811636567115784,0.9723072052001953,-1.8929589986801147
1772708678463484700,0.669484619140625,-0.29543977975845337,0.6030721664428711,-1.2354103326797485
1772708678473510000,0.679510009765625,-0.2654940187931061,0.19059911370277405,-0.49558958411216736
1772708678483534800,0.689534912109375,-0.22043545544147491,-0.207637220621109,0.07428587228059769
1772708678493559800,0.699559814453125,-0.15431596338748932,-0.5529928207397461,0.349910169839859
1772708678503584800,0.709584716796875,-0.04640893265604973,-0.7287555932998657,0.3813423812389374
1772708678513609700,0.719609619140625,0.11113180220127106,-0.6897779107093811,0.24863238632678986
1772708678523636000,0.729635986328125,0.3011328876018524,-0.4111276865005493,0.04418684169650078
1772708678533660700,0.73966064453125,0.5083787441253662,0.03578099235892296,-0.1567249894142151
1772708678543685600,0.749685546875,0.6982583999633789,0.4841068685054779,-0.3146858811378479
1772708678553710600,0.759710693359375,0.7654543519020081,0.684059202671051,-0.4528566896915436
1772708678563735800,0.76973583984375,0.6833397746086121,0.648648202419281,-0.4967213571071625
1772708678573760800,0.7797607421875,0.5182392001152039,0.45432618260383606,-0.40571412444114685
1772708678583787000,0.789787109375,0.3028656840324402,0.15425743162631989,-0.20962265133857727
1772708678593812000,0.79981201171875,0.10662020742893219,-0.08716753125190735,0.029516926035284996
1772708678603837000,0.8098369140625,-0.03533027693629265,-0.09880661964416504,0.21723462641239166
1772708678613862100,0.819862060546875,-0.054126959294080734,0.15624834597110748,0.30692508816719055
1772708678623888100,0.82988818359375,0.010603832080960274,0.5809844732284546,0.32091307640075684
1772708678633913000,0.8399130859375,0.050200290977954865,1.5304871797561646,0.3841707706451416
1772708678643938000,0.84993798828125,0.11303145438432693,1.811483383178711,0.18727712333202362
1772708678653963000,0.859962890625,0.060572944581508636,1.3818143606185913,0.08432860672473907
1772708678663988200,0.86998828125,-0.13014453649520874,0.4605278968811035,0.30527111887931824
1772708678674013000,0.880012939453125,-0.3157767355442047,-1.2068486213684082,0.7397457361221313
1772708678684038000,0.890037841796875,-0.4800786077976227,-3.245861053466797,1.5039161443710327
1772708678694062800,0.900062744140625,-0.5729827880859375,-4.933286190032959,2.391705274581909
1772708678704088000,0.910088134765625,-0.5879375338554382,-5.390238285064697,2.9565694332122803
1772708678714113000,0.920113037109375,-0.4820139408111572,-3.975794792175293,3.0693161487579346
1772708678724138000,0.930137939453125,-0.25361114740371704,-2.06705379486084,2.984300136566162
1772708678734164000,0.9401640625,-0.1527782529592514,0.16697882115840912,2.4728684425354004
1772708678744189000,0.95018896484375,-0.25371554493904114,1.9554195404052734,1.6930204629898071
1772708678754214100,0.960214111328125,-0.3351755738258362,2.728947877883911,0.8425433039665222
1772708678764239000,0.970239013671875,-0.27126502990722656,1.9604872465133667,0.21216902136802673
1772708678774264000,0.98026416015625,-0.09088903665542603,-0.01284586638212204,0.07795098423957825
1772708678784289000,0.9902890625,0.3407595753669739,-2.018191337585449,0.37232640385627747
1772708678794314000,1.00031396484375,1.025361180305481,-2.189650058746338,1.1639958620071411
1772708678804339000,1.0103388671875,1.445788025856018,-1.0025736093521118,1.9338544607162476
1772708678814364000,1.020364013671875,1.3386610746383667,0.28749391436576843,2.130765914916992
1772708678824388900,1.030388916015625,0.7659480571746826,0.8088334798812866,1.5127549171447754
1772708678834414800,1.040414794921875,0.06505494564771652,0.971133291721344,0.38557717204093933
1772708678844440000,1.050440185546875,-0.3631768226623535,1.358385443687439,-0.8569733500480652
1772708678854465000,1.060465087890625,-0.48382535576820374,2.311983346939087,-1.841961145401001
1772708678864490000,1.070489990234375,-0.22944924235343933,3.3695905208587646,-2.103478193283081
1772708678874515000,1.080514892578125,-0.008831704035401344,3.464426279067993,-1.9226460456848145
1772708678884540200,1.0905400390625,-0.08109098672866821,2.646270990371704,-1.893447995185852
1772708678894565000,1.100565185546875,-0.2703147530555725,1.3355467319488525,-2.3256165981292725
1772708678904590000,1.110590087890625,-0.23348988592624664,-0.05982935056090355,-2.6841845512390137
1772708678914615000,1.120614990234375,-0.039876244962215424,-1.2412952184677124,-2.4874234199523926
1772708678924640000,1.130639892578125,-0.011607320979237556,-1.828909158706665,-1.8863285779953003
1772708678934666000,1.140666015625,-0.2768853008747101,-1.7280603647232056,-1.4000966548919678
1772708678944691000,1.15069091796875,-0.6257489919662476,-1.186855673789978,-1.3600314855575562
1772708678954716000,1.1607158203125,-0.8134760856628418,-0.6557364463806152,-1.739035964012146
1772708678964740900,1.170740966796875,-0.6637281179428101,-0.14054900407791138,-2.239354133605957
1772708678974766000,1.18076611328125,-0.21276751160621643,0.3638247847557068,-2.5229673385620117
1772708678984791000,1.190791015625,0.2725834846496582,0.5369992256164551,-2.5689263343811035
1772708678994816000,1.20081591796875,0.6504784226417542,0.44331684708595276,-2.3804752826690674
1772708679004841200,1.21084130859375,0.9438290596008301,0.4238094687461853,-1.9505059719085693
1772708679014866200,1.2208662109375,1.1125216484069824,0.41310861706733704,-1.3697060346603394
1772708679024891000,1.230890869140625,1.0931719541549683,0.11726123094558716,-0.7641735076904297
1772708679034917000,1.240917236328125,0.9830687046051025,-0.27928686141967773,-0.21110959351062775
1772708679044941800,1.25094189453125,0.7721692323684692,-0.5970810651779175,0.12279062718153
1772708679054967000,1.260967041015625,0.48534125089645386,-0.7216702103614807,0.17917485535144806
1772708679064992000,1.270991943359375,0.22908921539783478,-0.6466753482818604,0.05954885482788086
1772708679075017000,1.281016845703125,0.034437164664268494,-0.4934580326080322,-0.12904606759548187
1772708679085042000,1.2910419921875,-0.05536675825715065,-0.19934383034706116,-0.22613507509231567
1772708679095067100,1.301067138671875,-0.026717031374573708,0.003124798648059368,-0.2114015519618988
1772708679105092000,1.311092041015625,0.051104795187711716,0.04937218874692917,-0.08950413763523102
1772708679115117000,1.321116943359375,0.3897566497325897,-0.12010360509157181,0.01785149797797203
1772708679125142000,1.33114208984375,0.6677038669586182,-0.05123293027281761,0.16328006982803345
1772708679135168000,1.34116796875,0.713374137878418,-0.06513310223817825,0.3076310455799103
1772708679145193200,1.351193115234375,0.5369921922683716,-0.12696237862110138,0.48401299118995667
1772708679155218200,1.36121826171875,0.16595584154129028,-0.2562662959098816,0.645577609539032
1772708679165243000,1.371242919921875,-0.336572527885437,-0.44304177165031433,0.7576642036437988
1772708679175267800,1.381267822265625,-0.828410804271698,-0.6229828000068665,0.8302602767944336
1772708679185293000,1.39129296875,-1.1469333171844482,-0.6684096455574036,0.8656305074691772
1772708679195318000,1.401318115234375,-1.3030873537063599,-0.5254203081130981,0.9012654423713684
1772708679205343000,1.411343017578125,-1.376875638961792,-0.33283913135528564,0.9213438630104065
1772708679215368000,1.421367919921875,-1.351703405380249,-0.06800666451454163,0.9293777942657471
1772708679225393200,1.43139306640625,-1.2110493183135986,0.13716167211532593,0.9239518642425537
1772708679235418000,1.441418212890625,-1.0253039598464966,0.3911505341529846,0.9711772203445435
1772708679245444000,1.451444091796875,-0.8355303406715393,0.6376990079879761,1.1129629611968994
1772708679255469000,1.461468994140625,-0.7301633358001709,0.5475283265113831,1.2422090768814087
1772708679265494000,1.471493896484375,-0.8302872776985168,0.05509733408689499,1.3211363554000854
1772708679275519000,1.48151904296875,-1.1477288007736206,-0.19201995432376862,1.40695059299469
1772708679285544000,1.4915439453125,-1.4460058212280273,-0.2936629354953766,1.4504010677337646
1772708679295569000,1.50156884765625,-1.6828473806381226,-0.1045212596654892,1.5336984395980835
1772708679305593900,1.51159375,-1.748363733291626,0.36344248056411743,1.6137514114379883
1772708679315619000,1.521619140625,-1.4895775318145752,0.36510351300239563,1.4914255142211914
1772708679325644000,1.53164404296875,-1.1244560480117798,0.15381018817424774,1.1855616569519043
1772708679335669000,1.5416689453125,-0.6970547437667847,0.060680732131004333,0.9372379183769226
1772708679345695000,1.551695068359375,-0.0849684327840805,0.0016509643755853176,0.8502657413482666
1772708679355720000,1.561719970703125,0.4478846788406372,-0.17328086495399475,1.054789662361145
1772708679365745200,1.5717451171875,0.7086888551712036,-0.3533502519130707,1.520203948020935
1772708679375770000,1.58177001953125,0.5830469131469727,-0.6037049293518066,2.1476757526397705
1772708679385795000,1.591795166015625,0.19284504652023315,-0.5087864398956299,2.6749558448791504
1772708679395819800,1.60181982421875,-0.1732613891363144,-0.14961043000221252,2.6366641521453857
1772708679405845000,1.611844970703125,-0.3525845408439636,0.41049256920814514,2.051793098449707
1772708679415870000,1.621869873046875,-0.28448083996772766,1.1630536317825317,1.2573113441467285
1772708679425895000,1.63189501953125,-0.054522473365068436,1.8278838396072388,0.5875489115715027
1772708679435921000,1.6419208984375,0.383181095123291,2.158435583114624,0.27511677145957947
1772708679445945900,1.65194580078125,0.6583117246627808,1.7641706466674805,0.10107571631669998
1772708679455971000,1.66197119140625,0.47946032881736755,0.9173693656921387,-0.027956416830420494
1772708679465996000,1.67199609375,0.1770506650209427,0.2342267483472824,-0.024898575618863106
1772708679476021000,1.68202099609375,-0.18450629711151123,-0.09202517569065094,-0.1681712567806244
1772708679486046000,1.6920458984375,-0.39790967106819153,-0.7744966745376587,-0.5738686919212341
1772708679496071200,1.7020712890625,-0.4655493497848511,-1.6235191822052002,-1.1021889448165894
1772708679506096000,1.71209619140625,-0.4319993853569031,-2.214102268218994,-1.485434889793396
1772708679516120800,1.722120849609375,-0.3196661174297333,-2.345771551132202,-1.6761046648025513
1772708679526146000,1.73214599609375,-0.2503805160522461,-2.2613673210144043,-1.8958958387374878
1772708679536172000,1.742172119140625,-0.2517772316932678,-2.058563470840454,-2.22475004196167
1772708679546197000,1.752197021484375,-0.12390048056840897,-1.5193815231323242,-2.4274861812591553
1772708679556222000,1.762221923828125,0.28508031368255615,-0.5868706107139587,-2.3732659816741943
1772708679566247000,1.772246826171875,0.7218533158302307,0.8006696105003357,-2.0573763847351074
1772708679576272100,1.782272216796875,0.8776751160621643,1.809584379196167,-1.492548942565918
1772708679586295800,1.7922958984375,0.8663582801818848,1.7339069843292236,-0.8268049359321594
1772708679596320800,1.80232080078125,0.8789438605308533,0.9558736681938171,-0.050254981964826584
1772708679606346000,1.812345947265625,0.9887968301773071,0.06938669830560684,0.8282747268676758
1772708679616371000,1.822370849609375,1.151571273803711,-0.55672287940979,1.3986161947250366
1772708679626396000,1.83239599609375,1.3430097103118896,-0.740831196308136,1.4471802711486816
1772708679636422000,1.842421875,1.483288049697876,-0.6677273511886597,1.1168349981307983
1772708679646446800,1.85244677734375,1.7208616733551025,-0.33016133308410645,0.7702306509017944
1772708679656472000,1.86247216796875,2.057999610900879,0.13312433660030365,0.5402873158454895
1772708679666497000,1.8724970703125,2.3013272285461426,0.37653830647468567,0.3829599916934967
1772708679676521700,1.882521728515625,2.19036602973938,0.3462371528148651,0.2759869396686554
1772708679686546700,1.892546630859375,1.869768500328064,0.2747988998889923,0.24090886116027832
1772708679696572000,1.902572021484375,1.4632755517959595,0.14444825053215027,0.26327764987945557
1772708679706596900,1.912596923828125,0.9824708104133606,-0.10872461646795273,0.3058245778083801
1772708679716621800,1.922621826171875,0.4897933900356293,-0.417582243680954,0.3929138779640198
1772708679726646800,1.932646728515625,0.04346517473459244,-0.6662360429763794,0.496936172246933
1772708679736672800,1.9426728515625,-0.290683776140213,-0.7648876905441284,0.6004365086555481
1772708679746698000,1.952697998046875,-0.5446476340293884,-0.7337716221809387,0.6498738527297974
1772708679756723000,1.962722900390625,-0.728970468044281,-0.5588019490242004,0.6436764001846313
1772708679766748000,1.972747802734375,-0.8521941304206848,-0.28233838081359863,0.5866480469703674
1772708679776772900,1.98277294921875,-0.9020359516143799,-0.03656196594238281,0.4522063434123993
1772708679786798000,1.992798095703125,-0.936556875705719,0.0707668885588646,0.23078690469264984
1772708679796822800,2.00282275390625,-0.9875271320343018,0.10937610268592834,0.005310640670359135
1772708679806847700,2.01284765625,-1.0624455213546753,0.09923744946718216,-0.16961351037025452
1772708679816873000,2.022873046875,-1.197905421257019,0.012811990454792976,-0.31564268469810486
1772708679826898700,2.032898681640625,-1.356587529182434,-0.1313915252685547,-0.4588153064250946
1772708679836924000,2.042923828125,-1.4951170682907104,-0.30285152792930603,-0.6157453060150146
1772708679846948900,2.052948974609375,-1.6521536111831665,-0.4528641998767853,-0.7847508788108826
1772708679856973800,2.062973876953125,-1.7941977977752686,-0.5500398874282837,-0.9534819722175598
1772708679866998800,2.072998779296875,-1.9060746431350708,-0.6670487523078918,-1.106688380241394
1772708679877024000,2.08302392578125,-1.8707623481750488,-0.8075584769248962,-1.2275530099868774
1772708679887049000,2.093049072265625,-1.6819080114364624,-0.6191680431365967,-1.388750433921814
1772708679897074000,2.103073974609375,-1.5353585481643677,-0.1795017570257187,-1.6006810665130615
1772708679907099000,2.113098876953125,-1.408157229423523,0.1286315619945526,-1.9055858850479126
1772708679917123800,2.123123779296875,-1.2888565063476562,0.5935384631156921,-2.151254415512085
1772708679927149800,2.13314990234375,-1.0587149858474731,0.9358135461807251,-2.1045711040496826
1772708679937174800,2.1431748046875,-0.6862002611160278,0.9714003801345825,-1.8217387199401855
1772708679947199700,2.15319970703125,-0.20408155024051666,0.8632043600082397,-1.3699028491973877
1772708679957225000,2.163224853515625,0.2027783840894699,0.6529994606971741,-0.7302899956703186
1772708679967250000,2.17325,0.4017902910709381,0.07236088067293167,-0.09586109220981598
1772708679977275000,2.18327490234375,0.22101135551929474,-0.5303770303726196,0.3362336754798889
1772708679987299800,2.1932998046875,-0.44579946994781494,-0.5948742628097534,0.4785490036010742
1772708679997325000,2.203324951171875,-0.9946215748786926,-1.0455454587936401,0.11290200054645538
1772708680007350000,2.21335009765625,-1.2203360795974731,-1.148761510848999,-0.2958732545375824
1772708680017375000,2.223375,-1.1664458513259888,-1.1603798866271973,-0.6797823309898376
1772708680027401000,2.23340087890625,-0.8137521147727966,-0.9911240339279175,-1.0427435636520386
1772708680037426000,2.243426025390625,-0.22859780490398407,-0.6882330179214478,-1.5001802444458008
1772708680047451000,2.253450927734375,0.44999000430107117,-0.4077737033367157,-2.207886219024658
1772708680057475800,2.263475830078125,0.9442743062973022,0.1597428023815155,-3.0650148391723633
1772708680067500800,2.273500732421875,1.1643762588500977,0.8048776388168335,-3.649837017059326
1772708680077525800,2.28352587890625,1.142896294593811,0.9373907446861267,-3.662895917892456
1772708680087551000,2.293551025390625,0.9505695104598999,0.5126466155052185,-3.103095293045044
1772708680097576000,2.303575927734375,0.7097851634025574,0.044519394636154175,-2.1867074966430664
1772708680107601000,2.313600830078125,0.26216718554496765,-0.49123671650886536,-1.2232781648635864
1772708680117627000,2.323626953125,-0.3837280571460724,-0.9857569932937622,-0.2834339439868927
1772708680127651800,2.33365185546875,-1.05989408493042,-1.1644948720932007,0.5668686628341675
1772708680137677000,2.343677001953125,-1.621450662612915,-0.9216310381889343,1.1746220588684082
1772708680147702000,2.353701904296875,-1.9962817430496216,-0.3850933015346527,1.478736162185669
1772708680157727000,2.36372705078125,-1.9269639253616333,0.47475990653038025,1.573967695236206
1772708680167751700,2.373751708984375,-1.3500055074691772,1.2049126625061035,1.4789549112319946
1772708680177777000,2.38377685546875,-0.32962486147880554,1.5020036697387695,1.3473299741744995
1772708680187801900,2.3938017578125,0.743469774723053,1.589759349822998,1.3988826274871826
1772708680197826800,2.403826904296875,1.5243271589279175,1.2940036058425903,1.5070412158966064
1772708680207851800,2.413851806640625,1.8396748304367065,0.658162534236908,1.528964638710022
1772708680217877800,2.423877685546875,1.757568359375,-0.07084720581769943,1.5141558647155762
1772708680227903000,2.433903076171875,1.4099195003509521,-0.5690112113952637,1.6584515571594238
1772708680237928000,2.443927978515625,0.9858648180961609,-1.07511568069458,1.8953596353530884
1772708680247953000,2.453952880859375,0.6032668352127075,-1.5196657180786133,2.1703503131866455
1772708680257977900,2.463977783203125,0.25062987208366394,-1.781447410583496,2.3716843128204346
1772708680268003000,2.474003173828125,-0.011402791365981102,-1.8910434246063232,2.4292850494384766
1772708680278027800,2.48402783203125,-0.1511358916759491,-1.610280156135559,2.3506622314453125
1772708680288052700,2.494052734375,-0.1005781814455986,-0.9333251714706421,2.126216411590576
1772708680298077700,2.50407763671875,0.14035941660404205,-0.27708664536476135,1.819350242614746
1772708680308103000,2.51410302734375,0.3859920799732208,0.1537821888923645,1.4909976720809937
1772708680318129000,2.52412890625,0.5073545575141907,0.28720489144325256,1.2063021659851074
1772708680328153900,2.53415380859375,0.48181188106536865,0.19317026436328888,1.0033544301986694
1772708680338178800,2.5441787109375,0.3382025361061096,0.023864928632974625,0.8605996370315552
1772708680348203800,2.554203857421875,0.10285497456789017,-0.1406736820936203,0.7108852863311768
1772708680358229000,2.56422900390625,-0.1606726050376892,-0.40151479840278625,0.4981241822242737
1772708680368254000,2.57425390625,-0.23549358546733856,-0.7446351051330566,0.2936919331550598
1772708680378279000,2.58427880859375,-0.15293337404727936,-0.9050632119178772,0.18094301223754883
1772708680388304000,2.594303955078125,-0.0269732978194952,-0.8309687376022339,0.13865892589092255
1772708680398328800,2.604328857421875,0.08535775542259216,-0.5846037864685059,0.15727877616882324
1772708680408353800,2.614353759765625,0.1487410068511963,-0.2990593910217285,0.21256600320339203
1772708680418379800,2.6243798828125,0.14656515419483185,-0.13715718686580658,0.24902312457561493
1772708680428404700,2.63440478515625,0.07246030122041702,-0.0667693018913269,0.2674820125102997
1772708680438430000,2.644429931640625,-0.03976089879870415,-0.09287864714860916,0.26796385645866394
1772708680448455000,2.654454833984375,-0.14872972667217255,-0.32611241936683655,0.27731314301490784
1772708680458479900,2.66447998046875,-0.27060893177986145,-0.7207961678504944,0.38002946972846985
1772708680468504800,2.6745048828125,-0.29548391699790955,-0.9274441599845886,0.6204425692558289
1772708680478530000,2.684530029296875,0.015712445601820946,-0.6683226227760315,0.9670031070709229
1772708680488555000,2.694554931640625,0.5765663981437683,0.08514530956745148,1.4955790042877197
1772708680498580000,2.704580078125,1.3690807819366455,1.2456766366958618,2.2486965656280518
1772708680508605000,2.71460498046875,2.1040120124816895,2.1603548526763916,3.0075933933258057
1772708680518631000,2.724630859375,2.518557548522949,2.072802782058716,3.500075340270996
1772708680528656000,2.73465576171875,2.493819236755371,1.0497804880142212,3.735185146331787
1772708680538680800,2.744680908203125,1.934798240661621,-0.3096778392791748,3.766395330429077
1772708680548705800,2.754705810546875,1.2517248392105103,-1.3862897157669067,3.909257411956787
1772708680558730800,2.764730712890625,0.748296320438385,-2.0884413719177246,3.9335479736328125
1772708680568756000,2.774755859375,0.3128418028354645,-2.1519408226013184,3.662027359008789
1772708680578781200,2.78478125,0.16366001963615417,-1.0776088237762451,3.0086591243743896
1772708680588806000,2.794805908203125,0.2861182987689972,0.6404426693916321,2.148261308670044
1772708680598830800,2.804830810546875,0.5300619602203369,1.7827659845352173,1.4880720376968384
1772708680608856000,2.81485595703125,0.7508965730667114,1.8345868587493896,0.8787984848022461
1772708680618882000,2.824882080078125,0.7115660905838013,1.1079797744750977,0.2756548821926117
1772708680628907000,2.834906982421875,0.3655090630054474,0.5243528485298157,-0.23946546018123627
1772708680638932000,2.844931884765625,0.07236979156732559,0.13229712843894958,-0.6284589767456055
1772708680648957000,2.85495703125,0.04926101490855217,0.08883699774742126,-0.838155210018158
1772708680658982100,2.864982177734375,0.26635876297950745,0.5251203775405884,-0.9322068095207214
1772708680669007000,2.875007080078125,0.45142659544944763,1.1762949228286743,-1.027526617050171
1772708680679032000,2.885031982421875,0.5017757415771484,1.6595945358276367,-1.0973435640335083
1772708680689057000,2.89505712890625,0.5721452832221985,1.8390681743621826,-1.158351182937622
1772708680699082000,2.90508203125,0.6211429238319397,1.6475391387939453,-1.2329092025756836
1772708680709107000,2.91510693359375,0.6454969644546509,1.194694995880127,-1.2072384357452393
1772708680719133000,2.9251328125,0.5182271003723145,0.7510139346122742,-1.031570553779602
1772708680729158000,2.935157958984375,0.11352334171533585,0.4331190586090088,-0.852875828742981
1772708680739182800,2.945182861328125,-0.3934709131717682,0.2909778356552124,-0.6913672685623169
1772708680749208000,2.9552080078125,-0.6802566647529602,0.32996201515197754,-0.4155236482620239
1772708680759233000,2.96523291015625,-0.6630110740661621,0.536089301109314,-0.03363782539963722
1772708680769258000,2.975258056640625,-0.5676640272140503,0.8284263610839844,0.25912612676620483
1772708680779283000,2.985282958984375,-0.4881145656108856,0.9146331548690796,0.2773111164569855
1772708680789308200,2.99530810546875,-0.44277292490005493,1.0227851867675781,0.098162941634655
1772708680799333000,3.0053330078125,-0.3702777624130249,1.2348567247390747,-0.07778217643499374
1772708680809358000,3.015358154296875,-0.16798193752765656,1.222312092781067,-0.2529321312904358
1772708680819384000,3.025384033203125,0.07439937442541122,1.0149351358413696,-0.3510148227214813
1772708680829409000,3.035408935546875,0.22778546810150146,0.6934100389480591,-0.37255367636680603
1772708680839434000,3.04543408203125,0.24439142644405365,0.3306882083415985,-0.3485380709171295
1772708680849459000,3.055458984375,0.1695699244737625,0.026577072218060493,-0.28235265612602234
1772708680859484000,3.06548388671875,0.06659959256649017,-0.12336309999227524,-0.12443682551383972
1772708680869508900,3.0755087890625,-0.06756620109081268,-0.21041224896907806,0.08148998022079468
1772708680879534000,3.0855341796875,-0.21022145450115204,-0.3553939759731293,0.23258687555789948
1772708680889559000,3.09555908203125,-0.35444384813308716,-0.5376220941543579,0.2954997718334198
1772708680899584000,3.105583984375,-0.4883010983467102,-0.673035740852356,0.25339117646217346
1772708680909609000,3.11560888671875,-0.6063163876533508,-0.7702634930610657,0.06726151704788208
1772708680919635000,3.125635009765625,-0.6294363141059875,-0.9266554713249207,-0.2483283132314682
1772708680929660200,3.13566015625,-0.5532446503639221,-1.2116541862487793,-0.6826182007789612
1772708680939685000,3.14568505859375,-0.5072895884513855,-1.5550185441970825,-1.2010260820388794
1772708680949709800,3.155709716796875,-0.5488993525505066,-1.7082823514938354,-1.6723605394363403
1772708680959735000,3.165735107421875,-0.6270987391471863,-1.4888235330581665,-1.948923110961914
1772708680969760000,3.175760009765625,-0.6792240142822266,-0.9855444431304932,-2.009136199951172
1772708680979785000,3.185784912109375,-0.7121691107749939,-0.48660650849342346,-1.9098387956619263
1772708680989810000,3.195809814453125,-0.8025190234184265,-0.23422831296920776,-1.699326753616333
1772708680999835100,3.205835205078125,-0.975686252117157,-0.3198828399181366,-1.4583135843276978
1772708681009860000,3.215860107421875,-1.2297166585922241,-0.5865976214408875,-1.2235335111618042
1772708681019886000,3.225885986328125,-1.4933966398239136,-0.994701623916626,-1.023252010345459
1772708681029911000,3.2359111328125,-1.5233995914459229,-1.497534155845642,-0.9418919682502747
1772708681039936000,3.24593603515625,-1.2624567747116089,-1.861095905303955,-0.9644063711166382
1772708681049961200,3.255961181640625,-0.8300191164016724,-1.8440802097320557,-0.9749293327331543
1772708681059986200,3.265986083984375,-0.2982521951198578,-1.4683647155761719,-0.8755636811256409
1772708681070011000,3.276010986328125,0.24374689161777496,-0.8633169531822205,-0.6526232957839966
1772708681080035800,3.286035888671875,0.775619387626648,-0.3354937434196472,-0.37405484914779663
1772708681090061000,3.29606103515625,1.2128161191940308,-0.19111737608909607,0.03773324191570282
1772708681100086000,3.3060859375,1.457442283630371,-0.33587127923965454,0.8551061749458313
1772708681110111000,3.316111083984375,1.6181021928787231,-0.07544715702533722,2.302919387817383
1772708681120136000,3.326135986328125,1.5617209672927856,0.2117486149072647,3.6439995765686035
1772708681130162000,3.336161865234375,1.0577824115753174,-0.9927831292152405,3.578026056289673
1772708681140187100,3.346187255859375,0.3434780240058899,-2.10866379737854,2.610525369644165
1772708681150212000,3.356212158203125,0.20382212102413177,-1.8339442014694214,2.332362174987793
1772708681160237000,3.366237060546875,0.476080060005188,-1.3013050556182861,2.2188217639923096
1772708681170262000,3.376261962890625,0.8083043098449707,-0.25003743171691895,1.7244806289672852
1772708681180287200,3.386287353515625,0.8961569666862488,0.7233729958534241,0.5036657452583313
1772708681190312000,3.39631201171875,0.7951134443283081,1.9761431217193604,-0.8790850043296814
1772708681200337000,3.4063369140625,0.8103777766227722,3.1324074268341064,-1.9518665075302124
1772708681210361900,3.41636181640625,1.0647450685501099,3.7921199798583984,-2.51069712638855
1772708681220387000,3.426386962890625,1.349542498588562,3.856907606124878,-2.6796958446502686
1772708681230413000,3.4364130859375,1.5575157403945923,3.696082830429077,-2.4646284580230713
1772708681240438000,3.44643798828125,1.5369964838027954,3.4695422649383545,-1.850258231163025
1772708681250463000,3.456462890625,1.1977102756500244,2.877847909927368,-1.0662566423416138
1772708681260488000,3.466488037109375,0.7155492901802063,1.4305381774902344,-0.3028010427951813
1772708681270513200,3.47651318359375,0.3814978301525116,-0.14959175884723663,0.3108495771884918
1772708681280538000,3.4865380859375,0.21244995296001434,-0.5803380608558655,0.1921796202659607
1772708681290563000,3.49656298828125,0.264204740524292,0.012466706335544586,-0.6729461550712585
1772708681300587800,3.506587890625,0.3581129014492035,1.667180061340332,-1.695959448814392
1772708681310613000,3.516613037109375,0.5472655296325684,3.330518960952759,-2.6662356853485107
1772708681320638000,3.526637939453125,0.7277947068214417,4.271115779876709,-3.3532421588897705
1772708681330664000,3.536663818359375,0.7467825412750244,4.53693962097168,-3.4045779705047607
1772708681340689000,3.54668896484375,0.6768455505371094,4.13225793838501,-2.86468505859375
1772708681350713900,3.5567138671875,0.587580144405365,3.2805447578430176,-1.8836719989776611
1772708681360739000,3.566739013671875,0.49447736144065857,2.2947120666503906,-0.7816912531852722
1772708681370764000,3.576763916015625,0.45136559009552,1.3328953981399536,0.16317057609558105
1772708681380789000,3.5867890625,0.45453399419784546,0.5136933326721191,0.835271418094635
1772708681390814000,3.59681396484375,0.49339455366134644,-0.08452881872653961,1.217072606086731
1772708681400839200,3.606839111328125,0.5147801637649536,-0.5447260141372681,1.3091845512390137
1772708681410864000,3.616864013671875,0.39258500933647156,-0.9180588126182556,1.1940206289291382
1772708681420888800,3.626888916015625,0.18708933889865875,-1.0107719898223877,1.0948787927627563
1772708681430914000,3.6369140625,0.03068907931447029,-0.8892463445663452,0.9926010370254517
1772708681440939800,3.646939697265625,-0.05068329721689224,-0.7438849210739136,0.8453288674354553
1772708681450965000,3.656965087890625,-0.06064431741833687,-0.6335770487785339,0.6800307631492615
1772708681460990000,3.666989990234375,-0.0036852569319307804,-0.4929503798484802,0.5351166725158691
1772708681471015000,3.677014892578125,0.08357667922973633,-0.344723641872406,0.4214966297149658
1772708681481040100,3.6870400390625,0.08805540949106216,-0.3171570301055908,0.3612031936645508
1772708681491065000,3.697065185546875,-0.04579213634133339,-0.42059817910194397,0.4074585735797882
1772708681501090000,3.707090087890625,-0.2135557234287262,-0.5629688501358032,0.5378971695899963
1772708681511115000,3.717114990234375,-0.3958248496055603,-0.7460750341415405,0.6221334934234619
1772708681521140200,3.72714013671875,-0.6037772297859192,-0.9960066676139832,0.5998238325119019
1772708681531165200,3.737165283203125,-0.7881502509117126,-1.1616286039352417,0.5153704881668091
1772708681541191200,3.747191162109375,-0.9674962162971497,-1.2099460363388062,0.35705164074897766
1772708681551216000,3.757216064453125,-1.1022628545761108,-1.207406997680664,0.18079189956188202
1772708681561240800,3.76724072265625,-1.1702487468719482,-1.0315438508987427,0.12818001210689545
1772708681571266000,3.77726611328125,-1.1435366868972778,-0.6865400671958923,0.1753118336200714
1772708681581291000,3.787291015625,-1.1298562288284302,-0.2877921164035797,0.26034945249557495
1772708681591316000,3.79731591796875,-1.1405280828475952,0.019770756363868713,0.40851521492004395
1772708681601341000,3.8073408203125,-1.14903724193573,0.0407039113342762,0.601996123790741
1772708681611366100,3.8173662109375,-1.204498052597046,-0.0805966854095459,0.7414386868476868
1772708681621391000,3.82739111328125,-1.274558663368225,0.06683222204446793,0.8148678541183472
1772708681631416000,3.837416015625,-1.252009630203247,-0.01907363347709179,0.6925315856933594
1772708681641441000,3.84744091796875,-1.1757097244262695,-0.06149207800626755,0.67180335521698
1772708681651467000,3.857467041015625,-1.0890616178512573,0.1463223695755005,0.6309070587158203
1772708681661492200,3.8674921875,-1.0107531547546387,0.5535895824432373,0.4524461627006531
1772708681671517000,3.877516845703125,-0.772777795791626,1.0551565885543823,0.28899839520454407
1772708681681542000,3.8875419921875,-0.10681803524494171,1.3853459358215332,0.4239819049835205
1772708681691566800,3.89756689453125,0.9267635941505432,1.1711885929107666,0.8382735848426819
1772708681701592000,3.907592041015625,1.9322346448898315,0.4023548662662506,1.043391466140747
1772708681711617000,3.917616943359375,2.42271089553833,-0.3219519853591919,0.7103552222251892
1772708681721642000,3.92764208984375,2.3147852420806885,-0.3800606429576874,0.4108571410179138
1772708681731667000,3.9376669921875,1.8697819709777832,-0.2825024127960205,0.22792063653469086
1772708681741692200,3.947692138671875,1.2068582773208618,-0.41994813084602356,-0.2937241792678833
1772708681751718100,3.95771826171875,0.5360466837882996,-0.2490307241678238,-1.129838228225708
1772708681761743000,3.9677431640625,-0.10206244885921478,0.3109756410121918,-2.1109726428985596
1772708681771768000,3.97776806640625,-0.44832906126976013,0.8595535159111023,-3.022387742996216
1772708681781793000,3.98779296875,-0.2968442440032959,0.9181934595108032,-3.811066150665283
1772708681791818000,3.99781787109375,0.21626435220241547,0.4632658362388611,-4.482183933258057
1772708681801843000,4.007843017578125,0.769798219203949,-0.16106140613555908,-4.905417442321777
1772708681811868000,4.017867919921875,1.1577893495559692,-0.6515454053878784,-4.940209865570068
1772708681821892900,4.027892822265625,1.3310068845748901,-0.8691011667251587,-4.540077209472656
1772708681831918000,4.03791796875,1.470663070678711,-1.3411730527877808,-3.999591112136841
1772708681841943000,4.047943115234375,1.4279032945632935,-1.6942163705825806,-3.312594175338745
1772708681851968000,4.057968017578125,1.0504337549209595,-1.677883505821228,-2.2955875396728516
1772708681861994000,4.067993896484375,0.33552300930023193,-1.485076665878296,-1.0399510860443115
1772708681872019000,4.07801904296875,-0.5210431218147278,-1.3022624254226685,0.2548922002315521
1772708681882044200,4.088044189453125,-1.2841897010803223,-1.1487188339233398,1.3509151935577393
1772708681892069000,4.098069091796875,-1.8378664255142212,-1.0938547849655151,2.1092023849487305
1772708681902094000,4.108093994140625,-2.1178362369537354,-1.0994714498519897,2.562645196914673
1772708681912118800,4.118118896484375,-2.1444520950317383,-1.1549568176269531,2.768882989883423
1772708681922144000,4.12814404296875,-2.082698345184326,-1.3475451469421387,2.807263135910034
1772708681932169000,4.1381689453125,-1.9830727577209473,-1.7030824422836304,2.704547166824341
1772708681942194000,4.14819384765625,-1.8941600322723389,-2.1253128051757812,2.4553751945495605
1772708681952219100,4.15821923828125,-1.8064744472503662,-2.1980977058410645,2.0501484870910645
1772708681962244000,4.168244140625,-1.548485517501831,-1.85037362575531,1.5564167499542236
1772708681972270000,4.17827001953125,-1.1301255226135254,-1.3002524375915527,1.0047000646591187
1772708681982295000,4.188294921875,-0.5808848142623901,-0.7515026330947876,0.4445491433143616
1772708681992320000,4.198320068359375,-0.07242665439844131,-0.3498198986053467,0.014966091141104698
1772708682002345000,4.208344970703125,0.18915386497974396,-0.24027419090270996,-0.29209813475608826
1772708682012370200,4.2183701171875,0.24913491308689117,-0.4632510840892792,-0.35653066635131836
1772708682022395000,4.228394775390625,0.1624894142150879,-0.8425509929656982,-0.15592195093631744
1772708682032419800,4.238419921875,-0.022411728277802467,-1.2794852256774902,0.26659098267555237
1772708682042445000,4.248445068359375,-0.26445648074150085,-1.6366270780563354,0.8349300026893616
1772708682052470000,4.258469970703125,-0.4998950958251953,-1.8362016677856445,1.310111403465271
1772708682062495000,4.268494873046875,-0.6858344674110413,-1.8338987827301025,1.5663286447525024
1772708682072520000,4.27852001953125,-0.8303080201148987,-1.5688947439193726,1.7012888193130493
1772708682082546000,4.2885458984375,-0.9261904358863831,-1.049686074256897,1.7560292482376099
1772708682092571100,4.298571044921875,-0.9569345116615295,-0.3686457574367523,1.718449354171753
1772708682102596000,4.30859619140625,-0.9461788535118103,0.25368842482566833,1.6204265356063843
1772708682112621000,4.31862109375,-0.9013115167617798,0.7308366298675537,1.4405289888381958
1772708682122646000,4.32864599609375,-0.8319329023361206,1.0724756717681885,1.1964761018753052
1772708682132671200,4.338671142578125,-0.7633445262908936,1.2652090787887573,0.9334093928337097
1772708682142696000,4.348696044921875,-0.7309271097183228,1.3826589584350586,0.671775758266449
1772708682152721000,4.358720947265625,-0.6384243369102478,1.41244637966156,0.4702991545200348
1772708682162745900,4.368745849609375,-0.5975300073623657,1.2467763423919678,0.3666897118091583
1772708682172771000,4.37877099609375,-0.6553094387054443,0.8902294039726257,0.28595492243766785
1772708682182796000,4.388796142578125,-0.6842577457427979,0.6128053665161133,0.29270753264427185
1772708682192822000,4.398822021484375,-0.6409419775009155,0.5095271468162537,0.4033759832382202
1772708682202847000,4.408846923828125,-0.567713737487793,0.5048016309738159,0.5330127477645874
1772708682212872000,4.418871826171875,-0.36638596653938293,0.5025674700737,0.7030952572822571
1772708682222897200,4.428897216796875,-0.02726246602833271,0.35470470786094666,0.9400420188903809
1772708682232922000,4.438922119140625,0.32113707065582275,0.05559578910470009,1.2179452180862427
1772708682242947000,4.448947021484375,0.6442272067070007,-0.19549688696861267,1.333552360534668
1772708682252972000,4.458971923828125,0.8334717154502869,-0.1561388224363327,1.1998220682144165
1772708682262997000,4.4689970703125,0.8742129802703857,0.037192877382040024,1.0227733850479126
1772708682273022000,4.47902197265625,0.8991963863372803,0.22620141506195068,0.6363810300827026
1772708682283047000,4.489046875,0.8129320740699768,0.3064512610435486,-0.08532572537660599
1772708682293072000,4.49907177734375,0.698760449886322,0.018129978328943253,-0.7764674425125122
1772708682303097900,4.509097900390625,0.7039538025856018,-0.6685594916343689,-1.0792651176452637
1772708682313123000,4.519123046875,0.7235354781150818,-1.3725347518920898,-0.8826165795326233
1772708682323148000,4.52914794921875,0.7317785620689392,-1.1043360233306885,-0.3562763035297394
1772708682333173000,4.539173095703125,0.34135058522224426,0.022818904370069504,-0.2946276068687439
1772708682343198000,4.549197998046875,0.20775794982910156,1.1500884294509888,-0.8009188175201416
1772708682353223200,4.55922314453125,0.666103720664978,1.6712093353271484,-1.6168451309204102
1772708682363248000,4.569248046875,1.1595635414123535,1.9927579164505005,-2.303921937942505
1772708682373272800,4.57927294921875,1.397966742515564,2.1805036067962646,-2.8489766120910645
1772708682383298000,4.589298095703125,1.2242848873138428,2.3173835277557373,-3.291917085647583
1772708682393323000,4.599322998046875,0.647370457649231,2.361496686935425,-3.6457953453063965
1772708682403348000,4.609347900390625,-0.031013567000627518,1.960275411605835,-3.7781667709350586
1772708682413374000,4.6193740234375,-0.40841224789619446,0.8562510013580322,-3.6708762645721436
1772708682423399000,4.62939892578125,-0.5035669803619385,-0.3170584440231323,-3.4271860122680664
1772708682433424000,4.639423828125,-0.46102485060691833,-0.8476043939590454,-3.00598406791687
1772708682443449000,4.649448974609375,-0.3667345941066742,-0.7729868292808533,-2.3713791370391846
1772708682453474000,4.65947412109375,-0.22303016483783722,-0.44523075222969055,-1.7895383834838867
1772708682463499000,4.6694990234375,-0.045801613479852676,0.07974833250045776,-1.308738350868225
1772708682473524000,4.67952392578125,0.16384482383728027,0.6173396110534668,-0.8224857449531555
1772708682483549200,4.689549072265625,0.47720909118652344,0.8797813057899475,-0.345996230840683
1772708682493574000,4.699573974609375,0.8388522863388062,0.7378145456314087,0.09718972444534302
1772708682503598800,4.709598876953125,1.0745288133621216,0.06768633425235748,0.48213908076286316
1772708682513624000,4.7196240234375,1.0799531936645508,-0.8585355281829834,0.6235548257827759
1772708682523650000,4.729650146484375,0.901145875453949,-1.6430788040161133,0.5127083659172058
1772708682533675000,4.739675048828125,0.6922422051429749,-2.0184526443481445,0.24803194403648376
1772708682543700000,4.749699951171875,0.5341454148292542,-1.954460620880127,-0.12742504477500916
1772708682553725000,4.759724853515625,0.4266354739665985,-1.4403866529464722,-0.4894290566444397
1772708682563750100,4.769750244140625,0.3386816382408142,-0.7185792326927185,-0.6839433908462524
1772708682573775000,4.779775146484375,0.293262779712677,-0.051489055156707764,-0.6650240421295166
1772708682583799300,4.78979931640625,0.2855547368526459,0.40870165824890137,-0.5014269351959229
1772708682593824500,4.799824462890625,0.29583877325057983,0.5634771585464478,-0.2432822287082672
1772708682603849500,4.809849365234375,0.24957124888896942,0.3665224313735962,0.053897831588983536
1772708682613874400,4.81987451171875,0.12997828423976898,-0.060564957559108734,0.323678195476532
1772708682623899400,4.8298994140625,-0.02665751241147518,-0.47788968682289124,0.5453416109085083
1772708682633925400,4.83992529296875,-0.21164573729038239,-0.7153666615486145,0.6901952028274536
1772708682643950300,4.849950439453125,-0.40485045313835144,-0.7091658115386963,0.7271655797958374
1772708682653975600,4.8599755859375,-0.596119225025177,-0.45663982629776,0.6603093147277832
1772708682664000300,4.870000244140625,-0.7653298377990723,-0.045789897441864014,0.5453732013702393
1772708682674025200,4.880025146484375,-0.9154272079467773,0.3570411801338196,0.40400460362434387
1772708682684050400,4.890050537109375,-1.0337339639663696,0.6084496974945068,0.24902382493019104
1772708682694075400,4.900075439453125,-1.104749321937561,0.5818391442298889,0.12074682116508484
1772708682704100400,4.910100341796875,-1.0917373895645142,0.32286059856414795,0.11216764897108078
1772708682714125300,4.920125244140625,-1.0485951900482178,0.018018677830696106,0.2302359640598297
1772708682724150500,4.930150634765625,-1.019370675086975,-0.22534659504890442,0.4023647904396057
1772708682734175500,4.940175537109375,-1.0575289726257324,-0.33731040358543396,0.5206501483917236
1772708682744201500,4.950201416015625,-1.1367285251617432,-0.3123113214969635,0.568644642829895
1772708682754226400,4.960226318359375,-1.1982635259628296,-0.17595641314983368,0.592936635017395
1772708682764251400,4.97025146484375,-1.235935926437378,0.014973313547670841,0.584492564201355
1772708682774276600,4.980276611328125,-1.2018266916275024,0.2704274356365204,0.43794146180152893
1772708682784301300,4.99030126953125,-1.0795027017593384,0.6307691335678101,0.1869903951883316
1772708682794326300,5.000326171875,-0.936984121799469,0.8407623171806335,-0.07312452793121338
1772708682804351200,5.010351318359375,-0.7364030480384827,0.8090142011642456,-0.14233316481113434
1772708682814376400,5.02037646484375,-0.38874658942222595,0.6290215849876404,0.23313525319099426
1772708682824401400,5.0304013671875,0.03754299506545067,0.23925034701824188,1.0074862241744995
1772708682834426400,5.04042626953125,0.45914989709854126,-0.10894039273262024,1.9312872886657715
1772708682844451300,5.050451416015625,0.7341580986976624,-0.14256148040294647,2.6038734912872314
1772708682854476500,5.0604765625,0.6275342106819153,0.0974750742316246,2.6695022583007812
1772708682864502500,5.07050244140625,0.18568742275238037,0.20729902386665344,2.3158483505249023
1772708682874527500,5.080527587890625,-0.20104962587356567,-0.47320786118507385,1.8130848407745361
1772708682884552400,5.090552490234375,-0.14493311941623688,-1.578303337097168,1.4459329843521118
1772708682894577400,5.100577392578125,0.36433491110801697,-2.112896680831909,1.2725579738616943
1772708682904602400,5.110602294921875,1.0642234086990356,-1.7932014465332031,1.0327266454696655
1772708682914627300,5.12062744140625,1.853609561920166,-1.1129392385482788,0.4019646644592285
1772708682924652300,5.13065234375,2.6442534923553467,-0.35892704129219055,-0.3907040059566498
1772708682934677200,5.14067724609375,2.876603126525879,0.467670738697052,-0.9124742746353149
1772708682944702500,5.150702392578125,2.5127081871032715,1.1818139553070068,-1.2197048664093018
1772708682954727400,5.1607275390625,1.5831283330917358,1.729939341545105,-1.5456104278564453
1772708682964752400,5.17075244140625,0.27604028582572937,2.003201961517334,-2.0314323902130127
1772708682974778400,5.1807783203125,-1.032429814338684,2.030163288116455,-2.6905508041381836
1772708682984803300,5.19080322265625,-1.9614251852035522,2.004981517791748,-3.3407678604125977
1772708682994828500,5.20082861328125,-2.1460113525390625,1.8712902069091797,-3.7637956142425537
1772708683004853500,5.210853515625,-1.6913493871688843,1.4457554817199707,-3.9756839275360107
1772708683014878200,5.220878173828125,-1.013922929763794,0.7752130627632141,-3.9666295051574707
1772708683024903400,5.2309033203125,-0.4401625096797943,0.09938623011112213,-3.653062582015991
1772708683034928400,5.240928466796875,-0.0702102854847908,-0.4604935944080353,-3.053999900817871
1772708683044953300,5.250953369140625,0.06614796817302704,-0.8694616556167603,-2.4356703758239746
1772708683054978300,5.260978271484375,0.07086548954248428,-1.0492820739746094,-1.8716366291046143
1772708683065003500,5.27100341796875,-0.014830373227596283,-0.9972041249275208,-1.3231946229934692
1772708683075028500,5.281028564453125,-0.1936485916376114,-0.6885392665863037,-0.7460431456565857
1772708683085054500,5.291054443359375,-0.40254420042037964,-0.21068671345710754,-0.24899528920650482
1772708683095079400,5.301079345703125,-0.5947328209877014,0.25928932428359985,0.02825096622109413
1772708683105104400,5.3111044921875,-0.7293649315834045,0.5865553021430969,0.05604417994618416
1772708683119514400,5.325514404296875,-0.6983055472373962,0.6440430879592896,-0.2055586725473404
1772708683129539600,5.33553955078125,-0.5470094084739685,0.2806635797023773,-0.6043461561203003
1772708683139564300,5.345564208984375,-0.3887161910533905,-0.28620943427085876,-1.0641964673995972
1772708683149589200,5.35558935546875,-0.1545490026473999,-0.7203477621078491,-1.2246737480163574
1772708683159614200,5.3656142578125,0.06744943559169769,-0.7814196348190308,-0.9288692474365234
1772708683169639400,5.375639404296875,0.18271088600158691,-0.6801258325576782,-0.37427955865859985
1772708683179664400,5.385664306640625,0.20488889515399933,-0.5384328961372375,0.2246491014957428
1772708683189689300,5.395689453125,0.1836782544851303,-0.40517282485961914,0.7803061604499817
1772708683199714300,5.40571435546875,0.15872415900230408,-0.3375530540943146,1.2136725187301636
1772708683209740300,5.415740234375,0.1293390542268753,-0.30754217505455017,1.4728277921676636
1772708683219765500,5.425765625,0.0835510641336441,-0.21828234195709229,1.6142030954360962
1772708683229790500,5.43579052734375,0.03292181342840195,-0.0427648201584816,1.6523797512054443
1772708683239815400,5.4458154296875,-0.031901128590106964,0.1398254930973053,1.560070514678955
1772708683249840400,5.45584033203125,-0.12553061544895172,0.26175832748413086,1.3539597988128662
1772708683259865300,5.465865234375,-0.2219112068414688,0.29809877276420593,1.102335810661316
1772708683269890300,5.475890380859375,-0.27645495533943176,0.247236430644989,0.8858867287635803
1772708683279915300,5.485915283203125,-0.285932332277298,0.11271803826093674,0.7805808186531067
1772708683289940500,5.4959404296875,-0.3127921521663666,-0.1006709411740303,0.8066898584365845
1772708683299965400,5.50596533203125,-0.3701592981815338,-0.36325567960739136,0.9423072934150696
1772708683309990400,5.515990478515625,-0.46700742840766907,-0.6674332022666931,1.1324591636657715
1772708683320015400,5.526015380859375,-0.6191139221191406,-0.9054540395736694,1.3445907831192017
1772708683330041300,5.536041259765625,-0.8010348677635193,-0.9536281824111938,1.5051583051681519
1772708683340066600,5.546066650390625,-0.9432474374771118,-0.9266279935836792,1.5685564279556274
1772708683350091500,5.556091552734375,-1.0189398527145386,-0.8112961053848267,1.5791772603988647
1772708683360116500,5.566116455078125,-1.0123776197433472,-0.5396251678466797,1.432192325592041
1772708683370141200,5.57614111328125,-0.8729910850524902,-0.01807943545281887,1.0457184314727783
1772708683380166400,5.58616650390625,-0.5594483017921448,0.6878086924552917,0.5128294229507446
1772708683390191400,5.59619140625,-0.028405431658029556,1.1905709505081177,0.0068176621571183205
1772708683400216300,5.60621630859375,0.6435527205467224,1.3396859169006348,-0.3139076232910156
1772708683410241300,5.6162412109375,1.2802451848983765,0.9897838234901428,-0.4235656261444092
1772708683420266500,5.6262666015625,1.7339808940887451,0.6078377962112427,-0.09441860020160675
1772708683439691300,5.645691162109375,1.5941697359085083,0.5370630621910095,0.37816092371940613
1772708683449716200,5.65571630859375,0.7969154715538025,0.8104289770126343,0.01915348507463932
1772708683459741400,5.665741455078125,-0.14657089114189148,0.8113882541656494,-0.20538721978664398
1772708683469766400,5.675766357421875,-0.8135971426963806,0.3736029267311096,-0.12511491775512695
1772708683479791400,5.685791259765625,-1.085889220237732,-0.24927207827568054,-0.2856694459915161
1772708683489816300,5.69581640625,-0.9093188643455505,-0.8368611335754395,-0.9563303589820862
1772708683499842300,5.70584228515625,-0.5731533765792847,-0.9825544357299805,-1.901145100593567
1772708683509867500,5.715867431640625,-0.16275697946548462,-0.7862882614135742,-2.7756216526031494
1772708683519892500,5.725892578125,0.2531832456588745,-0.43983256816864014,-3.2441492080688477
1772708683529917400,5.73591748046875,0.6244940757751465,-0.020148131996393204,-3.072603464126587
1772708683539942400,5.7459423828125,0.7238344550132751,0.1813972294330597,-2.5056302547454834
1772708683549967400,5.75596728515625,0.5079702138900757,0.0681031346321106,-1.839357852935791
1772708683559992300,5.765992431640625,0.07327044755220413,-0.452786922454834,-1.3444281816482544
1772708683570017300,5.776017333984375,-0.3565952479839325,-1.4737259149551392,-1.1310621500015259
1772708683580042200,5.786042236328125,-0.5675250887870789,-2.521655321121216,-1.0941296815872192
1772708683590068000,5.79606787109375,-0.5295403599739075,-3.030419111251831,-1.1095545291900635
1772708683600092700,5.8060927734375,-0.30270108580589294,-2.697659730911255,-1.2055116891860962
1772708683610117600,5.81611767578125,0.17035236954689026,-1.7714084386825562,-1.3408000469207764
1772708683620143600,5.8261435546875,0.7560523152351379,-0.6430879235267639,-1.2814067602157593
1772708683630168600,5.83616845703125,1.2839305400848389,0.33733484148979187,-0.829339325428009
1772708683640193800,5.84619384765625,1.643455147743225,0.9289411902427673,-0.11800798028707504
1772708683650218800,5.85621875,1.6795305013656616,1.0811727046966553,0.538738489151001
1772708683660243700,5.86624365234375,1.3645113706588745,0.8581691980361938,0.9381157159805298
1772708683670268700,5.8762685546875,0.7971789240837097,0.3998437821865082,0.9839738607406616
1772708683680294000,5.8862939453125,0.17203329503536224,-0.03016272373497486,0.7367310523986816
1772708683690318800,5.89631884765625,-0.2921430170536041,-0.18769006431102753,0.3927985429763794
1772708683700343800,5.90634375,-0.45217132568359375,-0.2116161733865738,0.1905820667743683
1772708683710368800,5.91636865234375,-0.3831208050251007,-0.08011695742607117,0.10886333137750626
1772708683720394800,5.926394775390625,-0.19484704732894897,0.16821029782295227,0.0975094735622406
1772708683730420000,5.936419921875,0.008506146259605885,0.5590698719024658,0.230268657207489
1772708683740444700,5.946444580078125,0.16171540319919586,0.99600750207901,0.4333948791027069
1772708683750469600,5.9564697265625,0.1997053623199463,1.3843907117843628,0.6609336137771606
1772708683760494600,5.96649462890625,0.012580735608935356,1.5865188837051392,0.8598573803901672
1772708683770519800,5.976519775390625,-0.29251059889793396,1.393992304801941,1.0178124904632568
1772708683780544800,5.986544677734375,-0.568771481513977,0.8975803852081299,1.208161473274231
1772708683790569700,5.99656982421875,-0.7302470803260803,0.34619489312171936,1.4482678174972534
1772708683800594700,6.0065947265625,-0.7501784563064575,-0.04161648452281952,1.6785286664962769
1772708683810620000,6.016619873046875,-0.675042986869812,-0.12176565080881119,1.788112998008728
1772708683820644900,6.026644775390625,-0.546085000038147,0.09358873963356018,1.7260061502456665
1772708683830669800,6.036669921875,-0.3778364956378937,0.49625179171562195,1.5078916549682617
1772708683840695800,6.04669580078125,-0.21907508373260498,0.9382369518280029,1.2218550443649292
1772708683850720800,6.056720703125,-0.10041753202676773,1.2613626718521118,0.9635542035102844
1772708683860745700,6.066745849609375,-0.040389351546764374,1.3353517055511475,0.8271327018737793
1772708683870770700,6.076770751953125,-0.08185771852731705,1.201100468635559,0.8410195708274841
1772708683880795600,6.086795654296875,-0.21505172550678253,0.9566468000411987,0.9936221241950989
1772708683890820900,6.09682080078125,-0.4210616946220398,0.6711580157279968,1.2337076663970947
1772708683900845800,6.106845703125,-0.6661239266395569,0.4253474771976471,1.4883407354354858
1772708683910870800,6.116870849609375,-0.9240655303001404,0.29922211170196533,1.6861662864685059
1772708683920895700,6.126895751953125,-1.0224424600601196,0.3002258539199829,1.835620403289795
1772708683930921000,6.1369208984375,-0.878347635269165,0.4946698844432831,1.9115967750549316
1772708683940946000,6.14694580078125,-0.5452471971511841,0.7990740537643433,1.826585054397583
1772708683950972000,6.156971923828125,-0.10723965615034103,0.9963982701301575,1.6253342628479004
1772708683960996900,6.166996826171875,0.24265550076961517,0.9825662970542908,1.3228400945663452
1772708683971021600,6.177021484375,0.4214428961277008,1.0190461874008179,1.062386393547058
1772708683981046800,6.187046875,0.5649932026863098,1.3167282342910767,1.0372315645217896
1772708683991071700,6.19707177734375,0.7740057706832886,1.5676697492599487,1.2137293815612793
1772708684001096700,6.2070966796875,0.8431142568588257,1.235085129737854,1.0268481969833374
1772708684011121700,6.21712158203125,0.4575486183166504,0.7922770380973816,0.22182363271713257
1772708684021147000,6.22714697265625,-0.14955037832260132,0.49725207686424255,-0.8546314239501953
1772708684031171800,6.237171875,-0.5611173510551453,0.40292903780937195,-1.4784904718399048
1772708684041196800,6.24719677734375,-0.5261364579200745,0.5075196027755737,-1.2326793670654297
1772708684051221800,6.2572216796875,-0.2420072704553604,0.41741204261779785,-0.4620960056781769
1772708684061247700,6.267247802734375,0.0833529680967331,0.004209303297102451,0.013519803993403912
1772708684071273000,6.27727294921875,0.3982095420360565,-0.6404579877853394,-0.23875029385089874
1772708684081298000,6.2872978515625,0.7852967977523804,-1.0998152494430542,-0.8059380650520325
1772708684091322600,6.297322509765625,1.0374001264572144,-1.1337065696716309,-1.2766939401626587
1772708684101347600,6.30734765625,0.9198611378669739,-0.92716383934021,-1.677400827407837
1772708684111372800,6.317372802734375,0.4482456147670746,-0.5665494799613953,-2.1303346157073975
1772708684121397800,6.327397705078125,-0.13607484102249146,-0.1018177717924118,-2.7252984046936035
1772708684131422700,6.337422607421875,-0.4658905267715454,0.2074543684720993,-3.3495421409606934
1772708684141447700,6.34744775390625,-0.27831530570983887,0.050903912633657455,-3.648714303970337
1772708684151473000,6.357472900390625,0.460419625043869,-0.7730163335800171,-3.461662530899048
1772708684161497900,6.367497802734375,1.2321884632110596,-1.7493550777435303,-2.8086133003234863
1772708684171523800,6.37752392578125,1.6116597652435303,-2.282545328140259,-1.8310884237289429
1772708684181548800,6.387548828125,1.532411813735962,-2.2570395469665527,-0.8333702683448792
1772708684191573800,6.39757373046875,1.0538681745529175,-1.8050061464309692,-0.047944195568561554
1772708684201598700,6.4075986328125,0.4631313979625702,-1.2004475593566895,0.438136488199234
1772708684211623700,6.417623779296875,-0.07316308468580246,-0.6717150807380676,0.6411034464836121
1772708684221648600,6.427648681640625,-0.4392702579498291,-0.12744860351085663,0.5748282670974731
1772708684231673600,6.437673583984375,-0.6007071733474731,0.3924143612384796,0.30380386114120483
1772708684241698800,6.44769873046875,-0.662583589553833,0.688444197177887,-0.10049568861722946
1772708684251723800,6.457723876953125,-0.6748841404914856,0.7185636758804321,-0.6080735921859741
1772708684261748700,6.467748779296875,-0.6464701294898987,0.501805305480957,-1.1601128578186035
1772708684271773700,6.477773681640625,-0.6018991470336914,-0.0783194825053215,-1.5982412099838257
1772708684281799700,6.487799560546875,-0.4429856836795807,-0.7651588320732117,-1.5270391702651978
1772708684291825000,6.497824951171875,-0.27060985565185547,-1.169923186302185,-0.9580637812614441
1772708684301849900,6.507849853515625,-0.21626007556915283,-1.3108466863632202,-0.11526705324649811
1772708684311874800,6.517874755859375,-0.20477651059627533,-1.105804443359375,0.6551311016082764
1772708684321899800,6.527899658203125,-0.20371682941913605,-0.7905674576759338,1.1116259098052979
1772708684331924700,6.5379248046875,-0.20573069155216217,-0.44373008608818054,1.2328249216079712
1772708684341949700,6.54794970703125,-0.17882344126701355,-0.07075171172618866,1.030495524406433
1772708684351974700,6.557974609375,-0.12871423363685608,0.20479586720466614,0.6495739221572876
1772708684362000000,6.567999755859375,-0.12021902203559875,0.28310850262641907,0.24384905397891998
1772708684372024800,6.57802490234375,-0.12211354821920395,0.21781408786773682,-0.06189455837011337
1772708684382049800,6.5880498046875,-0.13233289122581482,0.16119740903377533,-0.20101302862167358
1772708684392075800,6.59807568359375,-0.1567906141281128,0.1943020522594452,-0.16104918718338013
1772708684402100700,6.608100830078125,-0.17488732933998108,0.3165017366409302,0.0037866351194679737
1772708684412126000,6.6181259765625,-0.1572021096944809,0.4972984194755554,0.2562679648399353
1772708684422151000,6.62815087890625,-0.13884466886520386,0.6204536557197571,0.5532061457633972
1772708684432175900,6.63817578125,-0.16836343705654144,0.5838615298271179,0.8328141570091248
1772708684442200600,6.64820068359375,-0.22694365680217743,0.4838145971298218,1.0526080131530762
1772708684452225800,6.658225830078125,-0.25623390078544617,0.4141513705253601,1.1807646751403809
1772708684462250800,6.668250732421875,-0.25297871232032776,0.34416136145591736,1.2253161668777466
1772708684472275700,6.678275634765625,-0.2360609471797943,0.34092313051223755,1.2031137943267822
1772708684482300700,6.68830078125,-0.2270735800266266,0.41333821415901184,1.1348782777786255
1772708684492326000,6.698325927734375,-0.2097156047821045,0.4813500642776489,1.0327422618865967
1772708684502352000,6.708351806640625,-0.1273067444562912,0.5993717908859253,0.8114223480224609
1772708684512376800,6.718376953125,0.014078496024012566,0.7685115337371826,0.48023760318756104
1772708684522401800,6.72840185546875,0.21842578053474426,0.837662398815155,0.22065557539463043
1772708684532426800,6.7384267578125,0.5978077054023743,0.7677354216575623,0.2967785596847534
1772708684542452000,6.748451904296875,0.9251805543899536,0.5144277811050415,0.6792947053909302
1772708684552476700,6.7584765625,1.029242753982544,0.15619225800037384,1.1248672008514404
1772708684562501600,6.768501708984375,0.9029396176338196,-0.003651207545772195,1.2336089611053467
1772708684572526600,6.778526611328125,0.4148041009902954,0.05213422328233719,0.7407655119895935
1772708684582552000,6.788552001953125,-0.2900469899177551,0.4205407500267029,-0.037461552768945694
1772708684592577000,6.798576904296875,-0.7452935576438904,0.8779117465019226,-0.31854715943336487
1772708684602602000,6.80860205078125,-0.77901291847229,1.1776976585388184,0.07887929677963257
1772708684612628000,6.8186279296875,-0.649924635887146,0.9245937466621399,0.48880940675735474
1772708684622653000,6.82865283203125,-0.5302128791809082,0.3706357479095459,0.20902065932750702
1772708684632678100,6.83867822265625,-0.39088910818099976,0.10557325184345245,-0.6477257013320923
1772708684642702800,6.848702880859375,-0.30708661675453186,0.25106334686279297,-1.680286169052124
1772708684652727800,6.858727783203125,-0.14494994282722473,0.29528751969337463,-2.524233341217041
1772708684662752800,6.868752685546875,0.09533483535051346,0.017390135675668716,-3.005467653274536
1772708684672778000,6.878778076171875,0.20732425153255463,-0.38514286279678345,-2.999058246612549
1772708684682803000,6.888802978515625,0.1902720332145691,-0.7402610182762146,-2.493896961212158
1772708684692828000,6.898827880859375,0.1274234503507614,-1.01860773563385,-1.7335481643676758
1772708684702852900,6.908852783203125,0.12220525741577148,-1.346790075302124,-0.8750203847885132
1772708684712878000,6.918878173828125,0.28366807103157043,-1.7444638013839722,-0.17494557797908783
1772708684722904000,6.928904052734375,0.47908657789230347,-1.9347355365753174,0.1521257609128952
1772708684732929000,6.938928955078125,0.5304017066955566,-1.7869648933410645,0.13379395008087158
1772708684742954000,6.9489541015625,0.417630136013031,-1.3202718496322632,-0.17503127455711365
1772708684752979000,6.95897900390625,0.1909802109003067,-0.6976504921913147,-0.6005055904388428
1772708684763004000,6.96900390625,-0.07217713445425034,-0.17164930701255798,-0.8871141672134399
1772708684773028900,6.97902880859375,-0.25659656524658203,0.13302081823349,-0.8809364438056946
1772708684783053800,6.9890537109375,-0.3109346330165863,0.13734126091003418,-0.5955425500869751
1772708684793078800,6.999078857421875,-0.26496219635009766,-0.11768623441457748,-0.151845321059227
1772708684803104000,7.00910400390625,-0.17083755135536194,-0.4664279818534851,0.2811037302017212
1772708684813129000,7.01912890625,-0.038995444774627686,-0.8177552819252014,0.5673354268074036
1772708684823155000,7.029155029296875,0.11821362376213074,-1.083795189857483,0.631712019443512
1772708684833180000,7.039179931640625,0.2604573965072632,-1.0821776390075684,0.4776436984539032
1772708684843204900,7.049204833984375,0.3481723368167877,-0.8416539430618286,0.21676522493362427
1772708684853230000,7.05922998046875,0.4058222770690918,-0.4450452923774719,-0.038344427943229675
1772708684863255000,7.069255126953125,0.44263169169425964,-0.011548982933163643,-0.23114264011383057
1772708684873279700,7.07927978515625,0.43864089250564575,0.2801237404346466,-0.2997993528842926
1772708684883305000,7.089304931640625,0.38912233710289,0.35802626609802246,-0.23498228192329407
1772708684893330000,7.099329833984375,0.3256419599056244,0.2002435326576233,-0.04803043603897095
1772708684903355000,7.10935498046875,0.2547784447669983,-0.14105600118637085,0.20620450377464294
1772708684913379800,7.1193798828125,0.19500276446342468,-0.5133903622627258,0.4183749556541443
1772708684923405000,7.129405029296875,0.15121106803417206,-0.749251663684845,0.5730516314506531
1772708684933430800,7.1394306640625,0.10370480269193649,-0.7703008055686951,0.6509155631065369
1772708684943456000,7.1494560546875,0.017055127769708633,-0.6044889092445374,0.7135049104690552
1772708684953481000,7.15948095703125,-0.05903845652937889,-0.17335538566112518,0.7010024189949036
1772708684963506000,7.169505859375,-0.08264098316431046,0.32135555148124695,0.6298727989196777
1772708684973531000,7.17953076171875,-0.09354865550994873,0.6388446092605591,0.4720301330089569
1772708684983556000,7.18955615234375,-0.08997523039579391,0.7473815083503723,0.3196376860141754
1772708684993580800,7.199580810546875,-0.0865468978881836,0.6067654490470886,0.23310023546218872
1772708685003605800,7.209605712890625,-0.09125909209251404,0.30929040908813477,0.27780085802078247
1772708685013631000,7.219630859375,-0.12473004311323166,-0.0739685595035553,0.4071284234523773
1772708685023656000,7.229656005859375,-0.23871013522148132,-0.35596802830696106,0.5160565376281738
1772708685033681000,7.239680908203125,-0.39202257990837097,-0.4832082986831665,0.6395097970962524
1772708685043707000,7.249706787109375,-0.5265683531761169,-0.395896852016449,0.8176755309104919
1772708685053731800,7.25973193359375,-0.6083479523658752,-0.1119484156370163,0.9820167422294617
1772708685063757000,7.269757080078125,-0.6196663975715637,0.24431967735290527,1.0747331380844116
1772708685073782000,7.279781982421875,-0.537898063659668,0.5371336340904236,1.1568052768707275
1772708685083807000,7.289806884765625,-0.29094499349594116,0.6530919671058655,1.3122811317443848
1772708685093832000,7.29983203125,0.08623964339494705,0.44766154885292053,1.4379962682724
1772708685103857200,7.309857177734375,0.4215598404407501,0.05461440607905388,1.5384535789489746
1772708685113881900,7.3198818359375,0.8584535121917725,-0.18939819931983948,1.751332402229309
1772708685123906800,7.32990673828125,1.1280757188796997,-0.24249018728733063,2.0334177017211914
1772708685133931800,7.339931884765625,1.196348786354065,-0.1945551484823227,2.26369047164917
1772708685143957000,7.34995703125,0.90585857629776,-0.2036048322916031,2.038722038269043
1772708685153983000,7.35998291015625,0.6562895774841309,0.15327012538909912,1.4436628818511963
1772708685164008000,7.370008056640625,0.45706862211227417,0.6301722526550293,0.7680209279060364
1772708685174033000,7.380032958984375,0.5233012437820435,0.9803913235664368,0.3988003134727478
1772708685184057900,7.390057861328125,0.5919149518013,0.7693735957145691,0.12616053223609924
1772708685194083000,7.4000830078125,0.3467419743537903,0.28576382994651794,-0.6089884042739868
1772708685204108000,7.41010791015625,-0.039000146090984344,0.10541721433401108,-1.5695935487747192
1772708685214133000,7.420133056640625,-0.22221589088439941,0.43201395869255066,-2.272786855697632
