time,seconds_elapsed,z,y,x
1772709210971218400,0.044218505859375,0.006728742737323046,0.01835264265537262,-0.0070131681859493256
1772709210981243400,0.054243408203125,-0.0019771307706832886,-0.004032824654132128,-0.002831206424161792
1772709210991268400,0.064268310546875,0.0019435749854892492,0.0011504855938255787,-0.001540904981084168
1772709211001292300,0.074292236328125,0.0014439659425988793,0.015358449891209602,-0.0033577135764062405
1772709211011317200,0.084317138671875,0.004014449194073677,0.010356767103075981,-0.0034991272259503603
1772709211021342200,0.09434228515625,0.002715891692787409,0.0025212145410478115,-0.0018250643042847514
1772709211031367400,0.104367431640625,0.0017923073610290885,0.00595509447157383,-0.0020535634830594063
1772709211041392400,0.114392333984375,0.0028133634477853775,0.010952516458928585,-0.0058669438585639
1772709211051417300,0.124417236328125,0.0033875408116728067,0.006579339504241943,-0.005948969163000584
1772709211061442300,0.1344423828125,0.0024921861477196217,0.004781972151249647,-0.002986468840390444
1772709211071466200,0.14446630859375,0.004041613079607487,0.006641657557338476,-0.0038016624748706818
1772709211081491200,0.1544912109375,0.006642456166446209,0.009997772984206676,-0.00646562222391367
1772709211091516200,0.16451611328125,0.004364654887467623,0.009718406945466995,-0.005328452680259943
1772709211101541400,0.174541259765625,0.00466532539576292,0.006868026219308376,-0.0037491980474442244
1772709211111566800,0.18456689453125,0.005877064075320959,0.005846703890711069,-0.0035958001390099525
1772709211121591800,0.194591796875,0.004926315508782864,0.009182845242321491,-0.004081560764461756
1772709211131616800,0.20461669921875,0.005041630007326603,0.006138320080935955,-0.0033361418172717094
1772709211141641700,0.214641845703125,0.00430100504308939,0.0034384073223918676,-0.004148139618337154
1772709211151666000,0.224666015625,0.005380650516599417,0.004765460267663002,-0.0022421153262257576
1772709211161691000,0.23469091796875,0.005583583377301693,0.005803294479846954,-0.0024863271974027157
1772709211171715800,0.2447158203125,0.005691708065569401,0.0048946235328912735,-0.001967277145013213
1772709211181740800,0.25474072265625,0.005124987103044987,0.005049353465437889,0.0010162622202187777
1772709211191765800,0.264765869140625,0.002764893928542733,0.004574245307594538,-0.0007382282637991011
1772709211201790700,0.274790771484375,0.005941246170550585,0.005922870244830847,-0.0009398295660503209
1772709211211816000,0.28481591796875,0.004992894362658262,0.006235791835933924,0.0011776498286053538
1772709211221840000,0.29483984375,0.004680505488067865,0.007709318771958351,0.00336170825175941
1772709211231864800,0.30486474609375,0.004399808589369059,0.006539391819387674,0.0028298748657107353
1772709211241890000,0.31489013671875,0.005057076457887888,0.00574843306094408,0.0029403960797935724
1772709211251914800,0.324914794921875,0.0033451966010034084,0.004231230355799198,0.0024735440965741873
1772709211261939700,0.334939697265625,0.004291950259357691,0.006065615452826023,0.003338538808748126
1772709211271964700,0.344964599609375,0.003323358716443181,0.00711676524952054,0.004507666453719139
1772709211281990000,0.354989990234375,0.0034991272259503603,0.003943875432014465,0.0029236183036118746
1772709211292013800,0.365013916015625,0.00415319949388504,0.0041185785084962845,0.0016943031223490834
1772709211302038800,0.375038818359375,0.003373958868905902,0.006114884279668331,0.003736947663128376
1772709211312064000,0.38506396484375,0.0032621060963720083,0.007041930686682463,0.004633900243788958
1772709211322089000,0.3950888671875,0.004820588044822216,0.007664843928068876,0.004741758108139038
1772709211332113700,0.40511376953125,0.00415453128516674,0.003961984533816576,0.0007390272221527994
1772709211342139000,0.415138916015625,0.0028128307312726974,0.005229915492236614,0.0027182884514331818
1772709211352163800,0.425163818359375,0.0030863373540341854,0.007290403358638287,0.001306014135479927
1772709211362188800,0.435188720703125,0.0036514601670205593,0.00863157119601965,0.0000852211524033919
1772709211372213000,0.445212890625,0.003919107839465141,0.0062855929136276245,-0.0007651261985301971
1772709211382238000,0.455238037109375,0.00379021093249321,0.005311408545821905,-0.0010897654574364424
1772709211392263000,0.465262939453125,0.004387824330478907,0.006311691831797361,-0.0018945727497339249
1772709211402287900,0.475287841796875,0.004250937607139349,0.00827843602746725,-0.0013986921403557062
1772709211412312800,0.485312744140625,0.005336708389222622,0.006468818057328463,-0.0008530105114914477
1772709211422337800,0.495337890625,0.0025473134592175484,0.006445382256060839,-0.0017390442080795765
1772709211432362800,0.50536279296875,0.004590757191181183,0.008734902366995811,-0.0012450277572497725
1772709211442387000,0.515386962890625,0.0022149509750306606,0.008206530474126339,-0.0035840822383761406
1772709211452412000,0.525411865234375,0.0036282907240092754,0.007610781583935022,-0.004289020784199238
1772709211462436900,0.535436767578125,0.003309244057163596,0.0057249972596764565,-0.0021976404823362827
1772709211472461800,0.5454619140625,0.002659432590007782,0.007429154124110937,-0.0036304211243987083
1772709211482487000,0.555487060546875,0.003948668949306011,0.008622516877949238,-0.004613393917679787
1772709211492511700,0.56551171875,0.004993427079170942,0.00788402184844017,-0.00313560594804585
1772709211502536700,0.57553662109375,0.0030149647500365973,0.007726629264652729,-0.003981425892561674
1772709211512561000,0.585560791015625,0.0037207023706287146,0.005372128449380398,-0.0040887510403990746
1772709211522585900,0.5955859375,0.002522279741242528,0.005022455472499132,-0.005923669319599867
1772709211532610800,0.60561083984375,0.002382996492087841,0.0037681066896766424,-0.00860201008617878
1772709211542636000,0.615635986328125,0.0029606360476464033,0.007929828017950058,-0.009730923920869827
1772709211552661000,0.625660888671875,0.003385144053027034,0.007412909064441919,-0.008872587233781815
1772709211562686000,0.63568603515625,-0.00006231796578504145,0.0031220237724483013,-0.010282465256750584
1772709211572710700,0.645710693359375,0.0018154769204556942,0.0038192393258213997,-0.010982077568769455
1772709211582736000,0.65573583984375,0.0024471788201481104,0.006863764952868223,-0.013699566945433617
1772709211592759800,0.665759765625,0.0020003002136945724,0.007922371849417686,-0.014213024638593197
1772709211602784800,0.67578466796875,-0.0005214469274505973,0.00663420045748353,-0.012060125358402729
1772709211612810000,0.68581005859375,0.0011685950448736548,0.009327455423772335,-0.011302188970148563
1772709211622835000,0.6958349609375,0.0012895026011392474,0.009005213156342506,-0.010467288084328175
1772709211632860000,0.70585986328125,-0.0003177151083946228,0.00842411071062088,-0.010098973289132118
1772709211642884600,0.715884521484375,0.0010998855577781796,0.0059958407655358315,-0.006873885169625282
1772709211652909800,0.725909912109375,0.0002069276088150218,0.00586641114205122,-0.004680505488067865
1772709211662933800,0.735933837890625,0.0029265477787703276,0.0041792988777160645,-0.0029611687641590834
1772709211672959000,0.745958984375,0.004341219086199999,0.00567040266469121,-0.002977946773171425
1772709211682984000,0.75598388671875,0.004886634182184935,0.007831557653844357,0.0014245248166844249
1772709211693009000,0.7660087890625,0.004033890087157488,0.006853911560028791,-0.0008671252289786935
1772709211703033900,0.776033935546875,0.004323641769587994,0.005347094964236021,0.0002545981842558831
1772709211713059000,0.78605908203125,0.003632019041106105,0.0025126924738287926,-0.0009536779834888875
1772709211723083800,0.796083740234375,0.0031856733839958906,0.006299441214650869,-0.0015134743880480528
1772709211733107700,0.806107666015625,0.0031941954512149096,0.007522098254412413,-0.002606169320642948
1772709211743133000,0.8161328125,0.0026607641484588385,0.005206213798373938,-0.0028008464723825455
1772709211753158000,0.826157958984375,0.004342017695307732,0.0049252500757575035,-0.004592354875057936
1772709211763182800,0.836182861328125,0.004236822947859764,0.007368966471403837,-0.005064799915999174
1772709211773207800,0.846207763671875,0.0002950782363768667,0.008539159782230854,-0.005757487844675779
1772709211783233000,0.85623291015625,0.003346794517710805,0.004730306565761566,-0.006091182120144367
1772709211793258000,0.866258056640625,0.0036370791494846344,0.003909520339220762,-0.006935404147952795
1772709211803282700,0.87628271484375,0.0014929680619388819,0.0062424493953585625,-0.0051995557732880116
1772709211813307000,0.886306884765625,0.0028969866689294577,0.004449343308806419,-0.0054304515942931175
1772709211823331800,0.896331787109375,0.002523078816011548,0.003337473375722766,-0.005078914575278759
1772709211833356800,0.906356689453125,0.003531617810949683,0.005573197267949581,-0.0038509308360517025
1772709211843381800,0.9163818359375,0.0018996327416971326,0.006637396290898323,-0.0021022993605583906
1772709211853407000,0.926406982421875,0.0041792988777160645,0.006400375161319971,-0.00418329332023859
1772709211863432000,0.936431884765625,0.002353968098759651,0.0049649314023554325,-0.0035981968976557255
1772709211873457000,0.946456787109375,0.0020221380982548,0.0032746228389441967,-0.004123106133192778
1772709211883480800,0.956480712890625,0.0027808728627860546,0.006433397997170687,-0.003421895671635866
1772709211893505800,0.966505859375,0.0016098808264359832,0.0052139367908239365,-0.0027537085115909576
1772709211903530800,0.97653076171875,0.0018676748732104897,0.0057471017353236675,-0.003805124433711171
1772709211913556000,0.986555908203125,0.0015606123488396406,0.0034671693574637175,-0.004991030320525169
1772709211923581000,0.996580810546875,0.0036847495939582586,0.004799815360456705,-0.005390238016843796
1772709211933606000,1.00660595703125,0.0025449167005717754,0.005486910697072744,-0.0068091703578829765
1772709211943630800,1.016630859375,0.0015097459545359015,0.007631287910044193,-0.007044860161840916
1772709211953654800,1.02665478515625,0.0021813951898366213,0.007894940674304962,-0.008292284794151783
1772709211963679700,1.0366796875,0.0013156015193089843,0.007556453347206116,-0.010277670808136463
1772709211973704700,1.04670458984375,0.0022000374738126993,0.00848429836332798,-0.009097358211874962
1772709211983730000,1.05672998046875,0.003087136195972562,0.008041414432227612,-0.008371912874281406
1772709211993755000,1.0667548828125,0.0026610305067151785,0.009076319634914398,-0.00757935643196106
1772709212003779800,1.07677978515625,0.0022101574577391148,0.00857191625982523,-0.008262990042567253
1772709212013804800,1.0868046875,0.005289570428431034,0.0041398839093744755,-0.009073922410607338
1772709212023830000,1.096830078125,0.004089550115168095,0.007241134997457266,-0.008382033556699753
1772709212033853700,1.106853759765625,0.0019020296167582273,0.007583351340144873,-0.006019542925059795
1772709212043879000,1.11687890625,0.0009456885163672268,0.004452272783964872,-0.0062549663707613945
1772709212053904000,1.12690380859375,0.003947070799767971,0.0030562435276806355,-0.010509632527828217
1772709212063928800,1.1369287109375,0.0028003137558698654,0.006205431651324034,-0.01091789547353983
1772709212073953800,1.146953857421875,0.002351038623601198,0.010759703814983368,-0.005833920557051897
1772709212083979000,1.15697900390625,0.0021736719645559788,0.006133792456239462,-0.005849633365869522
1772709212094004000,1.16700390625,0.002682602033019066,0.00698041170835495,-0.007656055502593517
1772709212104027600,1.177027587890625,0.002686596941202879,0.008994027972221375,-0.00980496034026146
1772709212114052900,1.187052978515625,0.0036738307680934668,0.00971414614468813,-0.009681389667093754
1772709212124077800,1.197077880859375,0.00025007082149386406,0.008580705150961876,-0.010336260311305523
1772709212134102800,1.207102783203125,0.0019627497531473637,0.006399043370038271,-0.013193832710385323
1772709212144127500,1.21712744140625,0.005150287412106991,0.007958590984344482,-0.012529107742011547
1772709212154152700,1.227152587890625,0.0032410670537501574,0.009215069934725761,-0.007586546707898378
1772709212164177700,1.237177734375,0.0034328147303313017,0.0059905145317316055,-0.00977326836436987
1772709212174201600,1.24720166015625,0.002326537622138858,0.003879693103954196,-0.010506702587008476
1772709212184226800,1.257226806640625,0.0027742148377001286,0.006610231939703226,-0.010695520788431168
1772709212194251800,1.267251708984375,0.0037760960403829813,0.006305566523224115,-0.009007875807583332
1772709212204276700,1.27727685546875,0.0021939121652394533,0.008943960070610046,-0.00800439715385437
1772709212214302000,1.287302001953125,0.0026559706311672926,0.006113019771873951,-0.009338906966149807
1772709212224326700,1.29732666015625,0.0011779161868616939,0.005260275676846504,-0.010972755961120129
1772709212234351600,1.3073515625,0.002947586588561535,0.007429154124110937,-0.012612731195986271
1772709212244375800,1.317375732421875,0.0010399643797427416,0.006776946131139994,-0.012781308963894844
1772709212254400800,1.32740087890625,0.002749713836237788,0.005526059307157993,-0.009765811264514923
1772709212264425700,1.33742578125,0.001835716888308525,0.0062523032538592815,-0.009329319931566715
1772709212274450700,1.34745068359375,0.0014977618120610714,0.004228034522384405,-0.010905112139880657
1772709212284476000,1.357475830078125,0.000639691308606416,0.005123123060911894,-0.009529589675366879
1772709212294500900,1.3675009765625,-0.0011241203173995018,0.00723447697237134,-0.012821522541344166
1772709212304525600,1.377525634765625,0.0017635452095419168,0.0032740901224315166,-0.01695874333381653
1772709212314549800,1.3875498046875,-0.0009179916232824326,0.008622783236205578,-0.020025106146931648
1772709212324574700,1.39757470703125,-0.0004655205411836505,0.008024370297789574,-0.017948107793927193
1772709212334599700,1.407599609375,0.0007411577389575541,0.005730323493480682,-0.018203504383563995
1772709212344624600,1.417624755859375,0.0017124125733971596,0.0067721521481871605,-0.014482269994914532
1772709212354649900,1.42764990234375,0.0003350256592966616,0.011565842665731907,-0.010251838713884354
1772709212364674800,1.4376748046875,0.0012117383303120732,0.013462811708450317,-0.010656905360519886
1772709212374699800,1.44769970703125,0.004907939583063126,0.012781308963894844,-0.012002067640423775
1772709212384723700,1.4577236328125,0.002153165638446808,0.010637197643518448,-0.012908874079585075
1772709212394748700,1.467748779296875,0.0007329019135795534,0.011834555305540562,-0.011922173202037811
1772709212404773600,1.477773681640625,0.0032061797101050615,0.013580257073044777,-0.01239381916821003
1772709212414798800,1.487798828125,0.001820270554162562,0.013903032056987286,-0.010871822014451027
1772709212424823800,1.49782373046875,0.002100168727338314,0.011426558718085289,-0.013687582686543465
1772709212434848800,1.507848876953125,0.00287408335134387,0.008900550194084644,-0.011335479095578194
1772709212444873700,1.517873779296875,0.003222425002604723,0.012744557112455368,-0.0100238723680377
1772709212454897700,1.527897705078125,0.0009824400767683983,0.011863583698868752,-0.011038802564144135
1772709212464922600,1.537922607421875,0.0010508833220228553,0.010025735944509506,-0.012398346327245235
1772709212474947600,1.547947509765625,0.002632800955325365,0.009366070851683617,-0.009973271749913692
1772709212484972800,1.557972900390625,0.0026341325137764215,0.011305917985737324,-0.00839614775031805
1772709212494997800,1.567997802734375,0.00398701848462224,0.011774367652833462,-0.009335977025330067
1772709212505022700,1.578022705078125,0.004582767374813557,0.012469985522329807,-0.006991064175963402
1772709212515047700,1.588047607421875,0.006045375484973192,0.011551194824278355,-0.006491188891232014
1772709212525073000,1.598072998046875,0.005368666257709265,0.011987687088549137,-0.00020266656065359712
1772709212535096600,1.6080966796875,0.005496231839060783,0.011048922315239906,0.0021398498211055994
1772709212545121800,1.618121826171875,0.005539374891668558,0.008437426760792732,0.004135622642934322
1772709212555146800,1.628146728515625,0.006434729788452387,0.004761465825140476,-0.0009896307019516826
1772709212565171700,1.638171630859375,0.008099738508462906,0.005486111622303724,-0.003748931922018528
1772709212575196700,1.64819677734375,0.005902630276978016,0.013075854629278183,0.001529453438706696
1772709212585222000,1.658221923828125,0.004387291613966227,0.01119086891412735,0.005140433553606272
1772709212595246800,1.668246826171875,0.004172374494373798,0.001636246219277382,0.0013313142117112875
1772709212605270500,1.6782705078125,0.0051835766062140465,-0.00008681904728291556,-0.00025752768851816654
1772709212615295700,1.688295654296875,0.0034173682797700167,0.010851316154003143,-0.0010061422362923622
1772709212625320700,1.69832080078125,0.0043955473229289055,0.012475311756134033,-0.0006410228670574725
1772709212635345700,1.708345703125,0.005212604999542236,0.0090568782761693,-0.0024639565963298082
1772709212645370600,1.71837060546875,0.0024458470288664103,0.008580705150961876,-0.005143096670508385
1772709212655395800,1.728395751953125,0.005912483669817448,0.011091533116996288,-0.005854426883161068
1772709212665420800,1.7384208984375,0.002581668319180608,0.011290204711258411,-0.0051508196629583836
1772709212675444700,1.74844482421875,0.002861832967028022,0.007428088691085577,-0.00737269502133131
1772709212685469700,1.7584697265625,0.0025270734913647175,0.0049406965263187885,-0.006674414500594139
1772709212695494700,1.76849462890625,0.0017323862994089723,0.009135973639786243,-0.0075937374494969845
1772709212705519600,1.77851953125,0.0019044264918193221,0.011707788333296776,-0.007158310618251562
1772709212715544600,1.788544677734375,0.0009861685102805495,0.008011055178940296,-0.010611631907522678
1772709212725569800,1.79856982421875,0.002584864152595401,0.009709885343909264,-0.007078415714204311
1772709212735594800,1.8085947265625,0.0015390408225357533,0.00965768750756979,-0.006686132401227951
1772709212745619000,1.818618896484375,0.002892725635319948,0.00929310079663992,-0.0054608117789030075
1772709212755643600,1.8286435546875,0.0033393376506865025,0.010359430685639381,-0.002907639369368553
1772709212765668600,1.838668701171875,0.001317998394370079,0.00624058535322547,-0.002144643571227789
1772709212775693600,1.848693603515625,0.003715375903993845,0.008799350820481777,-0.0035689021460711956
1772709212785718800,1.85871875,0.002629871480166912,0.009327988140285015,-0.003326288191601634
1772709212795743700,1.86874365234375,0.0036163064651191235,0.007979096844792366,-0.006205698009580374
1772709212805768700,1.878768798828125,0.0013962953817099333,0.008568188175559044,-0.00854288786649704
1772709212815793000,1.88879296875,0.0038519962690770626,0.008651811629533768,-0.009241435676813126
1772709212825817900,1.89881787109375,0.0034045851789414883,0.010278203524649143,-0.009576727636158466
1772709212835842600,1.908842529296875,0.0037851508241146803,0.01050244178622961,-0.008446215651929379
1772709212845867500,1.918867431640625,0.003556119045242667,0.007604389917105436,-0.010266219265758991
1772709212855892700,1.928892822265625,0.0036693033762276173,0.00863023940473795,-0.008803611621260643
1772709212865917700,1.938917724609375,0.00301682879216969,0.012030297890305519,-0.007379086688160896
1772709212875942700,1.948942626953125,0.0038432078436017036,0.013190902769565582,-0.005623797420412302
1772709212885966800,1.958966796875,0.0033683660440146923,0.009241169318556786,-0.007059507537633181
1772709212895991800,1.96899169921875,0.004547081422060728,0.010728810913860798,-0.0079748360440135
1772709212906016800,1.979016845703125,0.003897003596648574,0.01531530637294054,-0.0091732582077384
1772709212916041700,1.989041748046875,0.004771851934492588,0.011410846374928951,-0.008131962269544601
1772709212926066700,1.999066650390625,0.003192331176251173,0.011860653758049011,-0.007446198258548975
1772709212936091600,2.009091552734375,0.004257329273968935,0.011537878774106503,-0.009935721755027771
1772709212946116600,2.01911669921875,0.002225870033726096,0.011395399458706379,-0.00935328844934702
1772709212956141800,2.029141845703125,0.003260508179664612,0.010398578830063343,-0.007494401652365923
1772709212966165800,2.039165771484375,0.0014452975010499358,0.010035590268671513,-0.00549356872215867
1772709212976190700,2.049190673828125,0.0013187973527237773,0.010301905684173107,-0.008317052386701107
1772709212986216000,2.0592158203125,0.0016130766598507762,0.008905877359211445,-0.009661948308348656
1772709212996240600,2.06924072265625,0.0019065570086240768,0.008685899898409843,-0.009018528275191784
1772709213006265600,2.079265625,0.002980343531817198,0.00950748473405838,-0.008056062273681164
1772709213016290600,2.08929052734375,0.002675145398825407,0.009248625487089157,-0.006558034103363752
1772709213026315800,2.099315673828125,0.004478904418647289,0.010193781927227974,-0.004522313829511404
1772709213036339700,2.109339599609375,0.002169144805520773,0.009384180419147015,-0.004907673224806786
1772709213046364700,2.11936474609375,0.0027680895291268826,0.008107993751764297,-0.0021552962716668844
1772709213056390000,2.129389892578125,0.0021552962716668844,0.0032764871139079332,-0.003907656297087669
1772709213066414800,2.139414794921875,0.003891411004588008,0.004927114117890596,-0.005696767941117287
1772709213076439600,2.149439453125,0.0038211036007851362,0.011426026001572609,-0.004483697935938835
1772709213086464800,2.15946484375,0.002588059986010194,0.012656939215958118,0.001088433898985386
1772709213096489700,2.16948974609375,0.0022064289078116417,0.006024602800607681,-0.003945739474147558
1772709213106513700,2.179513671875,0.0036541232839226723,0.004511927254498005,-0.007892278023064137
1772709213116538400,2.189538330078125,0.003010703483596444,0.012495285831391811,-0.006514624692499638
1772709213126563000,2.19956298828125,0.004087153356522322,0.013086773455142975,-0.00487145408987999
1772709213136588000,2.209588134765625,0.005400624126195908,0.009984723292291164,-0.006068279035389423
1772709213146613200,2.21961328125,0.003037867834791541,0.009973271749913692,-0.008523712866008282
1772709213156638200,2.22963818359375,0.004650411661714315,0.011739746667444706,-0.007573231123387814
1772709213166663200,2.2396630859375,0.004375840071588755,0.011389806866645813,-0.005685582756996155
1772709213176687400,2.249687255859375,0.0033539850264787674,0.0070334081538021564,-0.002379534300416708
1772709213186712300,2.25971240234375,0.003926032222807407,0.004352936986833811,-0.0036908749025315046
1772709213196737300,2.2697373046875,0.003965180367231369,0.009397230111062527,-0.0018604843644425273
1772709213206762000,2.279761962890625,0.0038091193418949842,0.008981510996818542,-0.0019201391842216253
1772709213216787200,2.289787109375,0.003141731023788452,0.00863316934555769,-0.001449025934562087
1772709213226812200,2.299812255859375,0.004030427895486355,0.0076115806587040424,-0.0008764463127590716
1772709213236837000,2.309837158203125,0.003629355924203992,0.00541500560939312,-0.0030312100425362587
1772709213246861300,2.319861328125,0.002159557305276394,0.00887844618409872,-0.005371063016355038
1772709213256886300,2.32988623046875,0.004777977243065834,0.007189203519374132,-0.005632585845887661
1772709213266911200,2.3399111328125,0.003829892026260495,0.007423827890306711,-0.00666535971686244
1772709213276936200,2.349936279296875,0.0033902039285749197,0.008223309181630611,-0.008401740342378616
1772709213286961200,2.359961181640625,0.0033454629592597485,0.009241967462003231,-0.005830458365380764
1772709213296986000,2.369986083984375,0.0031473238486796618,0.008706405758857727,-0.0059785302728414536
1772709213307011000,2.380010986328125,0.00358807691372931,0.009029979817569256,-0.007466704584658146
1772709213317035300,2.39003515625,0.005014998838305473,0.00881932396441698,-0.006923419889062643
1772709213327060200,2.400060302734375,0.0021174794528633356,0.007230482529848814,-0.005514607764780521
1772709213337085200,2.410085205078125,0.002151035238057375,0.00686083547770977,-0.006307696923613548
1772709213347110100,2.420110107421875,0.004349474795162678,0.0039292280562222,-0.003487143199890852
1772709213357135400,2.43013525390625,0.004343882203102112,0.004492220003157854,-0.0004777711001224816
1772709213367160000,2.44016015625,0.0034855452831834555,0.007796670310199261,0.00048123320448212326
1772709213377185000,2.45018505859375,0.0031670311000198126,0.00869282428175211,0.002225070958957076
1772709213387209200,2.460209228515625,0.004179032519459724,0.006485063582658768,0.0012373046483844519
1772709213397234200,2.470234130859375,0.003994741477072239,0.003995540551841259,-0.0007225155713967979
1772709213407259100,2.480259033203125,0.0021172130946069956,0.004474643152207136,-0.0011968245962634683
1772709213417284400,2.490284423828125,0.004332962911576033,0.00535348616540432,-0.0008250473183579743
1772709213427309300,2.500309326171875,0.004734301473945379,0.003251453395932913,-0.0010436928132548928
1772709213437334300,2.510334228515625,0.002383262850344181,0.003049053018912673,-0.0020596887916326523
1772709213447359000,2.52035888671875,0.005067463032901287,0.005953496787697077,0.00014434332842938602
1772709213457384200,2.53038427734375,0.002100435085594654,0.006733004003763199,-0.00003062635369133204
1772709213467408100,2.540408203125,0.003451723139733076,0.0057015614584088326,-0.001246892032213509
1772709213477433000,2.55043310546875,0.0022945795208215714,0.004975051153451204,-0.003183809109032154
1772709213487458300,2.560458251953125,0.0024804682470858097,0.004788629710674286,-0.0013813816476613283
1772709213497483300,2.570483154296875,0.0028125643730163574,0.005787581671029329,-0.0019110844004899263
1772709213507508200,2.58050830078125,0.002692189533263445,0.005364938173443079,-0.0026314693968743086
1772709213517533200,2.590533203125,0.004539624322205782,0.005584648810327053,-0.0005331648280844092
1772709213527558100,2.60055810546875,0.004785700235515833,0.006700513418763876,-0.001543568097986281
1772709213537582000,2.61058203125,0.003534813644364476,0.007494135294109583,-0.002936667762696743
1772709213547607300,2.620607177734375,0.004234958905726671,0.006887467112392187,-0.001076982356607914
1772709213557632300,2.63063232421875,0.002380067016929388,0.003373159794136882,-0.0028991170693188906
1772709213567657200,2.6406572265625,0.005126318894326687,0.00418329332023859,-0.002965429797768593
1772709213577682200,2.65068212890625,0.004525776021182537,0.006956709548830986,-0.0011805793037638068
1772709213587707400,2.660707275390625,0.00236249016597867,0.008389489725232124,0.002974750939756632
1772709213597732000,2.670732177734375,0.0020780644845217466,0.004113518632948399,0.0003832288784906268
1772709213607756000,2.680756103515625,0.0014729943359270692,0.00012783173588104546,-0.0035627768374979496
1772709213617781200,2.69078125,0.004521781112998724,0.006819023750722408,-0.0029257487040013075
1772709213627806200,2.70080615234375,0.003668504301458597,0.011681157164275646,-0.00025592977181077003
1772709213637831200,2.7108310546875,0.0019329222850501537,0.010423879139125347,-0.0015875103417783976
1772709213647856000,2.720856201171875,0.0024706146214157343,0.007191600278019905,-0.005287972744554281
1772709213657881300,2.73088134765625,0.0044051348231732845,0.008271245285868645,-0.006671750918030739
1772709213667906300,2.74090625,0.004310592543333769,0.009950368665158749,-0.0036557212006300688
1772709213677930200,2.75093017578125,0.003876497270539403,0.005681587848812342,-0.004704740364104509
1772709213687955200,2.760955078125,0.004634965676814318,0.004400340840220451,-0.003328951308503747
1772709213697980200,2.770980224609375,0.004604072775691748,0.007391603663563728,-0.001981658162549138
1772709213708005000,2.781005126953125,0.003690076060593128,0.008356466889381409,-0.0013848437229171395
1772709213718030300,2.7910302734375,0.0033635725267231464,0.009525327943265438,-0.0006527407676912844
1772709213728055300,2.80105517578125,0.0027318706270307302,0.004317250568419695,-0.0027750139124691486
1772709213738080300,2.811080322265625,0.0027869981713593006,0.0067844027653336525,-0.0010040117194876075
1772709213748104200,2.821104248046875,0.003998736385256052,0.008175372146070004,-0.0023254721891134977
1772709213758129200,2.831129150390625,0.004007524810731411,0.010006295517086983,-0.0038003309164196253
1772709213768154000,2.841154052734375,0.004965197294950485,0.004458398092538118,-0.004523911513388157
1772709213778179000,2.851178955078125,0.0046999468468129635,0.006418218370527029,-0.0034298852551728487
1772709213788204300,2.861204345703125,0.003353186184540391,0.009380718693137169,-0.0033987262286245823
1772709213798229200,2.871229248046875,0.002675145398825407,0.0064893243834376335,-0.004288754425942898
1772709213808254200,2.881254150390625,0.003765443339943886,0.005083708092570305,-0.0038863508962094784
1772709213818279200,2.891279052734375,0.0046573360450565815,0.006962035782635212,-0.0036993969697505236
1772709213828303000,2.90130322265625,0.0030977888964116573,0.008838498964905739,-0.003742273896932602
1772709213838328000,2.911328125,0.003157443832606077,0.006583333946764469,-0.002752643311396241
1772709213848353000,2.92135302734375,0.0028876655269414186,0.004883971065282822,-0.0004753742541652173
1772709213858378200,2.931378173828125,0.0036309538409113884,0.002121474128216505,-0.00015419702685903758
1772709213868403200,2.9414033203125,0.005091431550681591,0.006358563434332609,0.0014266553334891796
1772709213878428200,2.95142822265625,0.004699414130300283,0.005886118393391371,0.0016655409708619118
1772709213888453000,2.961453125,0.0026343988720327616,0.0035236284602433443,0.0009382316493429244
1772709213898477000,2.97147705078125,0.004230164922773838,0.0037771612405776978,0.00040746363811194897
1772709213908502000,2.981501953125,0.005242166109383106,0.005932457745075226,0.0003787015157286078
1772709213918527200,2.99152734375,0.0033838124945759773,0.0070099723525345325,0.00023169501218944788
1772709213928552200,3.00155224609375,0.003887682454660535,0.006355900317430496,-0.0008484831196255982
1772709213938577200,3.0115771484375,0.002584864152595401,0.003950532991439104,-0.0027164241764694452
1772709213948602000,3.02160205078125,0.003718838095664978,0.006275206338614225,-0.0016961672808974981
1772709213958627300,3.03162744140625,0.0036125779151916504,0.0076243639923632145,-0.0014916365034878254
1772709213968651300,3.0416513671875,0.004459196701645851,0.0070547135546803474,-0.001711081014946103
1772709213978676000,3.051676025390625,0.002460228279232979,0.006365487817674875,-0.0025659557431936264
1772709213988701200,3.061701171875,0.0035238948184996843,0.008175372146070004,-0.00433189794421196
1772709213998726100,3.07172607421875,0.0031907332595437765,0.007113835774362087,-0.005608350969851017
1772709214008751000,3.081751220703125,0.004547613672912121,0.005243764258921146,-0.006061354652047157
1772709214018776000,3.091776123046875,0.0027779433876276016,0.008470184169709682,-0.00495081627741456
1772709214028801300,3.10180126953125,0.0049646650440990925,0.00845473725348711,-0.0035393410362303257
1772709214038825200,3.1118251953125,0.0037774275988340378,0.008251005783677101,-0.004418983124196529
1772709214048850200,3.12185009765625,0.004228567238897085,0.009135175496339798,-0.0051683965139091015
1772709214058875100,3.131875244140625,0.0034117756877094507,0.008904279209673405,-0.002466087229549885
1772709214068900000,3.141900146484375,0.0020234698895365,0.0036067189648747444,-0.0026519757229834795
1772709214078925000,3.151925048828125,0.003025883575901389,0.005367068573832512,-0.0067998492158949375
1772709214088950300,3.1619501953125,0.002784867538139224,0.007387875113636255,-0.004680505488067865
1772709214098975200,3.171975341796875,0.001630387152545154,0.010066215880215168,-0.002082858234643936
1772709214108999200,3.181999267578125,0.0015169365797191858,0.007829959504306316,0.0015651397407054901
1772709214119024400,3.1920244140625,0.00025726135936565697,0.0032826124224811792,-0.004428304266184568
1772709214129049300,3.20204931640625,0.002359827049076557,0.0049795787781476974,-0.0068302094005048275
1772709214139074300,3.21207421875,0.003725229762494564,0.008704542182385921,-0.0041345576755702496
1772709214149099000,3.22209912109375,0.005441370885819197,0.009560481645166874,-0.0020903151016682386
1772709214159124200,3.232124267578125,0.004254932515323162,0.009689644910395145,-0.00316037330776453
1772709214169149200,3.242149169921875,0.004562793765217066,0.007476025726646185,-0.005435245577245951
1772709214179174100,3.252174072265625,0.0044165863655507565,0.009044094942510128,-0.006157228257507086
1772709214189198300,3.2621982421875,0.004851480480283499,0.008431301452219486,-0.0049369679763913155
1772709214199223300,3.272223388671875,0.003454386256635189,0.006048837676644325,-0.002912699244916439
1772709214209248300,3.282248291015625,0.0037920749746263027,0.004172374494373798,-0.0035143073182553053
1772709214219273200,3.292273193359375,0.0036482643336057663,0.007556719705462456,-0.001353684812784195
1772709214229298200,3.302298095703125,0.0027499801944941282,0.008949552662670612,-0.0016626114957034588
1772709214239323100,3.3123232421875,0.004834169987589121,0.008642223663628101,-0.002959570847451687
1772709214249348000,3.32234814453125,0.003478354774415493,0.005913549102842808,-0.0010418286547064781
1772709214259372300,3.332372314453125,0.003824033075943589,0.008771120570600033,-0.00449754623696208
1772709214269397200,3.342397216796875,0.0037207023706287146,0.009503756649792194,-0.0036645096261054277
1772709214279422200,3.352422119140625,0.002651443239301443,0.007239536847919226,-0.004810201469808817
1772709214289447400,3.362447509765625,0.0029499835800379515,0.008800948038697243,-0.006111155729740858
1772709214299472400,3.372472412109375,0.0012229235144332051,0.00935328844934702,-0.007081611547619104
1772709214309497000,3.3824970703125,0.002581668319180608,0.0065167550928890705,-0.005239236634224653
1772709214319522000,3.39252197265625,0.0022383867762982845,0.007957525551319122,-0.007081345189362764
1772709214329546200,3.402546142578125,0.002002697205170989,0.0075753615237772465,-0.00689039658755064
1772709214339571200,3.4125712890625,0.0031989889685064554,0.008748750202357769,-0.006595584563910961
1772709214349596200,3.42259619140625,0.003400856629014015,0.008009457029402256,-0.007499461527913809
1772709214359621400,3.432621337890625,0.0018698053900152445,0.00754952896386385,-0.007735684048384428
1772709214369646300,3.442646240234375,0.0022714100778102875,0.007475226651877165,-0.008735700510442257
1772709214379671300,3.45267138671875,0.0017891116440296173,0.007366303354501724,-0.006702910177409649
1772709214389696000,3.462696044921875,0.001499625970609486,0.00920095480978489,-0.005662945564836264
1772709214399720200,3.47272021484375,0.0031095067970454693,0.009553291834890842,-0.004577973857522011
1772709214409745200,3.4827451171875,0.0018351842882111669,0.006555370986461639,-0.005548962391912937
1772709214419770400,3.492770263671875,0.0022040321491658688,0.007485080510377884,-0.007889880798757076
1772709214429795300,3.50279541015625,0.002838397165760398,0.010312558151781559,-0.007156180217862129
1772709214439820300,3.5128203125,0.0028487835079431534,0.009005745872855186,-0.007986021228134632
1772709214449845200,3.52284521484375,-0.00004926848123432137,0.005367601290345192,-0.009088569320738316
1772709214459870500,3.532870361328125,0.0004644552827812731,0.007167099043726921,-0.010241452604532242
1772709214469895200,3.542895263671875,0.0017124125733971596,0.00941826868802309,-0.00780572509393096
1772709214479919000,3.552919189453125,-0.00018322547839488834,0.006448045372962952,-0.007411577273160219
1772709214489944300,3.5629443359375,0.0022213426418602467,0.005915413144975901,-0.00672155199572444
1772709214499969300,3.57296923828125,0.0005435511702671647,0.007451258134096861,-0.004965197294950485
1772709214509994200,3.582994140625,0.0021643510553985834,0.008538893423974514,-0.005138036794960499
1772709214520019200,3.593019287109375,0.002254632068797946,0.007252586539834738,-0.005616873037070036
1772709214530044400,3.60304443359375,0.0009661948424763978,0.005419799126684666,-0.007868842221796513
1772709214540069400,3.6130693359375,0.0027145601343363523,0.006877613253891468,-0.007473362609744072
1772709214550093000,3.623093017578125,0.002660231664776802,0.008463526144623756,-0.007000918034464121
1772709214560118300,3.6331181640625,0.0015105449128895998,0.007837416604161263,-0.006876015570014715
1772709214570143200,3.643143310546875,0.004511661361902952,0.007303453050553799,-0.0073386067524552345
1772709214580168200,3.653168212890625,0.0012381036067381501,0.008637430146336555,-0.0059931776486337185
1772709214590193200,3.663193115234375,0.0015387744642794132,0.00896606408059597,-0.0054693338461220264
1772709214600218400,3.67321826171875,0.0026847326662391424,0.004485029727220535,-0.005282380152493715
1772709214610243300,3.683243408203125,0.0022658174857497215,0.0017723336350172758,-0.0026610305067151785
1772709214620267300,3.693267333984375,0.003204581793397665,0.006298908498138189,-0.004513525404036045
1772709214630292200,3.703292236328125,0.004916994366794825,0.006763896439224482,-0.003967577591538429
1772709214640317200,3.713317138671875,0.0038661109283566475,0.007399060297757387,0.0012234562309458852
1772709214650342100,3.723342041015625,0.002032258315011859,0.0073479278944432735,-0.00003834952076431364
1772709214660367400,3.733367431640625,0.002755040070042014,0.004337224178016186,-0.0060059609822928905
1772709214670392300,3.743392333984375,0.0044203149154782295,0.00714739179238677,-0.005501025356352329
1772709214680417300,3.753417236328125,0.0054269894026219845,0.012375443242490292,-0.0038077877834439278
1772709214690442200,3.763442138671875,0.004332696553319693,0.011461446061730385,-0.005401689559221268
1772709214700466200,3.773466064453125,0.004021106753498316,0.01104253064841032,-0.007162305526435375
1772709214710491100,3.7834912109375,0.004960670135915279,0.009457417763769627,-0.008057660423219204
1772709214720516000,3.79351611328125,0.005085838492959738,0.00962892547249794,-0.005336974747478962
1772709214730541300,3.803541259765625,0.0041004689410328865,0.007436078507453203,-0.004454669542610645
1772709214740566300,3.813566162109375,0.003513508476316929,0.004191282670944929,-0.004002198576927185
1772709214750591200,3.82359130859375,0.004034156445413828,0.005200088489800692,-0.0023031015880405903
1772709214760616200,3.8336162109375,0.005405684467405081,0.007901598699390888,-0.001240766723640263
1772709214770640100,3.84364013671875,0.005248291417956352,0.008564193733036518,-0.002948385663330555
1772709214780665000,3.8536650390625,0.004460794851183891,0.006196909584105015,-0.004326837603002787
1772709214790690300,3.863690185546875,0.0025688852183520794,0.005622199270874262,-0.006944458931684494
1772709214800715300,3.87371533203125,0.004233094397932291,0.008250206708908081,-0.005645368713885546
1772709214810740200,3.883740234375,0.003466104157269001,0.009380718693137169,-0.00809308048337698
1772709214820765200,3.89376513671875,0.003323092358186841,0.007019826211035252,-0.009427323937416077
1772709214830790400,3.903790283203125,0.0007379619055427611,0.006369215901941061,-0.010725880973041058
1772709214840814000,3.91381396484375,0.002365952357649803,0.007226753979921341,-0.009759685955941677
1772709214850839000,3.923839111328125,0.0014652712270617485,0.006866428069770336,-0.006837932392954826
1772709214860864300,3.9338642578125,0.001315068919211626,0.0067998492158949375,-0.007367635145783424
1772709214870889200,3.94388916015625,0.0016849819803610444,0.005663744639605284,-0.0049409628845751286
1772709214880914200,3.9539140625,0.002757703186944127,0.005509813781827688,-0.002004561247304082
1772709214890939100,3.963939208984375,0.003005377249792218,0.00669465446844697,-0.0006572681595571339
1772709214900964400,3.97396435546875,0.003436809405684471,0.0049558766186237335,0.0011350392596796155
1772709214910988300,3.98398828125,0.004664260428398848,0.003425091505050659,0.003123888047412038
1772709214921013000,3.994012939453125,0.003867176128551364,0.007783354725688696,0.0032842103391885757
1772709214931038200,4.0040380859375,0.0037643781397491693,0.008403871208429337,0.0021696772892028093
1772709214941063200,4.014063232421875,0.004535363521426916,0.00444002216681838,-0.0013249226612970233
1772709214951088000,4.024088134765625,0.0043920851312577724,0.0073351445607841015,-0.003805124433711171
1772709214961113000,4.034113037109375,0.0036517265252768993,0.008225172758102417,-0.005396096967160702
1772709214971138300,4.04413818359375,0.002487126039341092,0.012998090125620365,-0.008212389424443245
1772709214981162200,4.054162353515625,0.0020727382507175207,0.012942430563271046,-0.008905344642698765
1772709214991187500,4.0641875,0.0018210695125162601,0.006435795221477747,-0.010988202877342701
1772709215001212200,4.074212158203125,0.0013190637109801173,0.004148139618337154,-0.005868807900696993
1772709215011237000,4.084237060546875,0.001169394003227353,0.008160990662872791,-0.002752110594883561
1772709215021262000,4.094261962890625,0.0011286477092653513,0.010036122053861618,-0.0018716695485636592
1772709215031287300,4.104287353515625,0.0021164140198379755,0.010150105692446232,-0.002210689941421151
1772709215041312300,4.114312255859375,0.0022245384752750397,0.00430047232657671,-0.0011448930017650127
1772709215051337200,4.124337158203125,0.0031792817171663046,0.008619586937129498,-0.0022828616201877594
1772709215061361400,4.134361328125,0.0034554514568299055,0.0154929393902421,-0.005499161314219236
1772709215071386400,4.144386474609375,0.00310497940517962,0.016690829768776894,-0.012321380898356438
1772709215081411000,4.1544111328125,0.003183010034263134,0.014510765671730042,-0.01518933940678835
1772709215091436000,4.16443603515625,0.0036658411845564842,0.017777930945158005,-0.01500877644866705
1772709215101461200,4.174461181640625,0.004223507363349199,0.018493790179491043,-0.016818927600979805
1772709215111486000,4.18448583984375,0.00296329939737916,0.018811238929629326,-0.017911355942487717
1772709215121511000,4.194510986328125,0.002775280037894845,0.014523016288876534,-0.015372831374406815
1772709215131535000,4.20453515625,0.0032866070978343487,0.011156780645251274,-0.011695537716150284
1772709215141560000,4.21456005859375,0.003975034225732088,0.012797287665307522,-0.005952431354671717
1772709215151585000,4.2245849609375,0.004451207350939512,0.012135226279497147,-0.0028277444653213024
1772709215161610200,4.2346103515625,0.005432316102087498,0.008294414728879929,-0.004419249482452869
1772709215171635200,4.24463525390625,0.004288222175091505,0.0086616650223732,-0.005533782299607992
1772709215181660200,4.25466015625,0.005526059307157993,0.01209634356200695,-0.0062246061861515045
1772709215191684900,4.264684814453125,0.004466653801500797,0.011871573515236378,-0.002424808219075203
1772709215201709000,4.274708984375,0.002299373270943761,0.009277387522161007,0.00012836436508223414
1772709215211734000,4.284734130859375,0.0041039311327040195,0.00902811624109745,-0.0005123922019265592
1772709215221759000,4.294759033203125,0.004268248099833727,0.008912268094718456,-0.0003438140847720206
1772709215231784200,4.3047841796875,0.006351639050990343,0.008043278940021992,0.003117762738838792
1772709215241809200,4.31480908203125,0.006089583970606327,0.007406517397612333,0.007159908767789602
1772709215251834000,4.324834228515625,0.007220628671348095,0.003989681601524353,0.008042746223509312
1772709215261858800,4.33485888671875,0.00711836339905858,0.004626177251338959,0.011287009343504906
1772709215271884000,4.344884033203125,0.009672867134213448,0.0057377805933356285,0.014896923676133156
1772709215281908000,4.354907958984375,0.008654474280774593,0.005362274590879679,0.01780562847852707
1772709215291933200,4.36493310546875,0.0078046596609056,0.002659965306520462,0.01624980941414833
1772709215301958100,4.374958251953125,0.010093380697071552,0.00027084347675554454,0.014995194971561432
1772709215311983000,4.384983154296875,0.009061405435204506,0.0038685076870024204,0.014538728632032871
1772709215322008000,4.395008056640625,0.008707471191883087,0.00583818182349205,0.011817244812846184
1772709215332033300,4.405033203125,0.00914156623184681,0.0044261738657951355,0.007397995330393314
1772709215342058000,4.41505810546875,0.006356965284794569,0.003375822911038995,0.005542837083339691
1772709215352082000,4.42508203125,0.007144728675484657,0.007301056291908026,0.004436559975147247
1772709215362107100,4.435107177734375,0.0046538738533854485,0.007694405037909746,0.0018738001817837358
1772709215372132000,4.445132080078125,0.003975833300501108,0.008248874917626381,0.00045912896166555583
1772709215382157000,4.455156982421875,0.0037417414132505655,0.007099454756826162,-0.0007813714328221977
1772709215392182000,4.46518212890625,0.0018397116800770164,0.0035305526107549667,-0.007412642706185579
1772709215402207200,4.475207275390625,0.0010271812789142132,0.0015188007382676005,-0.007501059677451849
1772709215412232200,4.485232177734375,-0.0020865867845714092,0.0031140341889113188,-0.0052168662659823895
1772709215422255900,4.495255859375,-0.0036756948102265596,0.004022172186523676,-0.008933573961257935
1772709215432281000,4.505281005859375,-0.0023635553661733866,0.0023819312918931246,-0.016095612198114395
1772709215442306000,4.51530615234375,-0.0023132218047976494,0.004062652122229338,-0.012977584265172482
1772709215452331000,4.5253310546875,-0.0007339671719819307,0.006016879808157682,-0.011771705001592636
1772709215462356000,4.53535595703125,-0.00014860439114272594,0.01091816183179617,-0.014666561037302017
1772709215472381200,4.545381103515625,0.0009691243176348507,0.009398828260600567,-0.013458018191158772
1772709215482406100,4.55540625,0.0006404902087524533,0.010714962147176266,-0.00872238539159298
1772709215492430000,4.56543017578125,0.0013962953817099333,0.0133301867172122,-0.012141884304583073
1772709215502455000,4.575455078125,0.000606934423558414,0.0109253516420722,-0.0169153343886137
1772709215512480000,4.58547998046875,0.0036133769899606705,0.00765898497775197,-0.01996784843504429
1772709215522505000,4.5955048828125,0.0008122641011141241,0.009327189065515995,-0.013488112017512321
1772709215532530200,4.6055302734375,0.0018759306985884905,0.01212537195533514,-0.005133242812007666
1772709215542555100,4.61555517578125,0.0028764803428202868,0.011123757809400558,-0.003976631909608841
1772709215552580000,4.625580078125,0.005615008994936943,0.009274991229176521,-0.0014303837670013309
1772709215562605000,4.63560498046875,0.005556951742619276,0.006199306342750788,0.006535663735121489
1772709215572629000,4.64562890625,0.008616924285888672,0.009698433801531792,0.009788715280592442
1772709215582654000,4.655654052734375,0.008577242493629456,0.01299569383263588,0.010241452604532242
1772709215592679000,4.665678955078125,0.009078183211386204,0.008069644682109356,0.010222277604043484
1772709215602704100,4.6757041015625,0.008588162250816822,0.012337093241512775,0.008185225538909435
1772709215612729000,4.68572900390625,0.009559682570397854,0.011562380008399487,0.008228901773691177
1772709215622754000,4.695754150390625,0.009606022387742996,0.017368869855999947,0.003938282374292612
1772709215632779000,4.705779052734375,0.008471515029668808,0.008025968447327614,0.006280266214162111
1772709215642803000,4.715802978515625,0.00669385539367795,0.0067753479816019535,0.010906443931162357
1772709215652828000,4.725827880859375,0.008075503632426262,0.012884106487035751,0.010072873905301094
1772709215662853000,4.73585302734375,0.009623066522181034,0.012279036454856396,0.007485080510377884
1772709215672878000,4.745878173828125,0.006294913589954376,0.008478173054754734,0.008024103939533234
1772709215682903000,4.755903076171875,0.009308014065027237,0.005983323790132999,0.009704559110105038
1772709215692928000,4.765927978515625,0.0067934575490653515,0.010784204117953777,0.007966579869389534
1772709215702953200,4.775953125,0.008551144041121006,0.014193583279848099,0.0049308426678180695
1772709215712977200,4.78597705078125,0.00643845833837986,0.013230850920081139,0.005073854699730873
1772709215723001900,4.796001953125,0.00621075788512826,0.00945155881345272,0.007644337601959705
1772709215733027000,4.806027099609375,0.0063066319562494755,0.008587629534304142,0.00857537891715765
1772709215743052000,4.816052001953125,0.007676295470446348,0.008144745603203773,0.0060120862908661366
1772709215753077000,4.826076904296875,0.008158859796822071,0.008817726746201515,0.00983345601707697
1772709215763102000,4.83610205078125,0.00640756543725729,0.010279801674187183,0.014680408872663975
1772709215773127200,4.846127197265625,0.006651244591921568,0.00688933115452528,0.01366467960178852
1772709215783152000,4.856152099609375,0.009899502620100975,0.003955060616135597,0.010987670160830021
1772709215793176000,4.866176025390625,0.011537612415850163,0.005663744639605284,0.011225223541259766
1772709215803201000,4.876200927734375,0.010957576334476471,0.008076302707195282,0.01233656145632267
1772709215813226000,4.88622607421875,0.012035357765853405,0.010576744563877583,0.011234012432396412
1772709215823251000,4.8962509765625,0.011726696975529194,0.007346329744905233,0.009319731965661049
1772709215833276200,4.906276123046875,0.010606572031974792,0.007122091483324766,0.0072805495001375675
1772709215843301000,4.916301025390625,0.010045443661510944,0.006402239203453064,0.008679508231580257
1772709215853326000,4.926326171875,0.010014284402132034,0.006464024540036917,0.007799067068845034
1772709215863350300,4.936350341796875,0.01028832420706749,0.006690393202006817,0.005839779507368803
1772709215873375000,4.946375,0.009105880744755268,0.00697907991707325,0.005167864263057709
1772709215883400000,4.95639990234375,0.008322644978761673,0.006030461750924587,0.006435795221477747
1772709215893425000,4.9664248046875,0.009371663443744183,0.007458715233951807,0.008173773996531963
1772709215903450000,4.9764501953125,0.006414223462343216,0.005372661165893078,0.008664860390126705
1772709215913475000,4.98647509765625,0.006356965284794569,0.0032405343372374773,0.009285377338528633
1772709215923500000,4.9965,0.00683100800961256,0.0030863373540341854,0.007526093162596226
1772709215933524200,5.006524169921875,0.00592606607824564,0.005921272095292807,0.008409996517002583
1772709215943549200,5.016549072265625,0.0052376389503479,0.0049156625755131245,0.01080018375068903
1772709215953574000,5.026573974609375,0.004437092691659927,0.0033811493776738644,0.008657936938107014
1772709215963598800,5.036598876953125,0.0051742554642260075,0.0032839439809322357,0.007223025429993868
1772709215973624000,5.0466240234375,0.004574778024107218,0.00250550196506083,0.007823302410542965
1772709215983649000,5.05664892578125,0.00461658975109458,0.0024378576781600714,0.009155681356787682
1772709215993674000,5.066674072265625,0.006909571588039398,0.004519117996096611,0.008159658871591091
1772709216003699000,5.076698974609375,0.0051894355565309525,0.004189951345324516,0.008960737846791744
1772709216013723100,5.08672314453125,0.004051200579851866,0.001431182725355029,0.007225954905152321
1772709216023748000,5.096748046875,0.003878627670928836,0.004867726005613804,0.0043891556560993195
1772709216033773000,5.10677294921875,0.0030075078830122948,0.000883636821527034,0.0032565132714807987
1772709216043798000,5.116798095703125,0.003198722843080759,0.0017281252657994628,0.0027422569692134857
1772709216053823000,5.126822998046875,0.004286091309040785,0.007416637148708105,0.0025363946333527565
1772709216063848000,5.136847900390625,0.0033188313245773315,0.0029555761720985174,0.0017201356822624803
1772709216073873200,5.146873046875,0.0018706043483689427,0.0036309538409113884,-0.0008135957177728415
1772709216083897000,5.15689697265625,0.001888980157673359,0.0041398839093744755,-0.0010431602131575346
1772709216093922000,5.166922119140625,0.0006490123341791332,0.0073079802095890045,-0.0010058758780360222
1772709216103947300,5.176947265625,0.0020663465838879347,0.006330866366624832,-0.0016940367640927434
1772709216113973000,5.186972900390625,0.0014740596525371075,0.003227751236408949,-0.0001776328426785767
1772709216123998000,5.196998046875,0.0006934871198609471,0.000330231967382133,0.0026205505710095167
1772709216134023000,5.20702294921875,0.0004495415778364986,0.0016785904299467802,0.0016207997687160969
1772709216144047900,5.2170478515625,0.0025600967928767204,0.0017038905061781406,0.0049153962172567844
1772709216154073000,5.227072998046875,0.0012948289513587952,-0.001865277998149395,0.008794024586677551
1772709216164097000,5.237096923828125,0.0018367822049185634,0.001686579897068441,0.009036371484398842
1772709216174122000,5.2471220703125,0.00035686357296071947,0.0027710190042853355,0.006804110016673803
1772709216184147000,5.25714697265625,0.0010719223646447062,-0.001377919572405517,0.0016961672808974981
1772709216194172000,5.267171875,0.0035055188927799463,0.006160690449178219,0.0030453247018158436
1772709216204196900,5.27719677734375,0.0026844663079828024,0.0018722022650763392,0.003970240708440542
1772709216214222000,5.28722216796875,0.004712996073067188,0.0030897995457053185,0.004976116586476564
1772709216224247000,5.2972470703125,0.004145210143178701,0.007033142261207104,0.006718090269714594
1772709216234271000,5.30727099609375,0.003635481232777238,0.004096208140254021,0.0038043255917727947
1772709216244921900,5.317921875,0.006299973931163549,0.007379086688160896,-0.0001853560097515583
1772709216254947000,5.327947021484375,0.004168912302702665,0.007397196255624294,0.0007568703731521964
1772709216264972000,5.337971923828125,0.005630987696349621,0.006609433330595493,-0.002861832967028022
1772709216274997000,5.3479970703125,0.004632302559912205,0.0060328589752316475,-0.008918926119804382
1772709216285021200,5.358021240234375,0.004488491453230381,0.00971574429422617,-0.008077367208898067
1772709216295046100,5.368046142578125,0.0034264230635017157,0.018375545740127563,-0.007246194873005152
1772709216305070800,5.37807080078125,0.00192226970102638,0.00839454960078001,-0.0075873457826673985
1772709216315095800,5.388095703125,0.002629871480166912,0.0038778288289904594,-0.009156746789813042
1772709216325121000,5.39812109375,0.001356614287942648,0.008199873380362988,-0.009867544285953045
1772709216335146000,5.40814599609375,0.0019182749092578888,0.012288358062505722,-0.010377272963523865
1772709216345171000,5.4181708984375,0.00022556974727194756,0.009430785663425922,-0.011572766117751598
1772709216355195100,5.428195068359375,0.0015124091878533363,0.005918076727539301,-0.010403905063867569
1772709216365220000,5.43822021484375,0.0020010992884635925,0.009186307899653912,-0.010539992712438107
1772709216375244800,5.448244873046875,0.002691656816750765,0.012399678118526936,-0.010632670484483242
1772709216385269800,5.458269775390625,0.004259992390871048,0.00959749985486269,-0.011873969808220863
1772709216395295000,5.468294921875,0.002709766384214163,0.0052363071590662,-0.008876049891114235
1772709216405320000,5.47831982421875,0.0034903388004750013,0.006353237200528383,-0.007208910770714283
1772709216415345000,5.488344970703125,0.0030916635878384113,0.008980445563793182,-0.004229366313666105
1772709216425369900,5.498369873046875,0.002528671408072114,0.00818096473813057,-0.005003813188523054
1772709216435394000,5.50839404296875,0.0023939155507832766,0.005616073962301016,-0.006931675598025322
1772709216445419000,5.5184189453125,0.002600044244900346,0.004875981714576483,-0.005919940769672394
1772709216455444000,5.52844384765625,0.001276453142054379,0.008636098355054855,-0.006880542729049921
1772709216465469000,5.538468994140625,0.0007608651067130268,0.009004680439829826,-0.008236091583967209
1772709216475494000,5.548493896484375,0.0014711301773786545,0.007844074629247189,-0.008627044036984444
1772709216485518800,5.558518798828125,0.002654372714459896,0.005579322576522827,-0.008556470274925232
1772709216495544000,5.5685439453125,0.0021907163318246603,0.008502407930791378,-0.006844324059784412
1772709216505568000,5.578568115234375,-0.0004982774262316525,0.005958823021501303,-0.007861385121941566
1772709216515593000,5.588593017578125,0.0008127967594191432,0.008712264709174633,-0.009033442474901676
1772709216525618200,5.5986181640625,0.0004005394293926656,0.007670170161873102,-0.009065666235983372
1772709216535643000,5.608642822265625,0.0018442390719428658,0.0061535001732409,-0.009866478852927685
1772709216545667800,5.618667724609375,0.0019326560432091355,0.007385744713246822,-0.009455819614231586
1772709216555692800,5.62869287109375,0.0019718045368790627,0.008791094645857811,-0.007699731271713972
1772709216565718000,5.638718017578125,0.001674595638178289,0.007587079424411058,-0.006299441214650869
1772709216575742000,5.648741943359375,0.003236806020140648,0.004959604702889919,-0.008139952085912228
1772709216585767000,5.658766845703125,0.0014215953415259719,0.006444317288696766,-0.0043899547308683395
1772709216605191000,5.67819091796875,0.004788097459822893,0.006480802316218615,-0.0034144388046115637
1772709216615216000,5.688216064453125,0.0022184131667017937,0.006337258033454418,-0.002665557898581028
1772709216625241000,5.698240966796875,0.0036040558479726315,0.0036738307680934668,-0.0025598304346203804
1772709216635266000,5.70826611328125,0.003093261504545808,0.005905826110392809,-0.0033483924344182014
1772709216645291000,5.718291015625,0.004171841777861118,0.006798517424613237,-0.005327120888978243
1772709216655315000,5.72831494140625,0.0033004553988575935,0.005517537239938974,-0.004010720644146204
1772709216665340000,5.73833984375,0.002335592173039913,0.00627094553783536,-0.0036709012929350138
1772709216675364900,5.74836474609375,0.0013371731620281935,0.0057401773519814014,-0.004253334365785122
1772709216685390000,5.75839013671875,0.0017507621087133884,0.006042446009814739,-0.006700247060507536
1772709216695415000,5.7684150390625,0.0023196132387965918,0.007315170951187611,-0.006588127929717302
1772709216705440000,5.77843994140625,0.003043460426852107,0.0073053170926868916,-0.007379086688160896
1772709216715465000,5.78846484375,0.0031201594974845648,0.007400125730782747,-0.008007592521607876
1772709216725490000,5.798489990234375,0.001785116852261126,0.008588162250816822,-0.009161007590591908
1772709216735513900,5.808513916015625,0.002700711600482464,0.006038983818143606,-0.009982593357563019
1772709216745539000,5.8185390625,0.0017965685110539198,0.008258462883532047,-0.006954845041036606
1772709216755564000,5.82856396484375,0.0030277478508651257,0.008125836960971355,-0.0073351445607841015
1772709216765589000,5.838589111328125,0.004011785611510277,0.007950601167976856,-0.007679224945604801
1772709216775614000,5.848614013671875,0.0031880701426416636,0.007547664921730757,-0.005587578285485506
1772709216785639200,5.85863916015625,0.004233893472701311,0.0075753615237772465,-0.005516471806913614
1772709216795664100,5.8686640625,0.002028263406828046,0.007358047645539045,-0.004545483272522688
1772709216805688800,5.878688720703125,0.0004748416249640286,0.00498117646202445,-0.0029521139804273844
1772709216815713000,5.888713134765625,0.0034882084000855684,0.0036477316170930862,-0.004572114907205105
1772709216825738000,5.898738037109375,0.00316037330776453,0.0036703685764223337,-0.006265352945774794
1772709216835763000,5.908762939453125,0.004707403481006622,0.007964981719851494,-0.0032147017773240805
1772709216845788000,5.918787841796875,0.0022530341520905495,0.007452856283634901,-0.0008141283178701997
1772709216855813000,5.928813232421875,0.0022056300658732653,0.004906075540930033,-0.00415373221039772
1772709216865838000,5.938838134765625,0.003367833560332656,0.0035001926589757204,-0.008934373036026955
1772709216875863000,5.948863037109375,0.0015198660548776388,0.005250421818345785,-0.009217733517289162
1772709216885887700,5.9588876953125,0.002001631772145629,0.008678176440298557,-0.00839694682508707
1772709216895912000,5.968911865234375,0.0034061830956488848,0.009559416212141514,-0.009072856977581978
1772709216905937000,5.97893701171875,0.005152684170752764,0.006077599711716175,-0.011018563061952591
1772709216915961900,5.9889619140625,0.002426938619464636,0.010713363997638226,-0.008579906076192856
1772709216925987000,5.998987060546875,0.005282380152493715,0.011903264559805393,-0.008684035390615463
1772709216936012000,6.009011962890625,0.002662095706909895,0.007182545494288206,-0.008036354556679726
1772709216946037000,6.019037109375,0.0037380128633230925,0.0067660268396139145,-0.007874434813857079
1772709216956062000,6.02906201171875,0.003097256412729621,0.008383364416658878,-0.0036373452749103308
1772709216966087000,6.0390869140625,0.002546780975535512,0.008140751160681248,-0.005420864559710026
1772709216976110800,6.04911083984375,0.0025393241085112095,0.00814847368746996,-0.006819822825491428
1772709216986136000,6.059135986328125,0.0032402679789811373,0.008167115971446037,-0.00564084155485034
1772709216996161000,6.0691611328125,0.0038772961124777794,0.007240868639200926,-0.007690143771469593
1772709217006186000,6.07918603515625,0.003667971817776561,0.007095193490386009,-0.008739962242543697
1772709217016211000,6.0892109375,0.0014684670604765415,0.007470433134585619,-0.00888110976666212
1772709217026236200,6.099236083984375,0.002049835165962577,0.008736499585211277,-0.009004147723317146
1772709217036261000,6.10926123046875,0.0030429279431700706,0.007709851488471031,-0.008018244989216328
1772709217046285800,6.119285888671875,0.0031427964568138123,0.006661098450422287,-0.007762848399579525
1772709217056310800,6.129310791015625,0.0019747340120375156,0.0076272934675216675,-0.007203850895166397
1772709217066335000,6.1393349609375,0.0014588796766474843,0.008606537245213985,-0.010457434691488743
1772709217076360000,6.14935986328125,0.0028016455471515656,0.007495466619729996,-0.01067741122096777
1772709217086385000,6.159385009765625,0.0020266654901206493,0.008009190671145916,-0.007836351171135902
1772709217096410000,6.16941015625,0.002207760466262698,0.0080912159755826,-0.004772651009261608
1772709217106435000,6.17943505859375,0.0018032263033092022,0.00782543234527111,-0.0060946443118155
1772709217116459800,6.189459716796875,0.001347825862467289,0.004800613969564438,-0.004995823837816715
1772709217126485000,6.199485107421875,0.0008402272942475975,0.004618453793227673,-0.0043806335888803005
1772709217136510000,6.209510009765625,0.0031041805632412434,0.006701844744384289,-0.0012191950809210539
1772709217146534000,6.219533935546875,0.002344646956771612,0.007536213379353285,-0.001008805469609797
1772709217156558800,6.229558837890625,0.0029052423778921366,0.005621932912617922,-0.004573446698486805
1772709217166583800,6.239583740234375,0.0027334685437381268,0.003490072675049305,-0.004304200876504183
1772709217176608800,6.24960888671875,0.0011531487107276917,0.005893309134989977,-0.0025891251862049103
1772709217186633700,6.2596337890625,0.002841326640918851,0.00848296657204628,-0.0022943131625652313
1772709217196659000,6.269658935546875,0.0021281319204717875,0.004991828929632902,-0.002597114769741893
1772709217206684000,6.279683837890625,0.0023939155507832766,0.005967345088720322,-0.00177925790194422
1772709217216708900,6.289708984375,0.003992078360170126,0.005161206237971783,-0.0021643510553985834
1772709217226732800,6.29973291015625,0.003379817819222808,0.006517820525914431,-0.0027680895291268826
1772709217236757800,6.3097578125,0.002686330582946539,0.009122658520936966,-0.0033510555513203144
1772709217246782700,6.31978271484375,0.0031196267809718847,0.009620935656130314,-0.004752943757921457
1772709217256807700,6.3298076171875,0.00440912926569581,0.003897003596648574,-0.006992395501583815
1772709217266833000,6.3398330078125,0.0033036512322723866,0.009639577940106392,-0.005970008205622435
1772709217276857900,6.34985791015625,0.003136138431727886,0.0065801385790109634,-0.006858172360807657
1772709217286882800,6.3598828125,0.002359027974307537,0.006533000618219376,-0.006748982705175877
1772709217296907800,6.36990771484375,0.0033776871860027313,0.005672266706824303,-0.004181429278105497
1772709217306933000,6.37993310546875,0.0035451999865472317,0.006388923618942499,-0.003727360162883997
1772709217316956700,6.389956787109375,0.004611529875546694,0.011211109347641468,-0.0040735709480941296
1772709217326982000,6.39998193359375,0.0033100428991019726,0.006627010181546211,-0.004831240512430668
1772709217337006800,6.4100068359375,0.0035720979794859886,0.008458998054265976,-0.0028724854346364737
1772709217347031800,6.42003173828125,0.0020929782185703516,0.002013616031035781,-0.004517520312219858
1772709217357056800,6.430056884765625,-0.00042583944741636515,0.005525792948901653,-0.005091431550681591
1772709217367082000,6.44008203125,0.004335626028478146,0.0028719529509544373,-0.0030301446095108986
1772709217377107000,6.45010693359375,0.003201385959982872,0.010150105692446232,0.0000327568814100232
1772709217387132000,6.4601318359375,0.002567820018157363,0.009229717776179314,0.0012748552253469825
1772709217397156900,6.470156982421875,0.002153431996703148,0.003163036424666643,-0.0009643306257203221
1772709217407180800,6.480180908203125,0.0019033611752092838,0.0036812876351177692,-0.0062578958459198475
1772709217417205800,6.490205810546875,0.0021196098532527685,0.009118929505348206,-0.006339654792100191
1772709217427230700,6.500230712890625,0.0028162929229438305,0.009218531660735607,-0.004159324802458286
1772709217437256000,6.510255859375,0.003918308764696121,0.005631786771118641,-0.004722050856798887
1772709217447281000,6.520281005859375,0.005498095881193876,0.007232879288494587,-0.007111971732228994
1772709217457305900,6.530305908203125,0.005416070576757193,0.009667540900409222,-0.0028189560398459435
1772709217467330800,6.540330810546875,0.006552175153046846,0.009463276714086533,-0.0008295746520161629
1772709217477356000,6.55035595703125,0.0027542412281036377,0.0057316552847623825,-0.0019920445047318935
1772709217487379700,6.560379638671875,0.005985986907035112,0.0036799560766667128,-0.0013582120882347226
1772709217497405000,6.570405029296875,0.005935387220233679,0.006968693342059851,0.0004340952436905354
1772709217507430000,6.580429931640625,0.0036703685764223337,0.008419583551585674,0.0010418286547064781
1772709217517454800,6.590454833984375,0.005626194179058075,0.006963633466511965,0.0011720572365447879
1772709217527479800,6.600479736328125,0.005031776614487171,0.008008125238120556,0.001261273049749434
1772709217537505000,6.610505126953125,0.004266916774213314,0.006217682268470526,-0.00027324032271280885
1772709217547530000,6.620530029296875,0.00088976213010028,-0.008321579545736313,0.044625524431467056
1772709217557555000,6.630554931640625,0.0020295949652791023,0.027816450223326683,0.06942008435726166
1772709217567579000,6.640578857421875,0.004698082339018583,0.04621303454041481,0.01552036963403225
1772709217577603800,6.650603759765625,0.0051878378726542,-0.005770271178334951,-0.002570749493315816
1772709217587628800,6.66062890625,0.0008197209681384265,-0.03123302012681961,0.007829693146049976
1772709217597653800,6.67065380859375,-0.00010679275874281302,-0.0006615291931666434,0.020364128053188324
1772709217607679000,6.680678955078125,-0.0015986956423148513,0.019390475004911423,0.005258677992969751
1772709217617704000,6.690703857421875,0.004715925548225641,-0.0036796897184103727,-0.01980326510965824
1772709217627729000,6.70072900390625,0.004282629117369652,-0.002397377509623766,-0.03826696053147316
1772709217637753900,6.71075390625,0.00833675917237997,0.01954520493745804,-0.033789388835430145
1772709217647778800,6.72077880859375,0.007841943763196468,0.028419123962521553,-0.02177427150309086
1772709217657802800,6.730802734375,0.013369867578148842,0.02340226247906685,-0.028800489380955696
1772709217667828000,6.740827880859375,-0.007269364316016436,-0.0024682176299393177,-0.027054786682128906
1772709217677853000,6.75085302734375,0.007911186665296555,-0.03425198048353195,0.014062022790312767
