time,seconds_elapsed,z,y,x
1772709210981243400,0.054243408203125,-0.005715743638575077,-0.011451596394181252,-0.00004646275192499161
1772709210991268400,0.064268310546875,-0.0017951731570065022,-0.006268270313739777,0.0012441595317795873
1772709211001292300,0.074292236328125,-0.00229478208348155,0.007939694449305534,-0.0005726490635424852
1772709211011317200,0.084317138671875,0.00027522072196006775,0.0029380680061876774,-0.0007129074074327946
1772709211021342200,0.09434228515625,-0.0010233367793262005,-0.004897484555840492,0.0009611555142328143
1772709211031367400,0.104367431640625,-0.0019465218065306544,-0.0014636516571044922,0.000731693347916007
1772709211041392400,0.114392333984375,-0.0009254657197743654,0.003533770330250263,-0.0030816870275884867
1772709211051417300,0.124417236328125,-0.00035150209441781044,-0.0008393814787268639,-0.00316319870762527
1772709211061442300,0.1344423828125,-0.0012468567583709955,-0.00263674883171916,-0.00020069838501513004
1772709211071466200,0.14446630859375,0.0003025168552994728,-0.0007770569063723087,-0.001015763496980071
1772709211081491200,0.1544912109375,0.002903359942138195,0.0025790585204958916,-0.003679723246023059
1772709211091516200,0.16451611328125,0.0006255321204662323,0.002299695275723934,-0.0025424896739423275
1772709211101541400,0.174541259765625,0.0009262026287615299,-0.0005506854504346848,-0.0009632350411266088
1772709211111566800,0.18456689453125,0.0021381278056651354,-0.0015720296651124954,-0.0008102867286652327
1772709211121591800,0.194591796875,0.00118737923912704,0.0017641116864979267,-0.0012960473541170359
1772709211131616800,0.20461669921875,0.001302533783018589,-0.0012803943827748299,-0.0005502428393810987
1772709211141641700,0.214641845703125,0.0005619088187813759,-0.003980306908488274,-0.0013622406404465437
1772709211151666000,0.224666015625,0.0016415542922914028,-0.002653254196047783,0.0005437836516648531
1772709211161691000,0.23469091796875,0.001844487152993679,-0.0016154199838638306,0.000299571780487895
1772709211171715800,0.2447158203125,0.0019526651594787836,-0.0025240974500775337,0.0008184933103621006
1772709211181740800,0.25474072265625,0.0013859441969543695,-0.002369367517530918,0.0038020326755940914
1772709211191765800,0.264765869140625,-0.0009739620145410299,-0.002844497561454773,0.0020470931194722652
1772709211201790700,0.274790771484375,0.0022023902274668217,-0.001495872624218464,0.0018454918172210455
1772709211211816000,0.28481591796875,0.001254119211807847,-0.0011829603463411331,0.003962778486311436
1772709211221840000,0.29483984375,0.0009417303372174501,0.0002905665896832943,0.006146837025880814
1772709211231864800,0.30486474609375,0.0006606066599488258,-0.0008793100714683533,0.005616030655801296
1772709211241890000,0.31489013671875,0.0013178745284676552,-0.0016702688299119473,0.00572655163705349
1772709211251914800,0.324914794921875,-0.000393605325371027,-0.003187519032508135,0.005258736666291952
1772709211261939700,0.334939697265625,0.0005531483329832554,-0.0013531339354813099,0.006123731378465891
1772709211271964700,0.344964599609375,-0.00041589606553316116,-0.00030193058773875237,0.007293950766324997
1772709211281990000,0.354989990234375,-0.0002401275560259819,-0.0034748204052448273,0.005709902383387089
1772709211292013800,0.365013916015625,0.00041437032632529736,-0.0033001676201820374,0.004479560069739819
1772709211302038800,0.375038818359375,-0.000364870298653841,-0.0013038618490099907,0.006522204726934433
1772709211312064000,0.38506396484375,-0.0004771747626364231,-0.00037676189094781876,0.007420248817652464
1772709211322089000,0.3950888671875,0.0010813071858137846,0.0002461513504385948,0.007528106682002544
1772709211332113700,0.40511376953125,0.00041548837907612324,-0.003456736449152231,0.003524797735735774
1772709211342139000,0.415138916015625,-0.0009262121748179197,-0.002188805490732193,0.005504058673977852
1772709211352163800,0.425163818359375,-0.0006527055520564318,-0.00012831762433052063,0.004091784358024597
1772709211362188800,0.435188720703125,-0.00008758273907005787,0.0012128502130508423,0.0028709915932267904
1772709211372213000,0.445212890625,0.00018025189638137817,-0.0011331499554216862,0.0020201951265335083
1772709211382238000,0.455238037109375,0.000051354989409446716,-0.0021073343232274055,0.001695555867627263
1772709211392263000,0.465262939453125,0.000649130204692483,-0.001107070129364729,0.0008903637062758207
1772709211402287900,0.475287841796875,0.0005122434813529253,0.0008596740663051605,0.0013862443156540394
1772709211412312800,0.485312744140625,0.0015975064598023891,-0.000949883833527565,0.0019331453368067741
1772709211422337800,0.495337890625,-0.0011918884702026844,-0.0009733196347951889,0.0010471115820109844
1772709211432362800,0.50536279296875,0.0008519280236214399,0.0013161562383174896,0.0015402290737256408
1772709211442387000,0.515386962890625,-0.0015238781925290823,0.0007877843454480171,-0.0007988254074007273
1772709211452412000,0.525411865234375,-0.00011069909669458866,0.00019205454736948013,-0.0015033786185085773
1772709211462436900,0.535436767578125,-0.00042974576354026794,-0.0016937297768890858,0.0005880016833543777
1772709211472461800,0.5454619140625,-0.0010795036796480417,0.000010420568287372589,-0.0008449077140539885
1772709211482487000,0.555487060546875,0.0002097326796501875,0.0012037833221256733,-0.0018278805073350668
1772709211492511700,0.56551171875,0.0012543308548629284,0.0004653073847293854,-0.0003497069701552391
1772709211502536700,0.57553662109375,-0.0007241314742714167,0.0003079148009419441,-0.0011955269146710634
1772709211512561000,0.585560791015625,-0.000018473248928785324,-0.0020465762354433537,-0.0013026595115661621
1772709211522585900,0.5955859375,-0.001216895878314972,-0.0023962492123246193,-0.0031375777907669544
1772709211532610800,0.60561083984375,-0.001355832675471902,-0.0036506394390016794,-0.005816753022372723
1772709211542636000,0.615635986328125,-0.0007781931199133396,0.0005110818892717361,-0.00694566685706377
1772709211552661000,0.625660888671875,-0.000354293966665864,-0.000005764886736869812,-0.0060858530923724174
1772709211562686000,0.63568603515625,-0.0038017560727894306,-0.004296650178730488,-0.0074957311153411865
1772709211572710700,0.645710693359375,-0.0019236458465456963,-0.0035994723439216614,-0.00819611456245184
1772709211582736000,0.65573583984375,-0.00129194394685328,-0.0005549467168748379,-0.010913603939116001
1772709211592759800,0.665759765625,-0.0017380386125296354,0.0005035679787397385,-0.011428921483457088
1772709211602784800,0.67578466796875,-0.004259785637259483,-0.000784603413194418,-0.00927602220326662
1772709211612810000,0.68581005859375,-0.0025704745203256607,0.0019087372347712517,-0.008516354486346245
1772709211622835000,0.6958349609375,-0.002449566964060068,0.001586494967341423,-0.007681453600525856
1772709211632860000,0.70585986328125,-0.004056381992995739,0.0010053450241684914,-0.007314101327210665
1772709211642884600,0.715884521484375,-0.0026387814432382584,-0.0014229249209165573,-0.004089013207703829
1772709211652909800,0.725909912109375,-0.003532195230945945,-0.0015523005276918411,-0.0018945424817502499
1772709211662933800,0.735933837890625,-0.0008125749882310629,-0.0032394127920269966,-0.00017520575784146786
1772709211672959000,0.745958984375,0.0006016509141772985,-0.0017482554540038109,-0.00019089109264314175
1772709211682984000,0.75598388671875,0.0011470660101622343,0.00041289953514933586,0.004211580380797386
1772709211693009000,0.7660087890625,0.0002952232025563717,-0.0005648541264235973,0.00191774673294276
1772709211703033900,0.776033935546875,0.0005849748849868774,-0.0020716707222163677,0.003039470175281167
1772709211713059000,0.78605908203125,-0.00010697077959775925,-0.00490603456273675,0.001831964123994112
1772709211723083800,0.796083740234375,-0.0005533164367079735,-0.0011192858219146729,0.0012721677776426077
1772709211733107700,0.806107666015625,-0.0005449007730931044,0.00010338379070162773,0.00017972965724766254
1772709211743133000,0.8161328125,-0.0010783320758491755,-0.0022125006653368473,-0.000014947494491934776
1772709211753158000,0.826157958984375,0.0006029214709997177,-0.0024934643879532814,-0.001806455897167325
1772709211763182800,0.836182861328125,0.0004977267235517502,-0.00004974799230694771,-0.0022789009381085634
1772709211773207800,0.846207763671875,-0.0034440974704921246,0.0011204550974071026,-0.002971396315842867
1772709211783233000,0.85623291015625,-0.00039238110184669495,-0.0026883981190621853,-0.0033050905913114548
1772709211793258000,0.866258056640625,-0.00010225432924926281,-0.003509165719151497,-0.004148927517235279
1772709211803282700,0.87628271484375,-0.0022463654167950153,-0.0011762366630136967,-0.002413078909739852
1772709211813307000,0.886306884765625,-0.000841949600726366,-0.002969390247017145,-0.0026449381839483976
1772709211823331800,0.896331787109375,-0.0012158574536442757,-0.004081260412931442,-0.002293401164934039
1772709211833356800,0.906356689453125,-0.0002075578086078167,-0.0018455074168741703,-0.00106483930721879
1772709211843381800,0.9163818359375,-0.0018395428778603673,-0.0007813083939254284,0.0006837921682745218
1772709211853407000,0.926406982421875,0.0004402825143188238,-0.00101834861561656,-0.001397587126120925
1772709211863432000,0.936431884765625,-0.0013850482646375895,-0.0024537923745810986,-0.0008124907035380602
1772709211873457000,0.946456787109375,-0.0017169048078358173,-0.0041440981440246105,-0.0013373356778174639
1772709211883480800,0.956480712890625,-0.0009581700433045626,-0.0009853229857981205,-0.0006361252162605524
1772709211893505800,0.966505859375,-0.0021287049166858196,-0.0022048382088541985,0.00003097136504948139
1772709211903530800,0.97653076171875,-0.0018709107534959912,-0.0016716732643544674,-0.0010204445570707321
1772709211913556000,0.986555908203125,-0.0021784838754683733,-0.003951544873416424,-0.0022051313426345587
1772709211923581000,0.996580810546875,-0.00005434663034975529,-0.00261889910325408,-0.002604339038953185
1772709211933606000,1.00660595703125,-0.0011942589189857244,-0.001931793987751007,-0.004023078829050064
1772709211943630800,1.016630859375,-0.00222942978143692,0.00021258322522044182,-0.004258768633008003
1772709211953654800,1.02665478515625,-0.0015576211735606194,0.0004762168973684311,-0.005506578832864761
1772709211963679700,1.0366796875,-0.002423414960503578,0.00013772957026958466,-0.0074919648468494415
1772709211973704700,1.04670458984375,-0.0015392173081636429,0.0010656025260686874,-0.006311073899269104
1772709211983730000,1.05672998046875,-0.0006521185860037804,0.0006227185949683189,-0.0055856285616755486
1772709211993755000,1.0667548828125,-0.0010779325384646654,0.0016575893387198448,-0.0047937785275280476
1772709212003779800,1.07677978515625,-0.0015288055874407291,0.0011531859636306763,-0.005477412138134241
1772709212013804800,1.0868046875,0.00155058060772717,-0.0032788431271910667,-0.0062882802449166775
1772709212023830000,1.096830078125,0.00035056029446423054,-0.00017759203910827637,-0.005596391391009092
1772709212033853700,1.106853759765625,-0.0018370132893323898,0.00016463035717606544,-0.0032337724696844816
1772709212043879000,1.11687890625,-0.0027933544479310513,-0.002966448199003935,-0.0034691959153860807
1772709212053904000,1.12690380859375,0.00020837667398154736,-0.004362518433481455,-0.007724695838987827
1772709212063928800,1.1369287109375,-0.0009383803699165583,-0.0012133303098380566,-0.00813295878469944
1772709212073953800,1.146953857421875,-0.0013875470031052828,0.003340928815305233,-0.003049240680411458
1772709212083979000,1.15697900390625,-0.0015649136621505022,-0.001284982543438673,-0.003064953489229083
1772709212094004000,1.16700390625,-0.0009615202434360981,-0.00038682296872138977,-0.004870669916272163
1772709212104027600,1.177027587890625,-0.000957525335252285,0.0016267932951450348,-0.0070195747539401054
1772709212114052900,1.187052978515625,0.00002933642826974392,0.002346955705434084,-0.006895105354487896
1772709212124077800,1.197077880859375,-0.0033944235183298588,0.0012135147117078304,-0.007549975998699665
1772709212134102800,1.207102783203125,-0.0016815327107906342,-0.0009681722149252892,-0.010408062487840652
1772709212144127500,1.21712744140625,0.001506004948168993,0.0005913753993809223,-0.009743337519466877
1772709212154152700,1.227152587890625,-0.00040329527109861374,0.0018478636629879475,-0.004800583701580763
1772709212164177700,1.237177734375,-0.0002115475945174694,-0.0013766917400062084,-0.006987305358052254
1772709212174201600,1.24720166015625,-0.0013141452800482512,-0.003485535504296422,-0.007721509784460068
1772709212184226800,1.257226806640625,-0.0008664680644869804,-0.0007549966685473919,-0.007910327985882759
1772709212194251800,1.267251708984375,0.00013839267194271088,-0.001057430636137724,-0.006222747266292572
1772709212204276700,1.27727685546875,-0.001443791203200817,0.001580962911248207,-0.00521926861256361
1772709212214302000,1.287302001953125,-0.000979360193014145,-0.001247861422598362,-0.0065529439598321915
1772709212224326700,1.29732666015625,-0.0024574147537350655,-0.0021006055176258087,-0.008186792954802513
1772709212234351600,1.3073515625,-0.0006843698211014271,0.0000703856348991394,-0.009828692302107811
1772709212244375800,1.317375732421875,-0.0025919920299202204,-0.000581822358071804,-0.009997270070016384
1772709212254400800,1.32740087890625,-0.0008804155513644218,-0.0018304521217942238,-0.006979912519454956
1772709212264425700,1.33742578125,-0.001794412499293685,-0.0011042081750929356,-0.006543421186506748
1772709212274450700,1.34745068359375,-0.0021295244805514812,-0.0031266403384506702,-0.008119341917335987
1772709212284476000,1.357475830078125,-0.0029875950422137976,-0.0022315517999231815,-0.006743819452822208
1772709212294500900,1.3675009765625,-0.004748361185193062,-0.00011826260015368462,-0.010035752318799496
1772709212304525600,1.377525634765625,-0.0018606954254209995,-0.004078649450093508,-0.014172973111271858
1772709212314549800,1.3875498046875,-0.004542731214314699,0.0012701032683253288,-0.017238114029169083
1772709212324574700,1.39757470703125,-0.004090260248631239,0.0006716903299093246,-0.015161116607487202
1772709212334599700,1.407599609375,-0.002882625674828887,-0.0016224700957536697,-0.0154188247397542
1772709212344624600,1.417624755859375,-0.0019113707821816206,-0.0005806414410471916,-0.011697590351104736
1772709212354649900,1.42764990234375,-0.003289400599896908,0.004213124979287386,-0.007465618662536144
1772709212364674800,1.4376748046875,-0.002412687987089157,0.006110094022005796,-0.007870685309171677
1772709212374699800,1.44769970703125,0.001283513382077217,0.005428591277450323,-0.009215847589075565
1772709212384723700,1.4577236328125,-0.0014712605625391006,0.003284479957073927,-0.010122654028236866
1772709212394748700,1.467748779296875,-0.002891338663175702,0.004481815733015537,-0.009136402979493141
1772709212404773600,1.477773681640625,-0.00041806092485785484,0.0062275175005197525,-0.00960804894566536
1772709212414798800,1.487798828125,-0.0018038902198895812,0.006550283171236515,-0.008086243644356728
1772709212424823800,1.49782373046875,-0.001523992046713829,0.004073809832334518,-0.010902004316449165
1772709212434848800,1.507848876953125,-0.0007498895283788443,0.0015477794222533703,-0.008550350554287434
1772709212444873700,1.517873779296875,-0.00040154787711799145,0.005391786340624094,-0.007238743826746941
1772709212454897700,1.527897705078125,-0.002641933271661401,0.004510860424488783,-0.008252711035311222
1772709212464922600,1.537922607421875,-0.0025734901428222656,0.0026730126701295376,-0.009612254798412323
1772709212474947600,1.547947509765625,-0.0009916515555232763,0.002013356424868107,-0.007186987437307835
1772709212484972800,1.557972900390625,-0.0009903199970722198,0.003953203558921814,-0.0056098634377121925
1772709212494997800,1.567997802734375,0.00036291126161813736,0.004421612247824669,-0.006550527643412352
1772709212505022700,1.578022705078125,0.000958660151809454,0.005117230117321014,-0.004205614794045687
1772709212515047700,1.588047607421875,0.0024212682619690895,0.004198439419269562,-0.0037057395093142986
1772709212525073000,1.598072998046875,0.001744559034705162,0.004634931683540344,0.002582782879471779
1772709212535096600,1.6080966796875,0.0018720978405326605,0.0036961701698601246,0.004925363231450319
1772709212545121800,1.618121826171875,0.0019152408931404352,0.0010846746154129505,0.006921135820448399
1772709212555146800,1.628146728515625,0.0028102512005716562,-0.0025912453420460224,0.0017967178719118237
1772709212565171700,1.638171630859375,0.004475260153412819,-0.0018665995448827744,-0.0009625833481550217
1772709212575196700,1.64819677734375,0.002278523053973913,0.00572309922426939,0.004314902704209089
1772709212585222000,1.658221923828125,0.0007631843909621239,0.003838113509118557,0.007925882935523987
1772709212595246800,1.668246826171875,0.0005481604021042585,-0.005716496147215366,0.004117020405828953
1772709212605270500,1.6782705078125,0.0015593625139445066,-0.007439561188220978,0.0025281785055994987
1772709212615295700,1.688295654296875,-0.00020673894323408604,0.0034985607489943504,0.0017793071456253529
1772709212625320700,1.69832080078125,0.0007714400999248028,0.00512255635112524,0.0021444265730679035
1772709212635345700,1.708345703125,0.0015881787985563278,0.0017041605897247791,0.0003222632221877575
1772709212645370600,1.71837060546875,-0.0011785791721194983,0.001227987464517355,-0.002356876851990819
1772709212655395800,1.728395751953125,0.002288163173943758,0.00373880285769701,-0.0030684638768434525
1772709212665420800,1.7384208984375,-0.0010426521766930819,0.003937474451959133,-0.002364856656640768
1772709212675444700,1.74844482421875,-0.0007625140715390444,0.0000753616914153099,-0.004586667753756046
1772709212685469700,1.7584697265625,-0.0010972735472023487,-0.0024120304733514786,-0.003888387233018875
1772709212695494700,1.76849462890625,-0.0018919341964647174,0.0017832433804869652,-0.004807774443179369
1772709212705519600,1.77851953125,-0.0017198940040543675,0.0043550580739974976,-0.004372347611933947
1772709212715544600,1.788544677734375,-0.0026382310315966606,0.0006583346985280514,-0.007825476117432117
1772709212725569800,1.79856982421875,-0.0010395355056971312,0.002357164863497019,-0.0042922599241137505
1772709212735594800,1.8085947265625,-0.0020852265879511833,0.0023049507290124893,-0.0039002979174256325
1772709212745619000,1.818618896484375,-0.0007315417751669884,0.0019403640180826187,-0.002674977295100689
1772709212755643600,1.8286435546875,-0.00028458121232688427,0.0030066529288887978,-0.00012263888493180275
1772709212765668600,1.838668701171875,-0.0023059204686433077,-0.001112192403525114,0.0006403569132089615
1772709212775693600,1.848693603515625,0.00009110849350690842,0.0014466140419244766,-0.000783067662268877
1772709212785718800,1.85871875,-0.0009943959303200245,0.0019752513617277145,-0.0005404537077993155
1772709212795743700,1.86874365234375,-0.000007934169843792915,0.0006263572722673416,-0.00341992755420506
1772709212805768700,1.878768798828125,-0.002227945253252983,0.0012154486030340195,-0.00575711764395237
1772709212815793000,1.88879296875,0.00022796937264502048,0.0012990469112992287,-0.006456178613007069
1772709212825817900,1.89881787109375,-0.00021944171749055386,0.002925438806414604,-0.006791470572352409
1772709212835842600,1.908842529296875,0.00016115116886794567,0.0031496738083660603,-0.00566102284938097
1772709212845867500,1.918867431640625,-0.00006788061000406742,0.00025162193924188614,-0.007481026463210583
1772709212855892700,1.928892822265625,0.00004527647979557514,0.0012774746865034103,-0.006018354557454586
1772709212865917700,1.938917724609375,-0.000607198104262352,0.00467753317207098,-0.004593829624354839
1772709212875942700,1.948942626953125,0.00021926197223365307,0.00583812827244401,-0.002838732907548547
1772709212885966800,1.958966796875,-0.00025557982735335827,0.001888394821435213,-0.004274442791938782
1772709212895991800,1.96899169921875,0.0009231625590473413,0.0033760331571102142,-0.00518983555957675
1772709212906016800,1.979016845703125,0.00027308473363518715,0.007962528616189957,-0.006388257723301649
1772709212916041700,1.989041748046875,0.0011480685789138079,0.004058052785694599,-0.005347282625734806
1772709212926066700,1.999066650390625,-0.00043145217932760715,0.004507860168814659,-0.004661518149077892
1772709212936091600,2.009091552734375,0.0006327456794679165,0.004185179714113474,-0.007149116136133671
1772709212946116600,2.01911669921875,-0.0013987135607749224,0.00404270039871335,-0.006566682830452919
1772709212956141800,2.029141845703125,-0.0003638388589024544,0.003045851830393076,-0.004708374384790659
1772709212966165800,2.039165771484375,-0.0021790494211018085,0.0026828632690012455,-0.0027075414545834064
1772709212976190700,2.049190673828125,-0.002305443398654461,0.0029491661116480827,-0.005531282164156437
1772709212986216000,2.0592158203125,-0.002011164091527462,0.0015531377866864204,-0.006876178085803986
1772709212996240600,2.06924072265625,-0.0017176037654280663,0.0013331510126590729,-0.006232950370758772
1772709213006265600,2.079265625,-0.0006438172422349453,0.0021547358483076096,-0.005270484369248152
1772709213016290600,2.08929052734375,-0.0009491750970482826,0.0018958952277898788,-0.003772071097046137
1772709213026315800,2.099315673828125,0.0008545839227735996,0.0028410516679286957,-0.0017363508231937885
1772709213036339700,2.109339599609375,-0.0014553337823599577,0.002031469251960516,-0.0021213246509432793
1772709213046364700,2.11936474609375,-0.0008563890587538481,0.0007552825845777988,0.0006310523021966219
1772709213056390000,2.129389892578125,-0.0014690770767629147,-0.004076235927641392,-0.001121564768254757
1772709213066414800,2.139414794921875,0.00026703765615820885,-0.0024256091564893723,-0.0029106764122843742
1772709213076439600,2.149439453125,0.00019667739979922771,0.004073308315128088,-0.0016974781174212694
1772709213086464800,2.15946484375,-0.0010363662149757147,0.0053042215295135975,0.0038746537175029516
1772709213096489700,2.16948974609375,-0.001417570747435093,-0.001328165177255869,-0.0011605469044297934
1772709213106513700,2.179513671875,0.000030123628675937653,-0.0028408407233655453,-0.005107085220515728
1772709213116538400,2.189538330078125,-0.0006134305149316788,0.00514253368601203,-0.0037291112821549177
1772709213126563000,2.19956298828125,0.0004630193579941988,0.005734021309763193,-0.0020859406795352697
1772709213136588000,2.209588134765625,0.0017764901276677847,0.0026319711469113827,-0.0032827656250447035
1772709213146613200,2.21961328125,-0.0005862661637365818,0.0026205196045339108,-0.0057381996884942055
1772709213156638200,2.22963818359375,0.0010262508876621723,0.004386997781693935,-0.0047876532189548016
1772709213166663200,2.2396630859375,0.0007516792975366116,0.004037057980895042,-0.0029000048525631428
1772709213176687400,2.249687255859375,-0.000270255608484149,-0.00031933141872286797,0.00040623615495860577
1772709213186712300,2.25971240234375,0.000301791587844491,-0.0029998025856912136,-0.0009051044471561909
1772709213196737300,2.2697373046875,0.0003409662749618292,0.0020444877445697784,0.000925221829675138
1772709213206762000,2.279761962890625,0.0001849052496254444,0.0016287686303257942,0.00086556700989604
1772709213216787200,2.289787109375,-0.00048240297473967075,0.001280417200177908,0.0013364874757826328
1772709213226812200,2.299812255859375,0.0004062938969582319,0.0002588285133242607,0.0019090671557933092
1772709213236837000,2.309837158203125,0.000005088513717055321,-0.0019377311691641808,-0.0002453755587339401
1772709213246861300,2.319861328125,-0.0014647101052105427,0.00152570940554142,-0.002585228532552719
1772709213256886300,2.32988623046875,0.0011537896934896708,-0.00016354210674762726,-0.0028469436801970005
1772709213266911200,2.3399111328125,0.0002057044766843319,0.00007108226418495178,-0.0038797175511717796
1772709213276936200,2.349936279296875,-0.00023371493443846703,0.0008705314248800278,-0.005616739857941866
1772709213286961200,2.359961181640625,-0.00027845590375363827,0.0018891897052526474,-0.0030454578809440136
1772709213296986000,2.369986083984375,-0.00047681014984846115,0.0013536536134779453,-0.0031930168624967337
1772709213307011000,2.380010986328125,-0.000036057084798812866,0.001677227672189474,-0.00468119140714407
1772709213317035300,2.39003515625,0.0013907314278185368,0.0014665871858596802,-0.0041375854052603245
1772709213327060200,2.400060302734375,-0.001506787957623601,-0.00012225424870848656,-0.002728773280978203
1772709213337085200,2.410085205078125,-0.0014730184338986874,-0.0004919259808957577,-0.003522375598549843
1772709213347110100,2.420110107421875,0.0007254211232066154,-0.0034235334023833275,-0.0007018218748271465
1772709213357135400,2.43013525390625,0.0007194825448095798,-0.0028605004772543907,0.0023083847481757402
1772709213367160000,2.44016015625,-0.0001388543751090765,0.0004439498297870159,0.0032673890236765146
1772709213377185000,2.45018505859375,-0.00045718299224972725,0.0013400819152593613,0.005010777153074741
1772709213387209200,2.460209228515625,0.0005548184271901846,-0.0008676787838339806,0.004023010842502117
1772709213397234200,2.470234130859375,0.000370607478544116,-0.0033572115935385227,0.002062997780740261
1772709213407259100,2.480259033203125,-0.0015069209039211273,-0.0028781089931726456,0.0015886888140812516
1772709213417284400,2.490284423828125,0.000708484323695302,-0.001999225001782179,0.001961301313713193
1772709213427309300,2.500309326171875,0.0011098228860646486,-0.004101257771253586,0.0017426557606086135
1772709213437334300,2.510334228515625,-0.0012413468211889267,-0.004303642548620701,0.0007269808556884527
1772709213447359000,2.52035888671875,0.0014428533613681793,-0.0013991990126669407,0.0029310130048543215
1772709213457384200,2.53038427734375,-0.0015236989129334688,-0.0006197481416165829,0.0027548871003091335
1772709213467408100,2.540408203125,-0.0001724108587950468,-0.0016511906869709492,0.0015386213781312108
1772709213477433000,2.55043310546875,-0.0013293393421918154,-0.0023777266032993793,-0.00039880862459540367
1772709213487458300,2.560458251953125,-0.001143450615927577,-0.0025641480460762978,0.001403618836775422
1772709213497483300,2.570483154296875,-0.000811966834589839,-0.001565122976899147,0.0008753924630582333
1772709213507508200,2.58050830078125,-0.0009323416743427515,-0.0019877664744853973,0.000155007466673851
1772709213517533200,2.590533203125,0.0009156514424830675,-0.001768121961504221,0.002251963596791029
1772709213527558100,2.60055810546875,0.0011617273557931185,-0.0006522573530673981,0.0012415604433044791
1772709213537582000,2.61058203125,-0.00008907821029424667,0.0001413547433912754,-0.00015173130668699741
1772709213547607300,2.620607177734375,0.0006110670510679483,-0.0004653134383261204,0.0017079540994018316
1772709213557632300,2.63063232421875,-0.0012442534789443016,-0.003979570232331753,-0.00011315406300127506
1772709213567657200,2.6406572265625,0.0015019983984529972,-0.003169436939060688,-0.00017946679145097733
1772709213577682200,2.65068212890625,0.0009019384160637856,-0.0003960775211453438,0.0016042286297306418
1772709213587707400,2.660707275390625,-0.0012613474391400814,0.0010367026552557945,0.005759558640420437
1772709213597732000,2.670732177734375,-0.0015463617164641619,-0.0032391990534961224,0.0031694485805928707
1772709213607756000,2.680756103515625,-0.002151431981474161,-0.007224885746836662,-0.0007765570189803839
1772709213617781200,2.69078125,0.0008975670207291842,-0.00053371861577034,-0.0001400425098836422
1772709213627806200,2.70080615234375,0.00004429020918905735,0.004328414797782898,0.0025297764223068953
1772709213637831200,2.7108310546875,-0.0016916089225560427,0.003071174491196871,0.001198966521769762
1772709213647856000,2.720856201171875,-0.0011539165861904621,-0.00016110436990857124,-0.0025014958810061216
1772709213657881300,2.73088134765625,0.0007808941882103682,0.0009185057133436203,-0.003885980462655425
1772709213667906300,2.74090625,0.0006863519083708525,0.002597629092633724,-0.000869950745254755
1772709213677930200,2.75093017578125,0.0002517055254429579,-0.0016710860654711723,-0.0019176201894879341
1772709213687955200,2.760955078125,0.0010101739317178726,-0.0029523330740630627,-0.0005418311338871717
1772709213697980200,2.770980224609375,0.0009797788225114346,0.00003887061029672623,0.0008042408153414726
1772709213708005000,2.781005126953125,0.0000657821074128151,0.0010037338361144066,0.0014010552549734712
1772709213718030300,2.7910302734375,-0.00026072142645716667,0.002172594889998436,0.002133158268406987
1772709213728055300,2.80105517578125,-0.0008924233261495829,-0.003035482484847307,0.000010885065421462059
1772709213738080300,2.811080322265625,-0.0008375854231417179,-0.0005682962946593761,0.0017825938994064927
1772709213748104200,2.821104248046875,0.0003741527907550335,0.0008226730860769749,0.00046113342978060246
1772709213758129200,2.831129150390625,0.00038371444679796696,0.002653505653142929,-0.001015587244182825
1772709213768154000,2.841154052734375,0.0013413869310170412,-0.0028943917714059353,-0.0017391678411513567
1772709213778179000,2.851178955078125,0.0010755471885204315,-0.0009345021098852158,-0.0006437294650822878
1772709213788204300,2.861204345703125,-0.000271213473752141,0.002027998212724924,-0.0006125704385340214
1772709213798229200,2.871229248046875,-0.000949227949604392,-0.0008633988909423351,-0.0015026628971099854
1772709213808254200,2.881254150390625,0.00014106999151408672,-0.0022690151818096638,-0.001100259367376566
1772709213818279200,2.891279052734375,0.0010330155491828918,-0.0003906944766640663,-0.0009134339634329081
1772709213828303000,2.90130322265625,-0.0005265315994620323,0.0014857687056064606,-0.0009563108906149864
1772709213838328000,2.911328125,-0.0004670086782425642,-0.0007693804800510406,0.00003364100120961666
1772709213848353000,2.92135302734375,-0.0007367869839072227,-0.002468743361532688,0.00231091002933681
1772709213858378200,2.931378173828125,0.000006713205948472023,-0.005231265444308519,0.002631573472172022
1772709213868403200,2.9414033203125,0.0014671909157186747,-0.0009941761381924152,0.004212426021695137
1772709213878428200,2.95142822265625,0.0010753604583442211,-0.001466643065214157,0.004450862295925617
1772709213888453000,2.961453125,-0.0009896547999233007,-0.0038291329983621836,0.003723552916198969
1772709213898477000,2.97147705078125,0.0006057652644813061,-0.003575559239834547,0.00319361942820251
1772709213908502000,2.981501953125,0.0016177664510905743,-0.001420262735337019,0.00316485739313066
1772709213918527200,2.99152734375,-0.00024034827947616577,-0.000342776533216238,0.003017272800207138
1772709213928552200,3.00155224609375,0.00026352168060839176,-0.0009968485683202744,0.0019370948430150747
1772709213938577200,3.0115771484375,-0.001039269845932722,-0.0034022191539406776,0.00006908923387527466
1772709213948602000,3.02160205078125,0.00009470409713685513,-0.0010775458067655563,0.0010893461294472218
1772709213958627300,3.03162744140625,-0.000012135831639170647,0.0002716812305152416,0.0012952901888638735
1772709213968651300,3.0416513671875,0.0008344829548150301,-0.00029796920716762543,0.0010758456774055958
1772709213978676000,3.051676025390625,-0.0011643029283732176,-0.000987216830253601,0.0002205211203545332
1772709213988701200,3.061701171875,-0.00010063638910651207,0.0008226674981415272,-0.0015454210806638002
1772709213998726100,3.07172607421875,-0.0004334542900323868,-0.00023890985175967216,-0.0028227088041603565
1772709214008751000,3.081751220703125,0.0009234261233359575,-0.002108981367200613,-0.003275712486356497
1772709214018776000,3.091776123046875,-0.0008464299608021975,0.0011174608953297138,-0.002164724748581648
1772709214028801300,3.10180126953125,0.0013402916956692934,0.0011020139791071415,-0.0007532495073974133
1772709214038825200,3.1118251953125,0.00015329360030591488,0.0008982536382973194,-0.0016334697138518095
1772709214048850200,3.12185009765625,0.0006044332403689623,0.0017824233509600163,-0.0023828831035643816
1772709214058875100,3.131875244140625,-0.0002124384045600891,0.0015515368431806564,0.0003196189645677805
1772709214068900000,3.141900146484375,-0.0016007442027330399,-0.003746023401618004,0.0001337304711341858
1772709214078925000,3.151925048828125,-0.000598143320530653,-0.001985696144402027,-0.004014592617750168
1772709214088950300,3.1619501953125,-0.0008391593582928181,0.00003511039540171623,-0.001895248657092452
1772709214098975200,3.171975341796875,-0.0019939597696065903,0.002713488880544901,0.0007031690329313278
1772709214108999200,3.181999267578125,-0.0021074104588478804,0.00047723250463604927,0.004351167008280754
1772709214119024400,3.1920244140625,-0.003366819117218256,-0.004070146009325981,-0.0016429189126938581
1772709214129049300,3.20204931640625,-0.0012642533984035254,-0.0023731798864901066,-0.004044824279844761
1772709214139074300,3.21207421875,0.00010043801739811897,0.0013518682681024075,-0.0013474375009536743
1772709214149099000,3.22209912109375,0.0018165791407227516,0.00220780773088336,0.0006968050729483366
1772709214159124200,3.232124267578125,0.0006306918803602457,0.002336905337870121,-0.0003746028523892164
1772709214169149200,3.242149169921875,0.0009385531302541494,0.0001232861541211605,-0.002649475121870637
1772709214179174100,3.252174072265625,0.0007923988159745932,0.0016913493163883686,-0.0033715860918164253
1772709214189198300,3.2621982421875,0.0012272929307073355,0.0010785558260977268,-0.002151325810700655
1772709214199223300,3.272223388671875,-0.00017014495097100735,-0.001303866971284151,-0.00012622238136827946
1772709214209248300,3.282248291015625,0.00016754376702010632,-0.003180330153554678,-0.0007278304547071457
1772709214219273200,3.292273193359375,0.000023838132619857788,0.0002040020190179348,0.0014325350057333708
1772709214229298200,3.302298095703125,-0.0008744460064917803,0.0015968349762260914,0.001123608322814107
1772709214239323100,3.3123232421875,0.001209482317790389,0.0012895376421511173,-0.0001727081835269928
1772709214249348000,3.32234814453125,-0.0001463328953832388,-0.0014391369186341763,0.001745034009218216
1772709214259372300,3.332372314453125,0.00020019547082483768,0.001418333500623703,-0.0017127383034676313
1772709214269397200,3.342397216796875,0.00009686476550996304,0.0021509695798158646,-0.0008797016926109791
1772709214279422200,3.352422119140625,-0.0009726104326546192,-0.00011322461068630219,-0.0020248801447451115
1772709214289447400,3.362447509765625,-0.0006740700919181108,0.0014481865800917149,-0.0033258344046771526
1772709214299472400,3.372472412109375,-0.0024015288800001144,0.0020005740225315094,-0.0042953272350132465
1772709214309497000,3.3824970703125,-0.0010427841916680336,-0.0008359593339264393,-0.0024529523216187954
1772709214319522000,3.39252197265625,-0.0013858538586646318,0.0006047859787940979,-0.004295574501156807
1772709214329546200,3.402546142578125,-0.0016215434297919273,0.00022262195125222206,-0.00410462636500597
1772709214339571200,3.4125712890625,-0.0004251450300216675,0.0013959980569779873,-0.0038100711535662413
1772709214349596200,3.42259619140625,-0.0002232773695141077,0.0006567048840224743,-0.004713947884738445
1772709214359621400,3.432621337890625,-0.001754620810970664,0.0001968112774193287,-0.004949464462697506
1772709214369646300,3.442646240234375,-0.001353016123175621,0.0001225089654326439,-0.0059494804590940475
1772709214379671300,3.45267138671875,-0.0018352617044001818,0.0000135800801217556,-0.0039168186485767365
1772709214389696000,3.462696044921875,-0.002124747261404991,0.0018482315354049206,-0.002876854036003351
1772709214399720200,3.47272021484375,-0.0005147338379174471,0.002200552262365818,-0.001792203402146697
1772709214409745200,3.4827451171875,-0.0017890563467517495,-0.000797368586063385,-0.0027631919365376234
1772709214419770400,3.492770263671875,-0.0014078712556511164,0.00015827175229787827,-0.005103982053697109
1772709214429795300,3.50279541015625,-0.0007735062390565872,0.0029857493937015533,-0.004370281472802162
1772709214439820300,3.5128203125,-0.0007629224564880133,0.0016793501563370228,-0.005199672654271126
1772709214449845200,3.52284521484375,-0.003660974558442831,-0.0019587944261729717,-0.006302220746874809
1772709214459870500,3.532870361328125,-0.003146790200844407,-0.00015930505469441414,-0.007455296814441681
1772709214469895200,3.542895263671875,-0.0018988328520208597,0.002091864589601755,-0.005019569303840399
1772709214479919000,3.552919189453125,-0.003793608397245407,-0.0008787126280367374,-0.004626127891242504
1772709214489944300,3.5629443359375,-0.0013890403788536787,-0.0014113448560237885,-0.0039361026138067245
1772709214499969300,3.57296923828125,-0.0030668084509670734,0.00012378301471471786,-0.0021782706025987864
1772709214509994200,3.582994140625,-0.001446008449420333,0.001211418304592371,-0.0023511101026088
1772709214520019200,3.593019287109375,-0.001354483189061284,-0.00007618032395839691,-0.002831102581694722
1772709214530044400,3.60304443359375,-0.002642920473590493,-0.001908967737108469,-0.0050830719992518425
1772709214540069400,3.6130693359375,-0.0008945818990468979,-0.0004511508159339428,-0.004687528125941753
1772709214550093000,3.623093017578125,-0.0009489103686064482,0.0011347620747983456,-0.004215083550661802
1772709214560118300,3.6331181640625,-0.002098703058436513,0.0005086660385131836,-0.004089924041181803
1772709214570143200,3.643143310546875,0.0009024133905768394,-0.000025297515094280243,-0.004552515223622322
1772709214580168200,3.653168212890625,-0.0023713023401796818,0.0013086982071399689,-0.003206700785085559
1772709214590193200,3.663193115234375,-0.002070631366223097,0.0016373321413993835,-0.002682856982573867
1772709214600218400,3.67321826171875,-0.0009243295062333345,-0.0028437431901693344,-0.002496737986803055
1772709214610243300,3.683243408203125,-0.0013432446867227554,-0.00555643904954195,0.000124611658975482
1772709214620267300,3.693267333984375,-0.00040324172005057335,-0.001030768733471632,-0.0017278192099183798
1772709214630292200,3.703292236328125,0.0013091708533465862,-0.0005657807923853397,-0.001181871397420764
1772709214640317200,3.713317138671875,0.0002594732213765383,0.0000684238038957119,0.004009226802736521
1772709214650342100,3.723342041015625,-0.0015743793919682503,0.000017291400581598282,0.002747420920059085
1772709214660367400,3.733367431640625,-0.000850920332595706,-0.0029938695952296257,-0.0032198051922023296
1772709214670392300,3.743392333984375,0.0008143545128405094,-0.00018370198085904121,-0.0027148695662617683
1772709214680417300,3.753417236328125,0.0018219039775431156,0.0050430200062692165,-0.0010220815893262625
1772709214690442200,3.763442138671875,0.0007276111282408237,0.00412902282550931,-0.0026159833651036024
1772709214700466200,3.773466064453125,0.000416111433878541,0.0037087267264723778,-0.004375056829303503
1772709214710491100,3.7834912109375,0.0013556748162955046,0.002123613841831684,-0.005270411726087332
1772709214720516000,3.79351611328125,0.001482461579144001,0.002293291501700878,-0.0025516534224152565
1772709214730541300,3.803541259765625,0.0004970920272171497,0.00010044453665614128,-0.0016693482175469398
1772709214740566300,3.813566162109375,-0.00008879951201379299,-0.00314628379419446,-0.001217070035636425
1772709214750591200,3.82359130859375,0.00043184845708310604,-0.0021374779753386974,0.00048202695325016975
1772709214760616200,3.8336162109375,0.0018038481939584017,0.0005625057965517044,0.0015456461114808917
1772709214770640100,3.84364013671875,0.0016464551445096731,0.0012251008301973343,-0.00016197282820940018
1772709214780665000,3.8536650390625,0.0008603369351476431,-0.0011435719206929207,-0.0015410671476274729
1772709214790690300,3.863690185546875,-0.0010315726976841688,-0.0017182822339236736,-0.004158688709139824
1772709214800715300,3.87371533203125,0.0006339352112263441,0.000908765010535717,-0.0028597265481948853
1772709214810740200,3.883740234375,-0.00013305502943694592,0.002039276994764805,-0.005307438317686319
1772709214820765200,3.89376513671875,-0.00027476716786623,-0.0003228941932320595,-0.006641746032983065
1772709214830790400,3.903790283203125,-0.002859897678717971,-0.0009735045023262501,-0.007940303534269333
1772709214840814000,3.91381396484375,-0.0012308603618294,-0.00011692382395267487,-0.006973401643335819
1772709214850839000,3.923839111328125,-0.0021315414924174547,-0.00047724973410367966,-0.0040516480803489685
1772709214860864300,3.9338642578125,-0.002280081855133176,-0.000544658862054348,-0.004581672139465809
1772709214870889200,3.94388916015625,-0.0019101687939837575,-0.0016807634383440018,-0.002154999878257513
1772709214880914200,3.9539140625,-0.0008356154430657625,-0.0018352284096181393,0.0007807600777596235
1772709214890939100,3.963939208984375,-0.0005879413802176714,-0.0006503877229988575,0.0021280532237142324
1772709214900964400,3.97396435546875,-0.00015688175335526466,-0.002389121800661087,0.003921259194612503
1772709214910988300,3.98398828125,0.0010705692693591118,-0.003919906914234161,0.005910107865929604
1772709214921013000,3.994012939453125,0.00027393829077482224,0.00043830322101712227,0.006069338880479336
1772709214931038200,4.0040380859375,0.00017114030197262764,0.001058819703757763,0.004954805597662926
1772709214941063200,4.014063232421875,0.0009417515248060226,-0.0029049855656921864,0.0014611046062782407
1772709214951088000,4.024088134765625,0.000798473134636879,-0.000009863171726465225,-0.0010190971661359072
1772709214961113000,4.034113037109375,0.00005931686609983444,0.000880134291946888,-0.0026101339608430862
1772709214971138300,4.04413818359375,-0.0011052836198359728,0.005653051659464836,-0.005426426418125629
1772709214981162200,4.054162353515625,-0.0015186467207968235,0.005597076844424009,-0.0061189960688352585
1772709214991187500,4.0641875,-0.001770315458998084,-0.0009095584973692894,-0.008201854303479195
1772709215001212200,4.074212158203125,-0.002270837314426899,-0.0031974795274436474,-0.0030831017065793276
1772709215011237000,4.084237060546875,-0.0024205069057643414,0.0008153715170919895,0.000033595599234104156
1772709215021262000,4.094261962890625,-0.0024617009330540895,0.0026905559934675694,0.0009151288541033864
1772709215031287300,4.104287353515625,-0.0014739346224814653,0.002804539632052183,0.0005761084612458944
1772709215041312300,4.114312255859375,-0.0013657058589160442,-0.0030451063066720963,0.0016416478902101517
1772709215051337200,4.124337158203125,-0.0004109626170247793,0.0012740083038806915,0.000503679271787405
1772709215061361400,4.134361328125,-0.00013450277037918568,0.008147325366735458,-0.002713326830416918
1772709215071386400,4.144386474609375,-0.0004849748220294714,0.009345216676592827,-0.009535546414554119
1772709215081411000,4.1544111328125,-0.000407129293307662,0.007165174465626478,-0.012403055094182491
1772709215091436000,4.16443603515625,0.00007570185698568821,0.010432340204715729,-0.012222492136061192
1772709215101461200,4.174461181640625,0.0006345584988594055,0.011148151941597462,-0.0140336062759161
1772709215111486000,4.18448583984375,-0.0006256494671106339,0.011465600691735744,-0.015126034617424011
1772709215121511000,4.194510986328125,-0.0008141726721078157,0.0071774376556277275,-0.012586290016770363
1772709215131535000,4.20453515625,-0.00030284561216831207,0.003811202012002468,-0.008908996358513832
1772709215141560000,4.21456005859375,0.0003857128322124481,0.005451693199574947,-0.003166211536154151
1772709215151585000,4.2245849609375,0.0008618859574198723,0.004789631813764572,-0.00004152464680373669
1772709215161610200,4.2346103515625,0.0018432601355016232,0.0009487890638411045,-0.0016336715780198574
1772709215171635200,4.24463525390625,0.0006991662085056305,0.0013160393573343754,-0.00274820439517498
1772709215181660200,4.25466015625,0.0019367907661944628,0.004750743508338928,-0.003438514657318592
1772709215191684900,4.264684814453125,0.0008773852605372667,0.0045259734615683556,0.0003612833097577095
1772709215201709000,4.274708984375,-0.0012895488180220127,0.0019317460246384144,0.0029136212542653084
1772709215211734000,4.284734130859375,0.000515009043738246,0.0016824747435748577,0.002272864570841193
1772709215221759000,4.294759033203125,0.0006791653577238321,0.0015666456893086433,0.002441828139126301
1772709215231784200,4.3047841796875,0.0027625563088804483,0.0006976565346121788,0.005903405137360096
1772709215241809200,4.31480908203125,0.0025003154296427965,0.00006091734394431114,0.009945999830961227
1772709215251834000,4.324834228515625,0.0036313601303845644,-0.003355918452143669,0.010828837752342224
1772709215261858800,4.33485888671875,0.0035294145345687866,-0.0027194609865546227,0.014072330668568611
1772709215271884000,4.344884033203125,0.006083918269723654,-0.0016078576445579529,0.01768224500119686
1772709215281908000,4.354907958984375,0.005065205506980419,-0.0019833254627883434,0.020591720938682556
1772709215291933200,4.36493310546875,0.004215391352772713,-0.00468563474714756,0.019035901874303818
1772709215301958100,4.374958251953125,0.006504539400339127,-0.007074807770550251,0.017780259251594543
1772709215311983000,4.384983154296875,0.00547256413847208,-0.0034771435894072056,0.017323793843388557
1772709215322008000,4.395008056640625,0.005118765868246555,-0.001507484819740057,0.014601988717913628
1772709215332033300,4.405033203125,0.0055528609082102776,-0.0029194927774369717,0.010182739235460758
1772709215342058000,4.41505810546875,0.0027674082666635513,-0.00396974291652441,0.008329635486006737
1772709215352082000,4.42508203125,0.0035551716573536396,-0.00004450976848602295,0.007223358377814293
1772709215362107100,4.435107177734375,0.001065168296918273,0.000348738394677639,0.004658543970435858
1772709215372132000,4.445132080078125,0.0003871277440339327,0.0009032082743942738,0.0032438726630061865
1772709215382157000,4.455156982421875,0.00015228870324790478,-0.00024612387642264366,0.002005169400945306
1772709215392182000,4.46518212890625,-0.0017497410299256444,-0.0038150260224938393,-0.004626101814210415
1772709215402207200,4.475207275390625,-0.002562297508120537,-0.00582677498459816,-0.004714454058557749
1772709215412232200,4.485232177734375,-0.005676065571606159,-0.00423154141753912,-0.0024302606470882893
1772709215422255900,4.495255859375,-0.00726469699293375,-0.0033234599977731705,-0.0061481245793402195
1772709215432281000,4.505281005859375,-0.005952557548880577,-0.004963700659573078,-0.013310162350535393
1772709215442306000,4.51530615234375,-0.005902516655623913,-0.0032829451374709606,-0.01019142847508192
1772709215452331000,4.5253310546875,-0.0043232617899775505,-0.0013287174515426159,-0.008985549211502075
1772709215462356000,4.53535595703125,-0.0037378466222435236,0.0035725580528378487,-0.011880533769726753
1772709215472381200,4.545381103515625,-0.002620117971673608,0.0020532244816422462,-0.010671990923583508
1772709215482406100,4.55540625,-0.002949248068034649,0.0033694179728627205,-0.005935136694461107
1772709215492430000,4.56543017578125,-0.0021934430114924908,0.005984642542898655,-0.009354636073112488
1772709215502455000,4.575455078125,-0.00298190675675869,0.0035797003656625748,-0.01413027010858059
1772709215512480000,4.58547998046875,0.000024535926058888435,0.0003133337013423443,-0.017182784155011177
1772709215522505000,4.5955048828125,-0.002777214627712965,0.001981613226234913,-0.010701506398618221
1772709215532530200,4.6055302734375,-0.0017135480884462595,0.004779796116054058,-0.0023466371931135654
1772709215542555100,4.61555517578125,-0.0007132580503821373,0.0037782136350870132,-0.0011893832124769688
1772709215552580000,4.625580078125,0.002025270601734519,0.001929447054862976,0.0013568649301305413
1772709215562605000,4.63560498046875,0.001967446878552437,-0.0011462662369012833,0.00932233314961195
1772709215572629000,4.64562890625,0.005027419421821833,0.0023528612218797207,0.01257538516074419
1772709215582654000,4.655654052734375,0.004987947642803192,0.005650096572935581,0.013027608394622803
1772709215592679000,4.665678955078125,0.00548888836055994,0.0007240474224090576,0.013008433394134045
1772709215602704100,4.6757041015625,0.0049989731051027775,0.00499148340895772,0.010971124283969402
1772709215612729000,4.68572900390625,0.005970493424683809,0.004216770175844431,0.011014800518751144
1772709215622754000,4.695754150390625,0.006016992963850498,0.010023240931332111,0.006723796017467976
1772709215632779000,4.705779052734375,0.00488248560577631,0.0006803395226597786,0.009065779857337475
1772709215642803000,4.715802978515625,0.003104481613263488,-0.0005702399648725986,0.013692792505025864
1772709215652828000,4.725827880859375,0.004486129619181156,0.005538518540561199,0.0128592224791646
1772709215662853000,4.73585302734375,0.00603379774838686,0.0049334364011883736,0.010271172039210796
1772709215672878000,4.745878173828125,0.0027056450489908457,0.0011325730010867119,0.010810195468366146
1772709215682903000,4.755903076171875,0.005718561355024576,-0.0013622548431158066,0.012491099536418915
1772709215692928000,4.765927978515625,0.0032040048390626907,0.0034386254847049713,0.010753121227025986
1772709215702953200,4.775953125,0.004961875267326832,0.006847983226180077,0.007716934196650982
1772709215712977200,4.78597705078125,0.0028491897974163294,0.0058852508664131165,0.007859946228563786
1772709215723001900,4.796001953125,0.0026212790980935097,0.0021059829741716385,0.010430943220853806
1772709215733027000,4.806027099609375,0.0027171531692147255,0.0012420536950230598,0.01136198453605175
1772709215743052000,4.816052001953125,0.00408666068688035,0.000799188856035471,0.008799077942967415
1772709215753077000,4.826076904296875,0.004569225013256073,0.0014721699990332127,0.01262044720351696
1772709215763102000,4.83610205078125,0.002818429609760642,0.0029341853223741055,0.01746618002653122
1772709215773127200,4.846127197265625,0.00306210876442492,-0.00045628519728779793,0.01645044982433319
1772709215783152000,4.856152099609375,0.006310420110821724,-0.0033905617892742157,0.013773312792181969
1772709215793176000,4.866176025390625,0.007948529906570911,-0.0016818777658045292,0.014010865241289139
1772709215803201000,4.876200927734375,0.007367889396846294,0.0007307520136237144,0.015123682096600533
1772709215813226000,4.88622607421875,0.008445670828223228,0.003231193870306015,0.0140211321413517
1772709215823251000,4.8962509765625,0.008137166500091553,7.604248821735382e-7,0.012106466107070446
1772709215833276200,4.906276123046875,0.007017041090875864,-0.00022347783669829369,0.010067284107208252
1772709215843301000,4.916301025390625,0.006455912720412016,-0.0009433301165699959,0.011466242372989655
1772709215853326000,4.926326171875,0.006424753461033106,-0.0008815447799861431,0.010585801675915718
1772709215863350300,4.936350341796875,0.0066992416977882385,-0.0006552292034029961,0.008625421673059464
1772709215873375000,4.946375,0.005516798235476017,-0.0003665424883365631,0.007953505963087082
1772709215883400000,4.95639990234375,0.004733192268759012,-0.0013151168823242188,0.009222336113452911
1772709215893425000,4.9664248046875,0.005782210733741522,0.00011313660070300102,0.01096031442284584
1772709215903450000,4.9764501953125,0.0028254094067960978,-0.0019729933701455593,0.011449860408902168
1772709215913475000,4.98647509765625,0.002768151229247451,-0.004105119965970516,0.01207037828862667
1772709215923500000,4.9965,0.003242113161832094,-0.004259307403117418,0.010311285965144634
1772709215933524200,5.006524169921875,0.0023371712304651737,-0.001424372661858797,0.011195189319550991
1772709215943549200,5.016549072265625,0.001648851903155446,-0.0024299947544932365,0.013585120439529419
1772709215953574000,5.026573974609375,0.000848305644467473,-0.003964507952332497,0.011442873626947403
1772709215963598800,5.036598876953125,0.0015853333752602339,-0.004061697516590357,0.010008282028138638
1772709215973624000,5.0466240234375,0.0009858559351414442,-0.004840139299631119,0.010608559474349022
1772709215983649000,5.05664892578125,0.0010278299450874329,-0.004907803609967232,0.011940553784370422
1772709215993674000,5.066674072265625,0.0033208117820322514,-0.0028265430592000484,0.010944530367851257
1772709216003699000,5.076698974609375,0.0015995688736438751,-0.003155577927827835,0.011748308315873146
1772709216013723100,5.08672314453125,0.00046133389696478844,-0.005914346314966679,0.010013525374233723
1772709216023748000,5.096748046875,0.0002895717043429613,-0.0024778996594250202,0.0071747335605323315
1772709216033773000,5.10677294921875,-0.0005815480835735798,-0.006461988668888807,0.006042091175913811
1772709216043798000,5.116798095703125,-0.0003906248603016138,-0.005617465823888779,0.005528541281819344
1772709216053823000,5.126822998046875,0.000696743605658412,0.00007104594260454178,0.005322678945958614
1772709216063848000,5.136847900390625,-0.0002701710909605026,-0.004390056245028973,0.0045055849477648735
1772709216073873200,5.146873046875,-0.0017183980671688914,-0.003714678343385458,0.0019718536641448736
1772709216083897000,5.15689697265625,-0.0017002620734274387,-0.003205719869583845,0.0017428670544177294
1772709216093922000,5.166922119140625,-0.0029402298387140036,-0.0000376235693693161,0.0017801513895392418
1772709216103947300,5.176947265625,-0.0015227627009153366,-0.0010147527791559696,0.001091669430024922
1772709216113973000,5.186972900390625,-0.002115049632266164,-0.004117867909371853,0.0026080734096467495
1772709216123998000,5.196998046875,-0.0028954078443348408,-0.007015412673354149,0.005405743140727282
1772709216134023000,5.20702294921875,-0.003139353357255459,-0.00566705409437418,0.004405992105603218
1772709216144047900,5.2170478515625,-0.0010288520716130733,-0.005641747731715441,0.00770071754232049
1772709216154073000,5.227072998046875,-0.0022941199131309986,-0.009210916236042976,0.011579345911741257
1772709216164097000,5.237096923828125,-0.0017524334834888577,-0.005659027025103569,0.011822334490716457
1772709216174122000,5.2471220703125,-0.003232352202758193,-0.004574588034301996,0.009590072557330132
1772709216184147000,5.25714697265625,-0.0025169188156723976,-0.008723570965230465,0.004481231793761253
1772709216194172000,5.267171875,-0.00008332217112183571,-0.0011849608272314072,0.0058303894475102425
1772709216204196900,5.27719677734375,-0.0009044017642736435,-0.0054734451696276665,0.006755369249731302
1772709216214222000,5.28722216796875,0.0011241280008107424,-0.004255848005414009,0.0077612451277673244
1772709216224247000,5.2972470703125,0.0005557837430387735,-0.0003124391660094261,0.00950456690043211
1772709216234271000,5.30727099609375,0.00004605483263731003,-0.003249373286962509,0.006590802222490311
1772709216244921900,5.317921875,0.002710784785449505,0.00003347685560584068,0.0026005429681390524
1772709216254947000,5.327947021484375,0.0005797231569886208,0.00005158642306923866,0.0035427692346274853
1772709216264972000,5.337971923828125,0.002041587606072426,-0.000736151821911335,-0.00007542013190686703
1772709216274997000,5.3479970703125,0.0010429024696350098,-0.0013127261772751808,-0.0061325132846832275
1772709216285021200,5.358021240234375,0.0008990650530904531,0.0023701628670096397,-0.005290890112519264
1772709216295046100,5.368046142578125,-0.0001630033366382122,0.011029964312911034,-0.004459718242287636
1772709216305070800,5.37807080078125,-0.001666892901994288,0.0010489360429346561,-0.00480151129886508
1772709216315095800,5.388095703125,-0.000959291122853756,-0.0034677847288548946,-0.006370912306010723
1772709216325121000,5.39812109375,-0.002232864499092102,0.0008542975410819054,-0.007080938667058945
1772709216335146000,5.40814599609375,-0.0016712038777768612,0.00494278222322464,-0.0075906673446297646
1772709216345171000,5.4181708984375,-0.003363512922078371,0.0020851632580161095,-0.00878712348639965
1772709216355195100,5.428195068359375,-0.0020766735542565584,-0.001427545677870512,-0.0076182628981769085
1772709216365220000,5.43822021484375,-0.0015882744919508696,0.0018407199531793594,-0.0077536441385746
1772709216375244800,5.448244873046875,-0.0008977169636636972,0.005054090172052383,-0.007846321910619736
1772709216385269800,5.458269775390625,0.0006706446874886751,0.0022519086487591267,-0.009087685495615005
1772709216395295000,5.468294921875,-0.00087958131916821,-0.002109284047037363,-0.006089765578508377
1772709216405320000,5.47831982421875,-0.00009911390952765942,-0.0009923414327204227,-0.004422369878739119
1772709216415345000,5.488344970703125,-0.0004977891221642494,0.0016348669305443764,-0.0014428254216909409
1772709216425369900,5.498369873046875,-0.0010609375312924385,0.0008354051969945431,-0.0022168864961713552
1772709216435394000,5.50839404296875,-0.001195693388581276,-0.0017294855788350105,-0.004144748672842979
1772709216445419000,5.5184189453125,-0.0009894606191664934,-0.0024695908650755882,-0.003133271122351289
1772709216455444000,5.52844384765625,-0.002313051838427782,0.0012905257754027843,-0.00409387331455946
1772709216465469000,5.538468994140625,-0.0028286396991461515,0.0016591078601777554,-0.00544942170381546
1772709216475494000,5.548493896484375,-0.0021183746866881847,0.0004985020495951176,-0.005840374156832695
1772709216485518800,5.558518798828125,-0.0009347898885607719,-0.001766290981322527,-0.005770635791122913
1772709216495544000,5.5685439453125,-0.0013984462711960077,0.001156794372946024,-0.004058489575982094
1772709216505568000,5.578568115234375,-0.004087834618985653,-0.001386743038892746,-0.005074586719274521
1772709216515593000,5.588593017578125,-0.0027767601422965527,0.0013666986487805843,-0.006246644072234631
1772709216525618200,5.5986181640625,-0.003188489703461528,0.00032454123720526695,-0.0062801530584692955
1772709216535643000,5.608642822265625,-0.0017447901191189885,-0.0011921287514269352,-0.0070809656754136086
1772709216545667800,5.618667724609375,-0.0016561580123379827,0.000040090177208185196,-0.006670819129794836
1772709216555692800,5.62869287109375,-0.0016170095186680555,0.0014454401098191738,-0.004914730787277222
1772709216565718000,5.638718017578125,-0.0019146465929225087,0.0002414756454527378,-0.0035134139470756054
1772709216575742000,5.648741943359375,-0.00035243621096014977,-0.0023859990760684013,-0.005353924818336964
1772709216585767000,5.658766845703125,-0.002167218830436468,-0.0009013372473418713,-0.0016049542464315891
1772709216605191000,5.67819091796875,0.0011989881750196218,-0.0008648168295621872,-0.0006287326104938984
1772709216615216000,5.688216064453125,-0.0013706961181014776,-0.0010083611123263836,0.0001201482955366373
1772709216625241000,5.698240966796875,0.000014866702258586884,-0.003671779064461589,0.0002260685432702303
1772709216635266000,5.70826611328125,-0.0004959276411682367,-0.0014397837221622467,-0.0005624934565275908
1772709216645291000,5.718291015625,0.0005828393623232841,-0.000547114759683609,-0.002541671507060528
1772709216655315000,5.72831494140625,-0.00028854701668024063,-0.001828094944357872,-0.001225271262228489
1772709216665340000,5.73833984375,-0.0012534905690699816,-0.0010746768675744534,-0.0008852591272443533
1772709216675364900,5.74836474609375,-0.0022519095800817013,-0.0016054450534284115,-0.0014676922000944614
1772709216685390000,5.75839013671875,-0.0018379164393991232,-0.0013032243587076664,-0.003915566951036453
1772709216695415000,5.7684150390625,-0.0012690653093159199,-0.000030499417334794998,-0.0038034480530768633
1772709216705440000,5.77843994140625,-0.0005455152131617069,-0.00004031835123896599,-0.004593701101839542
1772709216715465000,5.78846484375,-0.0004688161425292492,0.000054490286856889725,-0.005222206935286522
1772709216725490000,5.798489990234375,-0.0018043358577415347,0.001242583617568016,-0.006374466698616743
1772709216735513900,5.808513916015625,-0.0008887411095201969,-0.0013065948151051998,-0.007196052465587854
1772709216745539000,5.8185390625,-0.0017922725528478622,0.0009128116071224213,-0.004169780761003494
1772709216755564000,5.82856396484375,-0.0005610932130366564,0.0007801856845617294,-0.004550079815089703
1772709216765589000,5.838589111328125,0.0004230800550431013,0.0006049345247447491,-0.004894481040537357
1772709216775614000,5.848614013671875,-0.00040063541382551193,0.0002019982784986496,-0.002802834613248706
1772709216785639200,5.85863916015625,0.000644998624920845,0.00022971676662564278,-0.0027312792371958494
1772709216795664100,5.8686640625,-0.0015606314409524202,0.000012402888387441635,-0.001760290702804923
1772709216805688800,5.878688720703125,-0.0031141340732574463,-0.0023644589819014072,-0.00016672862693667412
1772709216815713000,5.888713134765625,-0.00010076723992824554,-0.0036979038268327713,-0.0017867295537143946
1772709216825738000,5.898738037109375,-0.0004286826588213444,-0.0036752570886164904,-0.0034797750413417816
1772709216835763000,5.908762939453125,0.0011183475144207478,0.0006193560548126698,-0.00042912387289106846
1772709216845788000,5.918787841796875,-0.0013360485900193453,0.00010723387822508812,0.0019715139642357826
1772709216855813000,5.928813232421875,-0.0013834526762366295,-0.00243954686447978,-0.0013680900447070599
1772709216865838000,5.938838134765625,-0.00022100750356912613,-0.0038454586174339056,-0.006149308755993843
1772709216875863000,5.948863037109375,-0.0020689750090241432,-0.002095229458063841,-0.00643266923725605
1772709216885887700,5.9588876953125,-0.0015869645867496729,0.0013324962928891182,-0.0056124599650502205
1772709216895912000,5.968911865234375,-0.00018241326324641705,0.0022137360647320747,-0.006288370117545128
1772709216905937000,5.97893701171875,0.0015637620817869902,-0.0012680417858064175,-0.008233305998146534
1772709216915961900,5.9889619140625,-0.0011619834695011377,0.003367722500115633,-0.005794649012386799
1772709216925987000,5.998987060546875,0.0016938112676143646,0.004557581152766943,-0.005899611860513687
1772709216936012000,6.009011962890625,-0.0009264731779694557,-0.00016313791275024414,-0.0052519310265779495
1772709216946037000,6.019037109375,0.00014928006567060947,-0.0005796370096504688,-0.005089626647531986
1772709216956062000,6.02906201171875,-0.000491476384922862,0.001037700567394495,-0.0008525373414158821
1772709216966087000,6.0390869140625,-0.0010415955912321806,0.000795045867562294,-0.002636889461427927
1772709216976110800,6.04911083984375,-0.001049052458256483,0.0008027683943510056,-0.00403584772720933
1772709216986136000,6.059135986328125,-0.0003481085877865553,0.0008214106783270836,-0.002856866456568241
1772709216996161000,6.0691611328125,0.0002889195457100868,-0.00010483665391802788,-0.004906168673187494
1772709217006186000,6.07918603515625,0.0000791577622294426,-0.00025046104565262794,-0.005954961758106947
1772709217016211000,6.0892109375,-0.0021203469950705767,0.0001247785985469818,-0.00609610928222537
1772709217026236200,6.099236083984375,-0.0015388433821499348,0.0013908292166888714,-0.006219468079507351
1772709217036261000,6.10926123046875,-0.000545750604942441,0.00036418111994862556,-0.005233565345406532
1772709217046285800,6.119285888671875,-0.0004456352908164263,-0.0006846007890999317,-0.004978745244443417
1772709217056310800,6.129310791015625,-0.001613697735592723,0.0002815942279994488,-0.004419747740030289
1772709217066335000,6.1393349609375,-0.0021297712810337543,0.0012608636170625687,-0.007672818843275309
1772709217076360000,6.14935986328125,-0.0007870052941143513,0.00014979299157857895,-0.007892794907093048
1772709217086385000,6.159385009765625,-0.0015618486795574427,0.0006635012105107307,-0.005052056163549423
1772709217096410000,6.16941015625,-0.0013807537034153938,0.0007455265149474144,-0.0019883557688444853
1772709217106435000,6.17943505859375,-0.0017853425815701485,0.0004797489382326603,-0.003310221014544368
1772709217116459800,6.189459716796875,-0.0022407430224120617,-0.0025450694374740124,-0.0022114005405455828
1772709217126485000,6.199485107421875,-0.0027477312833070755,-0.002727299463003874,-0.0015976186841726303
1772709217136510000,6.209510009765625,-0.0004837780725210905,-0.0006439085118472576,0.0015638198237866163
1772709217146534000,6.219533935546875,-0.0012435356620699167,0.00019048526883125305,0.001774721429683268
1772709217156558800,6.229558837890625,-0.0006829402409493923,-0.00172379519790411,-0.0017899197991937399
1772709217166583800,6.239583740234375,-0.0008549906779080629,-0.0038556228391826153,-0.0015200336929410696
1772709217176608800,6.24960888671875,-0.002435310510918498,-0.0014523863792419434,0.00019504199735820293
1772709217186633700,6.2596337890625,-0.0007468836847692728,0.0011372417211532593,0.0004892777651548386
1772709217196659000,6.269658935546875,-0.0014600784052163363,-0.0023538959212601185,0.00018647615797817707
1772709217206684000,6.279683837890625,-0.0011950600892305374,-0.0013782903552055359,0.0010061274515464902
1772709217216708900,6.289708984375,0.000403102720156312,-0.002184429205954075,0.0006210342980921268
1772709217226732800,6.29973291015625,-0.00020875106565654278,-0.0008278628811240196,0.000016333768144249916
1772709217236757800,6.3097578125,-0.0009022383019328117,0.0017769751138985157,-0.0005666322540491819
1772709217246782700,6.31978271484375,-0.0004689968191087246,0.0022752592340111732,-0.0019683921709656715
1772709217256807700,6.3298076171875,0.000820505665615201,-0.0034486728254705667,-0.004207843914628029
1772709217266833000,6.3398330078125,-0.0002848904114216566,0.002293892204761505,-0.0031856487039476633
1772709217276857900,6.34985791015625,-0.00045240321196615696,-0.0007655471563339233,-0.004073812626302242
1772709217286882800,6.3598828125,-0.0012292931787669659,-0.0008127111941576004,-0.0039651356637477875
1772709217296907800,6.36990771484375,-0.00021063396707177162,-0.0016734451055526733,-0.0013975822366774082
1772709217306933000,6.37993310546875,-0.00004366808570921421,-0.0009567239321768284,-0.0009422316215932369
1772709217316956700,6.389956787109375,0.001022661803290248,0.0038654617965221405,-0.0012884424068033695
1772709217326982000,6.39998193359375,-0.00027822284027934074,-0.0007187081500887871,-0.002047521760687232
1772709217337006800,6.4100068359375,-0.000016167759895324707,0.0011132797226309776,-0.0000887666828930378
1772709217347031800,6.42003173828125,-0.0014956181403249502,-0.0053320638835430145,-0.0017330332193523645
1772709217357056800,6.430056884765625,-0.004014435689896345,-0.0018198871985077858,-0.0023069444578140974
1772709217367082000,6.44008203125,0.0007468119729310274,-0.0044737015850842,-0.0002451441250741482
1772709217377107000,6.45010693359375,-0.0003874280955642462,0.0028044511564075947,0.0028177574276924133
1772709217387132000,6.4601318359375,-0.0010205840226262808,0.0018840152770280838,0.004058894235640764
1772709217397156900,6.470156982421875,-0.0014349720440804958,-0.004182666074484587,0.0018197082681581378
1772709217407180800,6.480180908203125,-0.001684821443632245,-0.0036644404754042625,-0.0034743689466267824
1772709217417205800,6.490205810546875,-0.0014685727655887604,0.0017732013948261738,-0.003556127892807126
1772709217427230700,6.500230712890625,-0.0007725211326032877,0.00187287712469697,-0.0013743243180215359
1772709217437256000,6.510255859375,0.00032949470914900303,-0.0017138677649199963,-0.0019370503723621368
1772709217447281000,6.520281005859375,0.0019096091855317354,-0.00011281343176960945,-0.004327740520238876
1772709217457305900,6.530305908203125,0.0018275838810950518,0.0023218481801450253,-0.000034724827855825424
1772709217467330800,6.540330810546875,0.0029634153470396996,0.002117615658789873,0.0019552973099052906
1772709217477356000,6.55035595703125,-0.0008345185779035091,-0.001614005770534277,0.0007928274571895599
1772709217487379700,6.560379638671875,0.0023975276853889227,-0.0036657394375652075,0.0014259550953283906
1772709217497405000,6.570405029296875,0.002346927998587489,-0.00037700217217206955,0.003218262456357479
1772709217507430000,6.580429931640625,0.00008224206976592541,0.0010738493874669075,0.0038252274971455336
1772709217517454800,6.590454833984375,0.0020380676724016666,-0.000382100697606802,0.0039554559625685215
1772709217527479800,6.600479736328125,0.0014428545255213976,0.0006624837405979633,0.004046529997140169
1772709217537505000,6.610505126953125,0.0006779946852475405,-0.0011279592290520668,0.0025120165664702654
1772709217547530000,6.620530029296875,-0.0026984205469489098,-0.015667308121919632,0.0474090501666069
1772709217557555000,6.630554931640625,-0.0015585876535624266,0.020470721647143364,0.0722036138176918
1772709217567579000,6.640578857421875,0.0011098443064838648,0.03886731341481209,0.018304023891687393
1772709217577603800,6.650603759765625,0.001599599840119481,-0.013115992769598961,0.00021290546283125877
1772709217587628800,6.66062890625,-0.0027682376094162464,-0.03857877478003502,0.01061270758509636
1772709217597653800,6.67065380859375,-0.003694751299917698,-0.008007282391190529,0.02314714342355728
1772709217607679000,6.680678955078125,-0.005186906084418297,0.012044750154018402,0.008042268455028534
1772709217617704000,6.690703857421875,0.0011277152225375175,-0.011025414802134037,-0.01701967418193817
1772709217627729000,6.70072900390625,0.0006937342695891857,-0.009743021801114082,-0.0354817695915699
1772709217637753900,6.71075390625,0.0047478643245995045,0.012199560180306435,-0.031004196032881737
1772709217647778800,6.72077880859375,0.004253622610121965,0.021073412150144577,-0.018990423530340195
1772709217657802800,6.730802734375,0.009781546890735626,0.016056550666689873,-0.026016641408205032
1772709217667828000,6.740827880859375,-0.010857933200895786,-0.009813901036977768,-0.02427036315202713
1772709217677853000,6.75085302734375,0.004322617780417204,-0.04159766435623169,0.016846446320414543
