time,seconds_elapsed,z,y,x
1772708630257721900,0.056721923828125,0.32289486029893155,-0.10216565848886966,-0.40465047570466994
1772708630267746600,0.06674658203125,0.2709747034475207,-0.08367723111808299,-0.9028064797110855
1772708630277772800,0.076772705078125,0.2815443205177784,-0.1269423723489046,-1.2786347655571997
1772708630287797800,0.0867978515625,0.13266367260515688,-0.3446557334691286,-1.2300818931818007
1772708630297822700,0.09682275390625,0.24027649058401584,-0.06390285558998585,-1.3088207911148666
1772708630307847700,0.10684765625,0.2670657133102417,0.17341770779788493,-1.2985896122187375
1772708630317873700,0.116873779296875,0.13370996678769587,0.03056640317738056,-1.2852373786926268
1772708630327898600,0.126898681640625,0.12083119599223135,-0.11162205362021922,-1.4035511850364506
1772708630337923800,0.136923828125,0.1547790583014488,-0.24013620533049104,-1.5591497430272399
1772708630347948800,0.14694873046875,0.3946954834014177,-0.2650251473933458,-1.9594759257920085
1772708630357974800,0.156974853515625,0.8185551019668579,0.08634440450072288,-2.454337272167206
1772708630367999700,0.166999755859375,1.2011357846826314,0.342133521515131,-2.5828324269160627
1772708630378024700,0.177024658203125,1.4685241540759801,0.657298956605792,-2.3985595631048082
1772708630388050000,0.1870498046875,1.7328312163278459,1.0314952573359013,-2.124150939685851
1772708630398076000,0.197075927734375,2.021356774035096,1.3503916956484316,-2.134278365946561
1772708630408100900,0.207100830078125,2.268356727655232,1.7428256638586521,-2.429090310446918
1772708630418125800,0.217125732421875,2.3276403990119694,2.181273195225,-2.715284210336208
1772708630428150800,0.22715087890625,2.2118962970256804,2.7350626775175333,-2.647963070735335
1772708630438176800,0.2371767578125,2.191933705449104,3.2418039929091926,-2.552732179945707
1772708630448202000,0.247201904296875,2.5946087894275784,3.4061183567970987,-2.6176635018005965
1772708630458226700,0.257226806640625,2.7838872064411637,3.25281287817955,-2.7121523420512674
1772708630468251600,0.267251708984375,2.3116315134972334,3.270336259910464,-2.627580792441964
1772708630478277600,0.277277587890625,1.8913582289859652,3.2831817129582164,-0.7894824444785714
1772708630488302600,0.287302490234375,2.4602649086505175,2.2960183493018147,1.9445266323328017
1772708630498327800,0.297327880859375,1.8271131358295678,2.5058587850898504,2.7290058616966006
1772708630508352800,0.307352783203125,2.0312626664996145,4.277994714584946,-0.143094465726614
1772708630518378800,0.317378662109375,1.8680691233351825,4.474861102509498,-1.9880805273771285
1772708630528403700,0.32740380859375,0.8894573149248957,3.7062539805382486,-2.2431088891521096
1772708630538428700,0.3374287109375,-0.22785247781872747,3.4734459261387585,-3.105242143821716
1772708630548453600,0.34745361328125,-1.207328209581971,3.4302111800462005,-3.8915485886126753
1772708630558478600,0.357478515625,-1.8137468737781046,3.2139597081720828,-4.08193905852139
1772708630568504600,0.367504638671875,-1.8538088350534438,3.3858810399323698,-3.9147494314581155
1772708630578529500,0.377529541015625,-1.3327958332031964,3.680083766493201,-3.1550650361329313
1772708630588554500,0.387554443359375,-0.14362345803678034,4.217691344791651,-0.8733689344331622
1772708630598579700,0.397579833984375,0.7785527619242668,3.815095463529229,1.637091206972301
1772708630608605700,0.407605712890625,1.4143851521313189,3.6019857968121767,2.7547151802316305
1772708630618630700,0.417630615234375,1.3676327533066273,3.2370489073365927,3.2275673777639864
1772708630628655400,0.4276552734375,0.39228316156268117,2.14093358605206,2.959432281656563
1772708630638680600,0.4376806640625,-1.579413801768422,0.2035468886017799,1.724317362743616
1772708630648706600,0.44770654296875,-3.6095173613607883,-3.477734563243389,-0.4938388714596629
1772708630658731500,0.4577314453125,-5.194326884692907,-5.122502588453888,-1.4059379340425133
1772708630668756500,0.467756591796875,-6.517789656883478,-4.600816217386722,1.108723458445072
1772708630678781400,0.477781494140625,-7.05416097138524,-4.447448194926977,4.300376350001991
1772708630688807400,0.487807373046875,-7.370366855439543,-5.002191032421589,6.08157850626707
1772708630698832400,0.497832275390625,-7.253215224742889,-5.8851271288841955,5.508258394074439
1772708630708857600,0.507857666015625,-7.297830027016997,-6.873657104718685,2.9533772194013
1772708630718882600,0.517882568359375,-6.740764299532771,-7.582039767351746,0.07965922764837742
1772708630728908500,0.527908447265625,-5.952367604464293,-8.987207593804598,-2.0774344889573753
1772708630738933500,0.53793359375,-4.128138207377493,-11.654527106916904,-1.1872115964874626
1772708630748958500,0.54795849609375,-2.973628272530436,-13.128901740586757,0.272634891744703
1772708630758983700,0.557983642578125,-3.3319904597908256,-12.324765624594688,1.2812370570100844
1772708630769009700,0.568009765625,-3.4241011727333066,-10.918331139206886,2.335191252782941
1772708630779034600,0.57803466796875,-2.790951737999916,-9.429920965921879,2.933829346105456
1772708630789059600,0.5880595703125,-2.371756019592285,-7.6847046075344085,3.4212866998344658
1772708630799084500,0.59808447265625,-1.687455658814311,-5.782758056777715,3.8899627807259556
1772708630809110500,0.608110595703125,0.01039981346130371,-4.43145976767838,2.97309928022027
1772708630819135500,0.618135498046875,1.4919234421029686,-3.0736802998661994,1.148559355879575
1772708630829160400,0.628160400390625,2.2223498865008353,-1.8936738124519585,-0.4952319332532584
1772708630839185400,0.638185302734375,2.761077993261814,-1.066861754271388,-1.5666542734384536
1772708630849211400,0.64821142578125,3.55652928301692,-0.33030046038031574,-2.5471996802598236
1772708630859236400,0.658236328125,4.114379438877106,0.9229583102494477,-2.8343466430902478
1772708630869261600,0.668261474609375,4.335082629463076,2.663682033392787,-1.6177655981250105
1772708630879286500,0.67828662109375,4.372904702857136,3.833777367645502,-0.028268501498550175
1772708630889312500,0.6883125,4.293705493935942,4.518134427046776,1.248673488666117
1772708630899337500,0.69833740234375,4.069398141378164,5.45615002117455,1.983423495351523
1772708630909362400,0.708362548828125,2.6308336567580697,6.5592287517309185,3.058257689806819
1772708630919387600,0.7183876953125,3.1473604531049726,7.8732976726323365,2.0739839101120827
1772708630929413600,0.72841357421875,4.026403049260377,8.647399884888529,1.6780609307423233
1772708630939438600,0.7384384765625,3.6773756765782832,8.571950383889675,1.061037285901606
1772708630949463600,0.748463623046875,3.427662664607167,8.170896471372247,0.42750586611330504
1772708630959488500,0.758488525390625,2.9846728136360645,7.888710930341482,-0.11279825779274105
1772708630969514500,0.768514404296875,2.706446823886037,7.581186365392804,-0.7904261550694703
1772708630979539700,0.778539794921875,2.5784534811794755,7.02085199150145,-1.385453364418447
1772708630989564700,0.788564697265625,2.587708800780773,6.616944443118572,-1.8998324812121687
1772708630999589400,0.79858935546875,2.646935481253266,6.628775750687718,-2.210143754269928
1772708631009615600,0.80861572265625,2.713820567524433,6.899779972490668,-2.2667218199297783
1772708631019640300,0.818640380859375,2.6858774985879657,7.003760571447015,-2.136632966248691
1772708631029665500,0.82866552734375,2.483378657734394,6.699443862628937,-1.9096156240798532
1772708631039690500,0.8386904296875,2.5330162566065786,6.262274096113443,-1.7412698127187787
1772708631049716500,0.848716552734375,2.9199042811274527,5.933500991430878,-1.7055362360365687
1772708631059741400,0.858741455078125,3.2583044613331555,5.614689308792352,-1.6786074587091802
1772708631069766400,0.868766357421875,3.506132974731922,5.286779542940855,-1.5312018517851829
1772708631079791600,0.87879150390625,3.589920095965266,4.960513452643156,-1.2981693409800528
1772708631089816600,0.888816650390625,3.521159278950095,4.601811658164858,-0.935616570162028
1772708631099842600,0.898842529296875,3.1622552398979664,4.289335023766756,-0.5831409567221999
1772708631109867500,0.908867431640625,2.5646131718754765,4.058220329281688,-0.2798262645535171
1772708631119892500,0.918892578125,2.1667074942559004,3.8900381840497253,-0.09873341901786625
1772708631129917700,0.928917724609375,2.052748522120714,3.3768262113392353,0.05103957462459802
1772708631139943700,0.938943603515625,2.031349175739288,2.3381208764940498,0.27647337392903865
1772708631149968600,0.94896875,1.6540449721217154,0.8277601526856422,0.6586455489091575
1772708631159993600,0.95899365234375,0.14111235199868677,-0.8890572096914052,1.0456208863873033
1772708631170018600,0.9690185546875,-2.1128549080371855,-2.5513924557745455,0.9179146169938146
1772708631180044500,0.97904443359375,-4.551915700617433,-3.65796721175313,0.17205010923910885
1772708631190069500,0.989069580078125,-6.7550266336411235,-4.401239401459693,-1.2055544779077172
1772708631200094500,0.999094482421875,-8.003867003306746,-4.9668309652268885,-3.15448986659348
1772708631210119400,1.009119384765625,-8.124309492242336,-5.808296987181902,-4.787047521789372
1772708631220145400,1.0191455078125,-7.478862301471829,-6.784478353574872,-5.539150375944375
1772708631230170400,1.02917041015625,-7.5117966028243295,-8.788796314525603,-3.895985109755397
1772708631240195600,1.039195556640625,-8.89466199657619,-10.85302718464732,-0.5198957247907295
1772708631250220500,1.049220458984375,-11.098263343465328,-9.937543155801295,2.8380937206640837
1772708631260246500,1.05924658203125,-12.889125016218424,-7.739307719859481,4.884325115975737
1772708631270271500,1.069271484375,-13.045719599509239,-6.845294349065423,5.414696313279867
1772708631280296400,1.07929638671875,-11.290089399135113,-7.904128279703855,4.9954970877408975
1772708631290321700,1.08932177734375,-8.750653338614105,-10.303716893595457,4.622596672040224
1772708631300347600,1.09934765625,-6.116358143225312,-13.480658830493688,5.129722018313408
1772708631310372600,1.10937255859375,-3.1545617627859115,-15.357235962194203,5.3029012411803
1772708631320397600,1.1193974609375,-0.31168519175946713,-14.245209955072403,2.9827646419271825
1772708631330422500,1.129422607421875,1.8581249446868895,-12.052027710866927,-0.9395274599954485
1772708631340448500,1.139448486328125,3.6982778870925306,-9.921083019387721,-4.14561044344306
1772708631350473700,1.1494736328125,5.086077522376179,-7.863774642005563,-5.753379402080178
1772708631360498400,1.15949853515625,5.765860113468766,-4.947887195304036,-5.665413533857464
1772708631370523400,1.1695234375,5.4949330485552546,-1.7251801170527934,-3.8788390369042753
1772708631380549400,1.17954931640625,4.4100756188660855,0.2539806062877178,-1.5037844141580163
1772708631390574300,1.18957421875,3.1462136211574077,1.8842326148897408,0.8269700252212584
1772708631400599600,1.199599609375,1.8404776443153619,3.4591502742826936,2.316487867487222
1772708631410624500,1.20962451171875,0.3757119659900665,4.346254596340656,3.0212934022858735
1772708631420650500,1.219650390625,-0.258016145414114,4.2978854099690915,3.518744326762855
1772708631430675500,1.229675537109375,0.39461774199008937,3.7613790709108113,3.418496484594047
1772708631440700400,1.239700439453125,1.493092193621397,3.5278672521561383,2.715496976304054
1772708631450725600,1.2497255859375,2.5971260329455137,3.7935289438873525,1.4960093962423502
1772708631460750600,1.25975048828125,3.727053607460856,4.276315383195877,0.23753720181323587
1772708631470776600,1.269776611328125,4.680466677206755,4.541667862847447,-0.9553106469955295
1772708631480801500,1.279801513671875,5.45745467403233,4.5362107664853335,-2.065264597083628
1772708631490826500,1.289826416015625,5.977389817517995,4.344095957002043,-2.550500475370884
1772708631500851700,1.299851806640625,6.015156361332536,4.146616405615211,-2.204352311386913
1772708631510877700,1.309877685546875,5.836857311233878,4.195270254147053,-1.5048596421740947
1772708631520902700,1.319902587890625,5.5535781297475095,4.476076323518157,-0.9110755647540092
1772708631530927900,1.329927978515625,5.367396217444539,4.914072603985667,-0.5398667554020882
1772708631540952800,1.339952880859375,5.279264929527044,5.217783748126029,-0.18916100117899476
1772708631550978800,1.349978759765625,5.264125812584162,5.125200156974792,0.07830211395099759
1772708631561004000,1.360004150390625,5.29014580450356,4.997133164510131,0.20455789227522908
1772708631571029000,1.370029052734375,5.215829106926917,4.97453087207973,0.06325849327184259
1772708631581054000,1.380053955078125,4.975567229390144,4.992832252445817,-0.4535653863254934
1772708631591080000,1.390079833984375,4.6993759603381156,5.085076236379146,-1.0505861075792462
1772708631601105000,1.40010498046875,4.334358406841755,5.277396797567605,-1.3064099305808543
1772708631611129900,1.4101298828125,3.963460563135147,5.393457125896215,-1.2590373540312052
1772708631621154800,1.42015478515625,3.67163742518723,5.501482616329193,-1.0655140659894793
1772708631631180800,1.430180908203125,3.3652181911319494,5.813860466527938,-0.5787853918612003
1772708631641205800,1.440205810546875,3.0225486630439757,5.792033834645152,-0.009029548021405934
1772708631651230700,1.450230712890625,2.8079835368216037,5.460711630001664,-0.1222916239336133
1772708631661256000,1.460255859375,2.956398320788145,5.422812399718165,-0.8150940017275512
1772708631671282000,1.470281982421875,3.039993718841672,5.474263185492157,-1.3215252282567322
1772708631681307000,1.480306884765625,3.0685429369777437,5.250391886264086,-1.3333480602584777
1772708631691331800,1.490331787109375,2.9356320116132495,4.751760227569937,-1.1694506066083907
1772708631701356800,1.500356689453125,2.274734738254547,4.255977528566122,-1.001744846716523
1772708631711382000,1.510382080078125,1.2908008580386638,3.818100490564108,-0.5200685606069863
1772708631721408000,1.520407958984375,0.2557365100443363,3.167015001645684,0.1227028350830078
1772708631731433000,1.530432861328125,-0.8755594302147627,2.22362823587358,0.732248837519437
1772708631741458000,1.5404580078125,-2.2533026586472986,1.2346896792382,1.6743711363136768
1772708631751483000,1.55048291015625,-4.2455642711013555,-0.9122726655840874,3.0890742683529853
1772708631761508900,1.5605087890625,-6.3458332538098094,-3.990059231725335,4.336970927427709
1772708631771534000,1.5705341796875,-7.521554026728868,-6.351013871318101,3.746747318968177
1772708631781559000,1.58055908203125,-7.580902872276305,-8.257194114121795,1.0085115643724798
1772708631791583700,1.590583740234375,-7.0928066361218685,-10.030496164786815,-2.5367519360035655
1772708631801610000,1.60060986328125,-7.2106187765538685,-10.851321549773216,-3.275000744590163
1772708631811634700,1.610634765625,-8.251724158278106,-11.564894182264805,0.7475415375888347
1772708631821660000,1.620659912109375,-7.342344876047968,-11.769711821454763,6.0451049248725175
1772708631831684900,1.630684814453125,-4.340964088717103,-12.317685895466804,8.940734596443177
1772708631841710800,1.6407109375,-1.6370353851318358,-12.740541889947652,8.887495173686743
1772708631851735800,1.65073583984375,-0.42932869762629267,-13.37645611321926,8.12236244982779
1772708631861760800,1.6607607421875,-1.0096534278839826,-13.806175563728809,8.380139525789023
1772708631871786000,1.670785888671875,-2.1074580174297095,-12.270374693715572,8.066657513740658
1772708631881812000,1.68081201171875,-3.4993525208115575,-11.268747335898876,7.528809112423658
1772708631891837000,1.6908369140625,-4.8663043061166995,-9.836509716212749,6.378313381654023
1772708631901862000,1.70086181640625,-5.777883728739619,-6.960530501529574,4.045984532564878
1772708631911886800,1.710886962890625,-6.061952599298953,-4.011041229477525,1.558049818961322
1772708631921912800,1.720912841796875,-5.116055312010646,-1.4101526291280984,-0.3250558377251029
1772708631931938000,1.73093798828125,-3.329468832358718,-0.5501110860407352,-0.7194058686897158
1772708631941963000,1.740962890625,-2.146884603410959,-0.558105007404089,-0.20279285536408423
1772708631951988000,1.750988037109375,-1.6685381923764944,0.2716296602249145,-0.398382062959671
1772708631962014000,1.761013916015625,-1.6111621082067489,1.33346043459177,-1.3280065531000493
1772708631972039000,1.771038818359375,-1.532771877580881,2.421250995123386,-1.8336724943451583
1772708631982063900,1.78106396484375,-1.05242289455235,3.5434698949575423,-1.777333790399134
1772708631992088800,1.7910888671875,-0.334455241972208,4.432150672551989,-1.371441497939825
1772708632002113800,1.80111376953125,0.46041094137132166,5.688544234076142,-0.7547242886997759
1772708632012139800,1.811139892578125,1.5717565650135277,6.478361901858449,-0.6593222791269421
1772708632022164700,1.821164794921875,2.825767030793428,6.479344483155011,-1.22112687170133
1772708632032190000,1.83118994140625,3.952498439615965,6.427699636113643,-2.033427443318069
1772708632042215000,1.84121484375,4.733378183183074,6.112888421288132,-2.5576211210310458
1772708632052241000,1.851240966796875,4.967919344985485,6.007579204076528,-2.411177783267945
1772708632062265900,1.861265869140625,4.866010291606187,6.0410261311262845,-1.7502433927692471
1772708632072290800,1.871290771484375,4.50618913770914,6.2609530766427515,-1.0655307979285717
1772708632082316000,1.88131591796875,3.715751876723766,6.667656393224001,-0.045582624392956496
1772708632092342000,1.891342041015625,3.1735973026454447,6.329977513030171,0.39341523433253167
1772708632102367000,1.901366943359375,2.8002070576012135,6.356565075704455,-0.312139511398226
1772708632112392000,1.911391845703125,2.2491823638468977,6.402866223630308,-1.1299934793584048
1772708632122417000,1.9214169921875,1.942853146162629,6.26134762891829,-1.687155214563012
1772708632132443000,1.93144287109375,1.8909812123671172,6.440860146459936,-2.0086314402356744
1772708632142468000,1.941468017578125,2.024874719028175,6.555807545110583,-2.354451687439531
1772708632152492800,1.951492919921875,2.236964687308669,6.891033771455287,-2.4588307841941712
1772708632162517800,1.961517822265625,2.2203370853736994,7.421440040072798,-2.266851291528344
1772708632172543700,1.971543701171875,2.2239359866485,8.027298732298613,-1.657747626031935
1772708632182568700,1.981568603515625,2.1334721641302106,8.26291073820293,-0.9591942104306072
1772708632192594000,1.991593994140625,1.8242767433598637,8.274475503790377,-0.4923064011953771
1772708632202619000,2.001618896484375,1.2445561164751648,8.206091703394055,-0.7256273735530674
1772708632212643800,2.011643798828125,0.8184665469005703,7.946544695150852,-1.6058388673573731
1772708632222669800,2.021669921875,0.6239294787064195,7.709510547488927,-2.304402731287479
1772708632232694800,2.03169482421875,0.7312479899138212,7.312057874333858,-2.48347919549942
1772708632242720000,2.041719970703125,0.8840937420651316,6.698859925261139,-2.5856115362405774
1772708632252745000,2.051744873046875,0.768080175487697,6.580042991700768,-2.7794515620812774
1772708632262771000,2.06177099609375,0.44404520524293184,6.651334788498282,-2.9357182285919783
1772708632272796000,2.0717958984375,0.3212050075158477,6.496531764799356,-3.0947265950262546
1772708632282820900,2.08182080078125,0.4797919336676597,6.414107748612762,-2.866075660306215
1772708632292846000,2.09184619140625,0.590093552339077,6.076158819305896,-2.1085065035693344
1772708632302872000,2.1018720703125,0.9178808608546852,5.2896799405574795,-0.9268336173128336
1772708632312897000,2.11189697265625,0.728894704785943,4.738535419815778,0.7436478180859237
1772708632322922000,2.121921875,-0.13980769914090632,3.2410441144526003,3.050045157256722
1772708632332946700,2.13194677734375,-1.3017916231304407,0.6244780524998903,4.8151577639862895
1772708632342973000,2.141972900390625,-2.554599727383256,-2.2156764000862834,5.471478523209691
1772708632352998000,2.151997802734375,-2.0830223720923065,-5.870816863980889,4.204686025007069
1772708632363022800,2.16202294921875,-0.019553426253795622,-9.542330370527505,1.222128449959308
1772708632373047800,2.1720478515625,1.5087497814804314,-13.979341342592239,-1.8710953392885625
1772708632383073800,2.18207373046875,2.611510532128811,-18.185502408587933,-4.672091063049435
1772708632393098800,2.1920986328125,3.646386664074659,-19.576333666652438,-4.100691689786315
1772708632403124000,2.2021240234375,4.75608218242228,-20.906112782382962,0.3209988904844969
1772708632413149000,2.21214892578125,6.893449015903473,-21.284614086830615,5.174914328214526
1772708632423174000,2.222173828125,9.906281756097078,-20.576344236922264,7.79751557867825
1772708632433199900,2.232199951171875,12.33210838857293,-20.597597452831266,8.111327845594287
1772708632443224800,2.242224853515625,13.228639879667758,-19.674499441850184,8.681533625158668
1772708632453250000,2.25225,11.906605678975582,-18.81630323436856,10.902174954175948
1772708632463275000,2.26227490234375,8.816600267252326,-16.970054605436324,9.684796475222706
1772708632473301000,2.272301025390625,5.019261409687996,-13.430387609893083,4.226051469118893
1772708632483326000,2.282325927734375,1.7059826646298168,-9.588255086356401,-1.237319735480845
1772708632493351000,2.292350830078125,-0.3556260402947664,-6.821769096571207,-3.920810923454165
1772708632503376000,2.3023759765625,-1.4192083345040678,-4.259117580157518,-3.5317604602023955
1772708632513402000,2.312402099609375,-1.8043007077798245,-2.421730303072929,-2.0700131067849696
1772708632523426800,2.3224267578125,-2.146530675406754,-0.8849620493322611,-1.5314175403624772
1772708632533452000,2.3324521484375,-2.784848744949698,0.7742635402977466,-2.36276154288426
1772708632543477000,2.34247705078125,-3.0259058645173904,2.2685078265637157,-3.6298677832111714
1772708632553503000,2.3525029296875,-2.6797645686656235,3.332368060931563,-4.466291427084803
1772708632563528000,2.36252783203125,-2.3023352773636576,4.944299399945139,-4.371203744158149
1772708632573553200,2.37255322265625,-2.342383794635534,6.493617923179269,-2.659597102166712
1772708632583578000,2.382578125,-1.310994628022611,7.235362172666192,-0.9843450183000415
1772708632593604000,2.39260400390625,0.3839633692458272,7.927233260959387,-0.6245967104434966
1772708632603629000,2.402629150390625,1.9288614456892013,7.925372727784514,-0.7475826002515852
1772708632613654000,2.412654052734375,2.8934005973443386,7.52930946316123,-0.9699543085716664
1772708632623679200,2.42267919921875,3.1138767011761663,7.49723031733334,-1.2557481032274662
1772708632633704000,2.432703857421875,2.9240415270626543,7.316243635585904,-1.6610541202314197
1772708632643730000,2.44272998046875,2.5913778446823357,7.865679598844051,-1.880316464359313
1772708632653755000,2.4527548828125,1.9798370151668785,8.896789071732758,-1.4056089943490921
1772708632663780000,2.462780029296875,1.1019956114947795,8.941934035360813,-0.5409997049547731
1772708632673805000,2.47280517578125,0.3975213544771075,9.105124363654852,-0.08298764141872525
1772708632683831000,2.4828310546875,0.12839812411516904,9.429924473053216,-0.39270376159492876
1772708632693856000,2.49285595703125,0.024687282010912893,9.431617832967639,-0.7899597066015005
1772708632703881000,2.502880859375,0.3635731999069452,9.179984666588902,-1.1519766900423913
1772708632713906200,2.51290625,1.0480354732483625,8.94376417339742,-1.332983172468841
1772708632723932000,2.522931884765625,1.7003431974381207,8.799870666247605,-1.283851185031235
1772708632733957000,2.53295703125,1.889834672680497,8.808805083331466,-1.0744258328501135
1772708632743982000,2.542982177734375,1.5948253059118984,8.901247804707289,-0.786744032490626
1772708632754007000,2.553007080078125,1.4985364305019377,8.46285755648613,-0.578139275977388
1772708632764032000,2.563031982421875,1.6268588590323925,8.34478179668188,-0.21722747729942202
1772708632774058000,2.57305810546875,2.0268127013534305,8.19006060604751,0.2769599153369665
1772708632784083200,2.583083251953125,2.4117171508416533,7.6817159471124405,0.5000840859921649
1772708632794108200,2.593108154296875,2.670877497854829,7.45411130657494,0.05049567700624465
1772708632804132900,2.6031328125,2.935101850259304,7.4388611304730174,-0.45638095520287747
1772708632814159000,2.6131591796875,2.994678659343719,6.966551076993346,-0.8069199745569378
1772708632824184000,2.62318408203125,2.7548703707933426,6.721023826274275,-1.4770798009753225
1772708632834209000,2.633208984375,2.40263105032742,7.159905072882771,-1.8381211443170904
1772708632844234000,2.64323388671875,2.2206734777212143,7.366552850109338,-1.481679988247156
1772708632854260000,2.653260009765625,2.064490982362628,7.451828164073825,-0.3480958639856428
1772708632864285000,2.663284912109375,1.622474944859743,7.199678280344605,0.8104004370838404
1772708632874310100,2.67331005859375,0.799138453835249,6.920149975824356,1.6716073706887662
1772708632884335000,2.683335205078125,0.15427110877931116,6.0099266439855095,2.1438591181099413
1772708632894360000,2.693360107421875,-0.6044108315050601,4.330519267070293,2.270391740614176
1772708632904386000,2.703385986328125,-1.5728987207859753,2.060710879302025,1.854548839765787
1772708632914411000,2.713410888671875,-2.7785055134028194,-1.0649497831702233,1.1607678992632775
1772708632924436000,2.72343603515625,-3.6297535091817377,-4.879883334136009,0.5356816517371684
1772708632934461200,2.733461181640625,-3.4274007988005875,-8.393435060691832,0.35099516562372446
1772708632944487200,2.743487060546875,-1.476892753970623,-11.311867515701055,0.7493336086373775
1772708632954512100,2.75351220703125,1.1827435111626983,-14.189640628063678,0.08071750452965497
1772708632964537000,2.763537109375,2.5390254338935017,-17.132831092232465,-0.08837934439443051
1772708632974562000,2.77356201171875,2.9435958300992846,-19.0294023796916,0.6687326431594789
1772708632984588000,2.783588134765625,2.226259461160004,-21.433440374207496,3.340091640920937
1772708632994613000,2.793613037109375,0.9606088264688849,-21.383592347455025,5.6307315120548
1772708633004638000,2.803637939453125,-1.310339963506162,-19.518319869101045,6.706397335028648
1772708633014663000,2.813662841796875,-2.9525235251814124,-19.613566541981697,5.200459688359499
1772708633024689000,2.82368896484375,-3.775262342573702,-18.724802177757024,4.129038078826666
1772708633034713900,2.8337138671875,-4.3424604647547005,-18.618290599018334,4.40773694678545
1772708633044739000,2.843739013671875,-4.841479076939821,-18.26547318640351,4.4546702551349995
1772708633054764000,2.853763916015625,-4.837297991862893,-16.276832687056064,2.6856577183574437
1772708633064789000,2.8637890625,-4.276614073881507,-13.032535123765468,0.2823969187591225
1772708633074815000,2.87381494140625,-3.2925086364910006,-9.425373970142006,-1.5542355213701724
1772708633084840000,2.88383984375,-2.171955916303396,-5.988323883986473,-1.813552520249784
1772708633094865200,2.893865234375,-1.3001187214821577,-3.8770536147922274,-0.5538438062956557
1772708633104890000,2.90389013671875,-1.5537620586395262,-2.9977853931874034,-0.6478792402230202
1772708633114916000,2.913916015625,-2.2443629808664323,-1.1656231572747229,-2.5219176472261546
1772708633124941000,2.923941162109375,-2.929206362479925,0.533865469160676,-4.20633408447504
1772708633134966000,2.933966064453125,-3.3717402863770722,2.053653362005949,-4.868876494692266
1772708633144991200,2.9439912109375,-3.3889386739373206,3.4895115102767944,-4.353969408501684
1772708633155016000,2.954015869140625,-2.8828771575033665,4.67465711414516,-2.763626216439903
1772708633165042000,2.9640419921875,-1.4730769950747489,6.095139414107799,-1.2502286091536283
1772708633175067000,2.97406689453125,0.761323394703865,7.604726815456152,-0.45459436404705045
1772708633185092000,2.984092041015625,3.2725679644852876,8.49982096722424,-0.08483262996459379
1772708633195117000,2.994116943359375,5.1917929823011155,8.993848931515217,0.3455192914959043
1772708633205143000,3.00414306640625,6.200612297448515,9.23465032275617,0.9756671332605182
1772708633215168000,3.01416796875,6.646724664354324,9.169950179308652,1.4567869545310734
1772708633225193000,3.02419287109375,6.746645758786797,8.974505348619818,1.6519906699404119
1772708633235218200,3.03421826171875,6.527313856554031,8.739861895486712,1.478879397743195
1772708633245244000,3.044243896484375,6.098672264409065,8.576292212486267,0.9444429237615316
1772708633255269000,3.05426904296875,5.274394108620285,8.705556305781005,0.3336545565811917
1772708633265294000,3.064294189453125,3.67432213422656,8.856454138734936,0.07610923441606574
1772708633275319000,3.074319091796875,2.4880624316364526,8.923297723951935,-0.1486114664492663
1772708633285344000,3.084343994140625,1.510425313477218,9.299427623093127,-0.47257871435321863
1772708633295370000,3.094369873046875,0.9597782208636403,9.517819029605388,-0.49766361737959086
1772708633305395200,3.104395263671875,0.9468146943941712,9.460153607100247,-0.3689892336063087
1772708633315420200,3.114420166015625,1.2146063838914036,9.431710187426209,-0.4272004899585619
1772708633325444900,3.12444482421875,1.5344097079157828,9.383414650812744,-0.6319471462715417
1772708633335471000,3.13447119140625,1.8688059131771324,9.122686908352375,-0.897764393890649
1772708633345496000,3.14449609375,2.263337145927548,8.910517152833938,-0.9810446615803986
1772708633355521000,3.15452099609375,2.6097967139482496,8.419903965422511,-0.6362831296492367
1772708633365546000,3.1645458984375,2.8422084625065325,7.7960326466441145,0.023311518411990254
1772708633375571000,3.174571044921875,3.08078457891345,7.195386720630526,0.4905269704326987
1772708633385597000,3.184596923828125,3.083216774496436,6.978525592425465,0.4386995333660394
1772708633395622000,3.194621826171875,2.825426839053631,7.050996954396367,-0.006731481945794075
1772708633405647000,3.204647216796875,2.549680975681543,7.082562890005112,-0.5347882830940187
1772708633415672000,3.214672119140625,2.0992516223594544,7.351940971910953,-0.5507027317909523
1772708633425698000,3.224697998046875,1.5325512205675242,7.307143798807263,0.09829363936111331
1772708633435723000,3.234722900390625,0.9128726773038506,6.947131506252289,0.8533847155466675
1772708633445748000,3.244748046875,0.44534898131787776,6.96001612226665,1.2092926415227352
1772708633455773200,3.254773193359375,0.1073202647730708,6.616422465071082,1.1901901739068328
1772708633465799200,3.264799072265625,-0.0843921013891697,5.708284122812747,1.2778262256532906
1772708633475824000,3.27482421875,0.09314999286234378,4.425342746102809,1.2602072745934128
1772708633485849000,3.28484912109375,0.055341655732691286,2.8569588723927732,0.7568788363851606
1772708633495874000,3.2948740234375,-0.7329793437510729,1.0402917272537946,0.06707929366901516
1772708633505899000,3.30489892578125,-1.8612661653220652,-1.334387486308813,-0.296891052329354
1772708633515925000,3.314925048828125,-3.205361975696683,-4.495976371252537,-0.29352402358166874
1772708633525950000,3.324949951171875,-2.9075705769941207,-8.25581931863725,-0.6204512081366031
1772708633535974700,3.334974609375,0.5734682884916663,-11.683341697990894,-1.9241740185253322
1772708633546000000,3.344999755859375,3.567003330758214,-14.99828457686901,-3.0899113036990165
1772708633556025900,3.35502587890625,3.7959339592024683,-18.778623784315585,-1.9015202881686388
1772708633566050800,3.36505078125,2.687255508942902,-20.611083541870116,0.8466964699544012
1772708633576075500,3.375075439453125,1.2532891657680272,-20.416075349032877,2.920800645445287
1772708633586100500,3.3851005859375,0.511280127865076,-18.885680137455463,2.675284208381176
1772708633596126500,3.39512646484375,-0.8379980535835028,-18.324156846040488,2.3666258170969785
1772708633606151700,3.405151611328125,-1.94135910821259,-18.63332800915241,2.0886901885956526
1772708633616176600,3.4151767578125,-3.180285109846294,-19.583692797243593,2.150171077735722
1772708633626201600,3.42520166015625,-5.358935263091325,-19.17559948760867,1.0964680802449582
1772708633636226600,3.4352265625,-7.185314239427447,-15.916886445474624,-1.338941788612306
1772708633646252500,3.44525244140625,-7.877969171574711,-12.946028222179413,-3.081605539907515
1772708633656277800,3.45527783203125,-7.49506817086339,-10.068459692478179,-4.14011681446284
1772708633666302700,3.465302734375,-6.070166300892829,-7.183205868971347,-4.5049730399176475
1772708633676327700,3.47532763671875,-4.238884939467907,-4.968322080567479,-3.394464451621473
1772708633686353700,3.485353759765625,-2.9722184057325123,-2.9773505079239606,-1.2906086964674293
1772708633696378600,3.495378662109375,-2.043552239230275,-0.9754524675965308,0.695040950500965
1772708633706403800,3.50540380859375,-1.3514052566051482,1.19356681073308,2.373267008677125
1772708633716428800,3.5154287109375,-1.33234165969491,2.4232523980736733,3.151695851960778
1772708633726453800,3.525453857421875,-1.6732886017739772,3.405325160592794,2.91417392078191
1772708633736479700,3.535479736328125,-2.3863953703194856,4.445187264257669,2.3534885414958
1772708633746504700,3.545504638671875,-2.2710580955684185,5.513542471957207,1.9977783300489187
1772708633756529700,3.55552978515625,-0.6004290683925152,6.288145619472861,1.6344585203811526
1772708633766554600,3.5655546875,1.653050115865469,6.5991925133287905,0.8272856670416892
1772708633776580600,3.57558056640625,3.67083487663269,6.934490635865926,-0.05660808633877895
1772708633786605600,3.58560546875,5.325956538075208,7.183830138349533,-0.8240866518046707
1772708633796630500,3.595630615234375,6.3627212602466345,7.138110005182027,-1.2321801806353032
1772708633806655700,3.60565576171875,6.829432763066888,6.976817619463801,-1.2527600273273884
1772708633816680700,3.6156806640625,6.885684227120876,6.818413940924406,-1.1381551585040985
1772708633826706700,3.625706787109375,6.586105068218708,6.954501742759347,-1.0096175528530031
1772708633836731600,3.635731689453125,6.025153439211845,7.433496973091364,-0.7937515000998974
1772708633846756600,3.645756591796875,5.3091059410393235,7.706682630586624,-0.49113012395761907
1772708633856781800,3.65578173828125,4.596327089273929,7.715103252929449,-0.13490622736755759
1772708633866807800,3.665807861328125,3.9994390544891356,7.5713687357336275,0.036843821212742475
1772708633876832800,3.675832763671875,3.748554076129198,6.966198025771975,-0.507894102155976
1772708633886857700,3.685857666015625,3.431980527806282,6.61842036089003,-1.4269173014461993
1772708633896882700,3.695882568359375,2.919989036801457,6.870729819095135,-2.2453952465236187
1772708633906907600,3.70590771484375,2.570498138260841,7.133842410865426,-2.7976579576402902
1772708633916934000,3.715933837890625,2.4458874237298964,7.209541502711176,-2.7887916373565793
1772708633926958600,3.72595849609375,2.562949622577429,7.319280811324715,-2.2132244768895206
1772708633936983600,3.735983642578125,2.7778046716570852,7.411393862354755,-1.3333863464422524
1772708633947008500,3.746008544921875,3.082940295642614,7.53736651288867,-0.3146037095546722
1772708633957034500,3.756034423828125,3.4038755463063715,7.599924968132377,0.7283943540483713
1772708633967059700,3.766059814453125,3.6312066305994986,7.3171356159895655,1.3791070641316472
1772708633977084700,3.776084716796875,3.616207798910141,6.9391194647103545,1.5212527047008275
1772708633987109600,3.786109619140625,3.0906419560611247,6.6906181666165585,1.1814710070088505
1772708633997134600,3.796134521484375,2.1983342201411724,6.781640499800443,0.6255638749752194
1772708634007160600,3.80616064453125,1.5480875201344488,6.937578080487251,0.02361176173388958
1772708634017185800,3.816185791015625,1.317244628328085,6.686964320284128,-0.48002621734756973
1772708634027210800,3.826210693359375,1.0937497611969709,6.38826077517271,-0.7919920892119408
1772708634037235700,3.836235595703125,0.7218278351396322,6.239766496229171,-0.6908776933416724
1772708634047261700,3.84626171875,0.44941666914820666,5.652816502612829,-0.37372875628359614
1772708634057286700,3.85628662109375,0.21149784760624168,4.564465385589004,0.10375672707259655
1772708634067311900,3.866311767578125,-0.39802667365074157,3.286414703530073,0.7664787316404282
1772708634077336600,3.876336669921875,-1.6476511794313788,1.933145991140604,1.4989137393817304
1772708634087361500,3.886361572265625,-3.252232740204036,-0.25964286983311174,1.792696925356239
1772708634097387500,3.896387451171875,-4.698652322238684,-3.0735189718246456,1.263002458269894
1772708634107412500,3.90641259765625,-5.538108757936954,-5.904253269636631,0.26880543311703947
1772708634117437700,3.916437744140625,-5.1504754680067295,-9.06032835959494,-0.4401316119957715
1772708634127462700,3.926462646484375,-4.340540602608025,-13.344068924355506,0.2444389440257102
1772708634137488600,3.936488525390625,-3.5682878176108,-16.918768654835223,1.589082086084783
1772708634147513600,3.946513671875,-2.0731471670269963,-18.26615006275177,2.6997517101615665
1772708634157538600,3.95653857421875,-0.5073211611062288,-18.547887275493142,3.231555570617318
1772708634167563800,3.966563720703125,0.6210702898830175,-17.894659513849017,3.414148810778558
1772708634177588700,3.976588623046875,0.8532493987292051,-18.762215085828302,3.844103531348705
1772708634187614700,3.98661474609375,0.799505825842917,-19.23869044229388,5.18370846004486
1772708634197639700,3.9966396484375,-0.5999328093081713,-18.018785075211525,5.8905836407244205
1772708634207664600,4.00666455078125,-2.5422557941168544,-15.113744016695021,4.156543048606813
1772708634217689900,4.01668994140625,-3.8492520001530646,-10.726311022269725,2.224292398870736
1772708634227715800,4.0267158203125,-4.46562682569623,-6.4068532474398605,1.6390231979481875
1772708634237740800,4.03674072265625,-3.347618821555376,-3.8241491230785845,2.7300270214378832
1772708634247765800,4.046765869140625,-1.798589052134752,-4.666289098772406,4.646528167247772
1772708634257790500,4.05679052734375,-1.5698305653870104,-5.126942032206058,4.53325191667974
1772708634267815700,4.066815673828125,-2.169029799723625,-2.626221779048443,2.1650322545200584
1772708634277841700,4.076841552734375,-2.530577631282806,-0.3404688031733036,-0.38883660130538045
1772708634287866600,4.08686669921875,-2.4193220728874203,0.9322405178576707,-2.0252884143956003
1772708634297891600,4.0968916015625,-2.0660516558080912,1.9461843364119529,-2.84591462354809
1772708634307916500,4.10691650390625,-1.9522130951821803,2.9169705657631155,-3.325893311959505
1772708634317942500,4.116942626953125,-1.6923486915528774,4.533783831599354,-2.8245024176850912
1772708634327967700,4.1269677734375,-0.999596728771925,5.814488827559352,-1.7761673769682644
1772708634337992700,4.13699267578125,0.06023264264464378,5.980614624783397,-1.5432807043746113
1772708634348017700,4.147017578125,1.342173902401328,6.042013388597965,-2.0174299559801816
1772708634358042600,4.157042724609375,2.3601567672133443,6.252172973337769,-2.4441445255853234
1772708634368068600,4.167068603515625,2.3775883790075776,6.37119507408142,-2.20147617142871
1772708634378093800,4.17709375,1.668693675199151,6.242728268644213,-1.5459376486241816
1772708634388118800,4.187118896484375,0.8309574874222279,6.080429336231947,-0.8687826295562088
1772708634398143700,4.197143798828125,0.34532793364226816,6.091160573604703,-0.6015690322078764
1772708634408169700,4.207169677734375,0.5415016631275416,6.242091724306345,-0.5931553510624915
1772708634418194700,4.217194580078125,1.1372867051064968,6.287621303337812,-0.4598429322250187
1772708634428219600,4.2272197265625,1.9215525839805603,6.258081320598722,-0.2022385094169527
1772708634438244600,4.23724462890625,3.0055192023098467,6.032554655379057,-0.08675342369303107
1772708634448269600,4.24726953125,4.131442801880836,5.543538966292142,-0.21607538465484977
1772708634458295600,4.257295654296875,4.928210434931517,4.975087336918711,-0.5004859813239425
1772708634468320500,4.267320556640625,5.365781183463334,4.51130019711256,-0.8220196362722665
1772708634478345700,4.277345703125,5.518581635168195,4.28630544681251,-1.205648001410067
1772708634488370700,4.28737060546875,5.493682171711325,4.346410079163313,-1.5415382446214556
1772708634498395600,4.297395751953125,5.255722141376137,4.865304189163446,-1.5639467680454253
1772708634508421600,4.307421630859375,4.64201916539073,5.559051592722535,-1.1417959261592476
1772708634518446600,4.317446533203125,3.802388542169332,5.812364675012231,-0.5852649996714666
1772708634528471800,4.327471923828125,2.8514024073094126,5.937400921478867,0.17168642702586948
1772708634538496500,4.33749658203125,1.9842185912519692,6.110830904236436,0.9978623061947524
1772708634548522500,4.3475224609375,1.4452572602570055,6.054820263200998,1.4204294007316232
1772708634558547500,4.35754736328125,1.3064455864161253,5.8896326236099,1.1538421185880898
1772708634568572400,4.367572509765625,1.5558248363882303,5.777787282627821,0.3058664590107277
1772708634578597600,4.37759765625,1.8877660497128963,5.575848413744568,-0.6562571194026618
1772708634588622600,4.38762255859375,2.0564427004635335,5.669340351912379,-1.1359512917842716
1772708634598648600,4.397648681640625,1.8993021737277507,5.620059311392903,-1.3926501440547405
1772708634608673500,4.407673583984375,1.62380473215878,5.319194204333424,-1.7393448360055683
1772708634618698500,4.417698486328125,1.495615574619174,5.522468121212721,-1.8850281491816043
1772708634628723500,4.427723388671875,1.7155360903948544,6.016880116385221,-1.7977631227046251
1772708634638749700,4.437749755859375,1.8831822290539741,6.5683209897249935,-1.679429442616552
1772708634648774400,4.4477744140625,1.2104337743818758,6.846528274774551,-1.0284956371285021
1772708634658799400,4.45779931640625,-0.3227180424273014,5.77377980055213,0.3929822497427463
1772708634668824300,4.46782421875,-2.0108359645426273,3.504461242127418,1.4595925134710968
1772708634678849500,4.477849609375,-3.358523077407479,1.4729261884272098,1.3237334058254957
1772708634688875500,4.48787548828125,-4.091007915639877,0.1481570098131895,0.36835217781178653
1772708634698900500,4.497900390625,-3.8881247516438364,-1.9146867898643016,-0.5312459343120456
1772708634708925400,4.507925537109375,-3.383165935754776,-6.2757847350716585,-0.6084799075748771
1772708634718950400,4.517950439453125,-2.8377766175389287,-11.747508172953129,0.23615625058254225
1772708634728976400,4.527976318359375,-1.980044812698662,-15.248900675159692,1.2729612499654293
1772708634739001600,4.538001708984375,-0.6183852885827422,-16.501262204688786,1.3625707937419413
1772708634749026600,4.548026611328125,0.2699903685852885,-16.80019955855608,0.8971448006875813
1772708634759051500,4.558051513671875,-0.2724354236498475,-16.42501600035429,1.12775023047626
1772708634769076500,4.568076416015625,-1.9969395411372184,-16.576603569138047,2.158401438203454
1772708634779102500,4.5781025390625,-4.406864255604147,-16.825158643245697,3.5721181895539162
1772708634789127700,4.588127685546875,-6.6772051428139205,-16.617237192821502,6.153809045219421
1772708634799152600,4.598152587890625,-8.142861632499098,-16.770573651099205,8.512579326510428
1772708634809177300,4.60817724609375,-8.8284526176095,-16.17114996035695,7.490269830670952
1772708634819203600,4.61820361328125,-8.322779223710299,-14.630405204200743,2.840599858266115
1772708634829228300,4.628228271484375,-6.482187597626448,-12.863476195698976,-1.7000259481824933
1772708634839253500,4.63825341796875,-4.452900030592084,-11.208737980616092,-3.7631916732907293
1772708634849278500,4.648278564453125,-2.9151433503359554,-9.44069721148014,-2.773753934961557
1772708634859303400,4.658303466796875,-1.5489046817362309,-7.499513459834456,-0.7716939820706844
1772708634869329400,4.668329345703125,-0.2143453459918499,-4.656918043836951,0.4958952560001984
1772708634879354400,4.678354248046875,0.7815852614879608,-1.28284434607625,1.3333406076043843
1772708634889379600,4.688379638671875,1.1163695892840624,1.3924755181401967,1.7681984439156948
1772708634899404500,4.698404541015625,0.853540490630269,3.479066104108095,2.408498481056094
1772708634909430500,4.708430419921875,0.04609656526446342,4.804924247002601,2.992928600805998
1772708634919455500,4.71845556640625,-0.976160908126831,5.4835839715451,2.2457729937948283
1772708634929480400,4.72848046875,-1.3920154994130134,6.273063201153278,0.09709599967491812
1772708634939505700,4.738505615234375,-1.198330079612136,7.193555413550138,-2.1968032111816105
1772708634949530600,4.748530517578125,-0.5365986935168504,7.446917011156677,-3.9455870527923107
1772708634959556600,4.758556640625,0.5915197857499123,7.483511004060507,-4.771074876631796
1772708634969581600,4.76858154296875,2.0905910537809134,7.755844428640604,-4.439906693506241
1772708634979606300,4.778606201171875,3.7173406072199344,7.645998737043142,-3.333474853129685
1772708634989631500,4.788631591796875,5.187859734505414,7.102838785314559,-2.2298272366441787
1772708634999656400,4.798656494140625,6.32981209333539,6.785014360147715,-1.306455231027305
1772708635009682400,4.808682373046875,6.715934394180774,6.633186552867293,-0.5968360123366118
1772708635019707400,4.818707275390625,6.236892402097583,6.690396048298478,0.0233499689925462
1772708635029732400,4.828732421875,5.266150596410036,6.869671834474802,0.4499242898767814
1772708635039757600,4.838757568359375,4.136742661854624,7.087826509621739,0.6787551477409899
1772708635049783600,4.848783447265625,3.23707287273407,7.03459760825932,0.7568718221224844
1772708635059808500,4.85880859375,2.7822189809679982,6.715254010701179,0.27951906176786867
1772708635069833500,4.86883349609375,2.6223276942193507,6.521547548112273,-0.41742553039733316
1772708635079858400,4.8788583984375,2.691007847213745,6.312383404150605,-0.8560629948452114
1772708635089883600,4.888883544921875,3.1525112599968907,6.0581117059618235,-0.8884354245312511
1772708635099909600,4.89890966796875,4.036734473660588,5.882224393180012,-0.6387061920776963
1772708635109934600,4.9089345703125,5.03644869133234,5.938267767441272,-0.1766163029097952
1772708635119959600,4.91895947265625,5.734661257606745,5.9785214518964285,0.4209676965162158
1772708635129984500,4.928984619140625,6.023982057344913,5.7024950180172915,0.9662883334100246
1772708635140009500,4.939009521484375,5.957011046355962,5.43263178294301,1.227923838365078
1772708635150035700,4.94903564453125,5.548289375689626,5.3279591100692745,1.3813539662756025
1772708635160060400,4.959060302734375,4.925587100690603,5.240110730746388,1.487276054688543
1772708635170085400,4.96908544921875,4.420415226572752,5.0368426590859885,0.7124574377913028
1772708635180110300,4.9791103515625,4.018042048150301,5.334633181005716,-0.18770490235285833
1772708635190136300,4.98913623046875,3.5275422579854725,5.89116231739521,-0.6877090001776814
1772708635200161500,4.99916162109375,3.23108503049612,6.1075371233880515,-0.8442321256674825
1772708635210186500,5.0091865234375,3.203089354589581,6.235789409291744,-0.7785626257311552
1772708635220211500,5.01921142578125,3.257107360503077,6.302599676761031,-0.5283145935678855
1772708635230236400,5.029236328125,3.5596021145910024,6.19299480818212,0.007730932178767398
1772708635240262400,5.039262451171875,3.906308935371041,6.080769527971744,0.7894760147377848
1772708635250287600,5.04928759765625,3.923146672925353,5.537110394549369,1.621311161777377
1772708635260312600,5.0593125,3.4657600478112696,4.060768260198832,1.984060478080809
1772708635270337500,5.069337646484375,1.9924311238020658,2.0409791738718748,2.422336452272534
1772708635280363500,5.079363525390625,-0.18462766859829424,-0.7583575306355953,2.890093372492492
1772708635290388500,5.089388427734375,-1.6564415118694304,-4.045805668866634,2.3929396773964164
1772708635300413700,5.09941357421875,-1.2161077283650636,-6.931296223738789,0.7088301872048527
1772708635310438400,5.1094384765625,1.1274173452600835,-8.950349397006631,-2.01701289961189
1772708635320463400,5.11946337890625,2.980705079048872,-11.068811623531579,-4.180923748886585
1772708635330489300,5.1294892578125,2.004540079268813,-13.078182776218652,-3.3325837495088577
1772708635340514300,5.139514404296875,-1.716105999237299,-13.082628649711609,0.8347456276588141
1772708635350539500,5.14953955078125,-5.86432457935214,-12.358413042652606,4.552491162417828
1772708635360564500,5.159564453125,-8.697576997464894,-12.793777805572747,6.010207799014449
1772708635370590500,5.169590576171875,-9.44504137816429,-14.165506888282298,5.067810044279694
1772708635380615400,5.179615478515625,-8.637153800684214,-15.028582684499025,2.5463512467369434
1772708635390640400,5.189640380859375,-8.044090877145528,-15.222974791264534,-0.007715908139571547
1772708635400665600,5.19966552734375,-9.193082633092999,-15.64672861136794,-1.1721236252099274
1772708635410690600,5.209690673828125,-11.440908906155824,-15.686276193380355,-0.8936990441478788
1772708635420716500,5.219716552734375,-13.294868547856806,-14.107393722009657,-0.7059761860132217
1772708635430741500,5.229741455078125,-13.457496566092967,-11.081482889056206,-1.4730267261922358
1772708635440766500,5.239766357421875,-12.640009970140456,-7.917352502936124,-2.097658507949114
1772708635450791700,5.249791748046875,-11.253258674865961,-5.708679259610176,-1.8214523335888981
1772708635460816400,5.25981640625,-9.340802420532702,-4.063397439658641,-0.901328516113013
1772708635470842600,5.269842529296875,-7.62326726527512,-2.933191632723808,-0.26263975009415297
1772708635480867300,5.279867431640625,-6.168312202346325,-2.0986171238481997,-0.41290103871021416
1772708635490892300,5.289892333984375,-4.344216953033208,-1.517195538264513,-1.1465232469420878
1772708635500917500,5.29991748046875,-2.370098315513134,-0.7328682845920323,-1.7832012211278079
1772708635510943500,5.309943603515625,-0.5482458766907453,0.4502782544136047,-1.7142030882254242
1772708635522847500,5.321847412109375,0.5862707791805267,1.8113018187135457,-1.0509965880762786
1772708635532872400,5.33187255859375,1.0455272898197174,3.360300023952126,-0.4351818441012874
1772708635542897200,5.341897216796875,1.3728203850775957,4.924618547919392,0.09900639074034988
1772708635552922400,5.35192236328125,1.7486235364824532,5.955416470640897,0.6700817927461117
1772708635562948400,5.3619482421875,2.469631871932745,6.29368571794331,1.1342731294389814
1772708635572973300,5.371973388671875,3.588499123251438,6.512570460930466,1.0287075263135135
1772708635582998300,5.381998291015625,4.740830252754688,6.872420256400108,0.7176138707064091
1772708635593023200,5.392023193359375,5.794613914266228,6.711551649051905,0.5576239093562588
1772708635603049200,5.40204931640625,6.701959060320258,6.05474135274589,0.51313426783178
1772708635613074200,5.41207421875,7.289826753303408,5.584809134313464,0.5196825204314663
1772708635623099400,5.422099365234375,7.3642065792441365,5.5253603355228895,0.6873904357478022
1772708635633124400,5.432124267578125,6.9700763285100455,5.737264718103408,0.8318979100774974
1772708635643149000,5.442149169921875,6.142773271942138,6.155798757731914,0.958147843182832
1772708635653175300,5.45217529296875,5.468614950472116,6.495771886342763,1.0792869360804558
1772708635663200300,5.4622001953125,5.1240661845088,6.811250040644407,1.0395109521396457
1772708635673225200,5.47222509765625,5.201266328567266,7.1584198027610775,0.8790049675587565
1772708635683250200,5.482250244140625,5.653761674508452,7.263876904010773,0.7499800167821348
1772708635693275100,5.492275146484375,6.164837804234027,7.15742553102672,0.7829138066779822
1772708635703301000,5.502301025390625,6.35571693444252,7.284874099332094,0.8864980267278849
1772708635713326300,5.512326416015625,6.035159869441389,7.722828878745436,1.0119324787318706
1772708635723351300,5.522351318359375,5.394550181829929,7.9139377260565755,1.3465148542150853
1772708635733376300,5.532376220703125,4.837698973879218,7.464770647755265,1.3561404684334992
1772708635743402200,5.54240234375,4.4275265198826785,6.783223969599605,0.7543529711693525
1772708635753427200,5.55242724609375,4.195859452211857,6.249862358307838,-0.014341427226550876
1772708635763452400,5.562452392578125,3.780920806726813,5.922551142871379,-0.4378297647941857
1772708635773477400,5.572477294921875,3.2846699056893587,5.817043772739171,-0.48244310576356947
1772708635783502300,5.58250244140625,2.9032413156181573,6.007748715424538,-0.3216434719983488
1772708635793528300,5.5925283203125,2.5131366671383377,5.9726394081205125,-0.09713741853069513
1772708635803553300,5.60255322265625,2.1136849291205406,5.667786692729592,0.26267533286418765
1772708635813578200,5.612578125,1.9085095625340938,5.457545274925232,0.5912504672892391
1772708635823603200,5.622603271484375,1.6837655721247196,5.328492778554558,0.6876897109553217
1772708635843028200,5.6420283203125,1.0212462505221367,2.9502327838957307,0.25988051451388744
1772708635853053400,5.652053466796875,-0.11088380247354507,1.1448866587162017,0.3393225557476282
1772708635863078400,5.662078369140625,-1.4717495458632708,-0.3086263887107372,0.4707282641809433
1772708635873104400,5.6721044921875,-2.950163810312748,-1.8755869516193866,0.6686679804254323
1772708635883129300,5.68212939453125,-4.1085564318120475,-4.414665869265795,1.2275899302355944
1772708635893154000,5.692154052734375,-4.71223602643311,-8.338134613752365,2.3344266981512307
1772708635903179300,5.70217919921875,-3.5038773047596212,-11.54595216590762,3.1637615528076886
1772708635913205200,5.712205322265625,-1.059045527562499,-13.275768710589409,1.9552724827527999
1772708635923230200,5.722230224609375,-1.1466799718737601,-13.225640113329886,2.0157224214099347
1772708635933255200,5.732255126953125,-1.190429681751132,-13.200522038686275,2.0597037480860947
1772708635943280000,5.742280029296875,-1.225066403107345,-13.180730127501487,2.1005453154318032
1772708635953305300,5.752305419921875,-1.2868173413604498,-13.147475508153438,2.143913770906627
1772708635963331300,5.762331298828125,-1.3759651128441095,-13.101562482762336,2.184415146512538
1772708635973356300,5.772356201171875,-1.461732009717822,-13.058487895667552,2.228501687128842
1772708635983381200,5.78238134765625,-1.5093360569357872,-13.034222053939104,2.2900449739806352
1772708635993406200,5.79240625,-1.5122639270812273,-13.031570662647486,2.3592487124577164
1772708636003432200,5.80243212890625,-1.475428526636958,-13.048442302471399,2.4155242880396544
1772708636013457400,5.81245751953125,-1.4053969590336084,-13.0820113945961,2.4544006927922366
1772708636023482400,5.822482421875,-2.0171593223452566,-9.930012175774573,-0.3804928070584312
1772708636033507300,5.83250732421875,-0.13739888443350792,-7.10684802095592,-0.7429481453839689
1772708636043532000,5.842531982421875,1.1887953585475683,-3.0828654768407344,-1.065267543882504
1772708636053558300,5.852558349609375,1.376917006741464,-0.24191958161592483,0.22858397043105214
1772708636063583200,5.862583251953125,0.295771291051805,0.9566057283073663,1.3927534582987426
1772708636073608200,5.872608154296875,-1.499791398999095,2.272004436507821,0.8280370699308812
1772708636083633200,5.882633056640625,-2.6901649666488168,3.5904321371406316,-0.8298938037134707
1772708636093659100,5.8926591796875,-2.252615845426917,4.398807205876707,-2.2881518537104126
1772708636103684000,5.90268408203125,-0.14005641320496798,4.810314123347402,-2.809553270356357
1772708636113709300,5.912709228515625,2.3571631383553147,5.38373068165183,-2.450231590414047
1772708636123734300,5.922734375,3.8489515559017655,6.497196950709819,-1.6007548420913515
1772708636133759200,5.93275927734375,4.71273082421273,7.489317059990763,-0.633002573608607
1772708636143785200,5.94278515625,5.488102910274267,7.488845350825786,0.08364588613174855
1772708636153810200,5.95281005859375,5.971444645377993,7.797573446345329,-0.2306150743998587
1772708636163835400,5.96283544921875,5.791126072150469,8.686682678484916,-0.4790194149252027
1772708636173860400,5.9728603515625,4.808909517246485,8.513328683573008,0.043378246216475964
1772708636183886300,5.98288623046875,3.61365460729599,7.599728568777442,0.894560337152332
1772708636193911300,5.992911376953125,2.696941913437843,6.809720931380987,1.160664073562622
1772708636203936300,6.002936279296875,2.029474614039063,6.581775514581799,0.9028684390313922
1772708636213961500,6.01296142578125,2.139549438217282,6.424208286866545,0.6606464404027909
1772708636223986200,6.022986083984375,2.438743397194147,6.056478551802039,0.3282036342315376
1772708636234012400,6.033012451171875,2.8063924682378767,5.736216085833311,0.2195243377986364
1772708636244037000,6.043037109375,3.3342730177700517,5.452380439507961,0.15562615838376803
1772708636254062000,6.05306201171875,3.675539108800888,5.4025218913614745,-0.0497429041438736
1772708636264087300,6.06308740234375,3.742663849046826,5.563100575852394,-0.31788400986697524
1772708636274112300,6.0731123046875,3.758388072401285,5.776626422154903,-0.6310366072978824
1772708636284138200,6.08313818359375,3.7221050451427695,5.989537351429462,-0.8660073196239769
1772708636294163200,6.0931630859375,3.6600615536838768,6.299045199149846,-0.8908977960567921
1772708636304188200,6.103188232421875,3.639159635430574,6.663744188216328,-0.4981378472952172
1772708636314213400,6.11321337890625,3.6081326290041207,6.886817615064978,0.20178048171745613
1772708636324239400,6.1232392578125,3.508376369744539,6.900005597940087,0.8563164581496268
1772708636334264300,6.133264404296875,3.2372371233850714,6.770275640699267,1.2434639373242855
1772708636344289300,6.143289306640625,3.2219735032796857,6.790018452045321,1.3815537266314029
1772708636354314200,6.153314208984375,2.942220157831907,6.810539846548438,1.3414594705216585
1772708636364339500,6.16333935546875,2.482220719870925,6.540192042827606,1.0984221369221805
1772708636374365400,6.173365478515625,2.389787350845337,6.65264411753118,0.6211053611963987
1772708636384390400,6.183390380859375,2.276435112431645,6.661867288428545,0.08346494007427245
1772708636394415000,6.1934150390625,2.207058793866634,6.177126207920908,-0.210486661269702
1772708636404440000,6.203440185546875,1.9982564689546822,5.617887812572717,-0.15270356720164419
1772708636414466000,6.213466064453125,1.3866028267145156,4.763526653209328,-0.07750431463681161
1772708636424491300,6.2234912109375,0.6723445500463247,3.518279924121499,0.21747871211413292
1772708636434516200,6.23351611328125,0.14131108944118023,2.141727951300144,0.8621459680207073
1772708636444541200,6.243541259765625,-0.33619887076914307,0.6597919424653053,1.1573854172181337
1772708636454566100,6.253566162109375,-1.0880898357391358,-0.4566431132704019,0.9393751920431852
1772708636464592100,6.263592041015625,-2.4594173519104716,-0.7433481775522232,0.5950866479186341
1772708636474617300,6.273617431640625,-3.791249308517575,-0.5863917752116918,0.4715980692854151
1772708636484642300,6.283642333984375,-3.544434356075525,-1.2094365800380706,0.13417904560416935
1772708636494667300,6.293667236328125,-1.9752178309336303,-2.025082516559958,-0.8055139802165329
1772708636504693200,6.303693359375,-0.6133239135399461,-3.2657378262042998,-1.2587788492254912
1772708636514718200,6.31371826171875,-1.1066133344233036,-5.567258280053735,0.12607832113178447
1772708636524743400,6.323743408203125,-2.4011919574350116,-7.5796929119646546,1.3384788472756743
1772708636534769000,6.333768798828125,-1.7147700744584202,-7.9092808401614425,0.42444355593323707
1772708636544793900,6.3437939453125,0.27934622595161196,-7.517716056001186,-1.3841886051796375
1772708636554819800,6.35381982421875,1.0974380943208932,-8.412787995937466,-2.326187423724681
1772708636564844800,6.3638447265625,0.4938078917995095,-9.836091198539734,-1.7652615136809646
1772708636574869800,6.373869873046875,-1.106935405984521,-9.748765381786226,0.05237465915326029
1772708636584895000,6.38389501953125,-2.696423442521691,-8.66962866783142,1.5629995503231882
1772708636594921000,6.3939208984375,-4.023503236165642,-7.522358913370966,2.2321957193411883
1772708636604946000,6.40394580078125,-4.4371395668804645,-6.603989099955559,2.139595907707512
1772708636614971000,6.413970947265625,-4.4100271035492415,-5.796380339416861,1.2566367226302624
1772708636624995800,6.423995849609375,-4.642079371145368,-4.950037651336193,0.22733305705450474
1772708636635021000,6.43402099609375,-4.994703307014704,-3.954176017439365,-0.40478703463114796
1772708636645047000,6.444047119140625,-5.2828913033306595,-3.0691812348812815,-0.7014503791518509
1772708636655072000,6.454072021484375,-5.16067771306932,-3.2695132530897855,-0.5470816917495802
1772708636665097000,6.464096923828125,-4.18514808858335,-3.3457214635014534,-0.6171585963319987
1772708636675122000,6.474121826171875,-2.642693021377921,-3.246436913406849,-0.5416506431441753
1772708636685148000,6.48414794921875,-0.7731167083501815,-3.7577293162316083,-0.21660054104011506
1772708636695173000,6.494173095703125,0.5809124670177698,-3.12621654278934,0.16113167873118073
1772708636705197800,6.50419775390625,-0.33571254855692384,-2.3073650882244108,0.8974804623827338
1772708636715222800,6.514222900390625,-0.8774936131477356,-1.7861328906655312,0.669898910459876
1772708636725247700,6.524247802734375,-1.0283610509634018,-0.7030015541166067,0.11711431262725963
1772708636735273700,6.534273681640625,-1.273442896002531,-0.16871055302023888,-0.40242465288136153
1772708636745299000,6.544298828125,-1.3361977506011724,0.48546939478218554,-1.064238200834766
1772708636755324000,6.554323974609375,-1.2078098556190728,1.3580933560669421,-1.4998768853254616
