time,seconds_elapsed,z,y,x
1772708630250203000,0.049202880859375,0.6042512655258179,-0.4051046073436737,0.19945238530635834
1772708630260228900,0.059228759765625,0.621507465839386,-0.6327524185180664,0.1736098676919937
1772708630270253800,0.06925390625,0.6565709114074707,-0.8595368266105652,0.08366160839796066
1772708630280278800,0.07927880859375,0.6390113830566406,-0.9024507403373718,0.0009741843095980585
1772708630290303700,0.0893037109375,0.6027622818946838,-0.6897624731063843,-0.04003476724028587
1772708630300329700,0.099329833984375,0.5564768314361572,-0.358273983001709,-0.04561222717165947
1772708630310354700,0.109354736328125,0.5064994096755981,-0.13054175674915314,-0.03500485420227051
1772708630320379600,0.119379638671875,0.4529624283313751,-0.026522153988480568,-0.01016608439385891
1772708630330404900,0.12940478515625,0.39916151762008667,-0.006584399379789829,0.039920784533023834
1772708630340430800,0.139430908203125,0.30857300758361816,-0.04001159965991974,0.10105018317699432
1772708630350455800,0.149455810546875,0.14233849942684174,-0.08413884788751602,0.15239326655864716
1772708630360480800,0.159480712890625,-0.10335221886634827,-0.10263955593109131,0.18679624795913696
1772708630370505700,0.169505615234375,-0.37935131788253784,-0.05336388945579529,0.17865575850009918
1772708630380531700,0.17953173828125,-0.624194860458374,0.04891933873295784,0.13875842094421387
1772708630390557000,0.189556884765625,-0.8873303532600403,0.17918413877487183,0.04575657099485397
1772708630400582000,0.199581787109375,-1.1675647497177124,0.3198357820510864,-0.0840272605419159
1772708630410606800,0.20960693359375,-1.4306013584136963,0.37796327471733093,-0.21883967518806458
1772708630420632800,0.2196328125,-1.5577590465545654,0.2946404218673706,-0.32322973012924194
1772708630430657800,0.22965771484375,-1.5297337770462036,0.09727275371551514,-0.38827475905418396
1772708630440683000,0.23968310546875,-1.512641429901123,-0.2529483735561371,-0.5075684189796448
1772708630450707700,0.249707763671875,-1.5485235452651978,-0.8110244274139404,-0.7229864597320557
1772708630460734000,0.25973388671875,-1.673362135887146,-1.1194334030151367,-0.8934657573699951
1772708630470758700,0.269758544921875,-1.7756359577178955,-0.5909698009490967,-1.049843668937683
1772708630480783600,0.27978369140625,-1.5418938398361206,-0.43492695689201355,-1.1106106042861938
1772708630490808800,0.289808837890625,-1.0873359441757202,-0.22999298572540283,-1.1431621313095093
1772708630500834800,0.299834716796875,-0.6880521774291992,-0.0416443832218647,-1.1894595623016357
1772708630510859800,0.30985986328125,-0.6071445345878601,-0.12861017882823944,-1.232606053352356
1772708630520884700,0.319884765625,-0.6927561163902283,-0.26764848828315735,-1.2400882244110107
1772708630530909400,0.329909423828125,-0.785365104675293,-0.5196444988250732,-1.159988284111023
1772708630540935400,0.339935302734375,-0.9540066123008728,-0.7722567915916443,-1.0020228624343872
1772708630550960600,0.349960693359375,-1.164933443069458,-0.767949104309082,-0.7884925007820129
1772708630560985600,0.359985595703125,-1.3932228088378906,-0.5370405316352844,-0.530194878578186
1772708630571010600,0.370010498046875,-1.5617759227752686,-0.16933442652225494,-0.24435967206954956
1772708630581036500,0.38003662109375,-1.3856014013290405,0.2736099660396576,0.009793242439627647
1772708630591061500,0.3900615234375,-0.5636617541313171,0.5141192674636841,0.1568916141986847
1772708630601086700,0.400086669921875,0.25571221113204956,0.18433734774589539,0.15130163729190826
1772708630611111700,0.410111572265625,0.9140791893005371,-0.7546657919883728,0.1146370992064476
1772708630621137700,0.4201376953125,1.2646901607513428,-1.7857719659805298,0.12686634063720703
1772708630631162600,0.43016259765625,1.3619208335876465,-2.4426891803741455,0.2730232775211334
1772708630641187300,0.440187255859375,1.0313451290130615,-2.4667129516601562,0.38322702050209045
1772708630651212500,0.450212646484375,0.08477853983640671,-1.9473310708999634,0.17544879019260406
1772708630661238500,0.460238525390625,-0.4824103116989136,-1.5353418588638306,0.2202380895614624
1772708630671263500,0.470263427734375,-0.3598756194114685,-1.4037367105484009,0.587506115436554
1772708630681288400,0.480288330078125,0.14581233263015747,-1.4183615446090698,1.0744686126708984
1772708630691313400,0.4903134765625,0.7310198545455933,-1.3499741554260254,1.4778320789337158
1772708630701339400,0.50033935546875,1.157591700553894,-0.48994147777557373,1.5411667823791504
1772708630711364600,0.510364501953125,1.4763438701629639,0.5939373970031738,1.514137864112854
1772708630721389600,0.5203896484375,1.3931916952133179,1.8891910314559937,1.4876726865768433
1772708630731414500,0.53041455078125,0.943312406539917,2.508840560913086,1.2626211643218994
1772708630741440500,0.5404404296875,0.5033169388771057,1.588050127029419,0.7471485137939453
1772708630751465500,0.550465576171875,0.24781379103660583,0.6704614758491516,0.5233782529830933
1772708630761490700,0.56049072265625,0.2867467999458313,0.29024434089660645,0.6221773028373718
1772708630771515600,0.570515625,0.3758852183818817,0.0158921480178833,0.7820769548416138
1772708630781541600,0.580541748046875,0.46757572889328003,-0.3322943150997162,0.9422402381896973
1772708630791566600,0.590566650390625,0.6352611184120178,-0.5486223697662354,1.1280630826950073
1772708630801591600,0.600591552734375,0.8688632249832153,-0.7870261669158936,1.2705763578414917
1772708630811616800,0.61061669921875,0.9808840155601501,-1.1412904262542725,1.2208728790283203
1772708630821642800,0.620642822265625,0.8489917516708374,-1.3218884468078613,0.985899806022644
1772708630831667700,0.630667724609375,0.5123277306556702,-1.1540329456329346,0.6490022540092468
1772708630841692400,0.6406923828125,0.04243693873286247,-0.9309686422348022,0.24665425717830658
1772708630851717400,0.65071728515625,-0.5328066349029541,-0.9286128282546997,-0.17896895110607147
1772708630861742600,0.66074267578125,-1.0805916786193848,-1.156912088394165,-0.5643251538276672
1772708630871768600,0.6707685546875,-1.456028938293457,-1.5424283742904663,-0.8928498029708862
1772708630881793500,0.68079345703125,-1.5751478672027588,-1.9207096099853516,-1.1485164165496826
1772708630891818500,0.690818603515625,-1.4624816179275513,-2.2212986946105957,-1.3797171115875244
1772708630901844500,0.700844482421875,-1.135041356086731,-2.1597533226013184,-1.551584005355835
1772708630911869400,0.710869384765625,-0.6257514953613281,-1.3577903509140015,-1.7968143224716187
1772708630921894700,0.720894775390625,-0.2348303496837616,-1.0725159645080566,-1.9331153631210327
1772708630931919600,0.730919677734375,0.08393537998199463,-0.9274839162826538,-1.978986144065857
1772708630941944600,0.740944580078125,0.2876291275024414,-0.8141339421272278,-2.0045583248138428
1772708630951970600,0.750970458984375,0.45002281665802,-0.5815374255180359,-1.9675441980361938
1772708630961995500,0.76099560546875,0.5602116584777832,-0.28777292370796204,-1.8908782005310059
1772708630972020700,0.771020751953125,0.5796028971672058,-0.048778459429740906,-1.7593870162963867
1772708630982045700,0.781045654296875,0.5106603503227234,0.04500209540128708,-1.5626193284988403
1772708630992071700,0.79107177734375,0.40139535069465637,0.0570925809442997,-1.3414413928985596
1772708631002096600,0.8010966796875,0.31767410039901733,0.18516986072063446,-1.0984407663345337
1772708631012121300,0.811121337890625,0.284786194562912,0.39043858647346497,-0.8272500038146973
1772708631022146600,0.821146484375,0.27727368474006653,0.5299243330955505,-0.49733972549438477
1772708631032172500,0.831172607421875,0.27943190932273865,0.556864857673645,-0.09252380579710007
1772708631042197500,0.841197509765625,0.2888014316558838,0.42540669441223145,0.2788265645503998
1772708631052222500,0.851222412109375,0.2703859508037567,0.2465360164642334,0.5411325097084045
1772708631062247400,0.861247314453125,0.2175792008638382,0.06640805304050446,0.7181559801101685
1772708631072273400,0.8712734375,0.16050845384597778,-0.10228296369314194,0.8234938979148865
1772708631082298600,0.881298583984375,0.11279259622097015,-0.2591780424118042,0.8425397276878357
1772708631092323600,0.891323486328125,0.0999164804816246,-0.3901805281639099,0.7878658175468445
1772708631102348500,0.9013486328125,0.13102619349956512,-0.389757364988327,0.7222095727920532
1772708631112374500,0.91137451171875,0.22233639657497406,-0.2731172740459442,0.7081845998764038
1772708631122399500,0.9213994140625,0.3221423625946045,-0.22725392878055573,0.7418195009231567
1772708631132424700,0.9314248046875,0.382782518863678,-0.3495931625366211,0.7693097591400146
1772708631142449700,0.94144970703125,0.37827247381210327,-0.7844849824905396,0.6885983943939209
1772708631152475600,0.9514755859375,0.41357240080833435,-1.4326874017715454,0.519667387008667
1772708631162500600,0.96150048828125,0.5167792439460754,-1.8964686393737793,0.33196115493774414
1772708631172525600,0.971525634765625,0.6385107040405273,-2.0024518966674805,0.1744317263364792
1772708631182550500,0.981550537109375,0.7344247102737427,-1.5349619388580322,0.08845236897468567
1772708631192576800,0.99157666015625,0.7705334424972534,-0.5717013478279114,0.08929392695426941
1772708631202601500,1.0016015625,0.6236952543258667,0.5041422247886658,0.1898125410079956
1772708631212626400,1.01162646484375,0.25817349553108215,1.156994104385376,0.18912145495414734
1772708631222651400,1.0216513671875,-0.1926000714302063,1.198689579963684,0.007697867229580879
1772708631232677400,1.031677490234375,-0.5894374251365662,0.7422640323638916,-0.19235053658485413
1772708631242702600,1.04170263671875,-0.7178292274475098,-0.008665925823152065,-0.20013095438480377
1772708631252727600,1.0517275390625,-0.5051119327545166,-0.6871885061264038,0.12520799040794373
1772708631262752500,1.06175244140625,-0.07635389268398285,-1.0565122365951538,0.7516157031059265
1772708631272778500,1.071778564453125,0.3734199106693268,-1.2236157655715942,1.3940253257751465
1772708631282803500,1.081803466796875,0.7045326232910156,-1.1123613119125366,1.7230135202407837
1772708631292828700,1.09182861328125,0.9078071713447571,-0.6375125646591187,1.665534496307373
1772708631302853600,1.101853515625,1.186453938484192,-0.2152574509382248,1.3164221048355103
1772708631312878600,1.111878662109375,1.5115212202072144,-0.18600767850875854,0.7679440379142761
1772708631322904600,1.121904541015625,1.540371298789978,-0.33415481448173523,0.1447257548570633
1772708631332929500,1.131929443359375,1.118749737739563,-0.45244869589805603,-0.48027554154396057
1772708631342954800,1.141954833984375,0.42102766036987305,-0.5564296841621399,-1.179174780845642
1772708631352979700,1.151979736328125,-0.3302402198314667,-0.6607182621955872,-1.9700901508331299
1772708631363005700,1.162005615234375,-0.9560287594795227,-0.5262390375137329,-2.792083740234375
1772708631373030400,1.172030517578125,-1.2937008142471313,-0.029022330418229103,-3.5634233951568604
1772708631383055400,1.182055419921875,-1.273787021636963,0.6886500716209412,-4.096621513366699
1772708631393080600,1.19208056640625,-1.0347739458084106,1.4004461765289307,-4.311291217803955
1772708631403106600,1.2021064453125,-0.7143354415893555,2.0386712551116943,-4.161239147186279
1772708631413131500,1.212131591796875,-0.3153132200241089,2.5921173095703125,-3.5626933574676514
1772708631423156500,1.222156494140625,0.08844411373138428,2.6886401176452637,-2.6500449180603027
1772708631433181400,1.232181396484375,0.45953404903411865,2.180501699447632,-1.6236640214920044
1772708631443207400,1.24220751953125,0.7618816494941711,1.3689450025558472,-0.5999715924263
1772708631453232600,1.252232666015625,0.9388061165809631,0.5526586771011353,0.30479851365089417
1772708631463257600,1.262257568359375,0.9798606038093567,-0.11791758239269257,1.009286642074585
1772708631473282600,1.272282470703125,0.8640085458755493,-0.5469802618026733,1.45308518409729
1772708631483308500,1.28230859375,0.6120151877403259,-0.7087084650993347,1.607975959777832
1772708631493333500,1.29233349609375,0.32051995396614075,-0.5473789572715759,1.5007256269454956
1772708631503358700,1.302358642578125,0.12226386368274689,-0.16237452626228333,1.242759108543396
1772708631513383700,1.3123837890625,0.025721341371536255,0.2996218800544739,0.9881728291511536
1772708631523409700,1.32240966796875,-0.004347078036516905,0.7420275211334229,0.7874549031257629
1772708631533435000,1.332434814453125,0.01139806304126978,1.1460444927215576,0.6164759993553162
1772708631543459800,1.3424599609375,0.05759059265255928,1.4147942066192627,0.4752192497253418
1772708631553484800,1.35248486328125,0.09672920405864716,1.4077911376953125,0.3830523192882538
1772708631563510800,1.3625107421875,0.12372886389493942,1.2012171745300293,0.3286719024181366
1772708631573536000,1.372535888671875,0.12648789584636688,0.9689202904701233,0.2832820415496826
1772708631583561000,1.38256103515625,0.0529356524348259,0.7873049974441528,0.2575894594192505
1772708631593586000,1.3925859375,-0.09632547199726105,0.6443366408348083,0.2696205675601959
1772708631603611000,1.40261083984375,-0.24466700851917267,0.6133848428726196,0.2926616966724396
1772708631613636900,1.412636962890625,-0.362189382314682,0.696371853351593,0.3061961531639099
1772708631623662000,1.422662109375,-0.42638060450553894,0.8141816258430481,0.3212970793247223
1772708631633686800,1.432686767578125,-0.404703289270401,0.9473100900650024,0.34665942192077637
1772708631643711700,1.442711669921875,-0.3188434839248657,1.0864956378936768,0.3814016878604889
1772708631653737700,1.45273779296875,-0.27651068568229675,1.144814133644104,0.41996797919273376
1772708631663762700,1.4627626953125,-0.3290148973464966,1.0641562938690186,0.4659826159477234
1772708631673788000,1.472787841796875,-0.4129422903060913,0.8697457909584045,0.5365356206893921
1772708631683812900,1.482812744140625,-0.482115775346756,0.6210001707077026,0.5758745074272156
1772708631693838800,1.4928388671875,-0.542366087436676,0.42762988805770874,0.5610473155975342
1772708631703863800,1.50286376953125,-0.5488998889923096,0.4631407558917999,0.4762251377105713
1772708631713888800,1.512888671875,-0.4687903821468353,0.7187482714653015,0.3307180106639862
1772708631723914000,1.5229140625,-0.34552252292633057,1.0530059337615967,0.20237654447555542
1772708631733940000,1.53293994140625,-0.21125711500644684,1.2620227336883545,0.14177098870277405
1772708631743965000,1.54296484375,-0.04009202495217323,1.332155466079712,0.18974196910858154
1772708631753990000,1.552989990234375,0.16589921712875366,1.2616006135940552,0.40049469470977783
1772708631764014800,1.563014892578125,0.40192586183547974,1.0013847351074219,0.7704367637634277
1772708631774040800,1.573040771484375,0.46778663992881775,0.5481184720993042,1.2165013551712036
1772708631784066000,1.583066162109375,0.14513668417930603,0.18666867911815643,1.5170944929122925
1772708631794091000,1.593091064453125,-0.6452205181121826,0.1316685527563095,1.4936105012893677
1772708631804115700,1.60311572265625,-1.327661395072937,0.5002985000610352,1.43695068359375
1772708631814142000,1.613141845703125,-1.37074875831604,1.0927938222885132,1.4084798097610474
1772708631824166700,1.623166748046875,-0.9757246971130371,1.3284353017807007,1.153847575187683
1772708631834192000,1.63319189453125,-0.48336294293403625,1.0610449314117432,0.6670083999633789
1772708631844216800,1.643216796875,-0.20518110692501068,0.5881791114807129,-0.021039504557847977
1772708631854241800,1.65324169921875,-0.07139668613672256,0.31498032808303833,-0.8187433481216431
1772708631864267800,1.663267822265625,0.1007457822561264,0.06431800127029419,-1.5045759677886963
1772708631874292700,1.673292724609375,0.2579266130924225,-0.4275071322917938,-1.9024381637573242
1772708631884318000,1.68331787109375,0.42437922954559326,-0.9286775588989258,-2.045651435852051
1772708631894343000,1.693343017578125,0.6136210560798645,-1.0317682027816772,-2.070549964904785
1772708631904369000,1.703368896484375,0.7367405891418457,-0.7545571327209473,-1.958430290222168
1772708631914393900,1.713393798828125,0.7953514456748962,-0.42310652136802673,-1.6504114866256714
1772708631924418800,1.723418701171875,0.7506892085075378,-0.46027040481567383,-1.2741118669509888
1772708631934444000,1.733444091796875,0.6861951351165771,-1.0295308828353882,-0.9103283882141113
1772708631944470000,1.743469970703125,0.6851288080215454,-1.7289412021636963,-0.5749839544296265
1772708631954495000,1.753494873046875,0.6465106010437012,-2.113400459289551,-0.2585793435573578
1772708631964520000,1.76352001953125,0.5220256447792053,-2.0935308933258057,0.03304663300514221
1772708631974544600,1.773544677734375,0.40779760479927063,-1.6203747987747192,0.25825923681259155
1772708631984571000,1.78357080078125,0.30977198481559753,-0.9371368288993835,0.4193384051322937
1772708631994595800,1.793595947265625,0.3118084967136383,-0.2911679148674011,0.5994732975959778
1772708632004620800,1.803620849609375,0.4224255383014679,0.12947224080562592,0.8307624459266663
1772708632014645800,1.813645751953125,0.5016298294067383,0.28660911321640015,1.0415040254592896
1772708632024671700,1.823671630859375,0.49324727058410645,0.2054532915353775,1.2121113538742065
1772708632034696700,1.83369677734375,0.33275505900382996,-0.13746970891952515,1.3253239393234253
1772708632044722000,1.843721923828125,0.08084158599376678,-0.5150673389434814,1.3349648714065552
1772708632054747000,1.853746826171875,-0.12741442024707794,-0.6854861974716187,1.2326105833053589
1772708632064772900,1.86377294921875,-0.2039312869310379,-0.6315787434577942,1.0210623741149902
1772708632074797800,1.8737978515625,-0.11236036568880081,-0.4084245264530182,0.8466148972511292
1772708632084822800,1.88382275390625,0.13704600930213928,-0.16879567503929138,0.7707664966583252
1772708632094848000,1.893847900390625,0.3976278007030487,-0.054787348955869675,0.7526862621307373
1772708632104873000,1.903873046875,0.5461480021476746,-0.03516517952084541,0.8313611149787903
1772708632114899000,1.91389892578125,0.589667797088623,-0.10803964734077454,1.0022684335708618
1772708632124924000,1.923923828125,0.578154444694519,-0.24563559889793396,1.1993426084518433
1772708632134948900,1.933948974609375,0.5285932421684265,-0.32745668292045593,1.3901580572128296
1772708632144974000,1.94397412109375,0.4668406844139099,-0.27861031889915466,1.4673261642456055
1772708632155000000,1.954,0.4183695614337921,-0.09637154638767242,1.4816560745239258
1772708632165024800,1.964024658203125,0.40366464853286743,0.14820198714733124,1.4533562660217285
1772708632175049700,1.9740498046875,0.45128488540649414,0.29869216680526733,1.4070873260498047
1772708632185074700,1.98407470703125,0.5248866677284241,0.30296972393989563,1.3370966911315918
1772708632195100700,1.9941005859375,0.6499039530754089,0.2319280356168747,1.2508689165115356
1772708632205126000,2.0041259765625,0.744414746761322,0.25789278745651245,1.1800445318222046
1772708632215150800,2.01415087890625,0.7105726599693298,0.2628452181816101,1.1638528108596802
1772708632225175800,2.02417578125,0.5944439172744751,0.09514489024877548,1.257185697555542
1772708632235201800,2.034201904296875,0.44695165753364563,-0.2475070059299469,1.3602465391159058
1772708632245226800,2.044226806640625,0.2658308744430542,-0.5445879697799683,1.425989031791687
1772708632255252000,2.054251953125,0.059961337596178055,-0.5773951411247253,1.3978735208511353
1772708632265277000,2.06427685546875,-0.17562854290008545,-0.27966758608818054,1.3040002584457397
1772708632275303000,2.074302978515625,-0.4430248439311981,0.08415056020021439,1.1802730560302734
1772708632285328000,2.084327880859375,-0.6849613189697266,0.41365790367126465,1.0860847234725952
1772708632295352800,2.094352783203125,-0.8723160028457642,0.4721353054046631,1.0632803440093994
1772708632305378000,2.1043779296875,-0.9315995573997498,0.30025383830070496,1.0381108522415161
1772708632315403000,2.114403076171875,-0.6916351914405823,0.07655149698257446,1.0616406202316284
1772708632325429000,2.124428955078125,-0.10779011249542236,-0.2711808979511261,1.1800717115402222
1772708632335454000,2.134453857421875,0.6256862282752991,-0.5723591446876526,1.5352814197540283
1772708632345478700,2.144478759765625,1.2912671566009521,-0.9833160042762756,2.2047061920166016
1772708632355503900,2.15450390625,1.609710931777954,-1.5463157892227173,2.914423942565918
1772708632365529900,2.16452978515625,1.5188865661621094,-1.705633282661438,3.1848771572113037
1772708632375554800,2.174554931640625,1.0321214199066162,-1.0511579513549805,2.9741032123565674
1772708632385579800,2.184579833984375,0.09328813850879669,0.17824935913085938,2.4194893836975098
1772708632395604700,2.194604736328125,-0.662286639213562,1.828169822692871,1.7076863050460815
1772708632405630700,2.204630615234375,-0.9825271964073181,3.173408269882202,1.0345674753189087
1772708632415656000,2.214656005859375,-0.8437493443489075,3.3971011638641357,0.4148786962032318
1772708632425681000,2.224680908203125,-0.6010466814041138,2.784928560256958,-0.2551915645599365
1772708632435705900,2.234705810546875,-0.5030934810638428,1.4813449382781982,-1.0439947843551636
1772708632445731800,2.24473193359375,-0.13573013246059418,-0.0859236940741539,-1.882364273071289
1772708632455756800,2.2547568359375,0.6559823751449585,-1.355076789855957,-2.6340692043304443
1772708632465782000,2.264781982421875,1.2155852317810059,-1.7435762882232666,-3.2887582778930664
1772708632475807000,2.274806884765625,1.287587285041809,-1.1091437339782715,-3.7948760986328125
1772708632485833000,2.2848330078125,0.9052188396453857,-0.05344271659851074,-4.120373725891113
1772708632495858000,2.29485791015625,0.38981327414512634,0.6378960609436035,-4.148481369018555
1772708632505883000,2.3048828125,0.11842571198940277,0.5695170164108276,-3.858701705932617
1772708632515907800,2.314907958984375,0.08301738649606705,-0.29687774181365967,-3.3203530311584473
1772708632525932800,2.324932861328125,0.1567070484161377,-1.3149043321609497,-2.6648364067077637
1772708632535959000,2.334958984375,0.16986121237277985,-1.7082985639572144,-2.0880391597747803
1772708632545984000,2.34498388671875,0.06184472516179085,-1.3710602521896362,-1.712886095046997
1772708632556009000,2.355009033203125,-0.12180685997009277,-0.5671571493148804,-1.486796259880066
1772708632566034200,2.3650341796875,-0.23131737112998962,0.3593054413795471,-1.2342369556427002
1772708632576060200,2.37506005859375,-0.14809146523475647,0.9378098249435425,-0.7963213920593262
1772708632586085000,2.385085205078125,0.0027270768769085407,0.8358136415481567,-0.28898173570632935
1772708632596110000,2.395110107421875,0.07776457071304321,0.30905717611312866,0.14309057593345642
1772708632606135000,2.405135009765625,0.03333505243062973,-0.4182119071483612,0.3788818120956421
1772708632616161000,2.4151611328125,-0.05812855064868927,-0.9927185773849487,0.43833020329475403
1772708632626186200,2.425186279296875,-0.17523732781410217,-1.3003603219985962,0.34920352697372437
1772708632636211200,2.435211181640625,-0.30346667766571045,-1.312242031097412,0.1581353098154068
1772708632646236000,2.44523583984375,-0.3438098430633545,-0.9656257033348083,-0.13477912545204163
1772708632656262100,2.45526220703125,-0.2891974449157715,-0.4905686378479004,-0.40886738896369934
1772708632666286800,2.465286865234375,-0.14069212973117828,-0.09258852154016495,-0.5388637185096741
1772708632676312000,2.47531201171875,0.010242517106235027,0.2266315519809723,-0.5671475529670715
1772708632686337000,2.4853369140625,0.08045462518930435,0.4725896418094635,-0.49191248416900635
1772708632696362000,2.495362060546875,0.06928133964538574,0.6199870705604553,-0.333540141582489
1772708632706388000,2.505387939453125,-0.01864905096590519,0.4054548144340515,-0.12772254645824432
1772708632716413000,2.515412841796875,-0.14129826426506042,-0.045816224068403244,0.0831843689084053
1772708632726438100,2.525438232421875,-0.2462526559829712,-0.4103342592716217,0.1887209117412567
1772708632736463000,2.535463134765625,-0.27811017632484436,-0.41491997241973877,0.21693630516529083
1772708632746489000,2.545489013671875,-0.2864767611026764,-0.1557600349187851,0.21752619743347168
1772708632756514000,2.55551416015625,-0.3002256155014038,0.1808083951473236,0.2079492062330246
1772708632766539000,2.5655390625,-0.26904478669166565,0.5266062617301941,0.1907515674829483
1772708632776564200,2.575564208984375,-0.22240564227104187,0.7763018608093262,0.14321361482143402
1772708632786590200,2.585590087890625,-0.17885470390319824,0.9253858923912048,0.10358977317810059
1772708632796615200,2.595615234375,-0.2274981439113617,0.9357682466506958,0.09745971113443375
1772708632806640000,2.60564013671875,-0.33176568150520325,0.7976228594779968,0.1130935326218605
1772708632816664800,2.615664794921875,-0.48975080251693726,0.558285653591156,0.1557997167110443
1772708632826691000,2.625691162109375,-0.7012220025062561,0.4282080829143524,0.20956388115882874
1772708632836716000,2.635716064453125,-0.8914896845817566,0.35297590494155884,0.25799664855003357
1772708632846741000,2.645740966796875,-0.9865440726280212,0.2882022261619568,0.28577104210853577
1772708632856766000,2.655765869140625,-0.930893063545227,0.25053688883781433,0.2514876127243042
1772708632866791000,2.665791015625,-0.746206521987915,0.4082527458667755,0.2220144271850586
1772708632876817000,2.67581689453125,-0.45625409483909607,0.6943252682685852,0.23220553994178772
1772708632886842000,2.685842041015625,-0.10633017122745514,0.9587385058403015,0.27270689606666565
1772708632896867000,2.6958671875,0.25644776225090027,1.008917212486267,0.39978015422821045
1772708632906892000,2.70589208984375,0.49901166558265686,0.786614179611206,0.6986768245697021
1772708632916918000,2.71591796875,0.5748382806777954,0.35857492685317993,1.1640002727508545
1772708632926943000,2.72594287109375,0.4832822382450104,-0.08405708521604538,1.761759877204895
1772708632936968200,2.73596826171875,0.38241633772850037,-0.3803481459617615,2.290642023086548
1772708632946993200,2.7459931640625,0.33026471734046936,-0.3982560336589813,2.2611470222473145
1772708632957018000,2.75601806640625,0.23379305005073547,0.15262389183044434,1.5577439069747925
1772708632967044000,2.766044189453125,0.05393167585134506,1.017857551574707,0.5251796245574951
1772708632977069000,2.776069091796875,-0.19339023530483246,1.3992704153060913,-0.41746222972869873
1772708632987094000,2.786093994140625,-0.27062085270881653,0.9229744076728821,-1.0286483764648438
1772708632997119000,2.796118896484375,-0.18728147447109222,0.10036229342222214,-1.3690983057022095
1772708633007145000,2.80614501953125,-0.0011675298446789384,-0.5263253450393677,-1.4689037799835205
1772708633017170000,2.816169921875,0.04139963909983635,-0.8177171945571899,-1.527512788772583
1772708633027195000,2.82619482421875,0.10875124484300613,-1.0604512691497803,-1.5736453533172607
1772708633037220000,2.83622021484375,0.36525148153305054,-1.3388557434082031,-1.5775202512741089
1772708633047246000,2.84624609375,0.6321201920509338,-1.4391682147979736,-1.603812336921692
1772708633057271000,2.85627099609375,0.7144781947135925,-1.2339237928390503,-1.67921781539917
1772708633067296000,2.8662958984375,0.5878933668136597,-0.8143703937530518,-1.7969290018081665
1772708633077321000,2.876321044921875,0.33349141478538513,-0.49019500613212585,-1.9460623264312744
1772708633087347000,2.886346923828125,0.29047656059265137,-0.5582078695297241,-2.0508224964141846
1772708633097372200,2.8963720703125,0.4904751777648926,-0.9313406944274902,-2.094459295272827
1772708633107397000,2.906397216796875,0.6374635696411133,-1.2466810941696167,-1.9775547981262207
1772708633117422000,2.916422119140625,0.6111435294151306,-1.1540502309799194,-1.7389719486236572
1772708633127447000,2.926447021484375,0.4318307638168335,-0.6768487691879272,-1.36837637424469
1772708633137473000,2.93647314453125,0.13050368428230286,-0.15180177986621857,-0.8427402973175049
1772708633147498200,2.946498291015625,-0.1566692441701889,0.22634445130825043,-0.15997768938541412
1772708633157523200,2.956523193359375,-0.25793007016181946,0.4075230360031128,0.5981611609458923
1772708633167548000,2.9665478515625,-0.22579903900623322,0.32697731256484985,1.300841212272644
1772708633177574100,2.97657421875,-0.1812342405319214,0.0007076018955558538,1.816771149635315
1772708633187598800,2.986598876953125,-0.17586131393909454,-0.36678624153137207,2.0065550804138184
1772708633197624000,2.9966240234375,-0.14808347821235657,-0.5661422610282898,1.9129917621612549
1772708633207649000,3.00664892578125,-0.058526694774627686,-0.5459924936294556,1.6075478792190552
1772708633217675000,3.016675048828125,0.0581653006374836,-0.34610629081726074,1.1622400283813477
1772708633227700000,3.026699951171875,0.18187792599201202,-0.09501200169324875,0.6855506300926208
1772708633237725000,3.036724853515625,0.2617059051990509,0.0868038684129715,0.26383402943611145
1772708633247750100,3.046750244140625,0.26528865098953247,0.11404454708099365,-0.07821065187454224
1772708633257775000,3.056775146484375,0.21544760465621948,0.05922817066311836,-0.2679038941860199
1772708633267801000,3.066801025390625,0.18336130678653717,-0.06375527381896973,-0.28147056698799133
1772708633277826000,3.076825927734375,0.11341444402933121,-0.1230526864528656,-0.16270503401756287
1772708633287851000,3.08685107421875,0.04500608891248703,-0.14212970435619354,0.026386333629488945
1772708633297876200,3.096876220703125,0.00021971078240312636,-0.07850892096757889,0.2238868921995163
1772708633307902200,3.106902099609375,-0.006235791835933924,-0.006878678686916828,0.3654376268386841
1772708633317927200,3.11692724609375,-0.00989444274455309,0.07900586724281311,0.4584658443927765
1772708633327952100,3.1269521484375,-0.05005011707544327,0.18796271085739136,0.5027456879615784
1772708633337976800,3.136976806640625,-0.12582503259181976,0.3654711842536926,0.48950204253196716
1772708633348002000,3.147001953125,-0.2009056806564331,0.5430837869644165,0.42795348167419434
1772708633358028000,3.157028076171875,-0.2494974434375763,0.5986011028289795,0.37219834327697754
1772708633368053000,3.167052978515625,-0.262334942817688,0.45237547159194946,0.33491992950439453
1772708633378078000,3.177077880859375,-0.2766970992088318,0.17113445699214935,0.3011973798274994
1772708633388103000,3.18710302734375,-0.3060835003852844,-0.04084942862391472,0.2684061527252197
1772708633398129000,3.19712890625,-0.3911648392677307,-0.1359410583972931,0.22571754455566406
1772708633408154000,3.207154052734375,-0.5036516785621643,-0.15141747891902924,0.2022673487663269
1772708633418179000,3.217178955078125,-0.5968636870384216,-0.14418727159500122,0.19972562789916992
1772708633428204000,3.2272041015625,-0.5944321751594543,-0.07037989050149918,0.21813978254795074
1772708633438229000,3.23722900390625,-0.4803072214126587,0.1114674061536789,0.24493864178657532
1772708633448255000,3.2472548828125,-0.33276277780532837,0.3191976845264435,0.31159836053848267
1772708633458280200,3.2572802734375,-0.1953924000263214,0.4090183973312378,0.44957593083381653
1772708633468305200,3.26730517578125,-0.02076440118253231,0.313325434923172,0.6393477320671082
1772708633478330000,3.277330078125,0.1321668177843094,-0.004803543444722891,0.754867434501648
1772708633488356000,3.287356201171875,0.244869664311409,-0.3309803307056427,0.8296071887016296
1772708633498381000,3.297381103515625,0.34248918294906616,-0.5216123461723328,0.9286048412322998
1772708633508406000,3.307406005859375,0.4881473183631897,-0.3489116430282593,1.1281884908676147
1772708633518431000,3.317430908203125,0.6618445515632629,0.2774164378643036,1.5563236474990845
1772708633528457000,3.32745703125,0.7380548715591431,0.9075254201889038,1.7520502805709839
1772708633538481700,3.337481689453125,0.5810913443565369,1.183088779449463,1.1433699131011963
1772708633548506600,3.347506591796875,0.13719487190246582,1.5505748987197876,0.06964778900146484
1772708633558531800,3.35753173828125,-0.2294560968875885,1.8129383325576782,-0.991874635219574
1772708633568556800,3.367556884765625,-0.2478438913822174,1.912158489227295,-1.840003252029419
1772708633578582800,3.377582763671875,-0.09450999647378922,1.7951774597167969,-2.507571220397949
1772708633588607500,3.387607421875,0.05000457912683487,1.6334530115127563,-3.024057388305664
1772708633598632400,3.397632568359375,0.16104480624198914,1.479318380355835,-3.392444133758545
1772708633608657700,3.40765771484375,0.20894655585289001,1.0466207265853882,-3.6404306888580322
1772708633618683600,3.41768359375,0.3577887713909149,0.29651394486427307,-3.8008975982666016
1772708633628708600,3.42770849609375,0.4650835394859314,-0.2987728416919708,-3.7254862785339355
1772708633638733600,3.437733642578125,0.37301087379455566,-0.5498069524765015,-3.4164249897003174
1772708633648758500,3.447758544921875,0.1374390870332718,-0.5017925500869751,-2.9564826488494873
1772708633658783700,3.45778369140625,-0.24520842730998993,-0.35189491510391235,-2.3784289360046387
1772708633668809700,3.467809814453125,-0.7452632784843445,-0.3161989748477936,-1.8466755151748657
1772708633678834700,3.477834716796875,-1.1288859844207764,-0.591829240322113,-1.4000579118728638
1772708633688859600,3.487859619140625,-1.3205630779266357,-1.1170618534088135,-1.018386721611023
1772708633698884600,3.497884521484375,-1.2557395696640015,-1.6575798988342285,-0.7219544649124146
1772708633708910600,3.50791064453125,-0.9538300633430481,-1.9969474077224731,-0.4517173767089844
1772708633718935800,3.517935791015625,-0.5694214105606079,-2.0233259201049805,-0.15064223110675812
1772708633728960800,3.527960693359375,-0.222116157412529,-1.7890863418579102,0.2463887333869934
1772708633738985700,3.53798583984375,0.11541154980659485,-1.2600075006484985,0.8099820613861084
1772708633749010700,3.5480107421875,0.4676806330680847,-0.7042686939239502,1.4240913391113281
1772708633759036700,3.55803662109375,0.7365491390228271,-0.4047895669937134,1.905076503753662
1772708633769061600,3.5680615234375,0.857688844203949,-0.3309028148651123,2.1822643280029297
1772708633779086600,3.578086669921875,0.8418494462966919,-0.3972485661506653,2.2659151554107666
1772708633789111600,3.588111572265625,0.6975442171096802,-0.49618658423423767,2.143554210662842
1772708633799137500,3.598137451171875,0.5118401050567627,-0.5058903694152832,1.8463144302368164
1772708633809162500,3.60816259765625,0.35138171911239624,-0.36966991424560547,1.4274036884307861
1772708633819187700,3.618187744140625,0.237301766872406,-0.12093094736337662,0.949506938457489
1772708633829212700,3.628212646484375,0.195481076836586,0.2091822475194931,0.45713984966278076
1772708633839238700,3.63823876953125,0.21264995634555817,0.5483693480491638,0.06398776918649673
1772708633849263600,3.648263671875,0.26011520624160767,0.7441964149475098,-0.20769593119621277
1772708633859288600,3.65828857421875,0.35684654116630554,0.8140119314193726,-0.3490655720233917
1772708633869313800,3.668313720703125,0.41825956106185913,0.7024478912353516,-0.39379870891571045
1772708633879338800,3.6783388671875,0.34976306557655334,0.4679240584373474,-0.42481333017349243
1772708633889364700,3.68836474609375,0.17216351628303528,0.25659769773483276,-0.3934197425842285
1772708633899389700,3.6983896484375,-0.08438066393136978,0.12188329547643661,-0.28014296293258667
1772708633909414700,3.70841455078125,-0.3827436566352844,0.06076508015394211,-0.10675626993179321
1772708633919439600,3.718439697265625,-0.6462810039520264,0.1159905195236206,0.04849429801106453
1772708633929464600,3.728464599609375,-0.8149475455284119,0.2588832378387451,0.1637609750032425
1772708633939490600,3.738490478515625,-0.8734262585639954,0.4119041860103607,0.24341212213039398
1772708633949515500,3.748515625,-0.8081463575363159,0.4696143567562103,0.309326171875
1772708633959540500,3.75854052734375,-0.6494048833847046,0.356626033782959,0.37360236048698425
1772708633969565700,3.768565673828125,-0.4698242247104645,0.0635313019156456,0.4086764454841614
1772708633979591700,3.778591796875,-0.3218507468700409,-0.2674165368080139,0.4276421368122101
1772708633989616600,3.78861669921875,-0.21668623387813568,-0.5142593383789062,0.4813690185546875
1772708633999641600,3.7986416015625,-0.15348409116268158,-0.598937451839447,0.5922138094902039
1772708634009666600,3.80866650390625,-0.16456924378871918,-0.5868847966194153,0.6926810145378113
1772708634019691800,3.81869189453125,-0.2367001622915268,-0.4810353219509125,0.7435625791549683
1772708634029717800,3.8287177734375,-0.3105197846889496,-0.20583732426166534,0.7281039953231812
1772708634039742700,3.83874267578125,-0.3337303102016449,0.22904756665229797,0.6265509724617004
1772708634049767700,3.848767578125,-0.3295952081680298,0.6248039603233337,0.43112078309059143
1772708634059792600,3.858792724609375,-0.2740033268928528,0.8118902444839478,0.16783267259597778
1772708634069818600,3.868818603515625,-0.06769195944070816,0.7267385721206665,-0.08254334330558777
1772708634079843800,3.87884375,0.2636646628379822,0.4776477813720703,-0.1477511078119278
1772708634089868800,3.888868896484375,0.6126461029052734,0.2504577934741974,-0.004322843160480261
1772708634099893500,3.8988935546875,0.8254731297492981,0.38385897874832153,0.29766523838043213
1772708634109919700,3.908919677734375,0.7535640597343445,0.9461542963981628,0.550152599811554
1772708634119944400,3.9189443359375,0.4598599970340729,1.7481743097305298,0.5714115500450134
1772708634129969700,3.9289697265625,0.07161612808704376,2.3766095638275146,0.4650883376598358
1772708634139994600,3.93899462890625,-0.2263609617948532,2.4570422172546387,0.31082525849342346
1772708634150019600,3.94901953125,-0.4619303345680237,2.1723947525024414,-0.018335597589612007
1772708634160045600,3.959045654296875,-0.5757375955581665,1.7966259717941284,-0.558590829372406
1772708634170070500,3.969070556640625,-0.7335970401763916,1.6857995986938477,-1.2336105108261108
1772708634180095700,3.979095703125,-0.8759778738021851,1.6256544589996338,-2.026919364929199
1772708634190120700,3.98912060546875,-0.7431588172912598,1.51987886428833,-2.8720903396606445
1772708634200146700,3.999146728515625,-0.4831269681453705,1.6800767183303833,-3.5792312622070312
1772708634210171600,4.009171630859375,-0.4093925654888153,2.0956459045410156,-4.064429759979248
1772708634220196600,4.019196533203125,-0.43044325709342957,2.3926587104797363,-4.1526594161987305
1772708634230221800,4.029221923828125,-0.47509196400642395,2.119591474533081,-3.7332499027252197
1772708634240246800,4.039246826171875,-0.32933634519577026,0.505232036113739,-3.06412410736084
1772708634250272800,4.049272705078125,0.07791663706302643,-2.3069143295288086,-2.335845470428467
1772708634260297700,4.059297607421875,0.5246112942695618,-4.968851566314697,-1.514367699623108
1772708634270322700,4.06932275390625,0.8198853135108948,-6.5315141677856445,-0.7103518843650818
1772708634280347600,4.07934765625,0.9395110011100769,-6.77304744720459,-0.09304152429103851
1772708634290373600,4.08937353515625,0.9840052723884583,-5.881721496582031,0.18400205671787262
1772708634300398600,4.099398681640625,0.9790592193603516,-4.099542140960693,0.10060543566942215
1772708634310423600,4.109423583984375,0.984992504119873,-1.7856301069259644,-0.23819951713085175
1772708634320448500,4.119448486328125,1.1604788303375244,0.3895064890384674,-0.5425570011138916
1772708634330473700,4.1294736328125,1.4225882291793823,1.8675755262374878,-0.6806395053863525
1772708634340499700,4.139499755859375,1.5423710346221924,2.4664146900177,-0.6583395600318909
1772708634350524700,4.149524658203125,1.4069427251815796,2.2203996181488037,-0.544979989528656
1772708634360549600,4.159549560546875,1.0947439670562744,1.3024415969848633,-0.3493824899196625
1772708634370574600,4.16957470703125,0.7762595415115356,0.16757382452487946,-0.012631905265152454
1772708634380600600,4.1796005859375,0.5492277145385742,-0.7206223607063293,0.4172060191631317
1772708634390625800,4.189625732421875,0.38500839471817017,-1.2534990310668945,0.8924609422683716
1772708634400650800,4.199650634765625,0.2438158541917801,-1.3888150453567505,1.3411489725112915
1772708634410675700,4.20967578125,0.12546923756599426,-1.1729069948196411,1.6448689699172974
1772708634420700700,4.21970068359375,0.08527734875679016,-0.7012094855308533,1.7833160161972046
1772708634430726700,4.2297265625,0.1110365092754364,-0.11688853800296783,1.783709168434143
1772708634440751600,4.239751708984375,0.13346005976200104,0.342388778924942,1.636251449584961
1772708634450776600,4.249776611328125,0.08408664911985397,0.5564475059509277,1.40424644947052
1772708634460801500,4.259801513671875,-0.025913089513778687,0.5714115500450134,1.1480094194412231
1772708634470826800,4.26982666015625,-0.1993490606546402,0.45311209559440613,0.8872121572494507
1772708634480852500,4.2798525390625,-0.4228857457637787,0.296968013048172,0.6248772144317627
1772708634490877700,4.289877685546875,-0.6637577414512634,0.215896338224411,0.3382222652435303
1772708634500902700,4.299902587890625,-0.8483198881149292,0.27130767703056335,0.05077369883656502
1772708634510927600,4.309927734375,-0.9354007244110107,0.47080346941947937,-0.16946066915988922
1772708634520953600,4.31995361328125,-0.9516617059707642,0.7076160311698914,-0.2741127908229828
1772708634530978600,4.329978515625,-0.8423511981964111,0.8993918299674988,-0.20621176064014435
1772708634541003500,4.34000341796875,-0.5883852243423462,0.9946587085723877,0.027636421844363213
1772708634551028500,4.350028564453125,-0.30554312467575073,0.9325433969497681,0.3685964047908783
1772708634561053400,4.360053466796875,-0.10394451022148132,0.70338374376297,0.7472925782203674
1772708634571079400,4.370079345703125,-0.06718303263187408,0.3258841037750244,1.1088483333587646
1772708634581104600,4.380104736328125,-0.1975298523902893,-0.20527060329914093,1.3954644203186035
1772708634591129600,4.390129638671875,-0.35953259468078613,-0.7065552473068237,1.5929865837097168
1772708634601154600,4.400154541015625,-0.5488479137420654,-0.920071005821228,1.6770654916763306
1772708634611180500,4.4101806640625,-0.7520194053649902,-0.8381894826889038,1.6568683385849
1772708634621205500,4.42020556640625,-0.9175575375556946,-0.5623038411140442,1.520577311515808
1772708634631230700,4.430230712890625,-1.0123783349990845,-0.2879686653614044,1.2834467887878418
1772708634641255700,4.440255615234375,-1.032504916191101,-0.1058148443698883,0.9996566772460938
1772708634651280400,4.4502802734375,-0.8763206005096436,0.05758313462138176,0.7214074730873108
1772708634661306600,4.460306640625,-0.5861961245536804,-0.03615507483482361,0.6174235343933105
1772708634671331300,4.470331298828125,-0.2136337161064148,-0.3571605384349823,0.7544053792953491
1772708634681356500,4.4803564453125,0.1877312809228897,-0.3639143109321594,1.073694109916687
1772708634691381500,4.490381591796875,0.46028319001197815,0.13109862804412842,1.430597186088562
1772708634701407500,4.500407470703125,0.5044964551925659,0.8660104274749756,1.6521084308624268
1772708634711432400,4.510432373046875,0.26045769453048706,1.427625298500061,1.5614144802093506
1772708634721457400,4.52045751953125,-0.06869331002235413,1.4393384456634521,1.292015790939331
1772708634731482600,4.530482666015625,-0.40468382835388184,0.7932931184768677,0.851625919342041
1772708634741507600,4.540507568359375,-0.7877348065376282,-0.11236302554607391,0.22270257771015167
1772708634751533600,4.550533447265625,-1.0773165225982666,-0.6752780675888062,-0.5624910593032837
1772708634761558500,4.56055859375,-1.1473356485366821,-0.5149688124656677,-1.431595802307129
1772708634771583500,4.57058349609375,-1.0821983814239502,0.20543678104877472,-2.2555091381073
1772708634781608700,4.580608642578125,-0.8345068693161011,0.922004222869873,-2.724976062774658
1772708634791634400,4.590634521484375,-0.2020215392112732,1.1270114183425903,-2.7810094356536865
1772708634801659600,4.60065966796875,0.6215112209320068,0.8685287237167358,-2.547301769256592
1772708634811684600,4.6106845703125,1.1601219177246094,0.5303666591644287,-2.0965046882629395
1772708634821709300,4.620709228515625,1.0982309579849243,0.19939832389354706,-1.553155779838562
1772708634831734500,4.630734619140625,0.5289841890335083,-0.4401688575744629,-1.0488814115524292
1772708634841760500,4.640760498046875,-0.18490327894687653,-1.3754931688308716,-0.5751924514770508
1772708634851785500,4.650785400390625,-0.664093017578125,-2.328023910522461,-0.1885392814874649
1772708634861810400,4.660810546875,-0.8875306248664856,-2.8072993755340576,-0.10324356704950333
1772708634871835400,4.67083544921875,-0.8026785850524902,-2.504392147064209,-0.36023035645484924
1772708634881860600,4.680860595703125,-0.5486782789230347,-1.6989675760269165,-0.8399463295936584
1772708634891886600,4.690886474609375,-0.20723840594291687,-0.8801987171173096,-1.2921303510665894
1772708634901911600,4.70091162109375,0.3007614314556122,-0.42614278197288513,-1.5144922733306885
1772708634911936500,4.7109365234375,0.8719410300254822,-0.4485282599925995,-1.371962547302246
1772708634921961500,4.72096142578125,1.2500603199005127,-0.7590182423591614,-0.9203850030899048
1772708634931987500,4.730987548828125,1.3512892723083496,-1.014224648475647,-0.33064529299736023
1772708634942012700,4.7410126953125,1.2007112503051758,-1.066051959991455,0.31072431802749634
1772708634952037600,4.75103759765625,0.8411239981651306,-0.9227637648582458,0.8847545981407166
1772708634962062600,4.7610625,0.4180326759815216,-0.5547212958335876,1.2980015277862549
1772708634972087300,4.77108740234375,0.07535094767808914,-0.1633622944355011,1.4885691404342651
1772708634982113500,4.781113525390625,-0.15790574252605438,0.12494060397148132,1.4263818264007568
1772708634992138500,4.791138427734375,-0.29553818702697754,0.29975980520248413,1.1223477125167847
1772708635002163500,4.80116357421875,-0.3520914614200592,0.3318844735622406,0.650706946849823
1772708635012188400,4.8111884765625,-0.33753862977027893,0.2755993604660034,0.17176270484924316
1772708635022214400,4.82121435546875,-0.2414373904466629,0.21849212050437927,-0.1721682995557785
1772708635032239400,4.8312392578125,-0.11307542026042938,0.18461991846561432,-0.3382590115070343
1772708635042264600,4.8412646484375,0.039555665105581284,0.1920839548110962,-0.3018634617328644
1772708635052289500,4.85128955078125,0.14460033178329468,0.1690734475851059,-0.12135172635316849
1772708635062314500,4.861314453125,0.13523052632808685,0.12020017951726913,0.11596575379371643
1772708635072340500,4.871340576171875,0.04354561120271683,0.12384577840566635,0.3817196786403656
1772708635082365400,4.881365478515625,-0.09226121753454208,0.17858758568763733,0.636289656162262
1772708635092390700,4.891390625,-0.22770719230175018,0.22347143292427063,0.8301904201507568
1772708635102415600,4.90141552734375,-0.337833434343338,0.23589295148849487,0.9039671421051025
1772708635112440600,4.911440673828125,-0.3959673047065735,0.2449202686548233,0.8488245606422424
1772708635122466600,4.921466552734375,-0.39971065521240234,0.24313382804393768,0.6984081268310547
1772708635132491500,4.931491455078125,-0.35657063126564026,0.1833607703447342,0.49625903367996216
1772708635142516700,4.941516845703125,-0.2929208278656006,0.09973005205392838,0.31701841950416565
1772708635152541400,4.95154150390625,-0.1846361607313156,0.054426491260528564,0.22927552461624146
1772708635162567700,4.961567626953125,-0.08922335505485535,0.015267635695636272,0.22356171905994415
1772708635172592400,4.97159228515625,-0.11165409535169601,-0.0035294874105602503,0.2699883282184601
1772708635182617300,4.981617431640625,-0.20947599411010742,0.030001575127243996,0.34887224435806274
1772708635192642600,4.991642578125,-0.30603715777397156,0.10607609897851944,0.4764557480812073
1772708635202667500,5.00166748046875,-0.38613250851631165,0.1938789188861847,0.602815568447113
1772708635212693500,5.011693603515625,-0.45576247572898865,0.2651483118534088,0.725132942199707
1772708635222718500,5.021718505859375,-0.4854798913002014,0.3618660569190979,0.8002614974975586
1772708635232743400,5.031743408203125,-0.4296243488788605,0.5145568251609802,0.7714836597442627
1772708635242768600,5.0417685546875,-0.242643803358078,0.6323843598365784,0.6581632494926453
1772708635252794600,5.051794677734375,0.003560912562534213,0.5770382881164551,0.4893995225429535
1772708635262819600,5.061819580078125,0.22261150181293488,0.3509761393070221,0.2913426160812378
1772708635272844500,5.071844482421875,0.504707932472229,0.15687909722328186,0.27585795521736145
1772708635282869500,5.081869384765625,0.8495374917984009,0.23930872976779938,0.4399896264076233
1772708635292894700,5.091894775390625,1.0905429124832153,0.626737654209137,0.7053765654563904
1772708635302920700,5.101920654296875,0.9872452616691589,0.8788604736328125,0.6979069113731384
1772708635312945700,5.111945556640625,0.44273534417152405,0.7639898061752319,0.1401275396347046
1772708635322970400,5.121970458984375,-0.4925907850265503,0.4595164656639099,-0.8088462352752686
1772708635332995300,5.131995361328125,-1.1538875102996826,0.2534322738647461,-1.6541905403137207
1772708635343020500,5.1420205078125,-1.0546091794967651,0.2579796016216278,-2.0790045261383057
1772708635353046500,5.152046630859375,-0.4887867271900177,0.5553468465805054,-2.050523281097412
1772708635363071500,5.162071533203125,0.13243021070957184,0.8333688974380493,-1.80668044090271
1772708635373096400,5.172096435546875,0.5572720170021057,0.9596389532089233,-1.686511754989624
1772708635383121400,5.182121337890625,0.7055424451828003,0.9503663182258606,-1.9181324243545532
1772708635393147400,5.1921474609375,0.5743146538734436,0.7220455408096313,-2.3123018741607666
1772708635403172600,5.202172607421875,0.3748833239078522,0.3660877048969269,-2.625734329223633
1772708635413197600,5.212197509765625,0.36072009801864624,0.226992666721344,-2.727689266204834
1772708635423222500,5.222222412109375,0.4480733871459961,0.2418629676103592,-2.5743868350982666
1772708635433247500,5.23224755859375,0.4716823101043701,0.14364078640937805,-2.159536838531494
1772708635443273500,5.2422734375,0.3818861246109009,-0.1467321813106537,-1.588271975517273
1772708635453298700,5.252298583984375,0.24248214066028595,-0.7018300294876099,-0.9417797923088074
1772708635463323600,5.26232373046875,0.19375748932361603,-1.3752856254577637,-0.316506564617157
1772708635473348600,5.2723486328125,0.2587665915489197,-1.8569146394729614,0.22630317509174347
1772708635483374600,5.28237451171875,0.2880754768848419,-2.055128812789917,0.6240859627723694
1772708635493399600,5.292399658203125,0.21666467189788818,-1.9314996004104614,0.7978036999702454
1772708635503424500,5.302424560546875,0.09861712157726288,-1.5774108171463013,0.7638071179389954
1772708635517834500,5.31683447265625,-0.016698552295565605,-0.9493306279182434,0.5612888932228088
1772708635527859500,5.326859375,-0.02582653798162937,-0.48549506068229675,0.4958518147468567
1772708635537885200,5.33688525390625,0.004208859521895647,-0.043409790843725204,0.5545492172241211
1772708635547910100,5.34691015625,0.07785484939813614,0.33634287118911743,0.7403092384338379
1772708635557935400,5.356935302734375,0.19855996966362,0.5482628345489502,1.0210477113723755
1772708635567960300,5.366960205078125,0.2939424216747284,0.5555881261825562,1.2997981309890747
1772708635577986300,5.376986328125,0.30712637305259705,0.47690555453300476,1.5275050401687622
1772708635588011300,5.38701123046875,0.2543979287147522,0.3750162124633789,1.665665626525879
1772708635598036200,5.3970361328125,0.11322136223316193,0.22061893343925476,1.6692557334899902
1772708635608061400,5.4070615234375,-0.0857817530632019,0.05446244403719902,1.5259820222854614
1772708635618086400,5.41708642578125,-0.26766154170036316,-0.026369554921984673,1.2845818996429443
1772708635628112400,5.4271123046875,-0.4121191203594208,0.022488264366984367,1.0046926736831665
1772708635638137300,5.437137451171875,-0.49536553025245667,0.14591805636882782,0.8013323545455933
1772708635648162300,5.447162353515625,-0.5206831693649292,0.3447725772857666,0.695027232170105
1772708635658187300,5.457187255859375,-0.5102443695068359,0.5745037794113159,0.6694196462631226
1772708635668212200,5.467212158203125,-0.5017017126083374,0.7507520318031311,0.6709280610084534
1772708635678238200,5.47723828125,-0.5148686766624451,0.8248566389083862,0.6316791772842407
1772708635688263200,5.48726318359375,-0.5367119312286377,0.7638822197914124,0.5091423392295837
1772708635698288000,5.4972880859375,-0.5427442193031311,0.5843998193740845,0.3266598880290985
1772708635708313300,5.507313232421875,-0.5050844550132751,0.37786874175071716,0.17082394659519196
1772708635718339300,5.51733935546875,-0.39563602209091187,0.21113221347332,0.08261924237012863
1772708635728364300,5.5273642578125,-0.26445242762565613,0.09491479396820068,0.036560408771038055
1772708635738389200,5.53738916015625,-0.1971287876367569,0.05675622448325157,0.013585583306849003
1772708635748414200,5.547414306640625,-0.2553185820579529,0.024202806875109673,-0.030236465856432915
1772708635758439400,5.557439453125,-0.36806589365005493,-0.008956210687756538,-0.08932562172412872
1772708635768465400,5.56746533203125,-0.44702011346817017,0.05276680737733841,-0.12637631595134735
1772708635778490400,5.577490478515625,-0.4659578502178192,0.17615532875061035,-0.14649756252765656
1772708635788515300,5.587515380859375,-0.4584783613681793,0.29283931851387024,-0.12705542147159576
1772708635798540300,5.597540283203125,-0.42479389905929565,0.2956409752368927,-0.04638480767607689
1772708635808565200,5.607565185546875,-0.3632461130619049,0.1666845828294754,0.06780914217233658
1772708635818591200,5.61759130859375,-0.271074116230011,-0.020593691617250443,0.20507484674453735
1772708635838015200,5.63701513671875,-0.22906062006950378,-0.27766305208206177,0.38217613101005554
1772708635848041200,5.647041259765625,-0.23391981422901154,-0.23723146319389343,0.4211514890193939
1772708635858066400,5.65706640625,-0.1880018562078476,-0.0672253742814064,0.4754032790660858
1772708635868091400,5.66709130859375,-0.0753280445933342,0.25708693265914917,0.590270459651947
1772708635878116400,5.677116455078125,0.14713113009929657,0.6318070292472839,0.8356916904449463
1772708635888141000,5.68714111328125,0.43708837032318115,1.000305414199829,1.2571015357971191
1772708635898167000,5.6971669921875,0.8486618399620056,1.1247395277023315,1.629195213317871
1772708635908192300,5.707192138671875,1.2191565036773682,0.9443897008895874,1.4813101291656494
1772708635918217200,5.71721728515625,1.1460636854171753,0.8162798881530762,0.962513267993927
1772708635928242200,5.7272421875,0.7286052107810974,0.45994630455970764,0.44736045598983765
1772708635938268200,5.73726806640625,0.5915564894676208,0.24259640276432037,0.352407306432724
1772708635948293000,5.747293212890625,0.7034862637519836,0.39655667543411255,0.6881818771362305
1772708635958318300,5.757318359375,0.6664304733276367,0.42268654704093933,1.0179085731506348
1772708635968343300,5.76734326171875,0.5265468955039978,0.08712291717529297,0.9943058490753174
1772708635978368300,5.7773681640625,0.44226691126823425,-0.5462273955345154,0.5484513640403748
1772708635988394200,5.787394287109375,0.38649365305900574,-0.8697761297225952,0.042459577322006226
1772708635998419200,5.797419189453125,0.3613499402999878,-0.5769120454788208,-0.4168888330459595
1772708636008444400,5.8074443359375,0.4355866312980652,0.010253170505166054,-0.7992375493049622
1772708636018469400,5.817469482421875,0.6065868735313416,0.5003336668014526,-1.1013721227645874
1772708636028495400,5.827495361328125,0.7213584780693054,0.6871991753578186,-1.377638578414917
1772708636038520300,5.837520263671875,0.6773291826248169,0.5914060473442078,-1.5973650217056274
1772708636048545300,5.847545166015625,0.6567352414131165,-0.17649488151073456,-1.602003812789917
1772708636058570200,5.8575703125,0.7580557465553284,-1.5358673334121704,-1.3278800249099731
1772708636068595200,5.86759521484375,0.8843681216239929,-2.7456536293029785,-0.7934930920600891
1772708636078621200,5.87762109375,0.8906455039978027,-3.050750494003296,-0.16182191669940948
1772708636088646100,5.887646240234375,0.7577263116836548,-2.324688196182251,0.335629403591156
1772708636098671000,5.897671142578125,0.5085455179214478,-1.2260881662368774,0.5390048623085022
1772708636108696300,5.9076962890625,0.1700092852115631,-0.30642011761665344,0.37796592712402344
1772708636118722300,5.917722412109375,-0.09622027724981308,0.3979702591896057,0.03377687186002731
1772708636128747300,5.927747314453125,-0.23759683966636658,0.8566504716873169,-0.28455209732055664
1772708636138772200,5.937772216796875,-0.3240166902542114,0.9554785490036011,-0.563746988773346
1772708636148797200,5.947797119140625,-0.4282139241695404,0.7393036484718323,-0.8205803632736206
1772708636158822400,5.957822509765625,-0.5750374794006348,0.5005139708518982,-1.0700061321258545
1772708636168848400,5.967848388671875,-0.6478645205497742,0.4652465283870697,-1.2574751377105713
1772708636178873300,5.977873291015625,-0.6137664914131165,0.5293962359428406,-1.2976516485214233
1772708636188898300,5.987898193359375,-0.530791163444519,0.582726776599884,-1.1976318359375
1772708636198923300,5.99792333984375,-0.4714069366455078,0.6723389625549316,-0.9934557676315308
1772708636208949200,6.00794921875,-0.4179503619670868,0.650047242641449,-0.7097044587135315
1772708636218974500,6.017974365234375,-0.4191506505012512,0.4993240535259247,-0.42794281244277954
1772708636228999200,6.027999267578125,-0.42358002066612244,0.2981898784637451,-0.18714246153831482
1772708636239024000,6.038024169921875,-0.4182449281215668,0.09832657128572464,-0.03322852775454521
1772708636249049000,6.048049072265625,-0.43310853838920593,-0.10098360478878021,0.032292161136865616
1772708636259075000,6.058074951171875,-0.43585774302482605,-0.17282716929912567,0.03562404215335846
1772708636269100300,6.068100341796875,-0.43906551599502563,-0.062565378844738,-0.020369719713926315
1772708636279125200,6.078125244140625,-0.46743935346603394,0.1713019758462906,-0.1068878322839737
1772708636289150200,6.088150146484375,-0.506962776184082,0.47478994727134705,-0.19927209615707397
1772708636299176200,6.09817626953125,-0.529448926448822,0.7781554460525513,-0.26057273149490356
1772708636309201200,6.108201171875,-0.4868927001953125,1.0226781368255615,-0.2675744593143463
1772708636319226400,6.118226318359375,-0.41196438670158386,1.0769953727722168,-0.22934237122535706
1772708636329251300,6.128251220703125,-0.2851364016532898,0.9348726272583008,-0.05860818549990654
1772708636339276300,6.1382763671875,-0.17522267997264862,0.54679274559021,0.18912199139595032
1772708636349302300,6.14830224609375,-0.14312626421451569,-0.05115905776619911,0.4592386782169342
1772708636359327200,6.1583271484375,-0.12432115525007248,-0.5656607151031494,0.7614033222198486
1772708636369352400,6.1683525390625,-0.09122897684574127,-0.8143794536590576,0.9625468254089355
1772708636379377400,6.17837744140625,-0.05832802131772041,-0.7445420622825623,1.048126220703125
1772708636389403400,6.1884033203125,-0.08079178631305695,-0.5034764409065247,1.0277225971221924
1772708636399428400,6.198428466796875,-0.1258828341960907,-0.18679730594158173,0.8881373405456543
1772708636409453000,6.208453125,-0.13892939686775208,0.2732829451560974,0.6820470094680786
1772708636419478300,6.218478271484375,-0.126569926738739,0.8428281545639038,0.4642622172832489
1772708636429503200,6.228503173828125,-0.06552308052778244,1.1907161474227905,0.32707613706588745
1772708636439529200,6.238529296875,0.012970127165317535,1.0885082483291626,0.28187161684036255
1772708636449554200,6.24855419921875,0.04084490239620209,0.5650413036346436,0.29897817969322205
1772708636459579100,6.2585791015625,0.045343779027462006,-0.2359454184770584,0.4535493850708008
1772708636469604400,6.268604248046875,0.08146050572395325,-0.8889027237892151,0.8944641947746277
1772708636479629300,6.27862939453125,0.22725552320480347,-1.205267071723938,1.4383118152618408
1772708636489655300,6.2886552734375,0.3326040506362915,-1.1519775390625,1.6701903343200684
1772708636499680300,6.29868017578125,0.32993608713150024,-0.7089992761611938,1.3857146501541138
1772708636509705200,6.308705322265625,0.39447835087776184,0.05633730813860893,0.8342642188072205
1772708636519730400,6.31873046875,0.562319278717041,0.6944008469581604,0.5424648523330688
1772708636529756400,6.32875634765625,0.6449640989303589,1.2207083702087402,0.3808591961860657
1772708636539782000,6.338781982421875,0.5296167135238647,1.4382268190383911,0.060144029557704926
1772708636549806800,6.348806884765625,0.1704321950674057,1.2379885911941528,-0.40541645884513855
1772708636559831800,6.358831787109375,-0.3408859372138977,0.8212616443634033,-0.920745313167572
1772708636569857800,6.36885791015625,-0.6870633363723755,0.49052098393440247,-1.3578119277954102
1772708636579882800,6.3788828125,-0.7342969179153442,0.38820764422416687,-1.6326439380645752
1772708636589908000,6.388907958984375,-0.5522748827934265,0.5385071635246277,-1.7152858972549438
1772708636599933000,6.398932861328125,-0.24621190130710602,0.7017336487770081,-1.648419737815857
1772708636609958000,6.4089580078125,0.017551830038428307,0.6659122109413147,-1.5266690254211426
1772708636619984000,6.41898388671875,0.1511967033147812,0.3949774205684662,-1.3103634119033813
1772708636630008800,6.4290087890625,0.20047397911548615,0.03755589574575424,-0.9842411875724792
1772708636640034000,6.439033935546875,0.1905324012041092,-0.3613464832305908,-0.5370138883590698
1772708636650059000,6.44905908203125,0.14055897295475006,-0.7627554535865784,-0.042275018990039825
1772708636660084000,6.459083984375,0.14963982999324799,-0.9370862245559692,0.349560409784317
1772708636670110000,6.46910986328125,0.14456383883953094,-0.792982280254364,0.5707966685295105
1772708636680135000,6.479135009765625,0.07303719222545624,-0.6198448538780212,0.5988833904266357
1772708636690160000,6.48916015625,-0.006687730085104704,-0.67708420753479,0.27382516860961914
1772708636700184800,6.499184814453125,0.10888493806123734,-0.5191515684127808,-0.010453706607222557
1772708636710210800,6.5092109375,0.25675615668296814,-0.23831136524677277,-0.2291727364063263
1772708636720235800,6.51923583984375,0.3913557827472687,0.0709087923169136,-0.39824432134628296
1772708636730260700,6.5292607421875,0.46978533267974854,0.35534292459487915,-0.46654507517814636
1772708636740286000,6.539285888671875,0.4601809084415436,0.5395170450210571,-0.4230106472969055
1772708636750311000,6.549310791015625,0.3676866590976715,0.5718430280685425,-0.2351834923028946
1772708636760337000,6.5593369140625,0.25770023465156555,0.2887042462825775,-0.02334713377058506
