time,seconds_elapsed,z,y,x
1772729043500778200,0.0787783203125,0.27519458532333374,0.03176496922969818,0.3402516841888428
1772729043510296000,0.088296142578125,0.27580544352531433,-0.023212861269712448,0.2559523284435272
1772729043519814000,0.09781396484375,0.26542073488235474,-0.11911863088607788,0.15577052533626556
1772729043529331700,0.107331787109375,0.24281874299049377,-0.26022839546203613,0.050090912729501724
1772729043538849500,0.116849609375,0.21655155718326569,-0.4269944727420807,-0.04214967042207718
1772729043548367400,0.126367431640625,0.19150610268115997,-0.5381718873977661,-0.11178825795650482
1772729043557885200,0.13588525390625,0.17134757339954376,-0.5607738494873047,-0.15210533142089844
1772729043567403000,0.145403076171875,0.16584978997707367,-0.49113526940345764,-0.15699224174022675
1772729043576920800,0.1549208984375,0.18661919236183167,-0.3335321843624115,-0.11728604137897491
1772729043586438700,0.164438720703125,0.23915356397628784,-0.08491020649671555,-0.03787361457943916
1772729043595956500,0.17395654296875,0.30512696504592896,0.2052505612373352,0.0665842592716217
1772729043605474300,0.183474365234375,0.3582721948623657,0.4514290690422058,0.16798780858516693
1772729043614992100,0.1929921875,0.39675667881965637,0.5992583632469177,0.25045454502105713
1772729043624510000,0.202510009765625,0.42791077494621277,0.6456840634346008,0.3121519088745117
1772729043634027800,0.21202783203125,0.4572322964668274,0.6059778332710266,0.3451386094093323
1772729043643545600,0.221545654296875,0.4871646761894226,0.500298261642456,0.35063639283180237
1772729043653063400,0.2310634765625,0.508544921875,0.3836230933666229,0.3292561173439026
1772729043662581200,0.240581298828125,0.5097666382789612,0.2993237376213074,0.27977606654167175
1772729043672099000,0.25009912109375,0.5073232054710388,0.2528980076313019,0.20891575515270233
1772729043681617200,0.2596171875,0.5140427350997925,0.22907429933547974,0.13072505593299866
1772729043691135000,0.269135009765625,0.5256491303443909,0.22296564280986786,0.06047561392188072
1772729043700652500,0.278652587890625,0.5323686599731445,0.22907429933547974,0.004276053514331579
1772729043710170400,0.28817041015625,0.5311469435691833,0.24556763470172882,-0.043982263654470444
1772729043719688200,0.297688232421875,0.5152644515037537,0.25045454502105713,-0.08429934084415436
1772729043729206300,0.307206298828125,0.48960810899734497,0.2370155304670334,-0.11606431007385254
1772729043738724000,0.31672412109375,0.45478883385658264,0.21685700118541718,-0.1380554437637329
1772729043748242000,0.326241943359375,0.40836310386657715,0.18875721096992493,-0.15638138353824615
1772729043757759700,0.335759765625,0.3539961278438568,0.19608759880065918,-0.16859868168830872
1772729043767277600,0.345277587890625,0.29474225640296936,0.23457208275794983,-0.17043127119541168
1772729043776795400,0.35479541015625,0.22937972843647003,0.258395791053772,-0.17348559200763702
1772729043786313200,0.364313232421875,0.1701258420944214,0.2730565667152405,-0.18692462146282196
1772729043795831000,0.3738310546875,0.13530655205249786,0.27488914132118225,-0.21197007596492767
1772729043805348900,0.383348876953125,0.14569124579429626,0.25411975383758545,-0.24801109731197357
1772729043814866700,0.39286669921875,0.19761475920677185,0.24556763470172882,-0.2864955961704254
1772729043824384500,0.402384521484375,0.26908594369888306,0.24556763470172882,-0.3243691921234131
1772729043833902300,0.41190234375,0.3430005609989166,0.20158538222312927,-0.35796675086021423
1772729043843420200,0.421420166015625,0.40714138746261597,0.13744457066059113,-0.38667741417884827
1772729043852938000,0.43093798828125,0.46456265449523926,0.12156209349632263,-0.3952295184135437
1772729043862455800,0.440455810546875,0.5146535634994507,0.14660754799842834,-0.3744601011276245
1772729043871973600,0.4499736328125,0.5482511520385742,0.19608759880065918,-0.3280344009399414
1772729043881491500,0.459491455078125,0.5549706816673279,0.21502439677715302,-0.268169641494751
1772729043891009300,0.46900927734375,0.5433642268180847,0.20708316564559937,-0.21380266547203064
1772729043900527000,0.478527099609375,0.5329795479774475,0.21746785938739777,-0.16249002516269684
1772729043910045000,0.488044921875,0.5317577719688416,0.23762640357017517,-0.10690133273601532
1772729043919562800,0.497562744140625,0.5378664135932922,0.3127627670764923,-0.05742128938436508
1772729043929080600,0.50708056640625,0.5396990180015564,0.573602020740509,-0.023823726922273636
1772729043938598400,0.516598388671875,0.528092622756958,0.6065887212753296,-0.021380268037319183
1772729043948116200,0.5261162109375,0.5012145638465881,0.268169641494751,-0.06536252796649933
1772729043957634300,0.53563427734375,0.4920515716075897,-0.2205221801996231,-0.1441640853881836
1772729043967152000,0.545152099609375,0.4969384968280792,-0.6921098232269287,-0.21502439677715302
1772729043976670000,0.554669921875,0.509155809879303,-0.9358448386192322,-0.2461785078048706
1772729043986187800,0.564187744140625,0.5006036758422852,-0.9272927641868591,-0.2309068888425827
1772729043995705600,0.57370556640625,0.45539969205856323,-0.7434224486351013,-0.19242240488529205
1772729044005223400,0.583223388671875,0.37843072414398193,-0.43982264399528503,-0.16310089826583862
1772729044014741200,0.5927412109375,0.2764163017272949,-0.11239911615848541,-0.14599667489528656
1772729044024259000,0.602259033203125,0.1542433500289917,0.21991132199764252,-0.14538581669330597
1772729044033777000,0.61177685546875,0.04001164436340332,0.4526508152484894,-0.15638138353824615
1772729044043294700,0.621294677734375,-0.022296564653515816,0.4477638900279999,-0.17348559200763702
1772729044052812500,0.6308125,-0.011300998739898205,0.23884813487529755,-0.18631376326084137
1772729044062330400,0.640330322265625,0.051618073135614395,-0.04764745384454727,-0.1905898153781891
1772729044071848200,0.64984814453125,0.11575887352228165,-0.35124725103378296,-0.18203771114349365
1772729044081366000,0.659365966796875,0.14996729791164398,-0.6059778332710266,-0.15027274191379547
1772729044090883800,0.6688837890625,0.14752385020256042,-0.6346884965896606,-0.09590577334165573
1772729044100401700,0.678401611328125,0.10659590363502502,-0.5131264328956604,-0.01954767294228077
1772729044109919500,0.68791943359375,0.044898562133312225,-0.38789913058280945,0.06475166976451874
1772729044119437300,0.697437255859375,-0.005803215317428112,-0.2419024556875229,0.1545487940311432
1772729044128955100,0.706955078125,-0.035735588520765305,-0.056199558079242706,0.2461785078048706
1772729044138473000,0.716472900390625,-0.05894844979047775,0.07024945318698883,0.3249800503253937
1772729044147990800,0.72599072265625,-0.07360920310020447,0.1130099818110466,0.3848448097705841
1772729044157508600,0.735508544921875,-0.07360920310020447,0.1081230640411377,0.42394015192985535
1772729044167026400,0.7450263671875,-0.06811141967773438,0.047036588191986084,0.4361574649810791
1772729044176544300,0.754544189453125,-0.07360920310020447,-0.056810423731803894,0.41355544328689575
1772729044186062300,0.764062255859375,-0.10170898586511612,-0.15515965223312378,0.35246896743774414
1772729044195580200,0.773580078125,-0.15607595443725586,-0.22724169492721558,0.25473061203956604
1772729044205098000,0.783097900390625,-0.23976442217826843,-0.31031930446624756,0.11972949653863907
1772729044214615800,0.79261572265625,-0.34055712819099426,-0.4367683231830597,-0.03909534588456154
1772729044224133600,0.802133544921875,-0.43340855836868286,-0.5320632457733154,-0.18875721096992493
1772729044233651500,0.8116513671875,-0.5018253922462463,-0.5229002237319946,-0.30604326725006104
1772729044243169300,0.821169189453125,-0.5433642268180847,-0.430659681558609,-0.38301220536231995
1772729044252687000,0.83068701171875,-0.547029435634613,-0.287106454372406,-0.4068359434604645
1772729044262205000,0.840204833984375,-0.5103775262832642,-0.12034036219120026,-0.36285367608070374
1772729044271722800,0.84972265625,-0.44318240880966187,0.028099779039621353,-0.2516762912273407
1772729044281240600,0.859240478515625,-0.374765545129776,0.1380554437637329,-0.09285144507884979
1772729044290758400,0.86875830078125,-0.32650721073150635,0.20341797173023224,0.08429934084415436
1772729044300276200,0.878276123046875,-0.30146175622940063,0.21807873249053955,0.2712239623069763
1772729044309794000,0.8877939453125,-0.2935205399990082,0.22174391150474548,0.4575377106666565
1772729044319312000,0.897311767578125,-0.2977965772151947,0.2522871494293213,0.627968966960907
1772729044328829700,0.90682958984375,-0.31001389026641846,0.258395791053772,0.7660244107246399
1772729044338347500,0.916347412109375,-0.32100942730903625,0.20708316564559937,0.8637627959251404
1772729044347865600,0.925865478515625,-0.3277289569377899,0.11606431007385254,0.9187406301498413
1772729044357383200,0.935383056640625,-0.33628106117248535,0.02932151034474373,0.9272927641868591
1772729044366901000,0.94490087890625,-0.35155269503593445,-0.0256563201546669,0.8906408548355103
1772729044376418800,0.954418701171875,-0.38331764936447144,-0.09040798991918564,0.8051197528839111
1772729044385936600,0.9639365234375,-0.435241162776947,-0.17287473380565643,0.6713404059410095
1772729044395454700,0.973454833984375,-0.4926624298095703,-0.25411975383758545,0.5015199780464172
1772729044404972500,0.98297265625,-0.5476402640342712,-0.31154105067253113,0.3170388340950012
1772729044414490400,0.992490478515625,-0.5904008150100708,-0.3341430425643921,0.13194678723812103
1772729044424008200,1.00200830078125,-0.61117023229599,-0.33597561717033386,-0.029932374134659767
1772729044433526000,1.011526123046875,-0.609948456287384,-0.32131487131118774,-0.15515965223312378
1772729044443043800,1.0210439453125,-0.5971203446388245,-0.31581708788871765,-0.24251331388950348
1772729044452561700,1.030561767578125,-0.5800161361694336,-0.33108872175216675,-0.2968802750110626
1772729044462079500,1.04007958984375,-0.5561923980712891,-0.3445277214050293,-0.31520622968673706
1772729044471597300,1.049597412109375,-0.5262600183486938,-0.3335321843624115,-0.2968802750110626
1772729044481115100,1.059115234375,-0.4938841760158539,-0.2968802750110626,-0.24801109731197357
1772729044490633000,1.068633056640625,-0.4657844007015228,-0.2364046722650528,-0.17715078592300415
1772729044500150800,1.07815087890625,-0.4468475878238678,-0.18753549456596375,-0.09590577334165573
1772729044509668600,1.087668701171875,-0.43463030457496643,-0.19853104650974274,-0.011606430634856224
1772729044519186400,1.0971865234375,-0.42363473773002625,-0.20647229254245758,0.06902772188186646
1772729044528704300,1.106704345703125,-0.40897396206855774,-0.17837251722812653,0.13988803327083588
1772729044538222000,1.11622216796875,-0.3961458206176758,-0.1637117564678192,0.19181154668331146
1772729044547740000,1.125739990234375,-0.38270679116249084,-0.18875721096992493,0.22235478460788727
1772729044557258000,1.135258056640625,-0.3704894781112671,-0.21380266547203064,0.23335035145282745
1772729044566775800,1.14477587890625,-0.36254823207855225,-0.2254091054201126,0.22479823231697083
1772729044576293400,1.15429345703125,-0.3698786199092865,-0.22418737411499023,0.1948658674955368
1772729044585811200,1.163811279296875,-0.39186975359916687,-0.20891575515270233,0.14233149588108063
1772729044595329300,1.173329345703125,-0.4199695289134979,-0.1747073233127594,0.07513637095689774
1772729044604847000,1.18284716796875,-0.44868019223213196,-0.14233149588108063,0.001221729558892548
1772729044614365000,1.192364990234375,-0.47372564673423767,-0.1594357043504715,-0.07086031138896942
1772729044623882800,1.2018828125,-0.4816668927669525,-0.20280711352825165,-0.13194678723812103
1772729044633400600,1.211400634765625,-0.4712821841239929,-0.21135921776294708,-0.17104214429855347
1772729044642918400,1.22091845703125,-0.45478883385658264,-0.17592905461788177,-0.18753549456596375
1772729044652436200,1.230436279296875,-0.43951719999313354,-0.13011419773101807,-0.18387030065059662
1772729044661954000,1.2399541015625,-0.4260781705379486,-0.10140355676412582,-0.1649334877729416
1772729044671471900,1.249471923828125,-0.40714138746261597,-0.08552107214927673,-0.13683371245861053
1772729044680989700,1.25898974609375,-0.37659814953804016,-0.059864748269319534,-0.10018182545900345
1772729044690507500,1.268507568359375,-0.34116798639297485,0.002443459117785096,-0.053756099194288254
1772729044700025300,1.278025390625,-0.3039052188396454,0.06719512492418289,-0.008552107028663158
1772729044709543200,1.287543212890625,-0.2721402645111084,0.07147117704153061,0.027488915249705315
1772729044719061000,1.29706103515625,-0.2415970265865326,0.006108647678047419,0.049480047076940536
1772729044728578800,1.306578857421875,-0.20433427393436432,-0.06536252796649933,0.0616973415017128
1772729044738096600,1.3160966796875,-0.17318016290664673,-0.09651663154363632,0.06352993845939636
1772729044747614500,1.325614501953125,-0.16035200655460358,-0.12217295914888382,0.05436696484684944
1772729044757132500,1.335132568359375,-0.15729768574237823,-0.16676609218120575,0.04153880476951599
1772729044766650400,1.344650390625,-0.14630211889743805,-0.21807873249053955,0.0360410213470459
1772729044776168200,1.354168212890625,-0.12980876863002777,-0.25961753726005554,0.037262752652168274
1772729044785686000,1.36368603515625,-0.10659590363502502,-0.27977606654167175,0.03543015569448471
1772729044795203800,1.373203857421875,-0.07299833744764328,-0.26450446248054504,0.0360410213470459
1772729044804721700,1.3827216796875,-0.022907428443431854,-0.205861434340477,0.04825831577181816
1772729044814239500,1.392239501953125,0.048563748598098755,-0.09407317638397217,0.08368847519159317
1772729044823757300,1.40175732421875,0.12675444781780243,0.03909534588456154,0.14660754799842834
1772729044833275100,1.411275146484375,0.1951712965965271,0.17104214429855347,0.22785256803035736
1772729044842793000,1.42079296875,0.23915356397628784,0.26022839546203613,0.3035998046398163
1772729044852310800,1.430310791015625,0.2629773020744324,0.27916520833969116,0.3549124300479889
1772729044861828600,1.43982861328125,0.28496840596199036,0.2522871494293213,0.38179048895835876
1772729044871346400,1.449346435546875,0.31001389026641846,0.20769402384757996,0.38789913058280945
1772729044880864300,1.4588642578125,0.32589635252952576,0.12950333952903748,0.37323838472366333
1772729044890382000,1.468382080078125,0.32039856910705566,0.036651886999607086,0.33231043815612793
1772729044899900000,1.47789990234375,0.291687935590744,-0.07086031138896942,0.2632827162742615
1772729044909418000,1.48741796875,0.24770566821098328,-0.185092031955719,0.17348559200763702
1772729044918935800,1.496935791015625,0.20311254262924194,-0.2779434621334076,0.07757982611656189
1772729044928453600,1.50645361328125,0.17318016290664673,-0.31581708788871765,0.001832594396546483
1772729044937971200,1.51597119140625,0.1646280586719513,-0.28588470816612244,-0.03237583488225937
1772729044947489300,1.5254892578125,0.16707152128219604,-0.18753549456596375,-0.021380268037319183
1772729044957007000,1.535007080078125,0.1847866028547287,-0.008552107028663158,0.034208428114652634
1772729044966525000,1.54452490234375,0.22266021370887756,0.25534147024154663,0.11972949653863907
1772729044976042800,1.554042724609375,0.2788597643375397,0.5412262082099915,0.2162461280822754
1772729044985560600,1.563560546875,0.34788748621940613,0.7287616729736328,0.3072649836540222
1772729044995078400,1.573078369140625,0.4218021333217621,0.7629700899124146,0.3750709891319275
1772729045004596200,1.58259619140625,0.4975493550300598,0.6743947267532349,0.4147771894931793
1772729045014114000,1.592114013671875,0.5647444725036621,0.5039634704589844,0.4221075773239136
1772729045023632000,1.6016318359375,0.6154462695121765,0.27488914132118225,0.39767298102378845
1772729045033149700,1.611149658203125,0.6435460448265076,0.03298669680953026,0.347582072019577
1772729045042667500,1.62066748046875,0.639270007610321,-0.1844811588525772,0.26939135789871216
1772729045052185300,1.630185302734375,0.6050615906715393,-0.3585776388645172,0.1649334877729416
1772729045061703200,1.639703125,0.5464185476303101,-0.4880809485912323,0.037262752652168274
1772729045071221000,1.649220947265625,0.48655378818511963,-0.545502245426178,-0.09529490768909454
1772729045080738800,1.65873876953125,0.4358520209789276,-0.5338957905769348,-0.22296564280986786
1772729045090256600,1.668256591796875,0.3857611119747162,-0.4667007029056549,-0.3396408259868622
1772729045099774700,1.677774658203125,0.33505934476852417,-0.34208428859710693,-0.4428769648075104
1772729045109292500,1.68729248046875,0.2874118685722351,-0.21380266547203064,-0.5253437161445618
1772729045118810400,1.696810302734375,0.250149130821228,-0.0977383628487587,-0.574212908744812
1772729045128328200,1.706328125,0.23426663875579834,0.04581485688686371,-0.5809323787689209
1772729045137846000,1.715845947265625,0.23793183267116547,0.2009745091199875,-0.5381718873977661
1772729045147363800,1.72536376953125,0.25381430983543396,0.34636032581329346,-0.45509424805641174
1772729045156881700,1.734881591796875,0.2721402645111084,0.45998117327690125,-0.347582072019577
1772729045166399500,1.7443994140625,0.2965748608112335,0.5351175665855408,-0.22968515753746033
1772729045175917300,1.753917236328125,0.3283398151397705,0.5723803043365479,-0.11545344442129135
1772729045185435100,1.76343505859375,0.3698786199092865,0.5613847374916077,-0.011606430634856224
1772729045194953000,1.772952880859375,0.4156934916973114,0.49663305282592773,0.06963858753442764
1772729045204470800,1.782470703125,0.4633409380912781,0.40866854786872864,0.12705987691879272
1772729045213988600,1.791988525390625,0.5073232054710388,0.3170388340950012,0.1594357043504715
1772729045223506400,1.80150634765625,0.5390881896018982,0.23457208275794983,0.16737695038318634
1772729045233024300,1.811024169921875,0.5568032264709473,0.17776164412498474,0.15821397304534912
1772729045242542300,1.820542236328125,0.5574141144752502,0.1545487940311432,0.13439024984836578
1772729045252060200,1.83006005859375,0.536644697189331,0.13744457066059113,0.10140355676412582
1772729045261578000,1.839577880859375,0.5012145638465881,0.11117739230394363,0.05803215503692627
1772729045271095800,1.849095703125,0.45967575907707214,0.08674279600381851,0.014660755172371864
1772729045280613600,1.858613525390625,0.4224129915237427,0.0873536616563797,-0.023823726922273636
1772729045290131500,1.86813134765625,0.3808741867542267,0.07941242307424545,-0.05864302068948746
1772729045299649300,1.877649169921875,0.33750277757644653,0.04825831577181816,-0.09101885557174683
1772729045309167000,1.8871669921875,0.29962918162345886,0.006108647678047419,-0.1185077652335167
1772729045318685000,1.896684814453125,0.272751122713089,-0.02260199747979641,-0.13927717506885529
1772729045328202800,1.90620263671875,0.25503605604171753,-0.031154103577136993,-0.1490510106086731
1772729045337720600,1.915720458984375,0.2367101013660431,-0.021380268037319183,-0.15027274191379547
1772729045347238400,1.92523828125,0.21471896767616272,-0.011606430634856224,-0.14538581669330597
1772729045356756200,1.934756103515625,0.18784092366695404,0.001832594396546483,-0.13927717506885529
1772729045366274000,1.944274169921875,0.1591302752494812,0.003665188793092966,-0.14049890637397766
1772729045375791900,1.9537919921875,0.129197895526886,-0.053145237267017365,-0.1496618688106537
1772729045385310000,1.96331005859375,0.10720676928758621,-0.16187916696071625,-0.16554436087608337
1772729045394827800,1.972827880859375,0.09804379940032959,-0.2809978127479553,-0.18264856934547424
1772729045404345600,1.982345703125,0.09926552325487137,-0.3591884970664978,-0.1905898153781891
1772729045413863400,1.991863525390625,0.09560033679008484,-0.39889469742774963,-0.18570289015769958
1772729045423381200,2.00138134765625,0.08155044913291931,-0.4172206521034241,-0.1740964651107788
1772729045432899000,2.010899169921875,0.05711585655808449,-0.4404335021972656,-0.1588248461484909
1772729045442417000,2.0204169921875,0.03695731982588768,-0.47036588191986084,-0.13927717506885529
1772729045451934700,2.029934814453125,0.02779434807598591,-0.4819723069667816,-0.11606431007385254
1772729045461452500,2.03945263671875,0.024740023538470268,-0.45875945687294006,-0.08307760953903198
1772729045470970400,2.048970458984375,0.01435532234609127,-0.38240134716033936,-0.047036588191986084
1772729045480488200,2.05848828125,-0.003970621153712273,-0.25350889563560486,-0.006719512399286032
1772729045490006000,2.068006103515625,-0.02107483521103859,-0.08307760953903198,0.04153880476951599
1772729045499523800,2.07752392578125,-0.03390299528837204,0.07024945318698883,0.09285144507884979
1772729045509041700,2.087041748046875,-0.047952886670827866,0.1288924664258957,0.14049890637397766
1772729045518559500,2.0965595703125,-0.05894844979047775,0.11178825795650482,0.17776164412498474
1772729045528077600,2.10607763671875,-0.06750056147575378,0.06597339361906052,0.19608759880065918
1772729045537595400,2.115595458984375,-0.08643736690282822,0.001221729558892548,0.1905898153781891
1772729045547113000,2.125113037109375,-0.12247838824987411,-0.08857539296150208,0.15271618962287903
1772729045556631000,2.134631103515625,-0.17562362551689148,-0.20952661335468292,0.08552107214927673
1772729045566148900,2.14414892578125,-0.23548837006092072,-0.31642794609069824,-0.002443459117785096
1772729045575666700,2.153666748046875,-0.29535311460494995,-0.37201663851737976,-0.0922405794262886
1772729045585184500,2.1631845703125,-0.3454440236091614,-0.3659079968929291,-0.16859868168830872
1772729045594702300,2.172702392578125,-0.38209593296051025,-0.2987128794193268,-0.21441353857517242
1772729045604220200,2.18222021484375,-0.40286532044410706,-0.17592905461788177,-0.2205221801996231
1772729045613738000,2.191738037109375,-0.4046979248523712,-0.02626718580722809,-0.17165300250053406
1772729045623255800,2.201255859375,-0.39248061180114746,0.11972949653863907,-0.07269290834665298
1772729045632773600,2.210773681640625,-0.37720900774002075,0.22724169492721558,0.05925388261675835
1772729045642291500,2.22029150390625,-0.36804601550102234,0.2706131041049957,0.20280711352825165
1772729045651809300,2.229809326171875,-0.36621344089508057,0.26450446248054504,0.34208428859710693
1772729045661327400,2.239327392578125,-0.364991694688797,0.2370155304670334,0.462424635887146
1772729045670845200,2.24884521484375,-0.3643808364868164,0.17653992772102356,0.5540543794631958
1772729045680362800,2.25836279296875,-0.36254823207855225,0.08552107214927673,0.6120865345001221
1772729045689880600,2.267880615234375,-0.3588830530643463,-0.020769402384757996,0.6316341757774353
1772729045699398700,2.277398681640625,-0.35766133666038513,-0.12583814561367035,0.6139190793037415
1772729045708916500,2.28691650390625,-0.3582721948623657,-0.2162461280822754,0.5613847374916077
1772729045718434300,2.296434326171875,-0.3692677617073059,-0.2834412455558777,0.47952884435653687
1772729045727952100,2.3059521484375,-0.39309149980545044,-0.3078758418560028,0.37323838472366333
1772729045737470000,2.315469970703125,-0.435241162776947,-0.29138249158859253,0.24801109731197357
1772729045746987800,2.32498779296875,-0.48960810899734497,-0.2608392536640167,0.10690133273601532
1772729045756505600,2.334505615234375,-0.5427533388137817,-0.24556763470172882,-0.043371398001909256
1772729045766023400,2.3440234375,-0.582459568977356,-0.23335035145282745,-0.18203771114349365
1772729045775541200,2.353541259765625,-0.600785493850708,-0.21502439677715302,-0.29565855860710144
1772729045785059000,2.36305908203125,-0.6032289862632751,-0.205861434340477,-0.3744601011276245
1772729045794577200,2.3725771484375,-0.5940660238265991,-0.20219624042510986,-0.411722868680954
1772729045804095000,2.382094970703125,-0.5659661889076233,-0.18814635276794434,-0.40378162264823914
1772729045813612500,2.391612548828125,-0.517707884311676,-0.17348559200763702,-0.3536907136440277
1772729045823130400,2.40113037109375,-0.45906487107276917,-0.1539379209280014,-0.2675587832927704
1772729045832648400,2.4106484375,-0.3955349326133728,-0.11056652665138245,-0.15821397304534912
1772729045842166300,2.420166259765625,-0.3436114490032196,-0.06719512492418289,-0.043371398001909256
1772729045851684000,2.42968408203125,-0.31123560667037964,-0.053145237267017365,0.05436696484684944
1772729045861202000,2.439201904296875,-0.3026835024356842,-0.07391463965177536,0.12095122784376144
1772729045870719700,2.4487197265625,-0.3081812858581543,-0.10690133273601532,0.1490510106086731
1772729045880237600,2.458237548828125,-0.3246746361255646,-0.13194678723812103,0.14233149588108063
1772729045889755400,2.46775537109375,-0.3442223072052002,-0.15515965223312378,0.10506874322891235
1772729045899273200,2.477273193359375,-0.3686569035053253,-0.15821397304534912,0.047036588191986084
1772729045908791000,2.486791015625,-0.4010327160358429,-0.1331685185432434,-0.023823726922273636
1772729045918308900,2.496308837890625,-0.4462367296218872,-0.10323614627122879,-0.10384701192378998
1772729045927827000,2.505826904296875,-0.49999281764030457,-0.09529490768909454,-0.18570289015769958
1772729045937344800,2.5153447265625,-0.5433642268180847,-0.09834922850131989,-0.2626718580722809
1772729045946862300,2.5248623046875,-0.5616901516914368,-0.1081230640411377,-0.3249800503253937
1772729045956380200,2.534380126953125,-0.5531380772590637,-0.1178968995809555,-0.36712974309921265
1772729045965898200,2.543898193359375,-0.5164861679077148,-0.11728604137897491,-0.38789913058280945
1772729045975416000,2.553416015625,-0.4621191918849945,-0.11484257876873016,-0.38667741417884827
1772729045984934000,2.562933837890625,-0.40347617864608765,-0.12034036219120026,-0.36712974309921265
1772729045994451700,2.57245166015625,-0.34788748621940613,-0.11545344442129135,-0.3329212963581085
1772729046003969500,2.581969482421875,-0.2922987937927246,-0.09162971377372742,-0.2877173125743866
1772729046013487400,2.5914873046875,-0.23854269087314606,-0.06719512492418289,-0.22785256803035736
1772729046023005200,2.601005126953125,-0.1902843713760376,-0.02871064469218254,-0.15760311484336853
1772729046032523000,2.61052294921875,-0.15179990231990814,0.02932151034474373,-0.07757982611656189
1772729046042040800,2.620040771484375,-0.12614357471466064,0.07574722915887833,0.0030543238390237093
1772729046051558700,2.62955859375,-0.10354158282279968,0.10629047453403473,0.08002328872680664
1772729046061076700,2.63907666015625,-0.0766635313630104,0.14172062277793884,0.1539379209280014
1772729046070594600,2.648594482421875,-0.04306596517562866,0.1692095398902893,0.21685700118541718
1772729046080112000,2.658112060546875,-0.010079269297420979,0.1795942485332489,0.25961753726005554
1772729046089630200,2.667630126953125,0.022907428443431854,0.15577052533626556,0.27855435013771057
1772729046099148000,2.67714794921875,0.05345066636800766,0.11178825795650482,0.27427828311920166
1772729046108665900,2.686665771484375,0.07788526266813278,0.050090912729501724,0.25350889563560486
1772729046118183700,2.69618359375,0.09437860548496246,-0.02626718580722809,0.22479823231697083
1772729046127701500,2.705701416015625,0.09865466505289078,-0.09590577334165573,0.1899789422750473
1772729046137219300,2.71521923828125,0.08582650125026703,-0.14477495849132538,0.15149445831775665
1772729046146737200,2.724737060546875,0.07055488228797913,-0.16859868168830872,0.11239911615848541
1772729046156255000,2.7342548828125,0.06444623321294785,-0.15577052533626556,0.07880155742168427
1772729046165772800,2.743772705078125,0.0717766135931015,-0.08552107214927673,0.06108647957444191
1772729046175290600,2.75329052734375,0.09010255336761475,0.0409279391169548,0.06230820715427399
1772729046184808700,2.76280859375,0.10903936624526978,0.18753549456596375,0.08429934084415436
1772729046194326500,2.772326416015625,0.11881320178508759,0.29016077518463135,0.11423171311616898
1772729046203844400,2.78184423828125,0.1230892539024353,0.31581708788871765,0.14294235408306122
1772729046213362000,2.79136181640625,0.1279761642217636,0.2614501118659973,0.1637117564678192
1772729046222880000,2.8008798828125,0.13713914155960083,0.17531819641590118,0.17531819641590118
1772729046232397800,2.810397705078125,0.15057817101478577,0.10567960888147354,0.17592905461788177
1772729046241915600,2.81991552734375,0.1542433500289917,0.07147117704153061,0.1637117564678192
1772729046251433500,2.82943359375,0.14202606678009033,0.06291907280683517,0.13683371245861053
1772729046260951300,2.838951416015625,0.12736530601978302,0.06780599057674408,0.09834922850131989
1772729046270469000,2.84846923828125,0.12431098520755768,0.10567960888147354,0.05925388261675835
1772729046279987000,2.857987060546875,0.14691297709941864,0.18570289015769958,0.03787361457943916
1772729046289504800,2.8675048828125,0.1798996776342392,0.31031930446624756,0.043982263654470444
1772729046299022600,2.877022705078125,0.2202167510986328,0.45509424805641174,0.0818558782339096
1772729046308540700,2.886540771484375,0.2672533392906189,0.5925388336181641,0.14782927930355072
1772729046318058500,2.89605859375,0.3185659945011139,0.7232639193534851,0.22907429933547974
1772729046327576300,2.905576416015625,0.37232208251953125,0.8472694754600525,0.3176496922969818
1772729046337094100,2.91509423828125,0.4266890585422516,0.9303470849990845,0.4050033390522003
1772729046346612000,2.924612060546875,0.47067132592201233,0.952949047088623,0.4734202027320862
1772729046356129800,2.9341298828125,0.508544921875,0.9089667797088623,0.5131264328956604
1772729046365647600,2.943647705078125,0.5342012643814087,0.7874047160148621,0.5143481492996216
1772729046375165400,2.95316552734375,0.5500837564468384,0.6090322136878967,0.47525280714035034
1772729046384683300,2.962683349609375,0.5592467188835144,0.4214966893196106,0.40255987644195557
1772729046394201000,2.972201171875,0.5555815100669861,0.24495677649974823,0.30604326725006104
1772729046403719000,2.981718994140625,0.5329795479774475,0.08491020649671555,0.1893680840730667
1772729046413236700,2.99123681640625,0.49144071340560913,-0.0409279391169548,0.059864748269319534
1772729046422754600,3.000754638671875,0.43829548358917236,-0.13500112295150757,-0.0769689604640007
1772729046432272600,3.010272705078125,0.39186975359916687,-0.19425499439239502,-0.20708316564559937
1772729046441790200,3.019790283203125,0.35216355323791504,-0.23273947834968567,-0.3243691921234131
1772729046451308300,3.029308349609375,0.31062474846839905,-0.26450446248054504,-0.4276053309440613
1772729046460826000,3.038826171875,0.2660316228866577,-0.2822195291519165,-0.5186241865158081
1772729046470344000,3.048343994140625,0.2257145345211029,-0.258395791053772,-0.5864301919937134
1772729046479861800,3.05786181640625,0.1951712965965271,-0.19181154668331146,-0.6261364221572876
1772729046489379600,3.067379638671875,0.1805105358362198,-0.08124501258134842,-0.6267472505569458
1772729046498897400,3.0768974609375,0.1847866028547287,0.09040798991918564,-0.5858193039894104
1772729046508415200,3.086415283203125,0.20738859474658966,0.2877173125743866,-0.5088503360748291
1772729046517933000,3.09593310546875,0.2415970265865326,0.46975502371788025,-0.40805765986442566
1772729046527451000,3.105450927734375,0.2861901521682739,0.6078104376792908,-0.2919933497905731
1772729046536968700,3.11496875,0.33689191937446594,0.6805033683776855,-0.17592905461788177
1772729046546486500,3.124486572265625,0.3894262909889221,0.6908880472183228,-0.07269290834665298
1772729046556004600,3.134004638671875,0.43401941657066345,0.656679630279541,0.004276053514331579
1772729046565522400,3.1435224609375,0.46517354249954224,0.573602020740509,0.05070177838206291
1772729046575040300,3.153040283203125,0.48594292998313904,0.4673115611076355,0.06963858753442764
1772729046584558000,3.16255810546875,0.48960810899734497,0.36712974309921265,0.0616973415017128
1772729046594076000,3.172075927734375,0.48594292998313904,0.2822195291519165,0.0360410213470459
1772729046603593700,3.18159375,0.47433650493621826,0.20280711352825165,-0.004276053514331579
1772729046613111600,3.191111572265625,0.4560105502605438,0.1233946830034256,-0.053756099194288254
1772729046622629400,3.20062939453125,0.43340855836868286,0.053145237267017365,-0.11117739230394363
1772729046632147200,3.210147216796875,0.4108065664768219,0.0030543238390237093,-0.16798780858516693
1772729046641665300,3.219665283203125,0.3851502537727356,-0.02932151034474373,-0.21991132199764252
1772729046651183000,3.22918310546875,0.35094180703163147,-0.05925388261675835,-0.2626718580722809
1772729046660700700,3.23870068359375,0.3087921440601349,-0.08491020649671555,-0.2981020212173462
1772729046670218500,3.248218505859375,0.2684750556945801,-0.10079269111156464,-0.3194822669029236
1772729046679736600,3.257736572265625,0.23426663875579834,-0.1185077652335167,-0.3249800503253937
1772729046689254400,3.26725439453125,0.20738859474658966,-0.13500112295150757,-0.31459537148475647
1772729046698772200,3.276772216796875,0.19089524447917938,-0.12644900381565094,-0.28588470816612244
1772729046708290000,3.2862900390625,0.1805105358362198,-0.09468404203653336,-0.2406807243824005
1772729046717807900,3.295807861328125,0.1737910360097885,-0.04825831577181816,-0.18325942754745483
1772729046727325700,3.30532568359375,0.16646064817905426,-0.007330377586185932,-0.11728604137897491
1772729046736843500,3.314843505859375,0.1536324918270111,0.01588248461484909,-0.0513126403093338
1772729046746361300,3.324361328125,0.1334739476442337,0.007941242307424545,0.0030543238390237093
1772729046755879200,3.333879150390625,0.1078176349401474,-0.01954767294228077,0.0409279391169548
1772729046765397200,3.343397216796875,0.08521563559770584,-0.056199558079242706,0.05864302068948746
1772729046774915000,3.3529150390625,0.06750056147575378,-0.10140355676412582,0.05742128938436508
1772729046784433000,3.362432861328125,0.054672397673130035,-0.14660754799842834,0.043982263654470444
1772729046793950700,3.37195068359375,0.04673115536570549,-0.19120067358016968,0.02260199747979641
1772729046803468500,3.381468505859375,0.03817904740571976,-0.22235478460788727,-0.001221729558892548
1772729046812986400,3.390986328125,0.02718348242342472,-0.2309068888425827,-0.023823726922273636
1772729046822504200,3.400504150390625,0.015577051788568497,-0.2211330533027649,-0.040317077189683914
1772729046832022000,3.41002197265625,0.003970621153712273,-0.19303326308727264,-0.04459312930703163
1772729046841539800,3.419539794921875,-0.003359756199643016,-0.1588248461484909,-0.03298669680953026
1772729046851057700,3.4290576171875,-0.011300998739898205,-0.12400554865598679,-0.007330377586185932
1772729046860575500,3.438575439453125,-0.01802051067352295,-0.08857539296150208,0.03176496922969818
1772729046870093300,3.44809326171875,-0.021685699000954628,-0.05803215503692627,0.07880155742168427
1772729046879611400,3.457611328125,-0.023518294095993042,-0.049480047076940536,0.12217295914888382
1772729046889129200,3.467129150390625,-0.022907428443431854,-0.07452550530433655,0.15821397304534912
1772729046898647000,3.47664697265625,-0.02107483521103859,-0.13500112295150757,0.18081597983837128
1772729046908164900,3.486164794921875,-0.015577051788568497,-0.21930044889450073,0.18814635276794434
1772729046917682700,3.4956826171875,-0.00946840364485979,-0.3139844834804535,0.17287473380565643
1772729046927200500,3.505200439453125,-0.007635809946805239,-0.4013381600379944,0.13011419773101807
1772729046936718300,3.51471826171875,-0.013133592903614044,-0.4862483739852905,0.0665842592716217
1772729046946236200,3.524236083984375,-0.03451386094093323,-0.5754346251487732,-0.010384701192378998
1772729046955754000,3.53375390625,-0.08032871782779694,-0.6615665555000305,-0.09407317638397217
1772729046965272000,3.54327197265625,-0.14080433547496796,-0.7092140316963196,-0.17043127119541168
1772729046974789600,3.55278955078125,-0.2006690800189972,-0.6841685771942139,-0.21930044889450073
1772729046984307500,3.562307373046875,-0.25442516803741455,-0.6017017960548401,-0.23457208275794983
1772729046993825500,3.571825439453125,-0.30512696504592896,-0.4428769648075104,-0.2107483446598053
1772729047003343400,3.58134326171875,-0.3442223072052002,-0.2009745091199875,-0.1441640853881836
1772729047012861200,3.590861083984375,-0.374765545129776,0.034208428114652634,-0.040317077189683914
1772729047022379000,3.60037890625,-0.39186975359916687,0.2107483446598053,0.09407317638397217
1772729047031896800,3.609896728515625,-0.3943132162094116,0.33536475896835327,0.24556763470172882
1772729047041414700,3.61941455078125,-0.38698282837867737,0.3860665261745453,0.39217519760131836
1772729047050932500,3.628932373046875,-0.37720900774002075,0.3390299379825592,0.5137372612953186
1772729047060450300,3.6384501953125,-0.36682429909706116,0.235793799161911,0.5986474752426147
1772729047069968100,3.647968017578125,-0.35643959045410156,0.10140355676412582,0.6401863098144531
1772729047079486200,3.657486328125,-0.3484983444213867,-0.031154103577136993,0.6352993845939636
1772729047089004000,3.667004150390625,-0.34238970279693604,-0.14233149588108063,0.5845975875854492
1772729047098521900,3.67652197265625,-0.3430005609989166,-0.2370155304670334,0.49418962001800537
1772729047108039700,3.686039794921875,-0.35277441143989563,-0.31642794609069824,0.3695732057094574
1772729047117557500,3.6955576171875,-0.3686569035053253,-0.3744601011276245,0.22846342623233795
1772729047127075300,3.705075439453125,-0.39309149980545044,-0.3903425931930542,0.0818558782339096
1772729047136593200,3.71459326171875,-0.4199695289134979,-0.38179048895835876,-0.06108647957444191
1772729047146111000,3.724111083984375,-0.44501498341560364,-0.35674503445625305,-0.18570289015769958
1772729047155628800,3.73362890625,-0.4627300798892975,-0.29993459582328796,-0.28038692474365234
1772729047165146600,3.743146728515625,-0.4725039005279541,-0.23212862014770508,-0.33719736337661743
1772729047174664400,3.75266455078125,-0.47006043791770935,-0.1692095398902893,-0.35185810923576355
1772729047184182300,3.762182373046875,-0.4517345130443573,-0.12644900381565094,-0.3298669755458832
1772729047193700400,3.771700439453125,-0.4205803871154785,-0.1178968995809555,-0.2809978127479553
1772729047203218200,3.78121826171875,-0.3759872615337372,-0.143553227186203,-0.21441353857517242
1772729047212736000,3.790736083984375,-0.32039856910705566,-0.17043127119541168,-0.13744457066059113
1772729047222253800,3.80025390625,-0.2672533392906189,-0.19425499439239502,-0.056199558079242706
1772729047231771600,3.809771728515625,-0.23243404924869537,-0.21441353857517242,0.021991131827235222
1772729047241289500,3.81928955078125,-0.21655155718326569,-0.21380266547203064,0.08857539296150208
1772729047250807300,3.828807373046875,-0.21349723637104034,-0.19425499439239502,0.13133592903614044
1772729047260325000,3.8383251953125,-0.22204934060573578,-0.1740964651107788,0.15088360011577606
1772729047269843200,3.84784326171875,-0.23243404924869537,-0.16187916696071625,0.14233149588108063
1772729047279361000,3.857361083984375,-0.24220788478851318,-0.16126830875873566,0.1081230640411377
1772729047288878600,3.866878662109375,-0.24709481000900269,-0.17837251722812653,0.05253437161445618
1772729047298396700,3.876396728515625,-0.24281874299049377,-0.2052505612373352,-0.01954767294228077
1772729047307914500,3.88591455078125,-0.23304490745067596,-0.24556763470172882,-0.09529490768909454
1772729047317432300,3.895432373046875,-0.21960589289665222,-0.2987128794193268,-0.17165300250053406
1772729047326950100,3.9049501953125,-0.2000582218170166,-0.33169957995414734,-0.23273947834968567
1772729047336468000,3.914468017578125,-0.17806708812713623,-0.3341430425643921,-0.27550002932548523
1772729047345985800,3.92398583984375,-0.16707152128219604,-0.3298669755458832,-0.29565855860710144
1772729047355503600,3.933503662109375,-0.1585194170475006,-0.3335321843624115,-0.2919933497905731
1772729047365021400,3.943021484375,-0.1487455666065216,-0.30543237924575806,-0.26511532068252563
1772729047374539300,3.952539306640625,-0.14141519367694855,-0.23457208275794983,-0.22357651591300964
1772729047384057000,3.96205712890625,-0.1438586562871933,-0.16126830875873566,-0.16676609218120575
1772729047393575200,3.9715751953125,-0.1438586562871933,-0.09957095980644226,-0.09896009415388107
1772729047403093000,3.981093017578125,-0.12553271651268005,-0.04153880476951599,-0.023823726922273636
1772729047412610800,3.99061083984375,-0.0925460159778595,0.010995565913617611,0.04825831577181816
1772729047422128600,4.000128662109375,-0.05345066636800766,0.03909534588456154,0.10323614627122879
1772729047431646500,4.009646484375,-0.016798781231045723,0.04459312930703163,0.13622283935546875
1772729047441164300,4.019164306640625,0.019853105768561363,0.029932374134659767,0.14721840620040894
1772729047450682000,4.02868212890625,0.04978547990322113,-0.001221729558892548,0.13561198115348816
1772729047460200200,4.0382001953125,0.07238747924566269,-0.031154103577136993,0.10995566099882126
1772729047469717800,4.0477177734375,0.08582650125026703,-0.07086031138896942,0.0769689604640007
1772729047479235600,4.057235595703125,0.09132428467273712,-0.1130099818110466,0.046425722539424896
1772729047488753700,4.066753662109375,0.09621120244264603,-0.12461641430854797,0.028099779039621353
1772729047498271500,4.076271484375,0.10476330667734146,-0.11239911615848541,0.01954767294228077
1772729047507789300,4.085789306640625,0.1182023361325264,-0.10079269111156464,0.023212861269712448
1772729047517307100,4.09530712890625,0.1432477980852127,-0.0824667438864708,0.0409279391169548
1772729047526825000,4.104824951171875,0.17134757339954376,-0.036651886999607086,0.07024945318698883
1772729047536342800,4.1143427734375,0.2049451321363449,0.021380268037319183,0.11117739230394363
1772729047545860600,4.123860595703125,0.23915356397628784,0.08491020649671555,0.16676609218120575
1772729047555378400,4.13337841796875,0.27580544352531433,0.18570289015769958,0.24006985127925873
1772729047564896500,4.142896484375,0.3087921440601349,0.3231474757194519,0.32192572951316833
1772729047574414300,4.152414306640625,0.33017241954803467,0.4428769648075104,0.4001164436340332
1772729047583932200,4.16193212890625,0.3454440236091614,0.5027416944503784,0.45875945687294006
1772729047593450000,4.171449951171875,0.3588830530643463,0.4972439408302307,0.49541133642196655
1772729047602967800,4.1809677734375,0.3802633285522461,0.43921178579330444,0.5045742988586426
1772729047612485600,4.190485595703125,0.4004218578338623,0.3426951467990875,0.4831940531730652
1772729047622003500,4.20000341796875,0.4175260663032532,0.2467893660068512,0.4324922561645508
1772729047631521300,4.209521240234375,0.425467312335968,0.16737695038318634,0.3585776388645172
1772729047641039000,4.2190390625,0.41447174549102783,0.10873392969369888,0.27366742491722107
1772729047650557000,4.228556884765625,0.3845393657684326,0.06291907280683517,0.18264856934547424
1772729047660074800,4.23807470703125,0.3430005609989166,0.017715077847242355,0.09834922850131989
1772729047669592600,4.247592529296875,0.31062474846839905,0.001221729558892548,0.04764745384454727
1772729047679110700,4.257110595703125,0.2935205399990082,0.05558869615197182,0.05253437161445618
1772729047688628500,4.26662841796875,0.28557929396629333,0.1594357043504715,0.11178825795650482
1772729047698146300,4.276146240234375,0.2788597643375397,0.3090975880622864,0.20769402384757996
1772729047707664100,4.2856640625,0.27519458532333374,0.5302306413650513,0.3182605504989624
1772729047717182000,4.295181884765625,0.2880227565765381,0.7776308655738831,0.42821621894836426
1772729047726699800,4.30469970703125,0.3289506733417511,0.963333785533905,0.526565432548523
1772729047736217600,4.314217529296875,0.3943132162094116,1.0317505598068237,0.6017017960548401
1772729047745735400,4.3237353515625,0.47494736313819885,0.9938769936561584,0.6524035930633545
1772729047755253500,4.33325341796875,0.5555815100669861,0.9053016304969788,0.6750055551528931
1772729047764771300,4.342771240234375,0.6221657991409302,0.7831286191940308,0.6615665555000305
1772729047774289200,4.3522890625,0.6618719696998596,0.6169734001159668,0.6102539300918579
1772729047783807000,4.361806884765625,0.6777544617652893,0.4068359434604645,0.5241219997406006
1772729047793324800,4.37132470703125,0.6765327453613281,0.185092031955719,0.41416633129119873
1772729047802842600,4.380842529296875,0.6508764028549194,-0.013439024798572063,0.2828303873538971
1772729047812360400,4.3903603515625,0.6038398146629333,-0.185092031955719,0.1337793916463852
1772729047821878300,4.399878173828125,0.5427533388137817,-0.2993237376213074,-0.02260199747979641
1772729047831396000,4.40939599609375,0.4780016839504242,-0.3549124300479889,-0.16554436087608337
1772729047840914000,4.418913818359375,0.4175260663032532,-0.3433060050010681,-0.2883281707763672
1772729047850431700,4.428431640625,0.3582721948623657,-0.2657261788845062,-0.38850998878479004
1772729047859949800,4.43794970703125,0.3087921440601349,-0.1533270627260208,-0.45998117327690125
1772729047869467600,4.447467529296875,0.27947062253952026,-0.007330377586185932,-0.48930269479751587
1772729047878985500,4.4569853515625,0.2776380479335785,0.17226386070251465,-0.47097674012184143
1772729047888503300,4.46650341796875,0.29474225640296936,0.3543015718460083,-0.40805765986442566
1772729047898021000,4.476021240234375,0.324063777923584,0.5100721120834351,-0.31093016266822815
1772729047907539000,4.4855390625,0.3588830530643463,0.6200277805328369,-0.19242240488529205
1772729047917056800,4.495056884765625,0.3998109996318817,0.6792816519737244,-0.06475166976451874
1772729047926574600,4.50457470703125,0.4358520209789276,0.7055488228797913,0.05253437161445618
1772729047936092700,4.5140927734375,0.46028661727905273,0.6969966888427734,0.14538581669330597
1772729047945610500,4.523610595703125,0.4731147587299347,0.6401863098144531,0.20402882993221283
1772729047955128300,4.53312841796875,0.4822777509689331,0.5332849621772766,0.22907429933547974
1772729047964646100,4.542646240234375,0.48960810899734497,0.401949018239975,0.2254091054201126
1772729047974164000,4.5521640625,0.5012145638465881,0.29016077518463135,0.20280711352825165
1772729047983681800,4.561681884765625,0.5073232054710388,0.21930044889450073,0.16187916696071625
1772729047993199600,4.57119970703125,0.499381959438324,0.1637117564678192,0.10079269111156464
1772729048002717400,4.580717529296875,0.476779967546463,0.10873392969369888,0.0256563201546669
1772729048012235300,4.5902353515625,0.4474584460258484,0.06780599057674408,-0.05864302068948746
1772729048021753000,4.599753173828125,0.416304349899292,0.02871064469218254,-0.1441640853881836
1772729048031271000,4.60927099609375,0.38331764936447144,-0.010384701192378998,-0.22479823231697083
1772729048040789000,4.6187890625,0.35155269503593445,-0.029932374134659767,-0.2938259541988373
1772729048050306800,4.628306884765625,0.3185659945011139,-0.030543239787220955,-0.34697118401527405
1772729048059824600,4.63782470703125,0.2868010103702545,-0.01954767294228077,-0.3811796307563782
1772729048069342500,4.647342529296875,0.25870123505592346,0,-0.39400777220726013
1772729048078860300,4.6568603515625,0.23976442217826843,0.023212861269712448,-0.3842339515686035
1772729048088378000,4.666378173828125,0.22815799713134766,0.05925388261675835,-0.3488037884235382
1772729048097896000,4.67589599609375,0.2208276242017746,0.09101885557174683,-0.29626941680908203
1772729048107414000,4.6854140625,0.21166464686393738,0.10140355676412582,-0.2364046722650528
1772729048116931800,4.694931884765625,0.20616686344146729,0.10140355676412582,-0.17898337543010712
1772729048126449700,4.70444970703125,0.2049451321363449,0.09285144507884979,-0.1288924664258957
1772729048135967500,4.713967529296875,0.20799945294857025,0.06352993845939636,-0.0922405794262886
1772729048145485300,4.7234853515625,0.20922118425369263,0.01893680728971958,-0.07269290834665298
1772729048155003100,4.733003173828125,0.20799945294857025,-0.025045456364750862,-0.06597339361906052
1772729048164521000,4.74252099609375,0.20677772164344788,-0.06108647957444191,-0.07086031138896942
1772729048174038800,4.752038818359375,0.20311254262924194,-0.09162971377372742,-0.08307760953903198
1772729048183556600,4.761556640625,0.19761475920677185,-0.11911863088607788,-0.09834922850131989
1772729048193074400,4.771074462890625,0.189673513174057,-0.1441640853881836,-0.11545344442129135
1772729048202592300,4.78059228515625,0.17806708812713623,-0.164322629570961,-0.1337793916463852
1772729048212110300,4.7901103515625,0.16584978997707367,-0.1802051067352295,-0.15638138353824615
1772729048221628200,4.799628173828125,0.15118902921676636,-0.20952661335468292,-0.1795942485332489
1772729048231146000,4.80914599609375,0.14019346237182617,-0.23273947834968567,-0.19364413619041443
1772729048240663800,4.818663818359375,0.1279761642217636,-0.23396120965480804,-0.19853104650974274
1772729048250181600,4.828181640625,0.10720676928758621,-0.2101374864578247,-0.1905898153781891
1772729048259699500,4.837699462890625,0.07544180005788803,-0.1649334877729416,-0.1795942485332489
1772729048269217300,4.84721728515625,0.035735588520765305,-0.12278381735086441,-0.1649334877729416
1772729048278735000,4.856735107421875,-0.010079269297420979,-0.09346231073141098,-0.15088360011577606
1772729048288253200,4.866253173828125,-0.06444623321294785,-0.05864302068948746,-0.1490510106086731
1772729048297771000,4.87577099609375,-0.13775001466274261,-0.018325943499803543,-0.17226386070251465
1772729048307288800,4.885288818359375,-0.210442915558815,-0.017104214057326317,-0.20952661335468292
1772729048316806700,4.894806640625,-0.2715294063091278,-0.009773836471140385,-0.2528980076313019
1772729048326324500,4.904324462890625,-0.32100942730903625,-0.015271619893610477,-0.2993237376213074
1772729048335842300,4.91384228515625,-0.3692677617073059,-0.0720820426940918,-0.3536907136440277
1772729048345360100,4.923360107421875,-0.41874781250953674,-0.17776164412498474,-0.41905322670936584
1772729048354878200,4.932878173828125,-0.4657844007015228,-0.29443681240081787,-0.48991355299949646
1772729048364395800,4.942395751953125,-0.4883863925933838,-0.3756818473339081,-0.5564978122711182
1772729048373913600,4.95191357421875,-0.5048797130584717,-0.472198486328125,-0.6126973628997803
1772729048383431700,4.961431640625,-0.5329795479774475,-0.5375609993934631,-0.618806004524231
1772729048392949500,4.970949462890625,-0.5623010396957397,-0.4373791813850403,-0.5119046568870544
1772729048402467300,4.98046728515625,-0.5647444725036621,-0.27977606654167175,-0.35246896743774414
1772729048411985200,4.989985107421875,-0.5348120927810669,-0.16126830875873566,-0.2101374864578247
1772729048421503000,4.9995029296875,-0.4682278633117676,-0.018325943499803543,-0.08002328872680664
1772729048431020800,5.009020751953125,-0.3759872615337372,0.1692095398902893,0.06047561392188072
1772729048440538600,5.01853857421875,-0.2776380479335785,0.3170388340950012,0.20769402384757996
1772729048450056400,5.028056396484375,-0.19700388610363007,0.3500255048274994,0.3384190797805786
1772729048459574500,5.037574462890625,-0.1438586562871933,0.2822195291519165,0.4459312856197357
1772729048469092400,5.04709228515625,-0.11698060482740402,0.16310089826583862,0.5259546041488647
1772729048478610200,5.056610107421875,-0.11881320178508759,0.023823726922273636,0.5723803043365479
1772729048488128000,5.0661279296875,-0.15607595443725586,-0.11972949653863907,0.5790998339653015
1772729048497645800,5.075645751953125,-0.22754712402820587,-0.24862197041511536,0.5393936038017273
1772729048507163600,5.08516357421875,-0.3246746361255646,-0.3481929302215576,0.4514290690422058
1772729048516681500,5.094681396484375,-0.4272999167442322,-0.4257727563381195,0.31642794609069824
1772729048526199600,5.104199462890625,-0.517707884311676,-0.48075059056282043,0.14782927930355072
1772729048535717400,5.11371728515625,-0.581848680973053,-0.5076286196708679,-0.03176496922969818
1772729048545235000,5.12323486328125,-0.6154462695121765,-0.49663305282592773,-0.1997527778148651
1772729048554753000,5.1327529296875,-0.6209440231323242,-0.4373791813850403,-0.33536475896835327
1772729048564270800,5.142270751953125,-0.601396381855011,-0.34208428859710693,-0.4251618981361389
1772729048573788700,5.15178857421875,-0.5598575472831726,-0.23762640357017517,-0.45937031507492065
1772729048583306500,5.161306396484375,-0.5079340934753418,-0.15027274191379547,-0.43921178579330444
1772729048592824300,5.17082421875,-0.45539969205856323,-0.08429934084415436,-0.3707949221134186
1772729048602342100,5.180342041015625,-0.406530499458313,-0.04153880476951599,-0.27488914132118225
1772729048611860000,5.18985986328125,-0.3656025826931,-0.03909534588456154,-0.17226386070251465
1772729048621378000,5.1993779296875,-0.3295615613460541,-0.09896009415388107,-0.07330377399921417
1772729048630895900,5.208895751953125,-0.29901832342147827,-0.1795942485332489,0.014049889519810677
1772729048640413700,5.21841357421875,-0.27519458532333374,-0.2419024556875229,0.09101885557174683
1772729048649931500,5.227931640625,-0.26969680190086365,-0.2779434621334076,0.15149445831775665
1772729048659449300,5.237449462890625,-0.281914085149765,-0.28527384996414185,0.1893680840730667
1772729048668967200,5.24696728515625,-0.29962918162345886,-0.2706131041049957,0.1997527778148651
1772729048678485000,5.256485107421875,-0.31490078568458557,-0.24434591829776764,0.17776164412498474
1772729048688002800,5.2660029296875,-0.3222311735153198,-0.21991132199764252,0.12583814561367035
1772729048697521000,5.27552099609375,-0.32650721073150635,-0.20158538222312927,0.05192350596189499
1772729048707038700,5.285038818359375,-0.33200499415397644,-0.19425499439239502,-0.033597562462091446
1772729048716556500,5.294556640625,-0.34116798639297485,-0.19120067358016968,-0.12461641430854797
1772729048726074400,5.304074462890625,-0.35155269503593445,-0.18264856934547424,-0.20708316564559937
1772729048735592200,5.31359228515625,-0.3637699782848358,-0.16615521907806396,-0.2730565667152405
1772729048745110000,5.323110107421875,-0.37232208251953125,-0.15760311484336853,-0.31581708788871765
1772729048754627800,5.3326279296875,-0.3698786199092865,-0.16615521907806396,-0.33169957995414734
1772729048764145700,5.342145751953125,-0.35277441143989563,-0.1795942485332489,-0.3225366175174713
1772729048773663500,5.35166357421875,-0.32650721073150635,-0.17592905461788177,-0.2974911332130432
1772729048783181300,5.361181396484375,-0.2984074354171753,-0.15271618962287903,-0.26511532068252563
1772729048792699400,5.370699462890625,-0.272751122713089,-0.10506874322891235,-0.22907429933547974
1772729048802217200,5.38021728515625,-0.24281874299049377,-0.03298669680953026,-0.19364413619041443
1772729048811735000,5.389735107421875,-0.2055560052394867,0.04153880476951599,-0.1588248461484909
1772729048821252900,5.3992529296875,-0.16035200655460358,0.08796452730894089,-0.12767073512077332
1772729048830770700,5.408770751953125,-0.11087195575237274,0.08796452730894089,-0.10079269111156464
1772729048840288500,5.41828857421875,-0.05955931544303894,0.05436696484684944,-0.07391463965177536
1772729048849806300,5.427806396484375,-0.010690134018659592,0.009162971749901772,-0.04764745384454727
1772729048859324200,5.43732421875,0.024740023538470268,-0.03481929376721382,-0.0256563201546669
1772729048868842200,5.44684228515625,0.044898562133312225,-0.07574722915887833,-0.013439024798572063
1772729048878360000,5.456360107421875,0.060781046748161316,-0.10323614627122879,-0.0030543238390237093
1772729048887878000,5.4658779296875,0.07849612087011337,-0.09651663154363632,0.009162971749901772
1772729048897395700,5.475395751953125,0.09315688163042068,-0.06719512492418289,0.020158538594841957
1772729048906913500,5.48491357421875,0.09621120244264603,-0.030543239787220955,0.0256563201546669
1772729048916431400,5.494431396484375,0.10537417232990265,0.01282816007733345,0.02626718580722809
1772729048925949200,5.50394921875,0.12064579129219055,0.05864302068948746,0.02871064469218254
1772729048935467300,5.51346728515625,0.1328630894422531,0.08979712426662445,0.043982263654470444
1772729048944985000,5.522985107421875,0.14752385020256042,0.1178968995809555,0.07147117704153061
1772729048954503000,5.5325029296875,0.16646064817905426,0.1533270627260208,0.11911863088607788
1772729048964020700,5.542020751953125,0.18784092366695404,0.20463970303535461,0.18753549456596375
1772729048973538600,5.55153857421875,0.210442915558815,0.2718348205089569,0.26878049969673157
1772729048983056400,5.561056396484375,0.22449280321598053,0.3445277214050293,0.34697118401527405
1772729048992574200,5.57057421875,0.2367101013660431,0.40927940607070923,0.4105011224746704
1772729049002092000,5.580092041015625,0.24831652641296387,0.41844236850738525,0.4453204274177551
1772729049011609900,5.58960986328125,0.2629773020744324,0.35185810923576355,0.44837474822998047
1772729049021127700,5.599127685546875,0.27947062253952026,0.2364046722650528,0.4263836145401001
1772729049030645800,5.608645751953125,0.2922987937927246,0.10629047453403473,0.3805687427520752
1772729049040163600,5.61816357421875,0.28985533118247986,-0.020158538594841957,0.32070401310920715
1772729049049681400,5.627681396484375,0.2782489061355591,-0.10079269111156464,0.258395791053772
1772729049059199200,5.63719921875,0.2660316228866577,-0.1081230640411377,0.20891575515270233
1772729049068717000,5.646717041015625,0.2415970265865326,-0.06230820715427399,0.16737695038318634
1772729049078235000,5.65623486328125,0.21471896767616272,0.01588248461484909,0.14782927930355072
1772729049087752700,5.665752685546875,0.2049451321363449,0.11484257876873016,0.18875721096992493
1772729049097270800,5.675270751953125,0.2110537886619568,0.2816086709499359,0.28588470816612244
1772729049106788600,5.68478857421875,0.21288637816905975,0.5180133581161499,0.4007273018360138
1772729049116306400,5.694306396484375,0.210442915558815,0.7861829996109009,0.5027416944503784
1772729049125824300,5.70382421875,0.21716243028640747,1.0036507844924927,0.5797106623649597
1772729049135342000,5.713342041015625,0.24709481000900269,1.1246020793914795,0.6230821013450623
1772729049144860000,5.72285986328125,0.3020726442337036,1.1557561159133911,0.6371319890022278
1772729049154377700,5.732377685546875,0.3643808364868164,1.0983349084854126,0.6133082509040833
1772729049163895800,5.741895751953125,0.4120282828807831,0.9474512934684753,0.5516108870506287
1772729049173413400,5.751413330078125,0.4419606626033783,0.740368127822876,0.4630354940891266
1772729049182931200,5.76093115234375,0.4608974754810333,0.5137372612953186,0.35735589265823364
1772729049192449300,5.77044921875,0.4712821841239929,0.3176496922969818,0.24006985127925873
1772729049201967000,5.779967041015625,0.47555822134017944,0.15821397304534912,0.11667517572641373
1772729049211485000,5.78948486328125,0.4780016839504242,0.027488915249705315,-0.001832594396546483
1772729049221002800,5.799002685546875,0.47494736313819885,-0.046425722539424896,-0.10995566099882126
1772729049230520600,5.8085205078125,0.46517354249954224,-0.06597339361906052,-0.20158538222312927
1772729049240038400,5.818038330078125,0.4370737373828888,-0.0616973415017128,-0.26939135789871216
1772729049249556200,5.82755615234375,0.3955349326133728,-0.02932151034474373,-0.30970844626426697
1772729049259074300,5.83707421875,0.34727662801742554,0.0256563201546669,-0.3243691921234131
1772729049268592000,5.846592041015625,0.29901832342147827,0.09346231073141098,-0.3170388340950012
1772729049278110000,5.85610986328125,0.25381430983543396,0.16310089826583862,-0.2987128794193268
1772729049287627800,5.865627685546875,0.22204934060573578,0.21380266547203064,-0.2712239623069763
1772729049297145600,5.8751455078125,0.20799945294857025,0.2419024556875229,-0.2412915825843811
1772729049306663400,5.884663330078125,0.21655155718326569,0.2706131041049957,-0.20891575515270233
1772729049316181200,5.89418115234375,0.24404047429561615,0.31031930446624756,-0.17776164412498474
1772729049325699300,5.90369921875,0.2874118685722351,0.36224281787872314,-0.143553227186203
1772729049335217200,5.913217041015625,0.34055712819099426,0.411722868680954,-0.11178825795650482
1772729049344735000,5.92273486328125,0.3955349326133728,0.430659681558609,-0.0873536616563797
1772729049354252800,5.932252685546875,0.44440412521362305,0.4361574649810791,-0.0720820426940918
1772729049363770600,5.9417705078125,0.4871646761894226,0.4263836145401001,-0.06230820715427399
1772729049373288400,5.951288330078125,0.5134318470954895,0.3787361681461334,-0.056810423731803894
1772729049382806300,5.96080615234375,0.5170970559120178,0.30970844626426697,-0.056810423731803894
1772729049392324000,5.970323974609375,0.5061014890670776,0.2528980076313019,-0.06414080411195755
1772729049401842000,5.979842041015625,0.4816668927669525,0.2052505612373352,-0.08124501258134842
1772729049411359700,5.98935986328125,0.44929105043411255,0.15088360011577606,-0.10567960888147354
1772729049420877800,5.9988779296875,0.4120282828807831,0.0977383628487587,-0.13683371245861053
1772729049430395600,6.008395751953125,0.3741546869277954,0.0513126403093338,-0.17165300250053406
1772729049439913500,6.01791357421875,0.33689191937446594,0.021991131827235222,-0.20952661335468292
1772729049449431300,6.027431396484375,0.30512696504592896,0.014049889519810677,-0.24556763470172882
1772729049458949000,6.03694921875,0.27947062253952026,0.01649334840476513,-0.27427828311920166
1772729049468467000,6.046467041015625,0.2562577724456787,0.029932374134659767,-0.29138249158859253
1772729049477984800,6.05598486328125,0.23243404924869537,0.04520399495959282,-0.2938259541988373
1772729049487502800,6.0655029296875,0.19822561740875244,0.0513126403093338,-0.28466299176216125
1772729049497020700,6.075020751953125,0.16096286475658417,0.04581485688686371,-0.26511532068252563
1772729049506538500,6.08453857421875,0.1230892539024353,0.01649334840476513,-0.24251331388950348
1772729049516056300,6.094056396484375,0.09376774728298187,-0.034208428114652634,-0.21991132199764252
1772729049525574100,6.10357421875,0.07910698652267456,-0.07880155742168427,-0.20158538222312927
1772729049535092000,6.113092041015625,0.07544180005788803,-0.12950333952903748,-0.1899789422750473
1772729049544609800,6.12260986328125,0.07299833744764328,-0.19730933010578156,-0.1899789422750473
1772729049554128000,6.1321279296875,0.06383536756038666,-0.268169641494751,-0.1948658674955368
1772729049563645700,6.141645751953125,0.05283980444073677,-0.32070401310920715,-0.1997527778148651
1772729049573163500,6.15116357421875,0.03390299528837204,-0.3396408259868622,-0.19853104650974274
1772729049582681300,6.160681396484375,0.005192350596189499,-0.32620179653167725,-0.19242240488529205
1772729049592199200,6.17019921875,-0.032681263983249664,-0.2993237376213074,-0.18203771114349365
1772729049601717000,6.179717041015625,-0.0717766135931015,-0.26878049969673157,-0.1637117564678192
1772729049611234800,6.18923486328125,-0.10598503798246384,-0.2254091054201126,-0.13988803327083588
1772729049620753000,6.1987529296875,-0.1328630894422531,-0.16798780858516693,-0.11423171311616898
1772729049630270500,6.2082705078125,-0.15546508133411407,-0.11178825795650482,-0.09040798991918564
1772729049639788300,6.217788330078125,-0.1701258420944214,-0.06597339361906052,-0.07269290834665298
1772729049649306400,6.227306396484375,-0.1805105358362198,-0.047036588191986084,-0.05558869615197182
1772729049658824200,6.23682421875,-0.19150610268115997,-0.039706211537122726,-0.039706211537122726
1772729049668342000,6.246342041015625,-0.20311254262924194,-0.034208428114652634,-0.018325943499803543
1772729049677859800,6.25585986328125,-0.21288637816905975,-0.03481929376721382,0.008552107028663158
1772729049687377700,6.265377685546875,-0.2214384824037552,-0.03909534588456154,0.03909534588456154
1772729049696895500,6.2748955078125,-0.2306014597415924,-0.04276053607463837,0.06352993845939636
1772729049706413300,6.284413330078125,-0.24465134739875793,-0.06108647957444191,0.0720820426940918
1772729049715931400,6.293931396484375,-0.2623664140701294,-0.10934479534626007,0.05558869615197182
1772729049725449200,6.30344921875,-0.29413139820098877,-0.1954767256975174,0.000610864779446274
1772729049734967000,6.312967041015625,-0.33139413595199585,-0.318871408700943,-0.09468404203653336
1772729049744484900,6.32248486328125,-0.39736753702163696,-0.516791582107544,-0.22296564280986786
1772729049754002700,6.332002685546875,-0.4944950342178345,-0.7360920310020447,-0.3695732057094574
1772729049763520500,6.3415205078125,-0.5830704569816589,-0.8973603844642639,-0.5045742988586426
1772729049773038300,6.351038330078125,-0.6429351568222046,-0.94439697265625,-0.6102539300918579
1772729049782556400,6.360556396484375,-0.68386310338974,-0.8265000581741333,-0.6420188546180725
1772729049792074200,6.37007421875,-0.7150171995162964,-0.6493492722511292,-0.5693259835243225
1772729049801592000,6.379592041015625,-0.7107411623001099,-0.45448338985443115,-0.4263836145401001
1772729049811110000,6.38910986328125,-0.6618719696998596,-0.21135921776294708,-0.22724169492721558
1772729049820627700,6.398627685546875,-0.5904008150100708,0.024434590712189674,0.0030543238390237093
1772729049830145500,6.4081455078125,-0.5158752799034119,0.18875721096992493,0.235793799161911
1772729049839663400,6.417663330078125,-0.4633409380912781,0.22785256803035736,0.43432486057281494
1772729049849181400,6.427181396484375,-0.43279770016670227,0.1692095398902893,0.5748237371444702
1772729049858699000,6.436698974609375,-0.4175260663032532,0.08063415437936783,0.6615665555000305
1772729049868217000,6.446217041015625,-0.4211912751197815,-0.036651886999607086,0.6884446144104004
1772729049877735000,6.45573486328125,-0.44501498341560364,-0.17043127119541168,0.6560688018798828
1772729049887252700,6.465252685546875,-0.48594292998313904,-0.2718348205089569,0.573602020740509
1772729049896770600,6.4747705078125,-0.5403099060058594,-0.3591884970664978,0.4477638900279999
1772729049906288400,6.484288330078125,-0.6068941354751587,-0.43310311436653137,0.28954991698265076
1772729049915806200,6.49380615234375,-0.6789761781692505,-0.4819723069667816,0.10629047453403473
1772729049925324000,6.503323974609375,-0.7504473924636841,-0.5112938284873962,-0.0818558782339096
1772729049934842000,6.512842041015625,-0.8109229803085327,-0.5070177912712097,-0.2516762912273407
1772729049944360000,6.52235986328125,-0.8567378520965576,-0.44348782300949097,-0.38240134716033936
1772729049953877800,6.531877685546875,-0.8799507021903992,-0.3488037884235382,-0.46547895669937134
1772729049963395600,6.5413955078125,-0.8823941946029663,-0.2565632164478302,-0.49541133642196655
1772729049972913400,6.550913330078125,-0.8542944192886353,-0.1893680840730667,-0.471587598323822
1772729049982431200,6.56043115234375,-0.796262264251709,-0.14110976457595825,-0.39767298102378845
1772729049991949000,6.569948974609375,-0.7095194458961487,-0.08429934084415436,-0.27916520833969116
1772729050001467100,6.579467041015625,-0.6081159114837646,-0.030543239787220955,-0.13255766034126282
1772729050010985000,6.58898486328125,-0.5195404887199402,-0.009773836471140385,0.017715077847242355
1772729050020502800,6.598502685546875,-0.4560105502605438,-0.02871064469218254,0.14660754799842834
1772729050030020600,6.6080205078125,-0.41813695430755615,-0.07757982611656189,0.2406807243824005
1772729050039538400,6.617538330078125,-0.39797839522361755,-0.13072505593299866,0.29504770040512085
1772729050049056300,6.62705615234375,-0.3998109996318817,-0.17348559200763702,0.3066541254520416
1772729050058574000,6.636573974609375,-0.4199695289134979,-0.19303326308727264,0.277332603931427
1772729050068092200,6.646092041015625,-0.4511236250400543,-0.1905898153781891,0.2107483446598053
1772729050077610000,6.65560986328125,-0.48105600476264954,-0.18325942754745483,0.11117739230394363
1772729050087127800,6.6651279296875,-0.4969384968280792,-0.20219624042510986,-0.010995565913617611
1772729050096645600,6.674645751953125,-0.4938841760158539,-0.24923282861709595,-0.14660754799842834
1772729050106163500,6.68416357421875,-0.47433650493621826,-0.2981020212173462,-0.2761108875274658
1772729050115681300,6.693681396484375,-0.4413498044013977,-0.33047783374786377,-0.3836230933666229
1772729050125199000,6.70319921875,-0.4010327160358429,-0.33658650517463684,-0.45448338985443115
1772729050134717000,6.712717041015625,-0.3601047992706299,-0.3194822669029236,-0.47952884435653687
1772729050144234800,6.72223486328125,-0.324063777923584,-0.29443681240081787,-0.46425724029541016
1772729050153752800,6.7317529296875,-0.29474225640296936,-0.24862197041511536,-0.4153880476951599
1772729050163270700,6.741270751953125,-0.26542073488235474,-0.17898337543010712,-0.34574946761131287
1772729050172788500,6.75078857421875,-0.23548837006092072,-0.10751219838857651,-0.27427828311920166
1772729050182306300,6.760306396484375,-0.2006690800189972,-0.0513126403093338,-0.21319180727005005
1772729050191824100,6.76982421875,-0.1591302752494812,-0.03237583488225937,-0.16249002516269684
1772729050201342000,6.779342041015625,-0.1078176349401474,-0.050090912729501724,-0.12400554865598679
1772729050210859800,6.78885986328125,-0.05100720748305321,-0.0818558782339096,-0.09712749719619751
1772729050220377900,6.7983779296875,0.011300998739898205,-0.1130099818110466,-0.07880155742168427
1772729050229895700,6.807895751953125,0.0717766135931015,-0.13011419773101807,-0.06597339361906052
1772729050239413500,6.81741357421875,0.12736530601978302,-0.12705987691879272,-0.0513126403093338
1772729050248931300,6.826931396484375,0.17867794632911682,-0.10445787757635117,-0.030543239787220955
1772729050258449200,6.83644921875,0.22266021370887756,-0.07819069176912308,-0.0030543238390237093
1772729050267967000,6.845967041015625,0.2525925934314728,-0.059864748269319534,0.03176496922969818
1772729050277484800,6.85548486328125,0.2721402645111084,-0.0513126403093338,0.06841685622930527
1772729050287003000,6.8650029296875,0.2868010103702545,-0.04459312930703163,0.10140355676412582
1772729050296520700,6.874520751953125,0.30512696504592896,-0.033597562462091446,0.12767073512077332
1772729050306038500,6.88403857421875,0.33567020297050476,0.009773836471140385,0.15027274191379547
1772729050315556400,6.893556396484375,0.36682429909706116,0.0824667438864708,0.17348559200763702
1772729050325074200,6.90307421875,0.39186975359916687,0.17287473380565643,0.19914191961288452
1772729050334592000,6.912592041015625,0.4156934916973114,0.2761108875274658,0.22846342623233795
1772729050344109800,6.92210986328125,0.44318240880966187,0.36163195967674255,0.25473061203956604
1772729050353627600,6.931627685546875,0.4780016839504242,0.41416633129119873,0.26939135789871216
1772729050363145500,6.9411455078125,0.5122101306915283,0.4196641147136688,0.26878049969673157
1772729050372663600,6.95066357421875,0.5451968312263489,0.3811796307563782,0.25473061203956604
1772729050382181400,6.960181396484375,0.5677987933158875,0.3121519088745117,0.22724169492721558
1772729050391699200,6.96969921875,0.5665770769119263,0.19608759880065918,0.17165300250053406
1772729050401217000,6.979217041015625,0.5390881896018982,0.040317077189683914,0.08918625861406326
1772729050410734800,6.98873486328125,0.5006036758422852,-0.11056652665138245,-0.007330377586185932
1772729050420252700,6.998252685546875,0.47006043791770935,-0.16615521907806396,-0.10201441496610641
1772729050429770500,7.0077705078125,0.45417797565460205,-0.1026252806186676,-0.1905898153781891
1772729050439288600,7.01728857421875,0.448069304227829,0.023823726922273636,-0.235793799161911
1772729050448806400,7.026806396484375,0.46456265449523926,0.22235478460788727,-0.23335035145282745
1772729050458324200,7.03632421875,0.5152644515037537,0.47586366534233093,-0.18631376326084137
1772729050467842000,7.045842041015625,0.5873464941978455,0.7104357481002808,-0.10995566099882126
1772729050477359900,7.05535986328125,0.6630937457084656,0.851545512676239,-0.02260199747979641
1772729050486877700,7.064877685546875,0.7388409376144409,0.8857539296150208,0.0665842592716217
1772729050496395500,7.0743955078125,0.82436203956604,0.8643736839294434,0.15699224174022675
1772729050505913600,7.08391357421875,0.9159917235374451,0.8356630206108093,0.2412915825843811
1772729050515431400,7.093431396484375,1.0015127658843994,0.8118392825126648,0.3121519088745117
1772729050524949200,7.10294921875,1.072983980178833,0.7904590368270874,0.36285367608070374
1772729050534467000,7.112467041015625,1.1291835308074951,0.7831286191940308,0.39278605580329895
1772729050543985000,7.12198486328125,1.176220178604126,0.7605266571044922,0.39767298102378845
1772729050553502700,7.131502685546875,1.2049307823181152,0.7134900689125061,0.3744601011276245
1772729050563020500,7.1410205078125,1.2122611999511719,0.6304124593734741,0.32681265473365784
1772729050572538600,7.15053857421875,1.204319953918457,0.5143481492996216,0.2614501118659973
1772729050582056200,7.16005615234375,1.1792744398117065,0.4001164436340332,0.18325942754745483
1772729050591574300,7.16957421875,1.1407899856567383,0.28588470816612244,0.09407317638397217
1772729050601092000,7.179092041015625,1.089477300643921,0.15271618962287903,-0.004276053514331579
1772729050610610000,7.18860986328125,1.0326669216156006,0.021380268037319183,-0.1081230640411377
1772729050620127700,7.198127685546875,0.9782999157905579,-0.0818558782339096,-0.2107483446598053
1772729050629645600,7.2076455078125,0.9202677607536316,-0.143553227186203,-0.3078758418560028
1772729050639163400,7.217163330078125,0.8573487401008606,-0.1588248461484909,-0.3964512348175049
1772729050648681200,7.22668115234375,0.7870992422103882,-0.143553227186203,-0.4728093445301056
1772729050658199300,7.23619921875,0.7192932963371277,-0.10567960888147354,-0.5314523577690125
1772729050667717000,7.245717041015625,0.6704241037368774,-0.002443459117785096,-0.5571087002754211
1772729050677235000,7.25523486328125,0.6466003656387329,0.18814635276794434,-0.5418370366096497
1772729050686752800,7.264752685546875,0.6490437984466553,0.43004879355430603,-0.48441576957702637
1772729050696270600,7.2742705078125,0.6716458201408386,0.6652317643165588,-0.3952295184135437
1772729050705788400,7.283788330078125,0.7021890878677368,0.833219587802887,-0.28954991698265076
1772729050715306200,7.29330615234375,0.7327322959899902,0.9071341753005981,-0.1802051067352295
1772729050724824300,7.30282421875,0.766940712928772,0.9126319885253906,-0.07513637095689774
1772729050734342100,7.312342041015625,0.8042035102844238,0.8851430416107178,0.017715077847242355
1772729050743860000,7.32185986328125,0.8408553600311279,0.8265000581741333,0.09285144507884979
1772729050753377800,7.331377685546875,0.8707877397537231,0.750141978263855,0.14721840620040894
1772729050762895600,7.3408955078125,0.8958331942558289,0.6768381595611572,0.17776164412498474
1772729050772413400,7.350413330078125,0.9098830819129944,0.6126973628997803,0.18264856934547424
1772729050781931300,7.35993115234375,0.9135482907295227,0.554665207862854,0.16554436087608337
1772729050791449300,7.369449462890625,0.907439649105072,0.5045742988586426,0.13072505593299866
1772729050800967200,7.37896728515625,0.8933897614479065,0.4618137776851654,0.08552107214927673
1772729050810485000,7.388485107421875,0.8738420605659485,0.4251618981361389,0.037262752652168274
1772729050820002800,7.3980029296875,0.8512400984764099,0.40378162264823914,-0.000610864779446274
1772729050829520600,7.407520751953125,0.8268054723739624,0.41844236850738525,-0.02260199747979641
1772729050839038500,7.41703857421875,0.7925970554351807,0.44837474822998047,-0.02871064469218254
1772729050848556500,7.426556640625,0.7473930716514587,0.45326167345046997,-0.02871064469218254
1772729050858074000,7.43607421875,0.6973021626472473,0.4318813979625702,-0.023823726922273636
1772729050867592000,7.445592041015625,0.6545416116714478,0.4043924808502197,-0.014049889519810677
1772729050877110000,7.455110107421875,0.6270527243614197,0.36774060130119324,0
1772729050886627800,7.4646279296875,0.6056724190711975,0.30604326725006104,0.010384701192378998
1772729050896145700,7.474145751953125,0.5891790986061096,0.22235478460788727,0.014049889519810677
1772729050905663500,7.48366357421875,0.5714640021324158,0.14599667489528656,0.007941242307424545
1772729050915181300,7.493181396484375,0.5519163012504578,0.09101885557174683,-0.007330377586185932
1772729050924699100,7.50269921875,0.527481734752655,0.05803215503692627,-0.030543239787220955
1772729050934217200,7.51221728515625,0.4938841760158539,0.03543015569448471,-0.05803215503692627
1772729050943735000,7.521735107421875,0.44868019223213196,0.023212861269712448,-0.0922405794262886
1772729050953252900,7.5312529296875,0.3949240744113922,0.004276053514331579,-0.13011419773101807
1772729050962770700,7.540770751953125,0.34055712819099426,-0.0360410213470459,-0.16798780858516693
1772729050972288500,7.55028857421875,0.28557929396629333,-0.08368847519159317,-0.20158538222312927
1772729050981806300,7.559806396484375,0.2360992431640625,-0.1130099818110466,-0.22357651591300964
1772729050991324200,7.56932421875,0.19394956529140472,-0.12644900381565094,-0.22968515753746033
1772729051000842200,7.57884228515625,0.16157373785972595,-0.1178968995809555,-0.21685700118541718
1772729051010360000,7.588360107421875,0.13713914155960083,-0.06841685622930527,-0.18570289015769958
1772729051019878000,7.5978779296875,0.12247838824987411,0.001832594396546483,-0.14538581669330597
1772729051029395700,7.607395751953125,0.1127045527100563,0.08613193035125732,-0.10079269111156464
1772729051038913500,7.61691357421875,0.1127045527100563,0.1637117564678192,-0.053145237267017365
1772729051048431400,7.626431396484375,0.10965022444725037,0.1948658674955368,-0.009162971749901772
1772729051057949200,7.63594921875,0.09498947113752365,0.15149445831775665,0.01893680728971958
1772729051067467300,7.64546728515625,0.07055488228797913,0.05192350596189499,0.026878049597144127
1772729051076985000,7.654985107421875,0.04001164436340332,-0.07024945318698883,0.011606430634856224
1772729051086503000,7.6645029296875,0.003970621153712273,-0.20891575515270233,-0.027488915249705315
1772729051096020700,7.674020751953125,-0.04550942778587341,-0.33108872175216675,-0.09468404203653336
1772729051105538600,7.68353857421875,-0.10842850059270859,-0.430659681558609,-0.18570289015769958
1772729051115056400,7.693056396484375,-0.17623448371887207,-0.5027416944503784,-0.2828303873538971
1772729051124574200,7.70257421875,-0.23243404924869537,-0.5070177912712097,-0.36774060130119324
1772729051134092000,7.712092041015625,-0.27458372712135315,-0.43982264399528503,-0.4269944727420807
1772729051143609900,7.72160986328125,-0.30085089802742004,-0.3390299379825592,-0.462424635887146
1772729051153128000,7.7311279296875,-0.30634868144989014,-0.25045454502105713,-0.46608981490135193
1772729051162645800,7.740645751953125,-0.28435754776000977,-0.17043127119541168,-0.42943793535232544
1772729051172163600,7.75016357421875,-0.23793183267116547,-0.07757982611656189,-0.3451386094093323
1772729051181681400,7.759681396484375,-0.18173226714134216,0.009773836471140385,-0.21685700118541718
1772729051191199200,7.76919921875,-0.13225223124027252,0.06047561392188072,-0.06352993845939636
1772729051200717000,7.778717041015625,-0.10354158282279968,0.07757982611656189,0.09407317638397217
1772729051210235000,7.78823486328125,-0.0974329337477684,0.05864302068948746,0.23457208275794983
1772729051219753000,7.7977529296875,-0.10842850059270859,-0.013439024798572063,0.3402516841888428
1772729051229270800,7.807270751953125,-0.1334739476442337,-0.12950333952903748,0.40378162264823914
1772729051238788600,7.81678857421875,-0.17562362551689148,-0.22846342623233795,0.42271843552589417
1772729051248306400,7.826306396484375,-0.24281874299049377,-0.29565855860710144,0.38789913058280945
1772729051257824300,7.83582421875,-0.32650721073150635,-0.34086254239082336,0.30115634202957153
1772729051267342000,7.845342041015625,-0.40225446224212646,-0.3585776388645172,0.18203771114349365
1772729051276860200,7.854860107421875,-0.45539969205856323,-0.3445277214050293,0.046425722539424896
1772729051286378000,7.8643779296875,-0.49144071340560913,-0.3176496922969818,-0.08857539296150208
1772729051295895800,7.873895751953125,-0.5158752799034119,-0.268169641494751,-0.2052505612373352
1772729051305413600,7.88341357421875,-0.526870846748352,-0.18692462146282196,-0.29138249158859253
1772729051314931500,7.892931396484375,-0.5244274139404297,-0.10201441496610641,-0.33597561717033386
1772729051324449300,7.90244921875,-0.5079340934753418,-0.03237583488225937,-0.3341430425643921
1772729051333967000,7.911967041015625,-0.47555822134017944,0.01954767294228077,-0.29138249158859253
1772729051343485200,7.921485107421875,-0.42913252115249634,0.039706211537122726,-0.2162461280822754
1772729051353002800,7.931002685546875,-0.37659814953804016,0.03237583488225937,-0.1185077652335167
1772729051362520800,7.940520751953125,-0.3283398151397705,0.015271619893610477,-0.015271619893610477
1772729051372038700,7.95003857421875,-0.2935205399990082,-0.004276053514331579,0.08124501258134842
1772729051381556500,7.959556396484375,-0.2782489061355591,-0.043371398001909256,0.1484401375055313
1772729051391074300,7.96907421875,-0.27397283911705017,-0.09346231073141098,0.18264856934547424
1772729051400592100,7.978592041015625,-0.27091851830482483,-0.1337793916463852,0.185092031955719
1772729051410110000,7.98810986328125,-0.2605338394641876,-0.17348559200763702,0.15821397304534912
1772729051419627800,7.997627685546875,-0.24465134739875793,-0.21258094906806946,0.10995566099882126
1772729051429145900,8.007145751953125,-0.2263254076242447,-0.2412915825843811,0.043982263654470444
1772729051438663700,8.01666357421875,-0.2110537886619568,-0.25350889563560486,-0.03237583488225937
1772729051448181500,8.026181396484375,-0.19700388610363007,-0.26450446248054504,-0.11117739230394363
1772729051457699300,8.03569921875,-0.1792888194322586,-0.27366742491722107,-0.1795942485332489
1772729051467217200,8.045217041015626,-0.16584978997707367,-0.27488914132118225,-0.2315177470445633
1772729051476735000,8.05473486328125,-0.1640172004699707,-0.2822195291519165,-0.26878049969673157
1772729051486252800,8.064252685546874,-0.17318016290664673,-0.2938259541988373,-0.29016077518463135
1772729051495771000,8.07377099609375,-0.18295399844646454,-0.2822195291519165,-0.2926042377948761
1772729051505288700,8.083288818359375,-0.18906265497207642,-0.25045454502105713,-0.2834412455558777
1772729051514806500,8.092806640625,-0.18723005056381226,-0.2260199636220932,-0.27000224590301514
1772729051524324400,8.102324462890625,-0.17256930470466614,-0.21319180727005005,-0.2559523284435272
1772729051533842200,8.11184228515625,-0.1432477980852127,-0.185092031955719,-0.23396120965480804
1772729051543360000,8.121360107421875,-0.10109812021255493,-0.13011419773101807,-0.2003636509180069
1772729051552878000,8.130878173828124,-0.054672397673130035,-0.06108647957444191,-0.15760311484336853
1772729051562396000,8.14039599609375,-0.007024944759905338,0.01954767294228077,-0.10201441496610641
1772729051571913700,8.149913818359375,0.03329212963581085,0.09285144507884979,-0.03787361457943916
1772729051581431600,8.159431640625,0.06811141967773438,0.15821397304534912,0.03481929376721382
1772729051590949400,8.168949462890625,0.09437860548496246,0.21258094906806946,0.10323614627122879
1772729051600467200,8.17846728515625,0.10720676928758621,0.23212862014770508,0.15149445831775665
1772729051609985000,8.187985107421875,0.12003492563962936,0.2003636509180069,0.17837251722812653
1772729051619503000,8.197503173828125,0.13713914155960083,0.14294235408306122,0.1893680840730667
1772729051629020700,8.207020751953126,0.1597411334514618,0.10445787757635117,0.1899789422750473
1772729051638538800,8.216538818359375,0.18723005056381226,0.09285144507884979,0.17898337543010712
1772729051648056600,8.226056640625,0.21716243028640747,0.09407317638397217,0.1649334877729416
1772729051657574400,8.235574462890625,0.25809037685394287,0.11545344442129135,0.15515965223312378
1772729051667092200,8.24509228515625,0.3020726442337036,0.1698204129934311,0.16126830875873566
1772729051676610000,8.254610107421875,0.34177884459495544,0.27550002932548523,0.18203771114349365
1772729051686127900,8.2641279296875,0.3759872615337372,0.3964512348175049,0.21685700118541718
1772729051695645700,8.273645751953126,0.40286532044410706,0.49968740344047546,0.25961753726005554
1772729051705163800,8.283163818359375,0.4224129915237427,0.5674933791160583,0.2932150959968567
1772729051714681600,8.292681640625,0.4309650957584381,0.5760455131530762,0.3042106628417969
1772729051724199400,8.302199462890625,0.4321868419647217,0.5247328281402588,0.2877173125743866
1772729051733717200,8.31171728515625,0.42302384972572327,0.4276053309440613,0.24251331388950348
1772729051743235000,8.321235107421876,0.40286532044410706,0.25900667905807495,0.16737695038318634
1772729051752753000,8.3307529296875,0.36804601550102234,0.05436696484684944,0.07330377399921417
1772729051762271000,8.34027099609375,0.32528549432754517,-0.12156209349632263,-0.027488915249705315
1772729051771788800,8.349788818359375,0.281914085149765,-0.22235478460788727,-0.11728604137897491
1772729051781306600,8.359306640625,0.2360992431640625,-0.1954767256975174,-0.19181154668331146
1772729051790824400,8.368824462890625,0.1847866028547287,-0.06536252796649933,-0.24556763470172882
1772729051800342300,8.37834228515625,0.14569124579429626,0.1081230640411377,-0.2730565667152405
1772729051809860000,8.387860107421876,0.13591741025447845,0.3121519088745117,-0.268169641494751
1772729051819378000,8.3973779296875,0.16584978997707367,0.5424479246139526,-0.22907429933547974
1772729051828896000,8.40689599609375,0.23304490745067596,0.7641918659210205,-0.15699224174022675
1772729051838413800,8.416413818359375,0.323452889919281,0.9395100474357605,-0.053756099194288254
1772729051847931600,8.425931640625,0.42913252115249634,1.0567960739135742,0.0665842592716217
1772729051857449500,8.435449462890626,0.5384773015975952,1.1172716617584229,0.1905898153781891
1772729051866967300,8.44496728515625,0.6417134404182434,1.1148282289505005,0.2993237376213074
1772729051876485000,8.454485107421876,0.7327322959899902,1.0482439994812012,0.38240134716033936
1772729051886003000,8.4640029296875,0.8090903759002686,0.9376774430274963,0.4318813979625702
1772729051895521000,8.47352099609375,0.8628464937210083,0.8008437156677246,0.4355465769767761
1772729051905038600,8.48303857421875,0.8921679854393005,0.6096430420875549,0.39278605580329895
1772729051914556700,8.492556640625,0.9001092314720154,0.3799578845500946,0.31581708788871765
1772729051924074500,8.502074462890626,0.879339873790741,0.16065743565559387,0.21380266547203064
1772729051933592300,8.51159228515625,0.8231402635574341,-0.012217295356094837,0.09285144507884979
1772729051943110100,8.521110107421874,0.7400626540184021,-0.1185077652335167,-0.0360410213470459
1772729051952628000,8.5306279296875,0.6411026120185852,-0.16615521907806396,-0.16249002516269684
1772729051962145800,8.540145751953125,0.5342012643814087,-0.15638138353824615,-0.2761108875274658
1772729051971663600,8.54966357421875,0.42913252115249634,-0.10506874322891235,-0.37751442193984985
1772729051981181700,8.559181640625,0.33505934476852417,-0.04825831577181816,-0.45937031507492065
1772729051990699500,8.568699462890624,0.2611446976661682,0.02626718580722809,-0.5119046568870544
1772729052000217300,8.57821728515625,0.21410810947418213,0.12950333952903748,-0.5253437161445618
1772729052009735200,8.587735107421874,0.18845178186893463,0.24923282861709595,-0.49663305282592773
1772729052019253000,8.5972529296875,0.17684535682201385,0.35796675086021423,-0.4379900395870209
1772729052028770800,8.606770751953125,0.17745621502399445,0.4508182108402252,-0.3610210716724396
1772729052038289000,8.616288818359376,0.2000582218170166,0.5137372612953186,-0.2779434621334076
1772729052047806700,8.625806640625,0.24709481000900269,0.536339282989502,-0.19730933010578156
1772729052057324500,8.635324462890624,0.314289927482605,0.545502245426178,-0.12705987691879272
1772729052066842400,8.64484228515625,0.3851502537727356,0.5418370366096497,-0.07147117704153061
1772729052076360200,8.654360107421875,0.4407389461994171,0.5314523577690125,-0.04520399495959282
1772729052085878000,8.6638779296875,0.48044514656066895,0.5088503360748291,-0.043371398001909256
1772729052095395800,8.673395751953125,0.5097666382789612,0.4612029194831848,-0.05436696484684944
1772729052104914000,8.682913818359374,0.5299251675605774,0.411722868680954,-0.06780599057674408
1772729052114431700,8.692431640625,0.5348120927810669,0.36774060130119324,-0.0769689604640007
1772729052123949600,8.701949462890624,0.5140427350997925,0.33169957995414734,-0.08796452730894089
1772729052133467400,8.71146728515625,0.4761691093444824,0.2779434621334076,-0.09468404203653336
1772729052142985200,8.720985107421875,0.4260781705379486,0.1893680840730667,-0.09529490768909454
1772729052152503000,8.7305029296875,0.36743515729904175,0.08307760953903198,-0.08674279600381851
1772729052162021000,8.740021240234375,0.3069595396518707,0.03298669680953026,-0.07024945318698883
1772729052171539000,8.7495390625,0.24770566821098328,0.03298669680953026,-0.04459312930703163
1772729052181056500,8.759056396484375,0.18356487154960632,0.028099779039621353,-0.020769402384757996
1772729052190574600,8.76857470703125,0.1230892539024353,-0.000610864779446274,-0.0030543238390237093
1772729052200092400,8.778092529296876,0.07788526266813278,-0.043982263654470444,0.009162971749901772
1772729052209610200,8.7876103515625,0.04673115536570549,-0.07635809481143951,0.018325943499803543
1772729052219128000,8.797128173828124,0.02107483521103859,-0.11178825795650482,0.025045456364750862
1772729052228646000,8.80664599609375,-0.005192350596189499,-0.1496618688106537,0.02932151034474373
1772729052238163700,8.816163818359374,-0.03451386094093323,-0.18631376326084137,0.0360410213470459
1772729052247681800,8.825681884765626,-0.06505709886550903,-0.21930044889450073,0.043982263654470444
1772729052257199600,8.83519970703125,-0.09621120244264603,-0.2205221801996231,0.053145237267017365
1772729052266717400,8.844717529296876,-0.1279761642217636,-0.19242240488529205,0.06291907280683517
1772729052276235300,8.8542353515625,-0.15790854394435883,-0.17776164412498474,0.07269290834665298
1772729052285753000,8.863753173828124,-0.1847866028547287,-0.20402882993221283,0.08491020649671555
1772729052295271000,8.87327099609375,-0.20372340083122253,-0.24556763470172882,0.10751219838857651
1772729052304788700,8.882788818359375,-0.21838416159152985,-0.24801109731197357,0.14110976457595825
1772729052314306800,8.892306884765626,-0.231212317943573,-0.22479823231697083,0.18570289015769958
1772729052323824600,8.90182470703125,-0.2415970265865326,-0.20952661335468292,0.23273947834968567
1772729052333342500,8.911342529296874,-0.24404047429561615,-0.20952661335468292,0.277332603931427
1772729052342860300,8.9208603515625,-0.24037529528141022,-0.21868959069252014,0.3176496922969818
1772729052352378000,8.930378173828124,-0.24404047429561615,-0.23518294095993042,0.3451386094093323
1772729052361896000,8.93989599609375,-0.27091851830482483,-0.2822195291519165,0.35063639283180237
1772729052371414000,8.9494140625,-0.31551164388656616,-0.34574946761131287,0.3298669755458832
1772729052380931800,8.958931884765626,-0.3656025826931,-0.39400777220726013,0.2864955961704254
1772729052390449700,8.96844970703125,-0.4175260663032532,-0.41233372688293457,0.2260199636220932
1772729052399967500,8.977967529296874,-0.4676169753074646,-0.3970620930194855,0.15515965223312378
1772729052409485300,8.9874853515625,-0.5109884142875671,-0.3439168632030487,0.0824667438864708
1772729052419003100,8.997003173828125,-0.527481734752655,-0.2565632164478302,0.021991131827235222
1772729052428521000,9.00652099609375,-0.5128209590911865,-0.16310089826583862,-0.013439024798572063
1772729052438039000,9.0160390625,-0.4725039005279541,-0.05803215503692627,-0.014049889519810677
1772729052447556600,9.025556640625,-0.4205803871154785,0.05253437161445618,0.010995565913617611
1772729052457074700,9.03507470703125,-0.3692677617073059,0.14477495849132538,0.04153880476951599
1772729052466592500,9.044592529296875,-0.3124573230743408,0.2260199636220932,0.07819069176912308
1772729052476110300,9.0541103515625,-0.2464839369058609,0.29565855860710144,0.11484257876873016
1772729052485628200,9.063628173828125,-0.18295399844646454,0.2889390289783478,0.13927717506885529
1772729052495146000,9.07314599609375,-0.1383608728647232,0.1997527778148651,0.19669845700263977
1772729052504663800,9.082663818359375,-0.12247838824987411,0.03176496922969818,0.2620609998703003
1772729052514181600,9.092181640625,-0.10659590363502502,-0.12767073512077332,0.29565855860710144
1772729052523699700,9.10169970703125,-0.07299833744764328,-0.2577849328517914,0.2834412455558777
1772729052533217500,9.111217529296875,-0.0668896958231926,-0.3836230933666229,0.2254091054201126
1772729052542735400,9.1207353515625,-0.10965022444725037,-0.4373791813850403,0.14599667489528656
1772729052552253200,9.130253173828125,-0.17134757339954376,-0.39278605580329895,0.08002328872680664
