time,seconds_elapsed,z,y,x
1772729043501888300,0.07988818359375,9.391828536987305,4.091726779937744,-1.5098711252212524
1772729043511406000,0.089406005859375,9.408578872680664,4.0079779624938965,-1.4141582250595093
1772729043520924000,0.098923828125,9.611968994140625,3.9122650623321533,-1.31365966796875
1772729043530441700,0.108441650390625,10.04267692565918,3.78544545173645,-1.2681959867477417
1772729043539959600,0.11795947265625,10.504491806030273,3.5270206928253174,-1.1054840087890625
1772729043549477400,0.127477294921875,10.920842170715332,3.1130621433258057,-0.9044869542121887
1772729043558995200,0.1369951171875,11.291729927062988,2.699103832244873,-0.8183453679084778
1772729043568513000,0.146512939453125,11.57408332824707,2.3306093215942383,-0.8470591902732849
1772729043578030800,0.15603076171875,11.648261070251465,2.0985054969787598,-1.031306505203247
1772729043587548700,0.165548583984375,11.440085411071777,2.014756679534912,-1.2131611108779907
1772729043597066500,0.17506640625,11.047661781311035,1.9860427379608154,-1.2969099283218384
1772729043606584300,0.184584228515625,10.48534870147705,2.038684844970703,-1.466800332069397
1772729043616102100,0.19410205078125,9.903892517089844,2.179861545562744,-1.7084753513336182
1772729043625620000,0.203619873046875,9.28893756866455,2.3234307765960693,-1.9142581224441528
1772729043635137800,0.2131376953125,8.733802795410156,2.4526431560516357,-2.053041934967041
1772729043644655600,0.222655517578125,8.286344528198242,2.5148565769195557,-2.100898265838623
1772729043654173400,0.23217333984375,7.903493404388428,2.5148565769195557,-1.9070796966552734
1772729043663691300,0.241691162109375,7.70249605178833,2.7038896083831787,-1.919043779373169
1772729043673209000,0.251208984375,7.659425258636475,2.857030153274536,-1.9573289155960083
1772729043682727200,0.26072705078125,7.69531774520874,2.9862427711486816,-1.97407865524292
1772729043692244700,0.27024462890625,7.850851058959961,2.988635540008545,-1.8664016723632812
1772729043701762600,0.279762451171875,7.898707389831543,3.0269205570220947,-1.8041882514953613
1772729043711280400,0.2892802734375,7.956135272979736,3.050848960876465,-1.703689694404602
1772729043720798200,0.298798095703125,8.09252643585205,3.098705291748047,-1.6199408769607544
1772729043730316300,0.30831640625,8.21695327758789,3.2446675300598145,-1.5864413976669312
1772729043739834000,0.317834228515625,8.413164138793945,3.335594654083252,-1.4763715267181396
1772729043749352000,0.32735205078125,8.511270523071289,3.3858439922332764,-1.2394821643829346
1772729043758869800,0.336869873046875,8.547162055969238,3.4408788681030273,-1.2346965074539185
1772729043768387600,0.3463876953125,8.547162055969238,3.4432718753814697,-1.2131611108779907
1772729043777905400,0.355905517578125,8.439485549926758,3.390629768371582,-1.2801600694656372
1772729043787423200,0.36542333984375,8.305487632751465,3.345165967941284,-1.526620864868164
1772729043796941000,0.374941162109375,8.305487632751465,3.3068809509277344,-1.8400806188583374
1772729043806459000,0.384458984375,8.317451477050781,3.321237802505493,-2.1272194385528564
1772729043815976700,0.393976806640625,8.178668022155762,3.297309637069702,-2.2923240661621094
1772729043825494500,0.40349462890625,8.204988479614258,3.232703447341919,-2.304288148880005
1772729043835012400,0.413012451171875,8.3629150390625,3.211168050765991,-2.155933141708374
1772729043844530200,0.4225302734375,8.449056625366211,3.22552490234375,-2.0338993072509766
1772729043854048000,0.432048095703125,8.642875671386719,3.2757742404937744,-1.9453648328781128
1772729043863565800,0.44156591796875,8.726624488830566,3.242274761199951,-1.8233308792114258
1772729043873083600,0.451083740234375,8.769695281982422,3.146561861038208,-1.6630117893218994
1772729043882601500,0.4606015625,8.85344409942627,3.1513473987579346,-1.4500504732131958
1772729043892119300,0.470119384765625,8.925228118896484,3.2279176712036133,-1.2849457263946533
1772729043901637000,0.47963720703125,9.111868858337402,3.352344512939453,-1.275374412536621
1772729043911155000,0.489155029296875,9.119047164916992,3.445664644241333,-1.2323036193847656
1772729043920672800,0.4986728515625,8.451449394226074,3.436093330383301,-1.1102696657180786
1772729043930190600,0.508190673828125,7.716853141784668,3.493520975112915,-1.3758729696273804
1772729043939708400,0.51770849609375,7.901100158691406,3.627519130706787,-1.552941918373108
1772729043949226200,0.527226318359375,7.83410120010376,3.7734813690185547,-1.6701902151107788
1772729043958744300,0.536744384765625,8.336593627929688,3.996013879776001,-1.648654818534851
1772729043968262100,0.54626220703125,8.877371788024902,4.156332969665527,-1.332802176475525
1772729043977780000,0.555780029296875,9.518648147583008,4.235296249389648,-0.8350951075553894
1772729043987297800,0.5652978515625,10.059426307678223,4.314259052276611,-0.32542386651039124
1772729043996815400,0.5748154296875,10.164710998535156,4.4410786628723145,-0.02392822690308094
1772729044006333400,0.58433349609375,10.124032974243164,4.436293125152588,0.2967100143432617
1772729044015851300,0.593851318359375,9.868000984191895,4.1730828285217285,0.7034898400306702
1772729044025369000,0.603369140625,9.446864128112793,3.830909013748169,0.882951557636261
1772729044034887000,0.612886962890625,9.343972206115723,3.8739798069000244,0.40677985548973083
1772729044044404700,0.62240478515625,9.43489933013916,4.223331928253174,-0.5910272002220154
1772729044053922600,0.631922607421875,9.600004196166992,4.5822553634643555,-1.3854442834854126
1772729044063440400,0.6414404296875,9.772287368774414,4.642076015472412,-1.6462619304656982
1772729044072958200,0.650958251953125,10.40638542175293,4.47697114944458,-1.4428720474243164
1772729044082476000,0.66047607421875,10.6624174118042,4.199403762817383,-0.7848458290100098
1772729044091993900,0.669993896484375,10.853843688964844,3.9146578311920166,-0.2273181527853012
1772729044101511700,0.67951171875,11.217552185058594,3.7256247997283936,0.19142581522464752
1772729044111029500,0.689029541015625,11.535798072814941,3.7160534858703613,0.30149564146995544
1772729044120547300,0.69854736328125,11.447263717651367,3.7782669067382812,0.14356936514377594
1772729044130065200,0.708065185546875,11.265409469604492,3.7974095344543457,-0.031106693670153618
1772729044139583000,0.7175830078125,11.018948554992676,3.8285162448883057,-0.3038884699344635
1772729044149100800,0.727100830078125,10.64088249206543,3.9194436073303223,-0.6436693072319031
1772729044158618600,0.73661865234375,10.289137840270996,4.01037073135376,-0.8542376756668091
1772729044168136400,0.746136474609375,10.080962181091309,4.101297855377197,-0.9188438653945923
1772729044177654300,0.755654296875,9.860821723937988,4.280759811401367,-0.849452018737793
1772729044187172400,0.76517236328125,9.57607650756836,4.417150497436523,-0.6340979933738708
1772729044196690200,0.774690185546875,9.382257461547852,4.433900356292725,-0.3206382393836975
1772729044206208000,0.7842080078125,9.446864128112793,4.309473514556885,-0.03349951654672623
1772729044215725600,0.7937255859375,9.784252166748047,4.204189300537109,0.05742774158716202
1772729044225243600,0.80324365234375,10.171889305114746,4.00319242477417,0.014356935396790504
1772729044234761500,0.812761474609375,10.540383338928223,3.649054527282715,0.040677983313798904
1772729044244279300,0.822279296875,10.939985275268555,3.2614171504974365,-0.07417750358581543
1772729044253797000,0.831797119140625,11.236695289611816,2.9001009464263916,-0.2871387302875519
1772729044263315000,0.84131494140625,11.47119140625,2.5363919734954834,-0.47617170214653015
1772729044272832800,0.850832763671875,11.562119483947754,2.256431818008423,-0.5599204897880554
1772729044282350600,0.8603505859375,11.389835357666016,2.0267207622528076,-0.4905286431312561
1772729044291868400,0.869868408203125,11.212766647338867,1.892722725868225,-0.5000999569892883
1772729044301386200,0.87938623046875,10.973484992980957,1.8161523342132568,-0.4833501875400543
1772729044310904000,0.888904052734375,10.478170394897461,1.794616937637329,-0.28953152894973755
1772729044320422000,0.898421875,9.93260669708252,1.765903115272522,-0.16271193325519562
1772729044329939700,0.907939697265625,9.44447135925293,1.7730815410614014,-0.12442677468061447
1772729044339457500,0.91745751953125,8.9850492477417,1.9214365482330322,-0.17946170270442963
1772729044348975400,0.926975341796875,8.556734085083008,2.091326951980591,-0.20817556977272034
1772729044358493200,0.9364931640625,8.068597793579102,2.2851455211639404,-0.15314064919948578
1772729044368011000,0.946010986328125,7.700103282928467,2.431107759475708,-0.08135596662759781
1772729044377528800,0.95552880859375,7.410571575164795,2.531606435775757,0.09092725813388824
1772729044387046700,0.965046630859375,7.223931789398193,2.68953275680542,0.11246266216039658
1772729044396564700,0.974564697265625,7.16650390625,2.8211379051208496,0.09810572862625122
1772729044406082600,0.98408251953125,7.247859954833984,2.8809585571289062,0
1772729044415600400,0.993600341796875,7.501499176025391,2.8426733016967773,-0.10049854964017868
1772729044425118200,1.0031181640625,7.786244869232178,2.7804598808288574,-0.2153540402650833
1772729044434636000,1.012635986328125,8.12123966217041,2.720639228820801,-0.32303106784820557
1772729044444153900,1.02215380859375,8.449056625366211,2.6871397495269775,-0.380458801984787
1772729044453671700,1.031671630859375,8.757730484008789,2.7110681533813477,-0.42352959513664246
1772729044463189500,1.041189453125,9.011369705200195,2.785245656967163,-0.45942193269729614
1772729044472707300,1.050707275390625,9.229117393493652,2.840280532836914,-0.44027936458587646
1772729044482225200,1.06022509765625,9.32722282409668,2.8666014671325684,-0.40677985548973083
1772729044491743000,1.069742919921875,9.32004451751709,2.950350284576416,-0.3445664644241333
1772729044501260800,1.0792607421875,9.377471923828125,3.043670415878296,-0.30628129839897156
1772729044510778600,1.088778564453125,9.353543281555176,3.2063822746276855,-0.2919243574142456
1772729044520296400,1.09829638671875,9.121439933776855,3.373879909515381,-0.34217363595962524
1772729044529814300,1.107814208984375,8.8438720703125,3.5126636028289795,-0.3326023519039154
1772729044539332000,1.11733203125,8.662017822265625,3.6466617584228516,-0.3206382393836975
1772729044548850000,1.126849853515625,8.461020469665527,3.7423746585845947,-0.33499518036842346
1772729044558368000,1.136367919921875,8.214560508728027,3.869194269180298,-0.30149564146995544
1772729044567885600,1.145885498046875,7.992027759552002,3.964907169342041,-0.22013968229293823
1772729044577403400,1.1554033203125,7.817351341247559,4.096512317657471,-0.10767702013254166
1772729044586921200,1.164921142578125,7.707281589508057,4.292723655700684,-0.1339980661869049
1772729044596439300,1.174439208984375,7.618747234344482,4.4650068283081055,-0.22013968229293823
1772729044605957000,1.18395703125,7.69531774520874,4.527220249176025,-0.3397808074951172
1772729044615475000,1.193474853515625,7.913064479827881,4.524827480316162,-0.5000999569892883
1772729044624992800,1.20299267578125,8.169096946716309,4.46979284286499,-0.6101697683334351
1772729044634510600,1.212510498046875,8.346165657043457,4.35254430770874,-0.6340979933738708
1772729044644028400,1.2220283203125,8.482556343078613,4.213760852813721,-0.5670989751815796
1772729044653546200,1.231546142578125,8.664410591125488,4.108476638793945,-0.605384111404419
1772729044663064000,1.24106396484375,8.8438720703125,4.067798614501953,-0.7417750358581543
1772729044672582000,1.250581787109375,9.028120040893555,4.067798614501953,-0.8757730722427368
1772729044682099700,1.260099609375,9.109476089477539,4.091726779937744,-1.0193424224853516
1772729044691617500,1.269617431640625,9.066405296325684,4.067798614501953,-1.129412293434143
1772729044701135400,1.27913525390625,9.030512809753418,4.015156269073486,-1.2179467678070068
1772729044710653200,1.288653076171875,9.09272575378418,4.063013076782227,-1.3112667798995972
1772729044720171000,1.2981708984375,9.226723670959473,4.194618225097656,-1.3926228284835815
1772729044729688800,1.307688720703125,9.34157943725586,4.376472473144531,-1.4069796800613403
1772729044739206700,1.31720654296875,9.45882797241211,4.400400638580322,-1.2490534782409668
1772729044748724500,1.326724365234375,9.698110580444336,4.335794448852539,-1.0911271572113037
1772729044758242600,1.33624267578125,9.915857315063477,4.275974273681641,-1.0456634759902954
1772729044767760400,1.345760498046875,10.14317512512207,4.187439441680908,-1.069591760635376
1772729044777278200,1.3552783203125,10.372885704040527,4.091726779937744,-1.0528420209884644
1772729044786795800,1.364795654296875,10.597811698913574,4.000799655914307,-0.9786644577980042
1772729044796313900,1.37431396484375,10.877771377563477,3.9457645416259766,-0.9236295223236084
1772729044805831700,1.383831787109375,11.052447319030762,3.94815731048584,-0.9379864931106567
1772729044815349500,1.393349609375,11.198410034179688,4.000799655914307,-0.973878800868988
1772729044824867300,1.402867431640625,11.179266929626465,4.101297855377197,-0.9427721500396729
1772729044834385200,1.41238525390625,10.999805450439453,4.1659040451049805,-0.8949156403541565
1772729044843903000,1.421903076171875,10.703095436096191,4.3310089111328125,-0.8207381963729858
1772729044853420800,1.4314208984375,10.41356372833252,4.510470867156982,-0.9068797826766968
1772729044862938600,1.440938720703125,10.133604049682617,4.754538536071777,-1.0839486122131348
1772729044872456400,1.45045654296875,9.927821159362793,4.926821708679199,-1.2035897970199585
1772729044881974300,1.459974365234375,9.722038269042969,5.01296329498291,-1.153340458869934
1772729044891492000,1.4694921875,9.540184020996094,4.981856822967529,-1.069591760635376
1772729044901010000,1.479010009765625,9.475577354431152,4.835894584655762,-0.9547362327575684
1772729044910528000,1.488528076171875,9.53061294555664,4.618147850036621,-0.8733802437782288
1772729044920045600,1.498045654296875,9.674181938171387,4.304687976837158,-0.8231309652328491
1772729044929563400,1.5075634765625,9.844072341918945,3.8763725757598877,-0.8422735929489136
1772729044939081200,1.517081298828125,10.016355514526367,3.4002010822296143,-0.8757730722427368
1772729044948599300,1.526599365234375,10.06421184539795,2.9623143672943115,-0.9954141974449158
1772729044958117000,1.5361171875,9.956535339355469,2.6177480220794678,-1.1509476900100708
1772729044967635000,1.545635009765625,9.585647583007812,2.416750907897949,-1.423729419708252
1772729044977152800,1.55515283203125,9.133403778076172,2.383251428604126,-1.7611174583435059
1772729044986670600,1.564670654296875,8.693124771118164,2.4813570976257324,-2.0482561588287354
1772729044996188400,1.5741884765625,8.226524353027344,2.730210542678833,-2.3880369663238525
1772729045005706200,1.583706298828125,7.8077802658081055,3.0580272674560547,-2.6632115840911865
1772729045015224000,1.59322412109375,7.479963779449463,3.3332018852233887,-2.7637102603912354
1772729045024742000,1.602741943359375,7.2574310302734375,3.493520975112915,-2.610569477081299
1772729045034259700,1.612259765625,7.087540626525879,3.6131622791290283,-2.342573404312134
1772729045043777500,1.621777587890625,7.0301127433776855,3.658625841140747,-1.9860427379608154
1772729045053295400,1.63129541015625,7.149754047393799,3.649054527282715,-1.5649060010910034
1772729045062813200,1.640813232421875,7.401000499725342,3.641875982284546,-1.2442678213119507
1772729045072331000,1.6503310546875,7.704888820648193,3.6466617584228516,-1.0719845294952393
1772729045081848800,1.659848876953125,8.10688304901123,3.5605201721191406,-0.8638089895248413
1772729045091366700,1.66936669921875,8.484949111938477,3.4480574131011963,-0.6819544434547424
1772729045100884700,1.678884765625,8.882157325744629,3.314059257507324,-0.5647061467170715
1772729045110402600,1.688402587890625,9.358329772949219,3.218346357345581,-0.5551348328590393
1772729045119920400,1.69792041015625,9.760323524475098,3.1417760848999023,-0.6029912829399109
1772729045129438200,1.707438232421875,10.104889869689941,3.1034910678863525,-0.7250252366065979
1772729045138956000,1.7169560546875,10.320243835449219,3.0340991020202637,-0.8207381963729858
1772729045148473900,1.726473876953125,10.334601402282715,2.9838497638702393,-0.8709874153137207
1772729045157991700,1.73599169921875,10.231709480285645,2.9168508052825928,-0.9212366938591003
1772729045167509500,1.745509521484375,9.992427825927734,2.967100143432617,-0.9858429431915283
1772729045177027300,1.75502734375,9.686145782470703,3.0484559535980225,-1.1461620330810547
1772729045186545200,1.764545166015625,9.375079154968262,3.1441688537597656,-1.2251251935958862
1772729045196063000,1.77406298828125,9.013762474060059,3.2853455543518066,-1.2897313833236694
1772729045205580800,1.783580810546875,8.707481384277344,3.4025938510894775,-1.2418749332427979
1772729045215098600,1.7930986328125,8.468199729919434,3.5605201721191406,-1.100698471069336
1772729045224616400,1.802616455078125,8.286344528198242,3.735196113586426,-0.885344386100769
1772729045234134300,1.81213427734375,8.080561637878418,3.893122434616089,-0.6436693072319031
1772729045243652400,1.82165234375,7.946564197540283,4.000799655914307,-0.43549370765686035
1772729045253170200,1.831170166015625,7.846065521240234,4.101297855377197,-0.2273181527853012
1772729045262688000,1.84068798828125,7.812565803527832,4.187439441680908,-0.07178468257188797
1772729045272205600,1.85020556640625,7.735995769500732,4.271188259124756,-0.04546362906694412
1772729045281723600,1.8597236328125,7.70249605178833,4.316651821136475,0.02392822690308094
1772729045291241500,1.869241455078125,7.762316703796387,4.319045066833496,0.11724831163883209
1772729045300759300,1.87875927734375,7.822137355804443,4.314259052276611,0.12681959569454193
1772729045310277000,1.888277099609375,7.929814338684082,4.386044025421143,0.10049854964017868
1772729045319795000,1.897794921875,8.047062873840332,4.41475772857666,0.06939185410737991
1772729045329312800,1.907312744140625,8.13081169128418,4.443471431732178,0.038285162299871445
1772729045338830600,1.91683056640625,8.23130989074707,4.409972190856934,0.03349951654672623
1772729045348348400,1.926348388671875,8.300702095031738,4.462614059448242,-0.014356935396790504
1772729045357866200,1.9358662109375,8.271987915039062,4.54636287689209,-0.035892341285943985
1772729045367384000,1.945384033203125,8.327022552490234,4.6301116943359375,-0.09092725813388824
1772729045376902000,1.95490185546875,8.489734649658203,4.735395908355713,-0.24885354936122894
1772729045386420000,1.964419921875,8.748159408569336,4.811966419219971,-0.34217363595962524
1772729045395937800,1.973937744140625,8.958727836608887,4.828716278076172,-0.363709032535553
1772729045405455400,1.983455322265625,9.269794464111328,4.764110088348389,-0.24646073579788208
1772729045414973200,1.99297314453125,9.571290969848633,4.658825874328613,-0.07417750358581543
1772729045424491300,2.0024912109375,9.875179290771484,4.555934429168701,0.07657032459974289
1772729045434009000,2.012009033203125,10.236495018005371,4.510470867156982,0.13639089465141296
1772729045443527000,2.02152685546875,10.581061363220215,4.560719966888428,0.06699903309345245
1772729045453044700,2.031044677734375,10.863414764404297,4.548755645751953,0.07896314561367035
1772729045462562600,2.0405625,11.038090705871582,4.508078098297119,0.1818545162677765
1772729045472080400,2.050080322265625,11.12901782989502,4.41475772857666,0.3038884699344635
1772729045481598200,2.05959814453125,11.124232292175293,4.393222332000732,0.363709032535553
1772729045491116000,2.069115966796875,11.011770248413086,4.393222332000732,0.32303106784820557
1772729045500633900,2.0786337890625,10.937592506408691,4.42193603515625,0.20099709928035736
1772729045510151700,2.088151611328125,10.837093353271484,4.481756687164307,-0.02153540402650833
1772729045519669500,2.09766943359375,10.64806079864502,4.563112735748291,-0.1698904037475586
1772729045529187600,2.1071875,10.456634521484375,4.622933387756348,-0.1818545162677765
1772729045538705200,2.116705078125,10.241280555725098,4.610969066619873,-0.07657032459974289
1772729045548223000,2.126222900390625,10.126425743103027,4.54636287689209,0.14835500717163086
1772729045557741000,2.135740966796875,10.088140487670898,4.467400074005127,0.3900300860404968
1772729045567259000,2.1452587890625,10.140782356262207,4.34536600112915,0.5694918036460876
1772729045576776700,2.154776611328125,10.28195858001709,4.163511276245117,0.6556333899497986
1772729045586294500,2.16429443359375,10.518848419189453,3.8883368968963623,0.7250252366065979
1772729045595812400,2.173812255859375,10.73420238494873,3.5748770236968994,0.729810893535614
1772729045605330200,2.183330078125,10.8969144821167,3.2470602989196777,0.6652047038078308
1772729045614848000,2.192847900390625,10.971092224121094,2.8929226398468018,0.4977070987224579
1772729045624365800,2.20236572265625,10.877771377563477,2.620140790939331,0.3397808074951172
1772729045633883600,2.211883544921875,10.715060234069824,2.3952155113220215,0.2584248483181
1772729045643401500,2.2214013671875,10.408778190612793,2.297109842300415,0.2153540402650833
1772729045652919300,2.230919189453125,9.980463027954102,2.282752752304077,0.10049854964017868
1772729045662437400,2.240437255859375,9.525827407836914,2.273181438446045,0.02392822690308094
1772729045671955000,2.249954833984375,9.09272575378418,2.2707886695861816,-0.016749758273363113
1772729045681472800,2.25947265625,8.671588897705078,2.313859462738037,0.007178467698395252
1772729045690990600,2.268990478515625,8.34855842590332,2.344966173171997,0.05503492057323456
1772729045700508700,2.2785087890625,8.073383331298828,2.4502503871917725,0.13878370821475983
1772729045710026500,2.288026611328125,7.939385414123535,2.5986053943634033,0.25363919138908386
1772729045719544300,2.29754443359375,7.805387496948242,2.715853691101074,0.4307080805301666
1772729045729062100,2.307062255859375,7.70967435836792,2.7876384258270264,0.6436693072319031
1772729045738580000,2.316580078125,7.635497093200684,2.823530673980713,0.8470591902732849
1772729045748097800,2.326097900390625,7.70249605178833,2.878565549850464,0.9571290612220764
1772729045757615600,2.33561572265625,7.869993686676025,2.9479575157165527,0.9427721500396729
1772729045767133400,2.345133544921875,8.047062873840332,3.019742250442505,0.7513462901115417
1772729045776651300,2.3546513671875,8.319844245910645,3.0388846397399902,0.5647061467170715
1772729045786169000,2.364169189453125,8.590232849121094,2.9766714572906494,0.4211367964744568
1772729045795687200,2.373687255859375,8.848658561706543,2.940778970718384,0.24885354936122894
1772729045805204700,2.383204833984375,9.116654396057129,2.940778970718384,0.0526420995593071
1772729045814722600,2.39272265625,9.358329772949219,3.014956474304199,-0.1052841991186142
1772729045824240400,2.402240478515625,9.461220741271973,3.0939197540283203,-0.20099709928035736
1772729045833758500,2.411758544921875,9.394221305847168,3.2063822746276855,-0.19142581522464752
1772729045843276300,2.4212763671875,9.200403213500977,3.3308091163635254,-0.0933200865983963
1772729045852794000,2.430794189453125,8.906085968017578,3.5581271648406982,-0.04546362906694412
1772729045862312000,2.44031201171875,8.583054542541504,3.806980848312378,-0.014356935396790504
1772729045871829800,2.449829833984375,8.25523853302002,4.0319061279296875,-0.02392822690308094
1772729045881347600,2.45934765625,7.992027759552002,4.204189300537109,0.0023928226437419653
1772729045890865400,2.468865478515625,7.798209190368652,4.326223373413086,0.040677983313798904
1772729045900383200,2.47838330078125,7.645068168640137,4.369294166564941,0.14835500717163086
1772729045909901000,2.487901123046875,7.546962738037109,4.390829563140869,0.2919243574142456
1772729045919419000,2.4974189453125,7.590033531188965,4.3549370765686035,0.37088751792907715
1772729045928937000,2.50693701171875,7.704888820648193,4.3310089111328125,0.2871387302875519
1772729045938454500,2.51645458984375,7.89631462097168,4.292723655700684,0.05503492057323456
1772729045947972400,2.525972412109375,8.149953842163086,4.2281174659729,-0.18903298676013947
1772729045957490200,2.535490234375,8.408378601074219,4.108476638793945,-0.43549370765686035
1772729045967008300,2.54500830078125,8.681160926818848,3.996013879776001,-0.607776939868927
1772729045976526000,2.554526123046875,8.910871505737305,3.9290146827697754,-0.7178468108177185
1772729045986044000,2.5640439453125,9.119047164916992,3.9314076900482178,-0.763310432434082
1772729045995561700,2.573561767578125,9.29611587524414,3.964907169342041,-0.7968099117279053
1772729046005079600,2.58307958984375,9.437292098999023,3.996013879776001,-0.7441678643226624
1772729046014597400,2.592597412109375,9.56650447845459,4.012763500213623,-0.6747759580612183
1772729046024115200,2.602115234375,9.602396965026855,4.089334011077881,-0.6101697683334351
1772729046033633000,2.611633056640625,9.631111145019531,4.151547431945801,-0.5647061467170715
1772729046043150800,2.62115087890625,9.626325607299805,4.232903480529785,-0.6005984544754028
1772729046052668700,2.630668701171875,9.604789733886719,4.29033088684082,-0.6628118753433228
1772729046062186800,2.640186767578125,9.482755661010742,4.316651821136475,-0.7537391185760498
1772729046071704300,2.649704345703125,9.343972206115723,4.3549370765686035,-0.8422735929489136
1772729046081222100,2.65922216796875,9.20997428894043,4.438685894012451,-0.916451096534729
1772729046090740200,2.668740234375,9.126225471496582,4.599005222320557,-0.9451649188995361
1772729046100258000,2.678258056640625,9.121439933776855,4.778466701507568,-0.9595218896865845
1772729046109776000,2.68777587890625,9.166903495788574,4.893322467803955,-0.8973084688186646
1772729046119293700,2.697293701171875,9.245866775512695,4.938786029815674,-0.7226324677467346
1772729046128811500,2.7068115234375,9.34875774383545,4.883750915527344,-0.5072783827781677
1772729046138329300,2.716329345703125,9.521040916442871,4.823930263519287,-0.3445664644241333
1772729046147847200,2.72584716796875,9.762716293334961,4.773681163787842,-0.27756741642951965
1772729046157365000,2.735364990234375,9.982855796813965,4.752145767211914,-0.27756741642951965
1772729046166882800,2.7448828125,10.186245918273926,4.7473602294921875,-0.30149564146995544
1772729046176400600,2.754400634765625,10.322636604309082,4.730610370635986,-0.349352091550827
1772729046185918700,2.763918701171875,10.39202880859375,4.776073932647705,-0.4498506486415863
1772729046195436500,2.7734365234375,10.401599884033203,4.816751956939697,-0.5623133182525635
1772729046204954000,2.7829541015625,10.408778190612793,4.924428939819336,-0.7202396392822266
1772729046214472000,2.792471923828125,10.427921295166016,5.029713153839111,-0.8925228714942932
1772729046223990000,2.801989990234375,10.39202880859375,5.077569484710693,-0.9834501147270203
1772729046233507800,2.8115078125,10.336994171142578,5.008177757263184,-0.9188438653945923
1772729046243025700,2.821025634765625,10.284351348876953,4.852644443511963,-0.7872386574745178
1772729046252543500,2.83054345703125,10.308279991149902,4.675575256347656,-0.7250252366065979
1772729046262061300,2.840061279296875,10.372885704040527,4.510470867156982,-0.7345965504646301
1772729046271579100,2.8495791015625,10.442277908325195,4.347758769989014,-0.849452018737793
1772729046281097000,2.859096923828125,10.449456214904785,4.067798614501953,-0.916451096534729
1772729046290614800,2.86861474609375,10.403992652893066,3.696911096572876,-0.9260223507881165
1772729046300132600,2.878132568359375,10.250852584838867,3.4121651649475098,-0.9978070259094238
1772729046309650700,2.887650634765625,10.01156997680664,3.2614171504974365,-1.0887342691421509
1772729046319168500,2.89716845703125,9.592825889587402,3.2279176712036133,-1.2275179624557495
1772729046328686300,2.906686279296875,9.157332420349121,3.3068809509277344,-1.4811571836471558
1772729046338204000,2.916203857421875,8.642875671386719,3.328416347503662,-1.6151553392410278
1772729046347722000,2.925721923828125,8.12123966217041,3.3690943717956543,-1.6941183805465698
1772729046357239800,2.93523974609375,7.6737823486328125,3.476771354675293,-1.820937991142273
1772729046366757600,2.944757568359375,7.317251682281494,3.656233072280884,-1.892722725868225
1772729046376275500,2.954275390625,7.04207706451416,3.8261234760284424,-1.9716858863830566
1772729046385793300,2.963793212890625,6.860222339630127,3.926621913909912,-1.9405791759490967
1772729046395311000,2.97331103515625,6.786045074462891,3.9864425659179688,-1.8185452222824097
1772729046404829000,2.982828857421875,6.759724140167236,3.9840497970581055,-1.5984054803848267
1772729046414346800,2.9923466796875,6.903293132781982,3.87876558303833,-1.3040883541107178
1772729046423864600,3.001864501953125,7.152146816253662,3.7734813690185547,-1.1030912399291992
1772729046433382700,3.011382568359375,7.506284713745117,3.689732551574707,-0.9810572862625122
1772729046442900200,3.020900146484375,7.89631462097168,3.5748770236968994,-0.8255237936973572
1772729046452418300,3.030418212890625,8.250452041625977,3.445664644241333,-0.6580262184143066
1772729046461936000,3.03993603515625,8.640482902526855,3.2997024059295654,-0.5790630578994751
1772729046471454000,3.049453857421875,9.07119083404541,3.184846878051758,-0.5527420043945312
1772729046480971800,3.0589716796875,9.578469276428223,3.0580272674560547,-0.5934200286865234
1772729046490489600,3.068489501953125,9.89432144165039,2.9216363430023193,-0.6915257573127747
1772729046500007400,3.07800732421875,10.092926025390625,2.7972097396850586,-0.7920243144035339
1772729046509525200,3.087525146484375,10.16710376739502,2.6775684356689453,-0.8877372145652771
1772729046519043000,3.09704296875,10.06421184539795,2.6703901290893555,-1.062413215637207
1772729046528561000,3.106560791015625,9.836894035339355,2.7349963188171387,-1.2251251935958862
1772729046538078700,3.11607861328125,9.468399047851562,2.888136863708496,-1.404586911201477
1772729046547596500,3.125596435546875,9.044869422912598,3.0556344985961914,-1.490728497505188
1772729046557114600,3.135114501953125,8.630910873413086,3.2207393646240234,-1.454836130142212
1772729046566632400,3.144632568359375,8.293522834777832,3.3882367610931396,-1.3878371715545654
1772729046576150300,3.154150390625,8.003992080688477,3.565305709838867,-1.3112667798995972
1772729046585668000,3.163668212890625,7.743174076080322,3.735196113586426,-1.2538390159606934
1772729046595186000,3.17318603515625,7.546962738037109,3.82373046875,-1.160519003868103
1772729046604703700,3.182703857421875,7.460821151733398,3.8979079723358154,-1.0408778190612793
1772729046614221600,3.1922216796875,7.444071292877197,3.9672999382019043,-0.9523434042930603
1772729046623739400,3.201739501953125,7.491927623748779,4.043870449066162,-0.8398807644844055
1772729046633257200,3.21125732421875,7.657032489776611,4.122833251953125,-0.7106683254241943
1772729046642775300,3.220775390625,7.843672752380371,4.151547431945801,-0.5455635786056519
1772729046652292900,3.23029296875,8.042277336120605,4.180261135101318,-0.42352959513664246
1772729046661810700,3.239810791015625,8.25523853302002,4.18983268737793,-0.349352091550827
1772729046671328500,3.24932861328125,8.46580696105957,4.187439441680908,-0.2871387302875519
1772729046680846600,3.2588466796875,8.760123252868652,4.144368648529053,-0.28235307335853577
1772729046690364400,3.268364501953125,9.011369705200195,4.156332969665527,-0.2919243574142456
1772729046699882200,3.27788232421875,9.241081237792969,4.132404804229736,-0.33020952343940735
1772729046709400000,3.287400146484375,9.41336441040039,4.1419758796691895,-0.30628129839897156
1772729046718918000,3.29691796875,9.53779125213623,4.204189300537109,-0.30628129839897156
1772729046728435700,3.306435791015625,9.578469276428223,4.299902439117432,-0.2991028428077698
1772729046737953500,3.31595361328125,9.521040916442871,4.3788652420043945,-0.30149564146995544
1772729046747471400,3.325471435546875,9.43489933013916,4.474578380584717,-0.3038884699344635
1772729046756989200,3.3349892578125,9.336793899536133,4.591826438903809,-0.31345975399017334
1772729046766507300,3.34450732421875,9.272188186645508,4.66361141204834,-0.349352091550827
1772729046776025000,3.354025146484375,9.257830619812012,4.701896667480469,-0.397208571434021
1772729046785542700,3.363542724609375,9.322437286376953,4.713860511779785,-0.4259224236011505
1772729046795060700,3.373060791015625,9.410971641540527,4.73300313949585,-0.4091726839542389
1772729046804578600,3.38257861328125,9.497113227844238,4.713860511779785,-0.35413774847984314
1772729046814096400,3.392096435546875,9.616754531860352,4.66361141204834,-0.28953152894973755
1772729046823614200,3.4016142578125,9.765109062194824,4.613361835479736,-0.24646073579788208
1772729046833132000,3.411132080078125,9.944570541381836,4.5583271980285645,-0.2679961323738098
1772729046842649900,3.42064990234375,10.078569412231445,4.479363918304443,-0.24885354936122894
1772729046852167700,3.430167724609375,10.186245918273926,4.402793884277344,-0.2967100143432617
1772729046861685500,3.439685546875,10.226923942565918,4.371686935424805,-0.38763725757598877
1772729046871203300,3.449203369140625,10.222138404846191,4.338187217712402,-0.4713860750198364
1772729046880721400,3.458721435546875,10.176674842834473,4.3310089111328125,-0.5958128571510315
1772729046890239200,3.4682392578125,10.145567893981934,4.342973232269287,-0.729810893535614
1772729046899757000,3.477757080078125,10.100104331970215,4.316651821136475,-0.849452018737793
1772729046909275000,3.48727490234375,10.028319358825684,4.316651821136475,-0.8566305041313171
1772729046918792700,3.496792724609375,9.987641334533691,4.309473514556885,-0.7704889178276062
1772729046928310500,3.506310546875,9.9469633102417,4.321437835693359,-0.6005984544754028
1772729046937828400,3.515828369140625,9.985248565673828,4.314259052276611,-0.3900300860404968
1772729046947346200,3.52534619140625,10.133604049682617,4.256831645965576,-0.09092725813388824
1772729046956864000,3.534864013671875,10.418350219726562,4.177868366241455,0.20338992774486542
1772729046966381800,3.5443818359375,10.74855899810791,4.063013076782227,0.4211367964744568
1772729046975899600,3.553899658203125,11.016555786132812,3.88594388961792,0.5599204897880554
1772729046985417500,3.56341748046875,11.212766647338867,3.6777684688568115,0.6269195079803467
1772729046994935600,3.572935546875,11.248659133911133,3.3619158267974854,0.7465606927871704
1772729047004453400,3.582453369140625,11.217552185058594,3.012563705444336,0.8111668825149536
1772729047013971200,3.59197119140625,11.155339241027832,2.7254250049591064,0.7393822073936462
1772729047023489000,3.601489013671875,10.901700019836426,2.6273193359375,0.44745782017707825
1772729047033006800,3.6110068359375,10.494919776916504,2.6727828979492188,0.11724831163883209
1772729047042524700,3.620524658203125,10.01156997680664,2.706282377243042,-0.09571290761232376
1772729047052042500,3.63004248046875,9.499505996704102,2.7086751461029053,-0.2273181527853012
1772729047061560300,3.639560302734375,8.989834785461426,2.778067111968994,-0.2799602448940277
1772729047071078100,3.649078125,8.528019905090332,2.840280532836914,-0.31106695532798767
1772729047080596200,3.65859619140625,8.090133666992188,2.967100143432617,-0.33738797903060913
1772729047090114000,3.668114013671875,7.791030406951904,3.081955671310425,-0.2967100143432617
1772729047099631600,3.677631591796875,7.606783390045166,3.1657042503356934,-0.15074782073497772
1772729047109149700,3.687149658203125,7.520641803741455,3.2231321334838867,-0.014356935396790504
1772729047118667500,3.69666748046875,7.530212879180908,3.25663161277771,0.0933200865983963
1772729047128185300,3.706185302734375,7.592426300048828,3.2518460750579834,0.1339980661869049
1772729047137703200,3.715703125,7.802994728088379,3.2279176712036133,0.1698904037475586
1772729047147221000,3.725220947265625,8.037490844726562,3.232703447341919,0.14835500717163086
1772729047156738800,3.73473876953125,8.324629783630371,3.1896326541900635,0.08853443711996078
1772729047166256600,3.744256591796875,8.568697929382324,3.201596736907959,-0.04307080805301666
1772729047175774500,3.7537744140625,8.755337715148926,3.2063822746276855,-0.2392822653055191
1772729047185292300,3.763292236328125,8.891729354858398,3.22552490234375,-0.4259224236011505
1772729047194810400,3.772810302734375,8.992227554321289,3.263810157775879,-0.5742774605751038
1772729047204328200,3.782328125,9.020941734313965,3.373879909515381,-0.6771687865257263
1772729047213846000,3.791845947265625,8.994620323181152,3.4504501819610596,-0.7154539823532104
1772729047223363800,3.80136376953125,8.925228118896484,3.586841106414795,-0.638883650302887
1772729047232881700,3.810881591796875,8.817551612854004,3.7399818897247314,-0.5120640397071838
1772729047242399500,3.8203994140625,8.609375953674316,3.902693748474121,-0.42831525206565857
1772729047251917300,3.829917236328125,8.382058143615723,4.027120590209961,-0.35892340540885925
1772729047261435100,3.83943505859375,8.176275253295898,4.108476638793945,-0.29431718587875366
1772729047270953000,3.848952880859375,7.977670669555664,4.216153621673584,-0.2871387302875519
1772729047280470800,3.858470703125,7.841279983520508,4.311866283416748,-0.3278166949748993
1772729047289988600,3.867988525390625,7.70249605178833,4.40757942199707,-0.380458801984787
1772729047299506700,3.877506591796875,7.714460372924805,4.460221290588379,-0.4211367964744568
1772729047309024500,3.8870244140625,7.824530124664307,4.505684852600098,-0.4546363055706024
1772729047318542300,3.896542236328125,7.999206066131592,4.536791801452637,-0.4570291340351105
1772729047328060200,3.90606005859375,8.207381248474121,4.5391845703125,-0.4666004180908203
1772729047337578000,3.915577880859375,8.451449394226074,4.5200419425964355,-0.363709032535553
1772729047347095800,3.925095703125,8.755337715148926,4.493721008300781,-0.24167509377002716
1772729047356613600,3.934613525390625,9.030512809753418,4.510470867156982,-0.1866401731967926
1772729047366131500,3.94413134765625,9.166903495788574,4.510470867156982,-0.1459621787071228
1772729047375649300,3.953649169921875,9.293723106384277,4.426722049713135,-0.09810572862625122
1772729047385167000,3.9631669921875,9.430113792419434,4.328616142272949,-0.08135596662759781
1772729047394685200,3.972685302734375,9.506684303283691,4.29033088684082,-0.1818545162677765
1772729047404202800,3.98220263671875,9.463613510131836,4.302295207977295,-0.363709032535553
1772729047413720800,3.991720947265625,9.332008361816406,4.34536600112915,-0.49292147159576416
1772729047423238700,4.00123876953125,9.181260108947754,4.457828521728516,-0.6029912829399109
1772729047432756500,4.010756591796875,9.032905578613281,4.551148891448975,-0.6963114142417908
1772729047442274300,4.0202744140625,8.93958568572998,4.661218643188477,-0.7106683254241943
1772729047451792100,4.029792236328125,8.93240737915039,4.7401814460754395,-0.6580262184143066
1772729047461310000,4.03931005859375,9.008976936340332,4.809573650360107,-0.5742774605751038
1772729047470827800,4.048827880859375,9.20997428894043,4.833501815795898,-0.5240281820297241
1772729047480345600,4.058345703125,9.437292098999023,4.807180881500244,-0.5335994362831116
1772729047489863700,4.06786376953125,9.674181938171387,4.749752998352051,-0.44745782017707825
1772729047499381500,4.077381591796875,9.949356079101562,4.622933387756348,-0.34217363595962524
1772729047508899300,4.0868994140625,10.207781791687012,4.54636287689209,-0.31824541091918945
1772729047518417200,4.096417236328125,10.41356372833252,4.522434711456299,-0.3038884699344635
1772729047527935000,4.10593505859375,10.554740905761719,4.498506546020508,-0.2512463629245758
1772729047537452800,4.115452880859375,10.729416847229004,4.462614059448242,-0.2105683982372284
1772729047546970600,4.124970703125,10.815558433532715,4.479363918304443,-0.22971096634864807
1772729047556488400,4.134488525390625,10.74138069152832,4.515256404876709,-0.23210379481315613
1772729047566006500,4.144006591796875,10.518848419189453,4.553541660308838,-0.2273181527853012
1772729047575524400,4.1535244140625,10.229316711425781,4.668396949768066,-0.27756741642951965
1772729047585042000,4.1630419921875,9.913464546203613,4.8574299812316895,-0.47617170214653015
1772729047594560000,4.17256005859375,9.664610862731934,5.091926574707031,-0.729810893535614
1772729047604077800,4.182077880859375,9.473184585571289,5.288137912750244,-0.8949156403541565
1772729047613595600,4.191595703125,9.308079719543457,5.453242778778076,-1.007378339767456
1772729047623113500,4.201113525390625,9.18843936920166,5.465207099914551,-0.9978070259094238
1772729047632631300,4.21063134765625,9.176474571228027,5.424529075622559,-0.8542376756668091
1772729047642149000,4.220149169921875,9.226723670959473,5.300102233886719,-0.6747759580612183
1772729047651667000,4.2296669921875,9.396614074707031,5.13021183013916,-0.49292147159576416
1772729047661184800,4.239184814453125,9.748359680175781,4.941178798675537,-0.397208571434021
1772729047670702600,4.24870263671875,10.05703353881836,4.66361141204834,-0.380458801984787
1772729047680220700,4.258220703125,10.258030891418457,4.199403762817383,-0.35892340540885925
1772729047689738500,4.267738525390625,10.360921859741211,3.735196113586426,-0.34217363595962524
1772729047699256300,4.27725634765625,10.262816429138184,3.4432718753814697,-0.4259224236011505
1772729047708774100,4.286774169921875,9.951749801635742,3.321237802505493,-0.605384111404419
1772729047718292000,4.2962919921875,9.588040351867676,3.3236305713653564,-0.9667003750801086
1772729047727809800,4.305809814453125,9.162117958068848,3.3786656856536865,-1.2897313833236694
1772729047737327600,4.31532763671875,8.760123252868652,3.5437703132629395,-1.6175481081008911
1772729047746845400,4.324845458984375,8.286344528198242,3.7328033447265625,-1.8855443000793457
1772729047756363500,4.334363525390625,7.7838521003723145,3.8572301864624023,-1.9597218036651611
1772729047765881000,4.343881103515625,7.381857872009277,3.9864425659179688,-1.8831514120101929
1772729047775399200,4.353399169921875,7.140182971954346,4.146761417388916,-1.8113667964935303
1772729047784917000,4.3629169921875,6.975078105926514,4.304687976837158,-1.6606189012527466
1772729047794434800,4.372434814453125,6.872186660766602,4.419543266296387,-1.4572290182113647
1772729047803952600,4.38195263671875,6.946363925933838,4.443471431732178,-1.124626636505127
1772729047813470500,4.391470458984375,7.183253765106201,4.429114818572998,-0.7728816866874695
1772729047822988300,4.40098828125,7.537391185760498,4.350151538848877,-0.5024927258491516
1772729047832506000,4.410506103515625,7.932207107543945,4.213760852813721,-0.31824541091918945
1772729047842024000,4.42002392578125,8.267202377319336,3.996013879776001,-0.16031911969184875
1772729047851541800,4.429541748046875,8.63330364227295,3.8189449310302734,0.009571290574967861
1772729047861059800,4.439059814453125,9.10229778289795,3.6634113788604736,0.02871387079358101
1772729047870577700,4.44857763671875,9.42054271697998,3.5198421478271484,-0.08853443711996078
1772729047880095500,4.458095458984375,9.667003631591797,3.3954153060913086,-0.25363919138908386
1772729047889613300,4.46761328125,9.757930755615234,3.263810157775879,-0.3852444589138031
1772729047899131100,4.477131103515625,9.681360244750977,3.2374889850616455,-0.48095735907554626
1772729047908649000,4.48664892578125,9.497113227844238,3.314059257507324,-0.607776939868927
1772729047918166800,4.496166748046875,9.104690551757812,3.366701364517212,-0.672383189201355
1772729047927684600,4.5056845703125,8.628518104553223,3.5150563716888428,-0.7178468108177185
1772729047937202700,4.51520263671875,8.13798999786377,3.6442689895629883,-0.7106683254241943
1772729047946720300,4.52472021484375,7.733603000640869,3.8021950721740723,-0.7345965504646301
1772729047956238300,4.53423828125,7.45364236831665,3.9984066486358643,-0.8039883971214294
1772729047965756200,4.543756103515625,7.250252723693848,4.199403762817383,-0.8733802437782288
1772729047975274000,4.55327392578125,7.037291526794434,4.3310089111328125,-0.8207381963729858
1772729047984791800,4.562791748046875,6.929614543914795,4.350151538848877,-0.6245267391204834
1772729047994309600,4.5723095703125,6.905686378479004,4.359723091125488,-0.4666004180908203
1772729048003827500,4.581827392578125,6.932007312774658,4.436293125152588,-0.35413774847984314
1772729048013345300,4.59134521484375,7.044469833374023,4.548755645751953,-0.3278166949748993
1772729048022863000,4.600863037109375,7.2430739402771,4.646861553192139,-0.2799602448940277
1772729048032381000,4.610380859375,7.467999458312988,4.675575256347656,-0.25363919138908386
1772729048041899000,4.61989892578125,7.6977105140686035,4.668396949768066,-0.16749759018421173
1772729048051416800,4.629416748046875,7.963313579559326,4.60139799118042,-0.08614161610603333
1772729048060934700,4.6389345703125,8.22413158416748,4.572684288024902,-0.059820566326379776
1772729048070452500,4.648452392578125,8.547162055969238,4.551148891448975,-0.10289137065410614
1772729048079970300,4.65797021484375,8.800801277160645,4.555934429168701,-0.20099709928035736
1772729048089488100,4.667488037109375,8.970691680908203,4.498506546020508,-0.2560320198535919
1772729048099006000,4.677005859375,9.097511291503906,4.48414945602417,-0.2632105052471161
1772729048108524000,4.68652392578125,9.140582084655762,4.4961137771606445,-0.3445664644241333
1772729048118041900,4.696041748046875,9.087940216064453,4.579862594604492,-0.4163511395454407
1772729048127559400,4.705559326171875,9.040083885192871,4.709074974060059,-0.4450650215148926
1772729048137077500,4.715077392578125,8.975478172302246,4.783252239227295,-0.4737788736820221
1772729048146595300,4.72459521484375,8.918049812316895,4.869394302368164,-0.48574298620224
1772729048156113200,4.734113037109375,8.915657043457031,4.948357105255127,-0.4546363055706024
1772729048165631000,4.743630859375,8.925228118896484,4.989035129547119,-0.4163511395454407
1772729048175148800,4.753148681640625,8.987442016601562,5.015356063842773,-0.3613162338733673
1772729048184666600,4.76266650390625,9.107083320617676,5.024927616119385,-0.2967100143432617
1772729048194184400,4.772184326171875,9.207581520080566,5.079962253570557,-0.2727817893028259
1772729048203702300,4.781702392578125,9.265008926391602,5.096712112426758,-0.18424734473228455
1772729048213220400,4.791220458984375,9.377471923828125,5.0943193435668945,-0.1459621787071228
1772729048222738200,4.80073828125,9.54496955871582,5.091926574707031,-0.09810572862625122
1772729048232256000,4.810256103515625,9.686145782470703,5.0943193435668945,-0.02392822690308094
1772729048241773800,4.81977392578125,9.80100154876709,5.008177757263184,0.1052841991186142
1772729048251291600,4.829291748046875,9.896714210510254,4.9124650955200195,0.28953152894973755
1772729048260809500,4.8388095703125,9.93260669708252,4.902893543243408,0.39481574296951294
1772729048270327300,4.848327392578125,9.999606132507324,4.922036170959473,0.3924229145050049
1772729048279845000,4.85784521484375,9.899106979370117,4.991427898406982,0.3852444589138031
1772729048289363200,4.86736328125,9.681360244750977,5.041677474975586,0.4833501875400543
1772729048298881000,4.876881103515625,9.56650447845459,5.044070243835449,0.5527420043945312
1772729048308398800,4.88639892578125,9.45882797241211,5.051248550415039,0.4618147611618042
1772729048317916700,4.895916748046875,9.382257461547852,4.991427898406982,0.2727817893028259
1772729048327434500,4.9054345703125,9.41336441040039,4.869394302368164,0.14835500717163086
1772729048336952300,4.914952392578125,9.461220741271973,4.716253280639648,0.12203395366668701
1772729048346470100,4.92447021484375,9.607182502746582,4.5200419425964355,0.19621145725250244
1772729048355988000,4.933988037109375,9.748359680175781,4.400400638580322,0.2799602448940277
1772729048365505800,4.943505859375,10.112068176269531,4.405186653137207,0.24885354936122894
1772729048375023600,4.953023681640625,10.597811698913574,3.9457645416259766,0.5647061467170715
1772729048384541700,4.962541748046875,11.251051902770996,3.5030922889709473,0.7848458290100098
1772729048394059500,4.9720595703125,11.703295707702637,3.108276605606079,0.8111668825149536
1772729048403577300,4.981577392578125,11.633903503417969,2.8139593601226807,0.6843472719192505
1772729048413095200,4.99109521484375,11.282158851623535,2.699103832244873,0.41874396800994873
1772729048422613000,5.000613037109375,10.913663864135742,2.581855535507202,0.21774685382843018
1772729048432130800,5.010130859375,10.526026725769043,2.550748825073242,0.06699903309345245
1772729048441648600,5.019648681640625,10.131211280822754,2.6273193359375,-0.004785645287483931
1772729048451166500,5.02916650390625,9.65503978729248,2.7517459392547607,0.02153540402650833
1772729048460684500,5.0386845703125,9.126225471496582,2.9383862018585205,0.06699903309345245
1772729048470202400,5.048202392578125,8.650053977966309,3.1561331748962402,0.19142581522464752
1772729048479720200,5.05772021484375,8.250452041625977,3.345165967941284,0.4378865361213684
1772729048489238000,5.067238037109375,7.9250288009643555,3.483949661254883,0.7058826684951782
1772729048498755800,5.076755859375,7.642675399780273,3.5988051891326904,0.9236295223236084
1772729048508273700,5.086273681640625,7.4464640617370605,3.6873397827148438,1.0121639966964722
1772729048517791500,5.09579150390625,7.412964344024658,3.744767427444458,0.9930213689804077
1772729048527309600,5.1053095703125,7.5086774826049805,3.744767427444458,0.8446664214134216
1772729048536827100,5.1148271484375,7.791030406951904,3.6538400650024414,0.6915257573127747
1772729048546345000,5.124344970703125,8.161917686462402,3.541377544403076,0.5383850932121277
1772729048555863000,5.133863037109375,8.568697929382324,3.414557933807373,0.36610186100006104
1772729048565380900,5.143380859375,8.922835350036621,3.297309637069702,0.16749759018421173
1772729048574898700,5.152898681640625,9.276973724365234,3.1680972576141357,-0.035892341285943985
1772729048584416500,5.16241650390625,9.511469841003418,3.1345977783203125,-0.2105683982372284
1772729048593934300,5.171934326171875,9.559326171875,3.170490026473999,-0.363709032535553
1772729048603452200,5.1814521484375,9.418149948120117,3.304488182067871,-0.4546363055706024
1772729048612970000,5.190969970703125,9.305686950683594,3.4648072719573975,-0.48574298620224
1772729048622488000,5.200488037109375,9.157332420349121,3.675375461578369,-0.5288137793540955
1772729048632006000,5.210005859375,8.982656478881836,3.933800458908081,-0.5335994362831116
1772729048641523700,5.219523681640625,8.764909744262695,4.0558342933654785,-0.4378865361213684
1772729048651041500,5.22904150390625,8.547162055969238,4.120440483093262,-0.24885354936122894
1772729048660559400,5.238559326171875,8.34855842590332,4.153940200805664,-0.09571290761232376
1772729048670077200,5.2480771484375,8.047062873840332,4.153940200805664,-0.06939185410737991
1772729048679595000,5.257594970703125,7.824530124664307,4.204189300537109,-0.05503492057323456
1772729048689112800,5.26711279296875,7.645068168640137,4.287938117980957,-0.09810572862625122
1772729048698631000,5.276630859375,7.582854747772217,4.328616142272949,-0.11964113265275955
1772729048708148700,5.286148681640625,7.5637125968933105,4.326223373413086,-0.0933200865983963
1772729048717666300,5.295666259765625,7.613961696624756,4.29033088684082,-0.035892341285943985
1772729048727184400,5.305184326171875,7.733603000640869,4.252045631408691,-0.01196411345154047
1772729048736702200,5.3147021484375,7.939385414123535,4.208974838256836,-0.02392822690308094
1772729048746220000,5.324219970703125,8.240880966186523,4.194618225097656,-0.0933200865983963
1772729048755737900,5.33373779296875,8.516056060791016,4.180261135101318,-0.2153540402650833
1772729048765255700,5.343255615234375,8.731410026550293,4.18983268737793,-0.3158525824546814
1772729048774773500,5.3527734375,8.894122123718262,4.185046672821045,-0.3613162338733673
1772729048784291300,5.362291259765625,8.973084449768066,4.130012035369873,-0.349352091550827
1772729048793809400,5.371809326171875,8.997013092041016,4.113262176513672,-0.40677985548973083
1772729048803327200,5.3813271484375,8.992227554321289,4.120440483093262,-0.48095735907554626
1772729048812845000,5.390844970703125,8.96112060546875,4.177868366241455,-0.5647061467170715
1772729048822363000,5.40036279296875,8.958727836608887,4.2592244148254395,-0.7226324677467346
1772729048831880700,5.409880615234375,9.006584167480469,4.371686935424805,-0.8303094506263733
1772729048841398500,5.4193984375,9.083154678344727,4.4650068283081055,-0.9044869542121887
1772729048850916400,5.428916259765625,9.159725189208984,4.5583271980285645,-0.8446664214134216
1772729048860434200,5.43843408203125,9.233902931213379,4.589433670043945,-0.6771687865257263
1772729048869952300,5.4479521484375,9.377471923828125,4.687539577484131,-0.5718846321105957
1772729048879470000,5.457469970703125,9.561718940734863,4.804787635803223,-0.5216353535652161
1772729048888988000,5.46698779296875,9.736394882202148,4.838287353515625,-0.4307080805301666
1772729048898505700,5.476505615234375,9.872786521911621,4.871787071228027,-0.3326023519039154
1772729048908023600,5.4860234375,9.999606132507324,4.8813581466674805,-0.2512463629245758
1772729048917541400,5.495541259765625,10.131211280822754,4.843072891235352,-0.2871387302875519
1772729048927059200,5.50505908203125,10.2747802734375,4.809573650360107,-0.2584248483181
1772729048936577000,5.514576904296875,10.427921295166016,4.773681163787842,-0.1986042857170105
1772729048946094800,5.5240947265625,10.581061363220215,4.783252239227295,-0.23449662327766418
1772729048955613000,5.533613037109375,10.746166229248047,4.7952165603637695,-0.2799602448940277
1772729048965130800,5.543130859375,10.834700584411621,4.752145767211914,-0.33020952343940735
1772729048974648600,5.552648681640625,10.784451484680176,4.780859470367432,-0.3852444589138031
1772729048984166400,5.56216650390625,10.554740905761719,4.78803825378418,-0.45224347710609436
1772729048993684200,5.571684326171875,10.238887786865234,4.852644443511963,-0.5790630578994751
1772729049003202000,5.5812021484375,10.00439167022705,4.967499732971191,-0.7465606927871704
1772729049012719900,5.590719970703125,9.841679573059082,5.115854740142822,-0.9308080077171326
1772729049022237700,5.60023779296875,9.765109062194824,5.213960647583008,-1.0193424224853516
1772729049031755800,5.609755859375,9.841679573059082,5.163711071014404,-0.9762716293334961
1772729049041273600,5.619273681640625,10.073782920837402,5.029713153839111,-0.7992027401924133
1772729049050791400,5.62879150390625,10.389636039733887,4.797609329223633,-0.5790630578994751
1772729049060309200,5.638309326171875,10.643275260925293,4.498506546020508,-0.2273181527853012
1772729049069827000,5.6478271484375,10.882556915283203,4.18983268737793,-0.007178467698395252
1772729049079345000,5.657344970703125,11.126625061035156,3.9433717727661133,0.040677983313798904
1772729049088862700,5.66686279296875,11.21515941619873,3.641875982284546,-0.031106693670153618
1772729049098380800,5.676380859375,10.985448837280273,3.31884503364563,0.009571290574967861
1772729049107898600,5.685898681640625,10.504491806030273,3.1274192333221436,0.009571290574967861
1772729049117416200,5.695416259765625,9.858428955078125,3.0556344985961914,-0.12921242415905
1772729049126934300,5.704934326171875,9.162117958068848,3.1800613403320312,-0.4378865361213684
1772729049136452000,5.7144521484375,8.506484031677246,3.4552359580993652,-0.9332008361816406
1772729049145970000,5.723969970703125,7.8388872146606445,3.6610186100006104,-1.3160524368286133
1772729049155487700,5.73348779296875,7.2813591957092285,3.713660717010498,-1.4691931009292603
1772729049165005600,5.743005615234375,6.876972198486328,3.7974095344543457,-1.5242279767990112
1772729049174523400,5.7525234375,6.620940208435059,3.926621913909912,-1.6079767942428589
1772729049184041200,5.762041259765625,6.508477687835693,3.9840497970581055,-1.6223337650299072
1772729049193559300,5.771559326171875,6.50608491897583,4.024727821350098,-1.5864413976669312
1772729049203077000,5.7810771484375,6.733402729034424,4.034298896789551,-1.4859428405761719
1772729049212595000,5.790594970703125,7.013363361358643,3.9768712520599365,-1.277767300605774
1772729049222112800,5.80011279296875,7.334001541137695,3.9218363761901855,-0.9882357716560364
1772729049231630600,5.809630615234375,7.759923934936523,3.862015724182129,-0.7250252366065979
1772729049241148400,5.8191484375,8.185846328735352,3.799802303314209,-0.5048855543136597
1772729049250666200,5.828666259765625,8.511270523071289,3.675375461578369,-0.34217363595962524
1772729049260184300,5.838184326171875,8.767302513122559,3.5748770236968994,-0.2679961323738098
1772729049269702100,5.8477021484375,8.925228118896484,3.493520975112915,-0.2153540402650833
1772729049279220000,5.857219970703125,9.030512809753418,3.436093330383301,-0.2512463629245758
1772729049288737800,5.86673779296875,9.095118522644043,3.4169507026672363,-0.36610186100006104
1772729049298255600,5.876255615234375,9.119047164916992,3.404986619949341,-0.5312066078186035
1772729049307773400,5.8857734375,9.083154678344727,3.3714871406555176,-0.6604190468788147
1772729049317291300,5.895291259765625,8.958727836608887,3.3164522647857666,-0.7848458290100098
1772729049326809300,5.904809326171875,8.810373306274414,3.2757742404937744,-0.8255237936973572
1772729049336327200,5.9143271484375,8.647661209106445,3.2925238609313965,-0.8207381963729858
1772729049345844700,5.9238447265625,8.513663291931152,3.4504501819610596,-0.8566305041313171
1772729049355362800,5.93336279296875,8.315058708190918,3.6442689895629883,-0.8590233325958252
1772729049364880600,5.942880615234375,8.190631866455078,3.8045880794525146,-0.7824530005455017
1772729049374398500,5.9523984375,8.078168869018555,3.9529430866241455,-0.6508477330207825
1772729049383916300,5.961916259765625,7.910671710968018,4.036691665649414,-0.5168496966362
1772729049393434000,5.97143408203125,7.776673793792725,4.144368648529053,-0.3900300860404968
1772729049402952000,5.980951904296875,7.735995769500732,4.235296249389648,-0.32303106784820557
1772729049412469800,5.9904697265625,7.714460372924805,4.333401679992676,-0.2584248483181
1772729049421987800,5.99998779296875,7.707281589508057,4.374079704284668,-0.2225325107574463
1772729049431505700,6.009505615234375,7.774280548095703,4.4243292808532715,-0.16749759018421173
1772729049441023500,6.0190234375,7.817351341247559,4.417150497436523,-0.13639089465141296
1772729049450541300,6.028541259765625,7.970492362976074,4.400400638580322,-0.09092725813388824
1772729049460059100,6.03805908203125,8.116454124450684,4.409972190856934,-0.07896314561367035
1772729049469577000,6.047576904296875,8.250452041625977,4.417150497436523,-0.02632104977965355
1772729049479094800,6.0570947265625,8.415556907653809,4.4410786628723145,0.009571290574967861
1772729049488612900,6.06661279296875,8.547162055969238,4.460221290588379,-0.031106693670153618
1772729049498130700,6.076130615234375,8.662017822265625,4.457828521728516,-0.06699903309345245
1772729049507648500,6.0856484375,8.760123252868652,4.481756687164307,-0.14117653667926788
1772729049517166300,6.095166259765625,8.83669376373291,4.503292083740234,-0.26560330390930176
1772729049526684200,6.10468408203125,8.886942863464355,4.500899314880371,-0.3445664644241333
1772729049536202000,6.114201904296875,8.975478172302246,4.515256404876709,-0.31106695532798767
1772729049545719800,6.1237197265625,9.097511291503906,4.488935470581055,-0.25363919138908386
1772729049555238000,6.13323779296875,9.286544799804688,4.479363918304443,-0.15553347766399384
1772729049564755700,6.142755615234375,9.501898765563965,4.4410786628723145,0.040677983313798904
1772729049574273300,6.152273193359375,9.707681655883789,4.369294166564941,0.2727817893028259
1772729049583791400,6.161791259765625,9.889535903930664,4.302295207977295,0.4498506486415863
1772729049593309200,6.17130908203125,10.097711563110352,4.254438877105713,0.519242525100708
1772729049602827000,6.180826904296875,10.207781791687012,4.252045631408691,0.5623133182525635
1772729049612344800,6.1903447265625,10.236495018005371,4.2281174659729,0.5383850932121277
1772729049621862700,6.199862548828125,10.1814603805542,4.192225456237793,0.5024927258491516
1772729049631380500,6.20938037109375,10.095318794250488,4.216153621673584,0.4450650215148926
1772729049640898300,6.218898193359375,9.997213363647461,4.242474555969238,0.380458801984787
1772729049650416400,6.22841650390625,9.90149974822998,4.338187217712402,0.28953152894973755
1772729049659934200,6.237934326171875,9.781859397888184,4.364508628845215,0.19142581522464752
1772729049669452000,6.2474521484375,9.667003631591797,4.362115859985352,0.12203395366668701
1772729049678969900,6.256969970703125,9.55214786529541,4.369294166564941,0.038285162299871445
1772729049688487700,6.26648779296875,9.432506561279297,4.393222332000732,-0.04785645380616188
1772729049698005500,6.276005615234375,9.260223388671875,4.462614059448242,-0.13639089465141296
1772729049707523300,6.2855234375,9.114261627197266,4.541577339172363,-0.18903298676013947
1772729049717041400,6.29504150390625,8.922835350036621,4.6995038986206055,-0.19621145725250244
1772729049726559200,6.304559326171875,8.827122688293457,4.965106964111328,-0.21774685382843018
1772729049736077000,6.3140771484375,8.834300994873047,5.0703911781311035,-0.08853443711996078
1772729049745595000,6.323594970703125,9.006584167480469,4.886143684387207,0.30628129839897156
1772729049755112700,6.33311279296875,9.41336441040039,4.697110652923584,0.5216353535652161
1772729049764630500,6.342630615234375,9.944570541381836,4.417150497436523,0.5575276613235474
1772729049774148400,6.3521484375,10.552348136901855,4.0797624588012695,0.5982056856155396
1772729049783666400,6.36166650390625,11.411371231079102,3.5844483375549316,0.7680960893630981
1772729049793184300,6.371184326171875,12.050254821777344,3.1561331748962402,0.7034898400306702
1772729049802702000,6.3807021484375,12.21057415008545,2.785245656967163,0.4737788736820221
1772729049812220000,6.390219970703125,12.126825332641602,2.4837498664855957,0.30628129839897156
1772729049821737700,6.39973779296875,11.779866218566895,2.337787628173828,0.11246266216039658
1772729049831255600,6.409255615234375,11.23908805847168,2.3306093215942383,-0.05503492057323456
1772729049840773400,6.4187734375,10.540383338928223,2.445464849472046,-0.11006984114646912
1772729049850291200,6.428291259765625,9.755537986755371,2.667997360229492,-0.16749759018421173
1772729049859809000,6.43780908203125,9.080761909484863,2.9048867225646973,-0.12442677468061447
1772729049869327000,6.4473271484375,8.528019905090332,3.077169895172119,0.004785645287483931
1772729049878845000,6.456844970703125,8.049455642700195,3.3092737197875977,0.10767702013254166
1772729049888362800,6.46636279296875,7.668996810913086,3.4743785858154297,0.28953152894973755
1772729049897880600,6.475880615234375,7.501499176025391,3.5844483375549316,0.48095735907554626
1772729049907398400,6.4853984375,7.458428382873535,3.6634113788604736,0.5694918036460876
1772729049916916200,6.494916259765625,7.618747234344482,3.675375461578369,0.6197410821914673
1772729049926434000,6.50443408203125,7.9968132972717285,3.6538400650024414,0.6293123364448547
1772729049935952100,6.5139521484375,8.410771369934082,3.5605201721191406,0.5599204897880554
1772729049945470000,6.523469970703125,8.834300994873047,3.34995174407959,0.4546363055706024
1772729049954987800,6.53298779296875,9.243474006652832,3.10109806060791,0.2871387302875519
1772729049964505600,6.542505615234375,9.631111145019531,2.885744094848633,0.05742774158716202
1772729049974023400,6.5520234375,9.966106414794922,2.7661030292510986,-0.2392822653055191
1772729049983541200,6.561541259765625,10.100104331970215,2.7182464599609375,-0.49292147159576416
1772729049993059000,6.57105908203125,10.04267692565918,2.730210542678833,-0.6125625967979431
1772729050002577200,6.5805771484375,9.81535816192627,2.801995277404785,-0.5623133182525635
1772729050012095000,6.590094970703125,9.456435203552246,2.9216363430023193,-0.4977070987224579
1772729050021612500,6.599612548828125,9.016156196594238,3.1561331748962402,-0.42831525206565857
1772729050031130600,6.609130615234375,8.606983184814453,3.483949661254883,-0.41156548261642456
1772729050040648400,6.6186484375,8.164310455322266,3.730410575866699,-0.36610186100006104
1772729050050166300,6.628166259765625,7.81974458694458,3.8763725757598877,-0.23688943684101105
1772729050059684000,6.63768408203125,7.51585578918457,3.9625144004821777,-0.12681959569454193
1772729050069202000,6.647201904296875,7.274180889129639,4.005585193634033,-0.10049854964017868
1772729050078719700,6.6567197265625,7.135396957397461,4.082155227661133,-0.1986042857170105
1772729050088237800,6.66623779296875,7.161718368530273,4.153940200805664,-0.34695929288864136
1772729050097755600,6.675755615234375,7.2813591957092285,4.194618225097656,-0.5216353535652161
1772729050107273500,6.6852734375,7.527820110321045,4.161118507385254,-0.605384111404419
1772729050116791300,6.694791259765625,7.884350776672363,4.067798614501953,-0.605384111404419
1772729050126309000,6.70430908203125,8.307880401611328,3.950550079345703,-0.5742774605751038
1772729050135827000,6.713826904296875,8.769695281982422,3.869194269180298,-0.5072783827781677
1772729050145344800,6.7233447265625,9.087940216064453,3.840480327606201,-0.4785645306110382
1772729050154862800,6.73286279296875,9.305686950683594,3.8524444103240967,-0.5072783827781677
1772729050164380700,6.742380615234375,9.403793334960938,3.8811583518981934,-0.5742774605751038
1772729050173898500,6.7518984375,9.351150512695312,3.869194269180298,-0.6293123364448547
1772729050183416300,6.761416259765625,9.272188186645508,3.893122434616089,-0.727418065071106
1772729050192934100,6.77093408203125,9.253045082092285,3.9672999382019043,-0.9044869542121887
1772729050202452000,6.780451904296875,9.212367057800293,4.022335052490234,-1.0480563640594482
1772729050211969800,6.7899697265625,9.241081237792969,4.041477680206299,-1.1485549211502075
1772729050221487900,6.79948779296875,9.305686950683594,4.074976921081543,-1.1341979503631592
1772729050231005700,6.809005615234375,9.425328254699707,4.089334011077881,-1.074377417564392
1772729050240523500,6.8185234375,9.571290969848633,4.132404804229736,-1.0097711086273193
1772729050250041300,6.828041259765625,9.734002113342285,4.1970109939575195,-0.9355936646461487
1772729050259559200,6.83755908203125,9.875179290771484,4.275974273681641,-0.8781659007072449
1772729050269077000,6.847076904296875,9.968499183654785,4.371686935424805,-0.8374879360198975
1772729050278594800,6.8565947265625,10.023533821105957,4.41475772857666,-0.8350951075553894
1772729050288113000,6.86611279296875,10.088140487670898,4.443471431732178,-0.7824530005455017
1772729050297630500,6.87563037109375,10.107282638549805,4.4961137771606445,-0.7896314859390259
1772729050307148500,6.8851484375,10.164710998535156,4.529613494873047,-0.763310432434082
1772729050316666400,6.894666259765625,10.193424224853516,4.46979284286499,-0.6484549641609192
1772729050326184200,6.90418408203125,10.15035343170166,4.450650215148926,-0.5982056856155396
1772729050335702000,6.913701904296875,10.05703353881836,4.486542224884033,-0.6867401003837585
1772729050345219800,6.9232197265625,9.90149974822998,4.587040901184082,-0.8614161610603333
1772729050354737700,6.932737548828125,9.724431037902832,4.682754039764404,-1.0289137363433838
1772729050364255500,6.94225537109375,9.609575271606445,4.744967460632324,-1.1485549211502075
1772729050373773600,6.951773681640625,9.535398483276367,4.756931304931641,-1.1700903177261353
1772729050383291400,6.96129150390625,9.509077072143555,4.8191447257995605,-1.0432707071304321
1772729050392809200,6.970809326171875,9.597611427307129,4.862215518951416,-0.882951557636261
1772729050402327000,6.9803271484375,9.76989459991455,4.776073932647705,-0.760917603969574
1772729050411844900,6.989844970703125,9.992427825927734,4.541577339172363,-0.6149554252624512
1772729050421362700,6.99936279296875,10.152746200561523,4.151547431945801,-0.4977070987224579
1772729050430880500,7.008880615234375,10.420742988586426,3.696911096572876,-0.3684946894645691
1772729050440398600,7.018398681640625,10.683953285217285,3.232703447341919,-0.42831525206565857
1772729050449916400,7.02791650390625,10.76530933380127,2.902493953704834,-0.5886343717575073
1772729050459434200,7.037434326171875,10.712666511535645,2.6703901290893555,-0.8135597109794617
1772729050468952000,7.0469521484375,10.540383338928223,2.6009981632232666,-1.0265209674835205
1772729050478470000,7.056469970703125,10.322636604309082,2.641676187515259,-1.277767300605774
1772729050487987700,7.06598779296875,10.052248001098633,2.801995277404785,-1.6079767942428589
1772729050497505500,7.075505615234375,9.671789169311523,2.8977081775665283,-1.8664016723632812
1772729050507023600,7.085023681640625,9.221938133239746,2.933600664138794,-1.9334007501602173
1772729050516541400,7.09454150390625,8.82233715057373,2.909672260284424,-1.8999011516571045
1772729050526059300,7.104059326171875,8.451449394226074,2.9527430534362793,-1.7730815410614014
1772729050535577000,7.1135771484375,8.080561637878418,3.1106693744659424,-1.7874385118484497
1772729050545095000,7.123094970703125,7.76470947265625,3.352344512939453,-1.8544375896453857
1772729050554612700,7.13261279296875,7.523034572601318,3.5772697925567627,-1.8424733877182007
1772729050564130600,7.142130615234375,7.417750358581543,3.7974095344543457,-1.8496519327163696
1772729050573648400,7.1516484375,7.283751964569092,3.902693748474121,-1.7730815410614014
1772729050583166200,7.161166259765625,7.231110095977783,3.9385859966278076,-1.6773686408996582
1772729050592684300,7.170684326171875,7.314858913421631,3.9672999382019043,-1.5433706045150757
1772729050602202000,7.1802021484375,7.4847493171691895,3.9840497970581055,-1.4213366508483887
1772729050611720000,7.189719970703125,7.793423175811768,3.9864425659179688,-1.3088740110397339
1772729050621237800,7.19923779296875,8.171489715576172,3.9457645416259766,-1.0600204467773438
1772729050630755600,7.208755615234375,8.528019905090332,3.792623996734619,-0.8183453679084778
1772729050640273400,7.2182734375,8.872586250305176,3.625126361846924,-0.6197410821914673
1772729050649791200,7.227791259765625,9.410971641540527,3.4719855785369873,-0.5240281820297241
1772729050659309300,7.237309326171875,9.944570541381836,3.3379876613616943,-0.576670229434967
1772729050668827100,7.2468271484375,10.423135757446289,3.1920254230499268,-0.6628118753433228
1772729050678345000,7.256344970703125,10.767702102661133,3.0029923915863037,-0.7322037220001221
1772729050687862800,7.26586279296875,10.908878326416016,2.7732813358306885,-0.8303094506263733
1772729050697380600,7.275380615234375,10.884950637817383,2.6392834186553955,-0.9020941257476807
1772729050706898400,7.2848984375,10.736595153808594,2.6488547325134277,-1.0648061037063599
1772729050716416300,7.294416259765625,10.511670112609863,2.801995277404785,-1.246660590171814
1772729050725934300,7.303934326171875,10.186245918273926,2.9312076568603516,-1.4141582250595093
1772729050735452200,7.3134521484375,9.810572624206543,2.9623143672943115,-1.4165509939193726
1772729050744970000,7.322969970703125,9.437292098999023,2.9527430534362793,-1.3519448041915894
1772729050754487800,7.33248779296875,9.07119083404541,2.9958138465881348,-1.277767300605774
1772729050764005600,7.342005615234375,8.752944946289062,3.0723843574523926,-1.191625714302063
1772729050773523500,7.3515234375,8.492127418518066,3.1728827953338623,-1.038485050201416
1772729050783041300,7.361041259765625,8.271987915039062,3.2518460750579834,-0.885344386100769
1772729050792559400,7.370559326171875,8.157132148742676,3.359523057937622,-0.7585247755050659
1772729050802077000,7.380076904296875,8.14516830444336,3.407379388809204,-0.6364908218383789
1772729050811595000,7.389594970703125,8.240880966186523,3.4576287269592285,-0.5072783827781677
1772729050821112800,7.39911279296875,8.334200859069824,3.4911282062530518,-0.363709032535553
1772729050830630700,7.408630615234375,8.410771369934082,3.4959139823913574,-0.2967100143432617
1772729050840148500,7.4181484375,8.48016357421875,3.5054850578308105,-0.1986042857170105
1772729050849666300,7.427666259765625,8.578269004821777,3.5270206928253174,-0.16749759018421173
1772729050859184000,7.43718408203125,8.58784008026123,3.5772697925567627,-0.24167509377002716
1772729050868702000,7.446701904296875,8.61176872253418,3.6442689895629883,-0.37806597352027893
1772729050878220000,7.456219970703125,8.606983184814453,3.6466617584228516,-0.48574298620224
1772729050887737900,7.46573779296875,8.645268440246582,3.6227335929870605,-0.4498506486415863
1772729050897255700,7.475255615234375,8.707481384277344,3.7016966342926025,-0.380458801984787
1772729050906773500,7.4847734375,8.73619556427002,3.7710886001586914,-0.3326023519039154
1772729050916291300,7.494291259765625,8.81515884399414,3.862015724182129,-0.2679961323738098
1772729050925809200,7.50380908203125,8.918049812316895,3.9122650623321533,-0.13639089465141296
1772729050935327200,7.5133271484375,8.934800148010254,3.895515203475952,0.04546362906694412
1772729050944845000,7.522844970703125,9.001798629760742,3.864408493041992,0.21296121180057526
1772729050954363000,7.53236279296875,9.142974853515625,3.8907296657562256,0.2727817893028259
1772729050963880700,7.541880615234375,9.375079154968262,3.9218363761901855,0.3278166949748993
1772729050973398500,7.5513984375,9.588040351867676,3.91705060005188,0.3684946894645691
1772729050982916400,7.560916259765625,9.858428955078125,3.8428730964660645,0.37806597352027893
1772729050992434200,7.57043408203125,10.100104331970215,3.7328033447265625,0.3924229145050049
1772729051001952300,7.5799521484375,10.250852584838867,3.641875982284546,0.3613162338733673
1772729051011470000,7.589469970703125,10.272387504577637,3.5748770236968994,0.3852444589138031
1772729051020988000,7.59898779296875,10.231709480285645,3.594019651412964,0.27756741642951965
1772729051030505700,7.608505615234375,10.092926025390625,3.6873397827148438,0.13878370821475983
1772729051040023600,7.6180234375,9.937392234802246,3.7782669067382812,0.038285162299871445
1772729051049541400,7.627541259765625,9.719645500183105,3.8333017826080322,-0.02632104977965355
1772729051059059200,7.63705908203125,9.475577354431152,3.9194436073303223,-0.08135596662759781
1772729051068577000,7.646576904296875,9.226723670959473,3.9864425659179688,-0.11485548317432404
1772729051078094800,7.6560947265625,9.06401252746582,3.9768712520599365,-0.035892341285943985
1772729051087613000,7.665613037109375,8.980263710021973,3.9314076900482178,0.15314064919948578
1772729051097130800,7.675130859375,8.973084449768066,3.82373046875,0.39960137009620667
1772729051106648600,7.684648681640625,9.128618240356445,3.6945180892944336,0.6101697683334351
1772729051116166400,7.69416650390625,9.442078590393066,3.565305709838867,0.6652047038078308
1772729051125684200,7.703684326171875,9.781859397888184,3.4480574131011963,0.672383189201355
1772729051135202000,7.7132021484375,10.052248001098633,3.25663161277771,0.672383189201355
1772729051144720000,7.722719970703125,10.327422142028809,3.060420274734497,0.6508477330207825
1772729051154238000,7.732238037109375,10.64088249206543,2.9790642261505127,0.4570291340351105
1772729051163755800,7.741755859375,10.853843688964844,2.9001009464263916,0.24167509377002716
1772729051173273600,7.751273681640625,10.932806968688965,2.746960401535034,0.10289137065410614
1772729051182791400,7.76079150390625,10.884950637817383,2.572284460067749,0.07657032459974289
1772729051192309200,7.770309326171875,10.664810180664062,2.526820659637451,0.0933200865983963
1772729051201827000,7.7798271484375,10.336994171142578,2.59621262550354,0.15074782073497772
1772729051211345000,7.789344970703125,9.994820594787598,2.7828526496887207,0.17946170270442963
1772729051220863000,7.798863037109375,9.7005033493042,2.998206853866577,0.2799602448940277
1772729051230380800,7.808380859375,9.384650230407715,3.1992039680480957,0.39960137009620667
1772729051239898600,7.817898681640625,9.075976371765137,3.3403804302215576,0.6221339106559753
1772729051249416400,7.82741650390625,8.80798053741455,3.3690943717956543,0.8422735929489136
1772729051258934300,7.836934326171875,8.685946464538574,3.397808074951172,0.9092726111412048
1772729051268452000,7.8464521484375,8.676374435424805,3.407379388809204,0.8422735929489136
1772729051277970200,7.85597021484375,8.800801277160645,3.407379388809204,0.7776673436164856
1772729051287488000,7.865488037109375,9.035298347473145,3.31884503364563,0.7154539823532104
1772729051297005600,7.875005615234375,9.281759262084961,3.218346357345581,0.6317051649093628
1772729051306523600,7.884523681640625,9.547362327575684,3.0723843574523926,0.4713860750198364
1772729051316041500,7.89404150390625,9.789037704467773,2.9168508052825928,0.28235307335853577
1772729051325559300,7.903559326171875,9.915857315063477,2.8666014671325684,0.07417750358581543
1772729051335077000,7.9130771484375,9.963713645935059,2.864208698272705,-0.12921242415905
1772729051344595000,7.922594970703125,9.93978500366211,2.9718856811523438,-0.3326023519039154
1772729051354112800,7.93211279296875,9.774680137634277,3.060420274734497,-0.4450650215148926
1772729051363630800,7.941630859375,9.480362892150879,3.160918712615967,-0.45224347710609436
1772729051373148700,7.951148681640625,9.104690551757812,3.2470602989196777,-0.41874396800994873
1772729051382666500,7.96066650390625,8.717052459716797,3.390629768371582,-0.39481574296951294
1772729051392184300,7.970184326171875,8.336593627929688,3.5270206928253174,-0.49292147159576416
1772729051401702100,7.9797021484375,8.042277336120605,3.6777684688568115,-0.6317051649093628
1772729051411220000,7.989219970703125,7.814958572387695,3.759124279022217,-0.7393822073936462
1772729051420737800,7.99873779296875,7.671389579772949,3.7878382205963135,-0.727418065071106
1772729051430255900,8.008255859375,7.549355506896973,3.7878382205963135,-0.7154539823532104
1772729051439773700,8.017773681640625,7.549355506896973,3.8261234760284424,-0.7106683254241943
1772729051449291500,8.02729150390625,7.692924976348877,3.9050865173339844,-0.729810893535614
1772729051458809300,8.036809326171875,7.891529083251953,3.9792640209198,-0.727418065071106
1772729051468327200,8.0463271484375,8.14516830444336,4.019941806793213,-0.672383189201355
1772729051477845000,8.055844970703125,8.46580696105957,4.053441524505615,-0.6125625967979431
1772729051487362800,8.06536279296875,8.764909744262695,4.048655986785889,-0.5886343717575073
1772729051496881000,8.074880859375,8.992227554321289,3.9864425659179688,-0.5431707501411438
1772729051506398700,8.084398681640625,9.174081802368164,3.893122434616089,-0.4713860750198364
1772729051515916500,8.09391650390625,9.370293617248535,3.8333017826080322,-0.49292147159576416
1772729051525434400,8.103434326171875,9.585647583007812,3.7902309894561768,-0.5264210104942322
1772729051534952200,8.1129521484375,9.741181373596191,3.7710886001586914,-0.5790630578994751
1772729051544470000,8.122469970703126,9.877572059631348,3.7232320308685303,-0.5910272002220154
1772729051553988000,8.131988037109375,9.908679008483887,3.6945180892944336,-0.6029912829399109
1772729051563506000,8.141505859375,9.934999465942383,3.625126361846924,-0.5599204897880554
1772729051573023700,8.151023681640625,9.963713645935059,3.6705899238586426,-0.5527420043945312
1772729051582541600,8.16054150390625,9.851250648498535,3.696911096572876,-0.6005984544754028
1772729051592059400,8.170059326171875,9.69093132019043,3.728017568588257,-0.5814558863639832
1772729051601577200,8.1795771484375,9.533005714416504,3.7543387413024902,-0.5934200286865234
1772729051611095000,8.189094970703126,9.499505996704102,3.84765887260437,-0.6819544434547424
1772729051620612900,8.19861279296875,9.504291534423828,3.926621913909912,-0.760917603969574
1772729051630130700,8.208130615234374,9.501898765563965,3.9314076900482178,-0.7752745151519775
1772729051639648800,8.217648681640625,9.592825889587402,3.85483717918396,-0.7082754969596863
1772729051649166600,8.22716650390625,9.710074424743652,3.830909013748169,-0.6652047038078308
1772729051658684400,8.236684326171876,9.903892517089844,3.8428730964660645,-0.6652047038078308
1772729051668202200,8.2462021484375,9.987641334533691,3.8572301864624023,-0.6556333899497986
1772729051677720000,8.255719970703124,10.04985523223877,3.8883368968963623,-0.6628118753433228
1772729051687238000,8.26523779296875,10.03549861907959,3.8883368968963623,-0.6508477330207825
1772729051696755700,8.274755615234374,9.8871431350708,3.9625144004821777,-0.7010970115661621
1772729051706273800,8.284273681640625,9.65503978729248,4.0558342933654785,-0.763310432434082
1772729051715791600,8.29379150390625,9.473184585571289,4.213760852813721,-0.9044869542121887
1772729051725309400,8.303309326171876,9.29611587524414,4.381258487701416,-1.0456634759902954
1772729051734827300,8.3128271484375,9.262616157531738,4.450650215148926,-1.0815558433532715
1772729051744345000,8.322344970703124,9.351150512695312,4.395615100860596,-1.0360921621322632
1772729051753863000,8.33186279296875,9.607182502746582,4.223331928253174,-0.9116654396057129
1772729051763381000,8.341381103515625,9.990034103393555,3.94097900390625,-0.7441678643226624
1772729051772898800,8.35089892578125,10.344172477722168,3.5509488582611084,-0.4953143000602722
1772729051782416600,8.360416748046875,10.600204467773438,3.1800613403320312,-0.30149564146995544
1772729051791934500,8.3699345703125,10.899307250976562,2.8211379051208496,-0.275174617767334
1772729051801452300,8.379452392578125,11.12901782989502,2.493321180343628,-0.3445664644241333
1772729051810970000,8.38897021484375,11.198410034179688,2.2301106452941895,-0.5479564070701599
1772729051820488000,8.398488037109376,11.184053421020508,2.0578274726867676,-0.849452018737793
1772729051830006000,8.408006103515625,11.040483474731445,1.9357935190200806,-1.129412293434143
1772729051839523800,8.41752392578125,10.770094871520996,1.8831514120101929,-1.4715858697891235
1772729051849041700,8.427041748046875,10.320243835449219,1.9405791759490967,-1.7324036359786987
1772729051858559500,8.4365595703125,9.755537986755371,2.076970100402832,-1.9645073413848877
1772729051868077300,8.446077392578125,9.22433090209961,2.2301106452941895,-2.122433662414551
1772729051877595100,8.45559521484375,8.733802795410156,2.3617160320281982,-2.1343977451324463
1772729051887113000,8.465113037109376,8.281558990478516,2.6081767082214355,-2.2372891902923584
1772729051896630800,8.474630859375,7.867600917816162,2.8450660705566406,-2.227717876434326
1772729051906148600,8.484148681640624,7.616354465484619,3.067598581314087,-2.1343977451324463
1772729051915666700,8.493666748046875,7.451249599456787,3.2590243816375732,-1.9094724655151367
1772729051925184500,8.5031845703125,7.396214962005615,3.3068809509277344,-1.4644074440002441
1772729051934702300,8.512702392578126,7.513463020324707,3.321237802505493,-1.0001999139785767
1772729051944220200,8.52222021484375,7.795815944671631,3.3092737197875977,-0.6556333899497986
1772729051953738000,8.531738037109376,8.190631866455078,3.2279176712036133,-0.45942193269729614
1772729051963255800,8.541255859375,8.539983749389648,3.074777126312256,-0.31345975399017334
1772729051972773600,8.550773681640624,8.944371223449707,2.8905298709869385,-0.24646073579788208
1772729051982291700,8.560291748046875,9.399007797241211,2.7421748638153076,-0.2871387302875519
1772729051991809500,8.5698095703125,9.812965393066406,2.6392834186553955,-0.44027936458587646
1772729052001327400,8.579327392578126,10.15753173828125,2.5363919734954834,-0.6149554252624512
1772729052010845200,8.58884521484375,10.358529090881348,2.376072883605957,-0.6939185857772827
1772729052020363000,8.598363037109374,10.408778190612793,2.2301106452941895,-0.7728816866874695
1772729052029880800,8.607880859375,10.334601402282715,2.1535403728485107,-0.9284151792526245
1772729052039399000,8.61739892578125,10.202995300292969,2.1822543144226074,-1.1748759746551514
1772729052048916700,8.626916748046876,10.013962745666504,2.2923240661621094,-1.332802176475525
1772729052058434600,8.6364345703125,9.757930755615234,2.4095723628997803,-1.4261223077774048
1772729052067952400,8.645952392578126,9.461220741271973,2.510071039199829,-1.428515076637268
1772729052077470200,8.65547021484375,9.119047164916992,2.572284460067749,-1.28255295753479
1772729052086988000,8.664988037109374,8.915657043457031,2.675175666809082,-1.2610175609588623
1772729052096505900,8.674505859375,8.796015739440918,2.8354947566986084,-1.1820544004440308
1772729052106024000,8.68402392578125,8.714659690856934,2.964707374572754,-1.0719845294952393
1772729052115541500,8.69354150390625,8.659625053405762,3.0484559535980225,-0.8398807644844055
1772729052125059600,8.7030595703125,8.652446746826172,3.146561861038208,-0.6173482537269592
1772729052134577400,8.712577392578124,8.738588333129883,3.232703447341919,-0.5240281820297241
1772729052144095200,8.72209521484375,8.925228118896484,3.314059257507324,-0.4737788736820221
1772729052153613000,8.731613037109375,9.044869422912598,3.3379876613616943,-0.3613162338733673
1772729052163131000,8.741130859375,9.119047164916992,3.34995174407959,-0.2632105052471161
1772729052172648700,8.750648681640625,9.245866775512695,3.3092737197875977,-0.17946170270442963
1772729052182166500,8.76016650390625,9.33440113067627,3.2614171504974365,-0.10289137065410614
1772729052191684600,8.7696845703125,9.442078590393066,3.290131092071533,-0.1459621787071228
1772729052201202400,8.779202392578124,9.485149383544922,3.3236305713653564,-0.24167509377002716
1772729052210720300,8.78872021484375,9.499505996704102,3.3308091163635254,-0.30628129839897156
1772729052220238000,8.798238037109375,9.549755096435547,3.321237802505493,-0.31345975399017334
1772729052229756000,8.807755859375,9.597611427307129,3.28773832321167,-0.26560330390930176
1772729052239273700,8.817273681640625,9.714859962463379,3.2781670093536377,-0.23449662327766418
1772729052248791800,8.826791748046874,9.805787086486816,3.2709884643554688,-0.17706887423992157
1772729052258309600,8.8363095703125,9.810572624206543,3.3403804302215576,-0.14117653667926788
1772729052267827500,8.845827392578125,9.817750930786133,3.3571300506591797,-0.11006984114646912
1772729052277345300,8.85534521484375,9.868000984191895,3.436093330383301,-0.17706887423992157
1772729052286863000,8.864863037109375,10.013962745666504,3.5533416271209717,-0.31106695532798767
1772729052296381000,8.874380859375,10.06421184539795,3.5844483375549316,-0.3565305769443512
1772729052305898800,8.883898681640625,10.061819076538086,3.579662561416626,-0.39481574296951294
1772729052315416800,8.893416748046874,10.061819076538086,3.565305709838867,-0.3900300860404968
1772729052324934700,8.9029345703125,10.02592658996582,3.617947816848755,-0.5240281820297241
1772729052334452500,8.912452392578125,9.9469633102417,3.7256247997283936,-0.6532405614852905
1772729052343970300,8.92197021484375,9.820143699645996,3.85483717918396,-0.7130611538887024
1772729052353488100,8.931488037109375,9.69093132019043,3.902693748474121,-0.6939185857772827
1772729052363006000,8.941005859375,9.609575271606445,3.9433717727661133,-0.6245267391204834
1772729052372524000,8.95052392578125,9.616754531860352,3.9146578311920166,-0.5407779216766357
1772729052382041900,8.960041748046875,9.58325481414795,3.82373046875,-0.46420758962631226
1772729052391559400,8.969559326171876,9.547362327575684,3.6681971549987793,-0.4019941985607147
1772729052401077500,8.979077392578125,9.56889820098877,3.462414264678955,-0.363709032535553
1772729052410595300,8.98859521484375,9.619147300720215,3.2709884643554688,-0.4713860750198364
1772729052420113200,8.998113037109375,9.805787086486816,3.050848960876465,-0.6460621356964111
1772729052429631000,9.007630859375,9.963713645935059,2.7828526496887207,-0.8039883971214294
1772729052439148800,9.017148681640625,10.00439167022705,2.5196423530578613,-0.9403793215751648
1772729052448666600,9.02666650390625,9.963713645935059,2.3736801147460938,-1.0121639966964722
1772729052458184700,9.036184814453126,9.80817985534668,2.335394859313965,-1.0552347898483276
1772729052467702500,9.04570263671875,9.475577354431152,2.297109842300415,-1.1892328262329102
1772729052477220400,9.055220458984374,9.08554744720459,2.2205393314361572,-1.2538390159606934
1772729052486738200,9.06473828125,8.975478172302246,2.1367905139923096,-1.2969099283218384
1772729052496256000,9.074256103515625,9.09990406036377,2.1511476039886475,-1.31365966796875
1772729052505773800,9.08377392578125,9.080761909484863,2.4358935356140137,-1.3208380937576294
1772729052515291600,9.093291748046875,8.879764556884766,2.7565317153930664,-1.191625714302063
1772729052524809700,9.102809814453124,8.886942863464355,2.9623143672943115,-1.0863415002822876
1772729052534327600,9.11232763671875,8.934800148010254,2.9527430534362793,-0.7561319470405579
1772729052543845400,9.121845458984374,9.05444049835205,2.9144580364227295,-0.380458801984787
1772729052553363200,9.13136328125,9.343972206115723,2.9958138465881348,-0.2560320198535919
