time,seconds_elapsed,z,y,x
1772709354496762400,0.030762451171875,-0.9869537353515625,0.063018798828125,0.0802154541015625
1772709354506787300,0.040787353515625,-0.990264892578125,0.064178466796875,0.0804595947265625
1772709354516812300,0.050812255859375,-0.9929656982421875,0.0648651123046875,0.0801849365234375
1772709354526837200,0.060837158203125,-0.99273681640625,0.0657806396484375,0.0816192626953125
1772709354536862500,0.070862548828125,-0.9937286376953125,0.063751220703125,0.0818328857421875
1772709354546886400,0.080886474609375,-0.990264892578125,0.0635986328125,0.08013916015625
1772709354556911400,0.090911376953125,-0.985198974609375,0.062591552734375,0.0786895751953125
1772709354566936600,0.1009365234375,-0.9871978759765625,0.0648651123046875,0.082305908203125
1772709354576961300,0.110961181640625,-0.9890289306640625,0.0678558349609375,0.0807647705078125
1772709354586986200,0.120986328125,-0.9900970458984375,0.0675811767578125,0.081298828125
1772709354597011200,0.13101123046875,-0.98919677734375,0.0638427734375,0.080322265625
1772709354607036400,0.141036376953125,-0.9916229248046875,0.065765380859375,0.0785064697265625
1772709354617061400,0.151061279296875,-0.994537353515625,0.0686492919921875,0.079010009765625
1772709354627086300,0.16108642578125,-0.98931884765625,0.0701446533203125,0.083221435546875
1772709354637111600,0.171111572265625,-0.986083984375,0.07373046875,0.0860595703125
1772709354647135500,0.181135498046875,-0.98724365234375,0.0763702392578125,0.0889129638671875
1772709354657160200,0.19116015625,-0.9884796142578125,0.0716094970703125,0.0840606689453125
1772709354667185400,0.201185302734375,-0.985443115234375,0.0682220458984375,0.0757293701171875
1772709354677210400,0.21121044921875,-0.99420166015625,0.0606536865234375,0.066314697265625
1772709354687235300,0.2212353515625,-1.0031280517578125,0.05328369140625,0.057373046875
1772709354697260300,0.23126025390625,-1.0049591064453125,0.0489044189453125,0.058502197265625
1772709354707285500,0.241285400390625,-1.001068115234375,0.0528564453125,0.0676116943359375
1772709354717310500,0.251310546875,-0.9990081787109375,0.0602264404296875,0.0752105712890625
1772709354727335400,0.26133544921875,-0.998870849609375,0.06439208984375,0.084259033203125
1772709354737360400,0.2713603515625,-0.9938812255859375,0.06781005859375,0.0909576416015625
1772709354747385600,0.281385498046875,-0.9912109375,0.071044921875,0.090057373046875
1772709354757409300,0.2914091796875,-0.9932708740234375,0.0725250244140625,0.08941650390625
1772709354767434200,0.301434326171875,-0.9902801513671875,0.0692138671875,0.08807373046875
1772709354777459500,0.31145947265625,-0.9746551513671875,0.0629730224609375,0.08587646484375
1772709354787484400,0.321484375,-0.9611663818359375,0.0589599609375,0.0872955322265625
1772709354797509400,0.33150927734375,-0.9765167236328125,0.061981201171875,0.086090087890625
1772709354807534300,0.341534423828125,-0.99322509765625,0.068939208984375,0.081787109375
1772709354817559600,0.3515595703125,-0.99786376953125,0.0694122314453125,0.078521728515625
1772709354827584500,0.36158447265625,-0.9912261962890625,0.0626983642578125,0.0767364501953125
1772709354837609200,0.371609130859375,-0.9886627197265625,0.0596160888671875,0.07513427734375
1772709354847634400,0.381634521484375,-0.99639892578125,0.06451416015625,0.0749664306640625
1772709354857659400,0.391659423828125,-0.9982757568359375,0.0669708251953125,0.0760955810546875
1772709354867683300,0.401683349609375,-0.9931182861328125,0.0639190673828125,0.08197021484375
1772709354877708500,0.41170849609375,-0.9895172119140625,0.061920166015625,0.082427978515625
1772709354887733500,0.4217333984375,-0.9987335205078125,0.06097412109375,0.0814971923828125
1772709354897758500,0.431758544921875,-1.001953125,0.0618743896484375,0.078125
1772709354907783200,0.441783203125,-0.9949493408203125,0.0635986328125,0.08062744140625
1772709354917808400,0.451808349609375,-0.98809814453125,0.0645904541015625,0.08563232421875
1772709354927833300,0.461833251953125,-0.9854583740234375,0.0663604736328125,0.083343505859375
1772709354937858300,0.4718583984375,-0.9874267578125,0.06866455078125,0.085540771484375
1772709354947883300,0.48188330078125,-0.991485595703125,0.0697479248046875,0.08453369140625
1772709354957908500,0.491908447265625,-0.98992919921875,0.0683441162109375,0.085205078125
1772709354967933400,0.501933349609375,-0.988677978515625,0.065948486328125,0.0807342529296875
1772709354977957400,0.511957275390625,-0.9887542724609375,0.062713623046875,0.080780029296875
1772709354987982300,0.521982421875,-0.9891204833984375,0.0634613037109375,0.078521728515625
1772709354998007300,0.53200732421875,-0.99072265625,0.06573486328125,0.07928466796875
1772709355008032300,0.5420322265625,-0.9912567138671875,0.0633087158203125,0.0791015625
1772709355018057500,0.552057373046875,-0.9921112060546875,0.0592498779296875,0.075408935546875
1772709355028082400,0.56208251953125,-0.9893646240234375,0.053863525390625,0.07672119140625
1772709355038107400,0.572107421875,-0.986236572265625,0.0534515380859375,0.079010009765625
1772709355048132400,0.58213232421875,-0.98675537109375,0.0556488037109375,0.081268310546875
1772709355058157600,0.592157470703125,-0.99114990234375,0.059326171875,0.0845794677734375
1772709355068182500,0.6021826171875,-0.9921722412109375,0.06060791015625,0.0836334228515625
1772709355078206200,0.612206298828125,-0.9930267333984375,0.0592193603515625,0.0839080810546875
1772709355088231400,0.6222314453125,-0.9913482666015625,0.061004638671875,0.085662841796875
1772709355098256400,0.63225634765625,-0.98883056640625,0.0621337890625,0.08819580078125
1772709355108281300,0.64228125,-0.986114501953125,0.06201171875,0.091156005859375
1772709355118306300,0.652306396484375,-0.9860992431640625,0.0637664794921875,0.08978271484375
1772709355128331500,0.66233154296875,-0.98565673828125,0.0638885498046875,0.0854644775390625
1772709355138356500,0.6723564453125,-0.986968994140625,0.06195068359375,0.08685302734375
1772709355148381400,0.68238134765625,-0.9869537353515625,0.0626068115234375,0.0868682861328125
1772709355158406400,0.692406494140625,-0.9909515380859375,0.0627288818359375,0.0843048095703125
1772709355168431400,0.702431396484375,-0.989532470703125,0.05950927734375,0.08544921875
1772709355178456300,0.712456298828125,-0.9882354736328125,0.0622711181640625,0.083892822265625
1772709355188480300,0.722480224609375,-0.989349365234375,0.064483642578125,0.0829315185546875
1772709355198505500,0.73250537109375,-0.9957427978515625,0.0655059814453125,0.08453369140625
1772709355208530400,0.742530517578125,-1.002166748046875,0.06768798828125,0.0806884765625
1772709355218555400,0.752555419921875,-1.0005950927734375,0.068084716796875,0.078460693359375
1772709355228580400,0.762580322265625,-0.9956817626953125,0.0650482177734375,0.0793304443359375
1772709355238605600,0.77260546875,-0.9942779541015625,0.0616607666015625,0.0776214599609375
1772709355248631000,0.782631103515625,-0.995819091796875,0.0616607666015625,0.0757904052734375
1772709355258656000,0.792656005859375,-0.9967803955078125,0.060455322265625,0.0775146484375
1772709355268681000,0.802680908203125,-0.995391845703125,0.0605926513671875,0.0792083740234375
1772709355278706200,0.8127060546875,-0.9900665283203125,0.062255859375,0.079437255859375
1772709355288731000,0.82273095703125,-0.993560791015625,0.065277099609375,0.080657958984375
1772709355298754800,0.8327548828125,-0.9980316162109375,0.068939208984375,0.081573486328125
1772709355308780000,0.842780029296875,-0.9979705810546875,0.0668792724609375,0.0837249755859375
1772709355318805000,0.852804931640625,-0.99530029296875,0.0649871826171875,0.085601806640625
1772709355328830000,0.862829833984375,-0.99407958984375,0.0638580322265625,0.0851593017578125
1772709355338855000,0.87285498046875,-0.9956817626953125,0.0622100830078125,0.0845489501953125
1772709355348880100,0.882880126953125,-1.0052032470703125,0.0651092529296875,0.085174560546875
1772709355358905000,0.892905029296875,-1.007537841796875,0.063140869140625,0.0842132568359375
1772709355368929800,0.9029296875,-0.995330810546875,0.0585174560546875,0.0855712890625
1772709355378955000,0.912955078125,-0.9917449951171875,0.067169189453125,0.09503173828125
1772709355388980000,0.92297998046875,-0.9786529541015625,0.0667724609375,0.1014404296875
1772709355399004000,0.93300390625,-0.9496307373046875,0.0583038330078125,0.11572265625
1772709355409029000,0.943029052734375,-0.9337615966796875,0.0617218017578125,0.1178741455078125
1772709355419054000,0.95305419921875,-0.9579010009765625,0.0578460693359375,0.1024322509765625
1772709355429079000,0.9630791015625,-0.9977264404296875,0.0533599853515625,0.092437744140625
1772709355439104000,0.97310400390625,-1.0173797607421875,0.060791015625,0.088348388671875
1772709355449129000,0.98312890625,-1.011077880859375,0.0625762939453125,0.0950164794921875
1772709355459154000,0.99315380859375,-0.9914398193359375,0.0592803955078125,0.0999603271484375
1772709355469179000,1.003178955078125,-0.976776123046875,0.056976318359375,0.100738525390625
1772709355479203800,1.013203857421875,-0.97625732421875,0.0574798583984375,0.099761962890625
1772709355489229000,1.02322900390625,-0.9865875244140625,0.0609588623046875,0.0994720458984375
1772709355499254000,1.03325390625,-0.994903564453125,0.0622711181640625,0.0977783203125
1772709355509278000,1.04327783203125,-0.9957733154296875,0.0627288818359375,0.0966339111328125
1772709355519303200,1.05330322265625,-0.992340087890625,0.0633697509765625,0.0972137451171875
1772709355529327900,1.063327880859375,-0.9871368408203125,0.0614776611328125,0.0968780517578125
1772709355539352800,1.073352783203125,-0.9834136962890625,0.0617828369140625,0.1009368896484375
1772709355549377800,1.083377685546875,-0.98333740234375,0.0636444091796875,0.1038970947265625
1772709355559403000,1.093403076171875,-0.9886474609375,0.0614471435546875,0.103759765625
1772709355569428000,1.103427978515625,-0.991119384765625,0.0594940185546875,0.1010894775390625
1772709355579453000,1.113452880859375,-0.9901580810546875,0.0583648681640625,0.09942626953125
1772709355589478000,1.123477783203125,-0.990020751953125,0.060394287109375,0.0996551513671875
1772709355599503000,1.133503173828125,-0.988433837890625,0.060791015625,0.100830078125
1772709355609528000,1.143528076171875,-0.9878997802734375,0.0623931884765625,0.1011505126953125
1772709355619552000,1.153552001953125,-0.9899444580078125,0.0653228759765625,0.1006622314453125
1772709355629577000,1.163576904296875,-0.9924163818359375,0.0639495849609375,0.100067138671875
1772709355639602000,1.173601806640625,-0.9923858642578125,0.063720703125,0.0986480712890625
1772709355649627000,1.183626953125,-0.9919281005859375,0.0635528564453125,0.0986175537109375
1772709355659652000,1.193652099609375,-0.9883880615234375,0.0637664794921875,0.0980377197265625
1772709355669677000,1.203677001953125,-0.9890899658203125,0.0646820068359375,0.098358154296875
1772709355679702000,1.213701904296875,-0.991851806640625,0.0638275146484375,0.097808837890625
1772709355689727000,1.22372705078125,-0.99072265625,0.061248779296875,0.0988311767578125
1772709355699752000,1.233751953125,-0.987884521484375,0.0578765869140625,0.0989837646484375
1772709355709777000,1.24377685546875,-0.9873046875,0.0570068359375,0.100982666015625
1772709355719801900,1.2538017578125,-0.98736572265625,0.05810546875,0.0988922119140625
1772709355729826000,1.263825927734375,-0.9881744384765625,0.0578765869140625,0.0980377197265625
1772709355739851000,1.27385107421875,-0.989990234375,0.058807373046875,0.0991058349609375
1772709355749876000,1.2838759765625,-0.9897613525390625,0.059417724609375,0.09857177734375
1772709355759901000,1.29390087890625,-0.988372802734375,0.0574951171875,0.0969085693359375
1772709355769926100,1.303926025390625,-0.9881591796875,0.0604705810546875,0.096649169921875
1772709355779950800,1.313950927734375,-0.9885101318359375,0.0630950927734375,0.097015380859375
1772709355789975800,1.323975830078125,-0.9916229248046875,0.0626373291015625,0.097747802734375
1772709355800001000,1.3340009765625,-0.9911346435546875,0.062255859375,0.098876953125
1772709355810026000,1.34402587890625,-0.98773193359375,0.0600433349609375,0.0982208251953125
1772709355820051000,1.354051025390625,-0.9868927001953125,0.0604400634765625,0.0970001220703125
1772709355830076000,1.364075927734375,-0.989166259765625,0.0621795654296875,0.0985870361328125
1772709355840100000,1.37410009765625,-0.9914093017578125,0.0656280517578125,0.0999755859375
1772709355850125000,1.384125,-0.9915771484375,0.06292724609375,0.099884033203125
1772709355860149800,1.394149658203125,-0.9896392822265625,0.0620269775390625,0.0998382568359375
1772709355870175000,1.404175048828125,-0.987548828125,0.06048583984375,0.1007232666015625
1772709355880200000,1.414199951171875,-0.9877471923828125,0.060211181640625,0.100555419921875
1772709355890225000,1.424224853515625,-0.988555908203125,0.060150146484375,0.0995330810546875
1772709355900249900,1.434249755859375,-0.9909820556640625,0.062530517578125,0.0972747802734375
1772709355910275000,1.444275146484375,-0.9913330078125,0.0632781982421875,0.097991943359375
1772709355920300000,1.454300048828125,-0.992034912109375,0.062225341796875,0.0967559814453125
1772709355930325000,1.464324951171875,-0.9903411865234375,0.0628204345703125,0.0980987548828125
1772709355940350000,1.474349853515625,-0.98822021484375,0.061767578125,0.096588134765625
1772709355950375200,1.484375244140625,-0.988006591796875,0.0613555908203125,0.0981292724609375
1772709355960398800,1.49439892578125,-0.989532470703125,0.0604705810546875,0.0994110107421875
1772709355970424000,1.504424072265625,-0.989776611328125,0.059844970703125,0.097564697265625
1772709355980449000,1.514448974609375,-0.9899139404296875,0.05999755859375,0.0977783203125
1772709355990474000,1.524473876953125,-0.9896392822265625,0.0595703125,0.097381591796875
1772709356000499000,1.5344990234375,-0.98931884765625,0.0618438720703125,0.097076416015625
1772709356010524200,1.544524169921875,-0.9901885986328125,0.0643463134765625,0.0995635986328125
1772709356020549000,1.554549072265625,-0.990875244140625,0.0615692138671875,0.09991455078125
1772709356030574000,1.564573974609375,-0.9883575439453125,0.061187744140625,0.098602294921875
1772709356040598800,1.574598876953125,-0.985931396484375,0.060791015625,0.098419189453125
1772709356050624000,1.5846240234375,-0.9909210205078125,0.0608978271484375,0.0979766845703125
1772709356060649000,1.59464892578125,-0.9915771484375,0.0640411376953125,0.0998687744140625
1772709356070674000,1.604673828125,-0.990570068359375,0.0654754638671875,0.099945068359375
1772709356080698000,1.614697998046875,-0.989715576171875,0.06597900390625,0.1021881103515625
1772709356090723000,1.62472314453125,-0.986968994140625,0.06695556640625,0.10015869140625
1772709356100748000,1.634748046875,-0.9901123046875,0.0666351318359375,0.0977935791015625
1772709356110773000,1.64477294921875,-0.9897613525390625,0.064300537109375,0.098785400390625
1772709356120798000,1.6547978515625,-0.987213134765625,0.06646728515625,0.099090576171875
1772709356130823000,1.664822998046875,-0.9893341064453125,0.06622314453125,0.099029541015625
1772709356140847900,1.674847900390625,-0.9897308349609375,0.065032958984375,0.0990447998046875
1772709356150872800,1.684872802734375,-0.9893646240234375,0.0651397705078125,0.0981597900390625
1772709356160898000,1.69489794921875,-0.989349365234375,0.0618896484375,0.098297119140625
1772709356170923000,1.704923095703125,-0.9886016845703125,0.0615386962890625,0.0962982177734375
1772709356180948000,1.714947998046875,-0.990142822265625,0.0609893798828125,0.09716796875
1772709356190973000,1.724972900390625,-0.9893646240234375,0.0629119873046875,0.097564697265625
1772709356200996900,1.734996826171875,-0.9885101318359375,0.0635528564453125,0.0978851318359375
1772709356211021800,1.745021728515625,-0.9893951416015625,0.06396484375,0.0978851318359375
1772709356221047000,1.755047119140625,-0.990753173828125,0.0631866455078125,0.0982513427734375
1772709356231072000,1.765072021484375,-0.989410400390625,0.0628204345703125,0.0991973876953125
1772709356241097000,1.775096923828125,-0.98883056640625,0.06365966796875,0.1002960205078125
1772709356251121700,1.78512158203125,-0.988037109375,0.067047119140625,0.0995025634765625
1772709356261147000,1.79514697265625,-0.9881439208984375,0.0673980712890625,0.099029541015625
1772709356271171800,1.805171875,-0.9911346435546875,0.0668487548828125,0.098419189453125
1772709356281196800,1.81519677734375,-0.988983154296875,0.064422607421875,0.1009521484375
1772709356291221800,1.8252216796875,-0.9858245849609375,0.0646209716796875,0.1024017333984375
1772709356301247000,1.8352470703125,-0.9859771728515625,0.064849853515625,0.1008148193359375
1772709356311272000,1.84527197265625,-0.9892120361328125,0.0659027099609375,0.0981903076171875
1772709356321295600,1.855295654296875,-0.9897308349609375,0.06719970703125,0.0970001220703125
1772709356331320800,1.86532080078125,-0.98974609375,0.066162109375,0.096832275390625
1772709356341345800,1.875345703125,-0.9893798828125,0.0650177001953125,0.0991058349609375
1772709356351370800,1.885370849609375,-0.988525390625,0.0645751953125,0.0993499755859375
1772709356361395700,1.895395751953125,-0.98834228515625,0.0651397705078125,0.100006103515625
1772709356371421000,1.9054208984375,-0.99090576171875,0.0643310546875,0.099456787109375
1772709356381446000,1.91544580078125,-0.9918060302734375,0.0633392333984375,0.099822998046875
1772709356391470800,1.925470947265625,-0.9884490966796875,0.0608978271484375,0.1021881103515625
1772709356401495800,1.935495849609375,-0.9869232177734375,0.061492919921875,0.102081298828125
1772709356411521000,1.94552099609375,-0.9865264892578125,0.0609588623046875,0.1009063720703125
1772709356421545700,1.955545654296875,-0.9885406494140625,0.0621795654296875,0.0983123779296875
1772709356431570700,1.96557080078125,-0.989471435546875,0.063934326171875,0.0994110107421875
1772709356441596000,1.975595947265625,-0.9905853271484375,0.0663604736328125,0.100189208984375
1772709356451619800,1.985619873046875,-0.9911346435546875,0.065521240234375,0.100677490234375
1772709356461644800,1.995644775390625,-0.98870849609375,0.06256103515625,0.100860595703125
1772709356471670000,2.005669921875,-0.9865264892578125,0.064788818359375,0.096923828125
1772709356481695000,2.015695068359375,-0.98858642578125,0.0682830810546875,0.1001129150390625
1772709356491720000,2.025719970703125,-0.9936981201171875,0.0669708251953125,0.1040496826171875
1772709356501744600,2.03574462890625,-0.9914703369140625,0.0637054443359375,0.1025238037109375
1772709356511769900,2.045769775390625,-0.9864959716796875,0.0597991943359375,0.1006622314453125
1772709356521794800,2.055794921875,-0.985076904296875,0.0582733154296875,0.09991455078125
1772709356531819800,2.06581982421875,-0.9869384765625,0.0595550537109375,0.100982666015625
1772709356541844700,2.0758447265625,-0.989288330078125,0.0593109130859375,0.100372314453125
1772709356551870000,2.085869873046875,-0.99005126953125,0.0617828369140625,0.097320556640625
1772709356561895000,2.09589501953125,-0.99072265625,0.058624267578125,0.0987701416015625
1772709356571920000,2.105919921875,-0.9881744384765625,0.060455322265625,0.0992584228515625
1772709356581943800,2.11594384765625,-0.9907073974609375,0.0639801025390625,0.09954833984375
1772709356591968800,2.12596875,-0.9910125732421875,0.0660400390625,0.096282958984375
1772709356601993700,2.13599365234375,-0.990234375,0.0677490234375,0.090484619140625
1772709356612019000,2.14601904296875,-0.9896087646484375,0.0707550048828125,0.0908966064453125
1772709356622044000,2.1560439453125,-0.9905853271484375,0.0709228515625,0.09521484375
1772709356632068900,2.16606884765625,-0.9927215576171875,0.0703277587890625,0.0994415283203125
1772709356642093800,2.17609375,-0.9932708740234375,0.067413330078125,0.10345458984375
1772709356652119000,2.186119140625,-0.9916229248046875,0.0630035400390625,0.1026611328125
1772709356662144000,2.19614404296875,-0.9864959716796875,0.05987548828125,0.102264404296875
1772709356672168700,2.206168701171875,-0.9852752685546875,0.058685302734375,0.1019287109375
1772709356682193700,2.216193603515625,-0.9863128662109375,0.060638427734375,0.1013641357421875
1772709356692219000,2.226218994140625,-0.988800048828125,0.06341552734375,0.0993804931640625
1772709356702243800,2.236243896484375,-0.99090576171875,0.0598907470703125,0.0983734130859375
1772709356712267800,2.246267822265625,-0.98712158203125,0.0624542236328125,0.0980682373046875
1772709356722293000,2.25629296875,-0.987884521484375,0.0626983642578125,0.0995025634765625
1772709356732318000,2.26631787109375,-0.991790771484375,0.06390380859375,0.1009979248046875
1772709356742343000,2.276343017578125,-0.9915008544921875,0.0661468505859375,0.099822998046875
1772709356752367600,2.28636767578125,-0.9895477294921875,0.0675506591796875,0.0988311767578125
1772709356762392800,2.296392822265625,-0.9897003173828125,0.06671142578125,0.10003662109375
1772709356772417800,2.306417724609375,-0.985595703125,0.06805419921875,0.0998382568359375
1772709356782442800,2.31644287109375,-0.9891357421875,0.0672454833984375,0.0985260009765625
1772709356792467700,2.3264677734375,-0.9913787841796875,0.0641326904296875,0.0990753173828125
1772709356802493000,2.336492919921875,-0.989227294921875,0.0643463134765625,0.0979156494140625
1772709356812518000,2.346517822265625,-0.9890289306640625,0.06634521484375,0.0965423583984375
1772709356822542800,2.35654296875,-0.990997314453125,0.066131591796875,0.095916748046875
1772709356832567800,2.36656787109375,-0.990478515625,0.068206787109375,0.0969390869140625
1772709356842591700,2.376591796875,-0.990020751953125,0.0664825439453125,0.099884033203125
1772709356852616700,2.38661669921875,-0.9888458251953125,0.0639801025390625,0.099517822265625
1772709356862642000,2.396641845703125,-0.98834228515625,0.06378173828125,0.0981292724609375
1772709356872667000,2.4066669921875,-0.98687744140625,0.0623016357421875,0.1033935546875
1772709356882691800,2.41669189453125,-0.9869842529296875,0.061767578125,0.1065826416015625
1772709356892716800,2.426716796875,-0.9872894287109375,0.0608673095703125,0.107574462890625
1772709356902742000,2.436741943359375,-0.988494873046875,0.0626983642578125,0.1026763916015625
1772709356912767000,2.44676708984375,-0.9874267578125,0.06536865234375,0.0972137451171875
1772709356922792000,2.4567919921875,-0.991424560546875,0.06793212890625,0.097259521484375
1772709356932816600,2.466816650390625,-0.9927978515625,0.0684967041015625,0.09710693359375
1772709356942841900,2.476841796875,-0.988861083984375,0.069061279296875,0.0980224609375
1772709356952866800,2.48686669921875,-0.9870147705078125,0.0655059814453125,0.099151611328125
1772709356962891800,2.496891845703125,-0.990142822265625,0.0634918212890625,0.10076904296875
1772709356972916700,2.506916748046875,-0.991058349609375,0.0649566650390625,0.0998992919921875
1772709356982941000,2.51694091796875,-0.99066162109375,0.064117431640625,0.100921630859375
1772709356992966000,2.5269658203125,-0.9896240234375,0.065704345703125,0.1026763916015625
1772709357002990800,2.536990966796875,-0.9878692626953125,0.065277099609375,0.1026153564453125
1772709357013015800,2.547015869140625,-0.988494873046875,0.0625762939453125,0.1029052734375
1772709357023040800,2.557040771484375,-0.986663818359375,0.0623931884765625,0.1021270751953125
1772709357033065700,2.567065673828125,-0.9866943359375,0.06463623046875,0.099273681640625
1772709357043091000,2.577091064453125,-0.9895477294921875,0.0663909912109375,0.0964813232421875
1772709357053116000,2.587115966796875,-0.99188232421875,0.0645599365234375,0.0959320068359375
1772709357063140900,2.597140869140625,-0.988861083984375,0.0662078857421875,0.09820556640625
1772709357073165800,2.607165771484375,-0.9886627197265625,0.06353759765625,0.10125732421875
1772709357083191000,2.61719091796875,-0.9882049560546875,0.0653533935546875,0.09857177734375
1772709357093216000,2.627216064453125,-0.990203857421875,0.064300537109375,0.0972747802734375
1772709357103240700,2.63724072265625,-0.992584228515625,0.0635986328125,0.097320556640625
1772709357113265000,2.647264892578125,-0.98919677734375,0.065643310546875,0.0989837646484375
1772709357123289900,2.657289794921875,-0.98614501953125,0.0639495849609375,0.10107421875
1772709357133314800,2.667314697265625,-0.985595703125,0.0663604736328125,0.1003570556640625
1772709357143339800,2.67733984375,-0.9863128662109375,0.06793212890625,0.0969390869140625
1772709357153365000,2.687364990234375,-0.9882354736328125,0.0664215087890625,0.09735107421875
1772709357163390000,2.697389892578125,-0.990631103515625,0.0673370361328125,0.0989990234375
1772709357173415000,2.707414794921875,-0.9929656982421875,0.0656585693359375,0.0991668701171875
1772709357183439600,2.717439697265625,-0.9903106689453125,0.061767578125,0.0999603271484375
1772709357193464800,2.72746484375,-0.9826812744140625,0.061126708984375,0.09808349609375
1772709357203489800,2.73748974609375,-0.9830474853515625,0.06134033203125,0.1010284423828125
1772709357213514800,2.7475146484375,-0.9886932373046875,0.0622406005859375,0.1004180908203125
1772709357223539700,2.757539794921875,-0.9929962158203125,0.0625457763671875,0.0984649658203125
1772709357233565000,2.76756494140625,-0.9937744140625,0.0625,0.09722900390625
1772709357243590000,2.77758984375,-0.99212646484375,0.0624237060546875,0.0995330810546875
1772709357253613000,2.787613037109375,-0.9900054931640625,0.064056396484375,0.10125732421875
1772709357263638000,2.797637939453125,-0.98858642578125,0.0619354248046875,0.104217529296875
1772709357273663000,2.8076630859375,-0.9852752685546875,0.061859130859375,0.10040283203125
1772709357283688200,2.817688232421875,-0.9834136962890625,0.0648193359375,0.0946197509765625
1772709357293713200,2.827713134765625,-0.988739013671875,0.0642852783203125,0.0931396484375
1772709357303738000,2.837738037109375,-0.99566650390625,0.0642547607421875,0.0974273681640625
1772709357313763000,2.84776318359375,-0.9939422607421875,0.064422607421875,0.1030120849609375
1772709357323788300,2.857788330078125,-0.9904022216796875,0.061187744140625,0.10687255859375
1772709357333813200,2.867813232421875,-0.9850311279296875,0.0576019287109375,0.1068878173828125
1772709357343838000,2.877837890625,-0.9824676513671875,0.05938720703125,0.1038360595703125
1772709357353863000,2.88786279296875,-0.9853363037109375,0.0619964599609375,0.10150146484375
1772709357363888000,2.89788818359375,-0.991546630859375,0.064361572265625,0.1009368896484375
1772709357373913000,2.9079130859375,-0.9928436279296875,0.0623321533203125,0.1009979248046875
1772709357383938000,2.91793798828125,-0.9907989501953125,0.0604248046875,0.1013336181640625
1772709357393962200,2.927962158203125,-0.9897308349609375,0.0615081787109375,0.099212646484375
1772709357403987200,2.9379873046875,-0.9886322021484375,0.0672760009765625,0.097137451171875
1772709357414012200,2.94801220703125,-0.9888153076171875,0.06842041015625,0.0956268310546875
1772709357424036900,2.958036865234375,-0.990509033203125,0.0665740966796875,0.0971527099609375
1772709357434062000,2.96806201171875,-0.9901885986328125,0.0613861083984375,0.1002349853515625
1772709357444087000,2.978087158203125,-0.9886322021484375,0.0601959228515625,0.10205078125
1772709357454112000,2.988112060546875,-0.9893035888671875,0.05841064453125,0.1074676513671875
1772709357464137000,2.998136962890625,-0.9900665283203125,0.057281494140625,0.1035614013671875
1772709357474162200,3.008162109375,-0.9872283935546875,0.06158447265625,0.095855712890625
1772709357484187100,3.018187255859375,-0.9878997802734375,0.0612030029296875,0.0954132080078125
1772709357494212000,3.028212158203125,-0.99102783203125,0.0663604736328125,0.09747314453125
1772709357504237000,3.038237060546875,-0.9920654296875,0.068145751953125,0.1034088134765625
1772709357514262300,3.04826220703125,-0.9914398193359375,0.06475830078125,0.1012725830078125
1772709357524287000,3.058286865234375,-0.9864349365234375,0.0634613037109375,0.097564697265625
1772709357534312000,3.06831201171875,-0.9842071533203125,0.0636749267578125,0.09674072265625
1772709357544336100,3.078336181640625,-0.9897918701171875,0.0623321533203125,0.0984649658203125
1772709357554361000,3.088361083984375,-0.9918975830078125,0.0634765625,0.09991455078125
1772709357564386000,3.098385986328125,-0.9897918701171875,0.060089111328125,0.1019744873046875
1772709357574411300,3.108411376953125,-0.9838409423828125,0.052093505859375,0.1004791259765625
1772709357584436200,3.118436279296875,-0.98272705078125,0.0533294677734375,0.100738525390625
1772709357594461200,3.128461181640625,-0.9850006103515625,0.06304931640625,0.0968475341796875
1772709357604486000,3.13848583984375,-0.991729736328125,0.0699920654296875,0.097625732421875
1772709357614511000,3.148510986328125,-0.99810791015625,0.0696258544921875,0.098419189453125
1772709357624536000,3.1585361328125,-0.9928436279296875,0.0652008056640625,0.1014862060546875
1772709357634561000,3.16856103515625,-0.98486328125,0.06201171875,0.0980377197265625
1772709357644586000,3.1785859375,-0.985504150390625,0.062652587890625,0.095367431640625
1772709357654611200,3.188611083984375,-0.9910430908203125,0.06353759765625,0.0968475341796875
1772709357664636200,3.19863623046875,-0.9925079345703125,0.063323974609375,0.100067138671875
1772709357674661000,3.2086611328125,-0.988128662109375,0.0616912841796875,0.09844970703125
1772709357684686000,3.21868603515625,-0.986846923828125,0.0579071044921875,0.1004180908203125
1772709357694710000,3.2287099609375,-0.989654541015625,0.057525634765625,0.1008148193359375
1772709357704735000,3.23873486328125,-0.9884796142578125,0.062286376953125,0.101318359375
1772709357714760200,3.24876025390625,-0.9876251220703125,0.063201904296875,0.10015869140625
1772709357724785200,3.25878515625,-0.9904937744140625,0.0659332275390625,0.0989532470703125
1772709357734810000,3.26881005859375,-0.9886932373046875,0.0639190673828125,0.0980224609375
1772709357744835000,3.2788349609375,-0.9864501953125,0.062957763671875,0.099517822265625
1772709357754860300,3.2888603515625,-0.9884033203125,0.0640869140625,0.0999755859375
1772709357764885200,3.29888525390625,-0.9932861328125,0.0626068115234375,0.10052490234375
1772709357774910200,3.30891015625,-0.9915008544921875,0.0634613037109375,0.099853515625
1772709357784935000,3.318934814453125,-0.9873504638671875,0.06463623046875,0.099884033203125
1772709357794960100,3.328960205078125,-0.9884490966796875,0.0618743896484375,0.1018524169921875
1772709357804985000,3.338985107421875,-0.9897918701171875,0.0588531494140625,0.1009368896484375
1772709357815010000,3.349010009765625,-0.9877777099609375,0.064788818359375,0.098876953125
1772709357825035000,3.359034912109375,-0.989776611328125,0.0677642822265625,0.1075286865234375
1772709357835060200,3.369060302734375,-0.9925079345703125,0.06549072265625,0.09857177734375
1772709357845084200,3.379084228515625,-0.9871673583984375,0.0669708251953125,0.0973052978515625
1772709357855108900,3.38910888671875,-0.9861297607421875,0.0590667724609375,0.10107421875
1772709357865134000,3.399134033203125,-0.985809326171875,0.0552215576171875,0.1033477783203125
1772709357875159000,3.409158935546875,-0.987884521484375,0.065673828125,0.0956573486328125
1772709357885184000,3.41918408203125,-0.998138427734375,0.0650787353515625,0.0952911376953125
1772709357895209000,3.429208984375,-0.99285888671875,0.065216064453125,0.1033935546875
1772709357905234200,3.439234130859375,-0.9835205078125,0.06427001953125,0.1086578369140625
1772709357915259100,3.449259033203125,-0.980621337890625,0.053619384765625,0.10009765625
1772709357925284000,3.4592841796875,-0.9853973388671875,0.059600830078125,0.089019775390625
1772709357935309000,3.46930908203125,-0.99420166015625,0.0664825439453125,0.090484619140625
1772709357945334300,3.479334228515625,-0.9987030029296875,0.0659637451171875,0.099639892578125
1772709357955359000,3.48935888671875,-0.98858642578125,0.062774658203125,0.1049652099609375
1772709357965384000,3.499384033203125,-0.97869873046875,0.0615386962890625,0.1008758544921875
1772709357975409200,3.5094091796875,-0.983734130859375,0.0593414306640625,0.09765625
1772709357985434000,3.51943408203125,-0.9933013916015625,0.0633544921875,0.1019744873046875
1772709357995458000,3.5294580078125,-0.9933624267578125,0.06341552734375,0.103485107421875
1772709358005483300,3.539483154296875,-0.991973876953125,0.0625152587890625,0.098480224609375
1772709358015508200,3.54950830078125,-0.98583984375,0.0668792724609375,0.0946197509765625
1772709358025533200,3.559533203125,-0.9895172119140625,0.0668792724609375,0.0968170166015625
1772709358035558000,3.569557861328125,-0.9931488037109375,0.0655670166015625,0.099456787109375
1772709358045583000,3.5795830078125,-0.9893798828125,0.0687103271484375,0.096649169921875
1772709358055608000,3.589608154296875,-0.9886322021484375,0.0610809326171875,0.094482421875
1772709358065633000,3.599633056640625,-0.98895263671875,0.0600433349609375,0.09832763671875
1772709358075658000,3.609657958984375,-0.9873809814453125,0.0619964599609375,0.0999908447265625
1772709358085683200,3.61968310546875,-0.9897918701171875,0.0614776611328125,0.10272216796875
1772709358095708200,3.629708251953125,-0.9897613525390625,0.0619354248046875,0.1034088134765625
1772709358105733000,3.639733154296875,-0.9893951416015625,0.06256103515625,0.10284423828125
1772709358115758000,3.649758056640625,-0.985748291015625,0.06512451171875,0.0977935791015625
1772709358125783300,3.659783203125,-0.98626708984375,0.0666656494140625,0.095489501953125
1772709358135808000,3.66980810546875,-0.9915618896484375,0.066864013671875,0.095916748046875
1772709358145832000,3.67983203125,-0.9938812255859375,0.0653228759765625,0.0981903076171875
1772709358155857200,3.689857177734375,-0.9908447265625,0.061981201171875,0.101776123046875
1772709358165882000,3.699882080078125,-0.9833831787109375,0.059356689453125,0.1029815673828125
1772709358175907000,3.709906982421875,-0.982269287109375,0.059661865234375,0.10089111328125
1772709358185932000,3.71993212890625,-0.9901885986328125,0.0593109130859375,0.1000518798828125
1772709358195957200,3.729957275390625,-0.9898834228515625,0.0618896484375,0.09747314453125
1772709358205982200,3.739982177734375,-0.989959716796875,0.0666046142578125,0.0957183837890625
1772709358216007000,3.7500068359375,-0.9919586181640625,0.0625457763671875,0.0957489013671875
1772709358226032000,3.7600322265625,-0.990753173828125,0.0657806396484375,0.1010589599609375
1772709358236057000,3.77005712890625,-0.9882659912109375,0.0669403076171875,0.1011199951171875
1772709358246082000,3.78008203125,-0.9859161376953125,0.070892333984375,0.0976409912109375
1772709358256106800,3.790106689453125,-0.9911956787109375,0.0686187744140625,0.095428466796875
1772709358266132000,3.800132080078125,-0.993377685546875,0.0631103515625,0.1002655029296875
1772709358276157000,3.810156982421875,-0.9864349365234375,0.0643310546875,0.099456787109375
1772709358286180900,3.820180908203125,-0.9857177734375,0.0591888427734375,0.100677490234375
1772709358296206000,3.8302060546875,-0.9882965087890625,0.0565032958984375,0.099029541015625
1772709358306231000,3.84023095703125,-0.987579345703125,0.0606231689453125,0.10009765625
1772709358316256000,3.850256103515625,-0.9874725341796875,0.06207275390625,0.1011962890625
1772709358326281000,3.860281005859375,-0.9884796142578125,0.062347412109375,0.099945068359375
1772709358336306000,3.870305908203125,-0.988006591796875,0.061431884765625,0.1003570556640625
1772709358346331000,3.880330810546875,-0.9876708984375,0.05767822265625,0.100494384765625
1772709358356355800,3.89035595703125,-0.9876556396484375,0.0666046142578125,0.101531982421875
1772709358366381000,3.900381103515625,-0.99249267578125,0.06695556640625,0.0974578857421875
1772709358376406000,3.910406005859375,-0.994354248046875,0.0662841796875,0.09930419921875
1772709358386431000,3.920430908203125,-0.9885406494140625,0.064239501953125,0.0972900390625
1772709358396456000,3.9304560546875,-0.9870452880859375,0.0628204345703125,0.0950775146484375
1772709358406481200,3.940481201171875,-0.9896392822265625,0.065826416015625,0.0932464599609375
1772709358416506000,3.950506103515625,-0.994140625,0.06732177734375,0.096832275390625
1772709358426531000,3.960531005859375,-0.993133544921875,0.0677947998046875,0.0977935791015625
1772709358436555000,3.970554931640625,-0.9886474609375,0.065460205078125,0.0998687744140625
1772709358446580000,3.980580078125,-0.987548828125,0.0625762939453125,0.1007232666015625
1772709358456605000,3.99060498046875,-0.9868621826171875,0.0647125244140625,0.1012420654296875
1772709358466630000,4.0006298828125,-0.990692138671875,0.06414794921875,0.1013641357421875
1772709358476655000,4.010655029296875,-0.990509033203125,0.0633087158203125,0.101806640625
1772709358486680000,4.02068017578125,-0.988037109375,0.0636444091796875,0.0971527099609375
1772709358496705000,4.030705078125,-0.9878082275390625,0.06298828125,0.0958251953125
1772709358506730000,4.04072998046875,-0.988800048828125,0.062896728515625,0.0992431640625
1772709358516755000,4.0507548828125,-0.9892425537109375,0.06396484375,0.101226806640625
1772709358526780000,4.06077978515625,-0.98931884765625,0.06439208984375,0.1008758544921875
1772709358536804900,4.070804931640625,-0.988250732421875,0.065582275390625,0.098602294921875
1772709358546829800,4.080829833984375,-0.990142822265625,0.0621185302734375,0.1019287109375
1772709358556855000,4.09085498046875,-0.9877166748046875,0.0596923828125,0.1057281494140625
1772709358566880000,4.1008798828125,-0.9852142333984375,0.0590972900390625,0.1033172607421875
1772709358576905000,4.110905029296875,-0.98681640625,0.0622406005859375,0.0958099365234375
1772709358586929200,4.12092919921875,-0.9908905029296875,0.067474365234375,0.095062255859375
1772709358596953900,4.130953857421875,-0.994903564453125,0.0689697265625,0.0995635986328125
1772709358606978800,4.140978759765625,-0.9916229248046875,0.064849853515625,0.1025238037109375
1772709358617004000,4.151004150390625,-0.984619140625,0.0607757568359375,0.09906005859375
1772709358627029000,4.161029052734375,-0.985015869140625,0.061676025390625,0.0989532470703125
1772709358637054000,4.171053955078125,-0.9905242919921875,0.0654449462890625,0.0973663330078125
1772709358647079000,4.181078857421875,-0.99591064453125,0.0681304931640625,0.0997161865234375
1772709358657104100,4.191104248046875,-0.9899444580078125,0.0688629150390625,0.1017303466796875
1772709358667129000,4.201129150390625,-0.98590087890625,0.0662994384765625,0.099365234375
1772709358677154000,4.211154052734375,-0.987823486328125,0.064849853515625,0.095123291015625
1772709358687179000,4.221178955078125,-0.99359130859375,0.0624847412109375,0.0963134765625
1772709358697204000,4.231203857421875,-0.99029541015625,0.06207275390625,0.1002197265625
1772709358707229000,4.24122900390625,-0.986297607421875,0.0635833740234375,0.0994110107421875
1772709358717254000,4.25125390625,-0.9894561767578125,0.0613861083984375,0.0986175537109375
1772709358727278000,4.261278076171875,-0.9896392822265625,0.0565643310546875,0.0988311767578125
1772709358737303000,4.271302978515625,-0.986572265625,0.0632781982421875,0.0989990234375
1772709358747328000,4.281327880859375,-0.9871826171875,0.0669097900390625,0.09783935546875
1772709358757353000,4.29135302734375,-0.993804931640625,0.0653076171875,0.09649658203125
1772709358767378000,4.3013779296875,-0.990570068359375,0.06353759765625,0.098785400390625
1772709358777403000,4.31140283203125,-0.9846038818359375,0.061767578125,0.098846435546875
1772709358787427800,4.321427734375,-0.9872589111328125,0.060150146484375,0.0984954833984375
1772709358797452800,4.331452880859375,-0.9919586181640625,0.06298828125,0.099700927734375
1772709358807478000,4.34147802734375,-0.990936279296875,0.06329345703125,0.098663330078125
1772709358817503000,4.3515029296875,-0.988067626953125,0.0643463134765625,0.100982666015625
1772709358827528000,4.36152783203125,-0.988067626953125,0.065826416015625,0.1000823974609375
1772709358837553200,4.37155322265625,-0.989837646484375,0.066131591796875,0.096771240234375
1772709358847578000,4.381578125,-0.991851806640625,0.0677032470703125,0.098297119140625
1772709358857603000,4.39160302734375,-0.9936676025390625,0.066619873046875,0.10101318359375
1772709358867627000,4.401626953125,-0.987640380859375,0.062225341796875,0.102691650390625
1772709358877652000,4.41165185546875,-0.985504150390625,0.0589752197265625,0.099884033203125
1772709358887677000,4.421677001953125,-0.9886932373046875,0.062835693359375,0.099029541015625
1772709358897702000,4.431701904296875,-0.9920806884765625,0.0663604736328125,0.097076416015625
1772709358907727000,4.44172705078125,-0.9915771484375,0.070068359375,0.095733642578125
1772709358917752000,4.451751953125,-0.989654541015625,0.0676727294921875,0.1000823974609375
1772709358927777000,4.461777099609375,-0.9902191162109375,0.062896728515625,0.1006622314453125
1772709358937802000,4.471802001953125,-0.987762451171875,0.058837890625,0.099700927734375
1772709358947827000,4.481826904296875,-0.9870758056640625,0.0600738525390625,0.0997772216796875
1772709358957852000,4.491851806640625,-0.9909820556640625,0.0625457763671875,0.0981903076171875
1772709358967876900,4.501876953125,-0.9924163818359375,0.0660858154296875,0.0984954833984375
1772709358977901800,4.51190185546875,-0.989990234375,0.0640716552734375,0.0997772216796875
1772709358987927000,4.521927001953125,-0.98626708984375,0.06158447265625,0.100616455078125
1772709358997951000,4.531950927734375,-0.98553466796875,0.0618133544921875,0.097808837890625
1772709359007976000,4.541975830078125,-0.989776611328125,0.0642242431640625,0.0985107421875
1772709359018001200,4.552001220703125,-0.9927520751953125,0.065582275390625,0.099273681640625
1772709359028025900,4.56202587890625,-0.99041748046875,0.0658111572265625,0.1004180908203125
1772709359038050800,4.57205078125,-0.9862823486328125,0.065093994140625,0.0997467041015625
1772709359048076000,4.582075927734375,-0.9861297607421875,0.0657196044921875,0.098175048828125
1772709359058101000,4.59210107421875,-0.9900665283203125,0.065277099609375,0.0995025634765625
1772709359068126000,4.6021259765625,-0.9929962158203125,0.06402587890625,0.0999908447265625
1772709359078151000,4.61215087890625,-0.9886322021484375,0.063720703125,0.1010894775390625
1772709359088176000,4.622176025390625,-0.9866790771484375,0.05999755859375,0.09881591796875
1772709359098201000,4.632201171875,-0.9862823486328125,0.057098388671875,0.09918212890625
1772709359108226000,4.64222607421875,-0.9860076904296875,0.057281494140625,0.1003570556640625
1772709359118251000,4.6522509765625,-0.988677978515625,0.0634613037109375,0.1009674072265625
1772709359128275000,4.66227490234375,-0.9904632568359375,0.06536865234375,0.102386474609375
1772709359138300000,4.6722998046875,-0.9908447265625,0.065521240234375,0.10040283203125
1772709359148324900,4.682324951171875,-0.9891357421875,0.0639190673828125,0.0950469970703125
1772709359158350000,4.69235009765625,-0.9886627197265625,0.0649566650390625,0.095855712890625
1772709359168375000,4.702375,-0.988433837890625,0.065032958984375,0.097076416015625
1772709359178400000,4.71239990234375,-0.9918365478515625,0.065338134765625,0.09912109375
1772709359188425000,4.722425048828125,-0.992950439453125,0.0622100830078125,0.1015625
1772709359198450200,4.7324501953125,-0.990814208984375,0.061859130859375,0.1014556884765625
1772709359208475000,4.742474853515625,-0.985198974609375,0.0618133544921875,0.1000518798828125
1772709359218499800,4.752499755859375,-0.9869537353515625,0.06524658203125,0.0996551513671875
1772709359228524800,4.76252490234375,-0.990478515625,0.0698394775390625,0.0971527099609375
1772709359238550000,4.772550048828125,-0.9949493408203125,0.06597900390625,0.09808349609375
1772709359248575500,4.782575439453125,-0.992584228515625,0.0628204345703125,0.097808837890625
1772709359258599400,4.792599365234375,-0.9863433837890625,0.06256103515625,0.097869873046875
1772709359268624600,4.802624755859375,-0.9853973388671875,0.0609130859375,0.10064697265625
1772709359278649600,4.812649658203125,-0.9882965087890625,0.0609588623046875,0.100189208984375
1772709359288674300,4.82267431640625,-0.9878997802734375,0.0649261474609375,0.1012420654296875
1772709359298699300,4.83269921875,-0.989837646484375,0.06591796875,0.102081298828125
1772709359308724500,4.842724365234375,-0.9921417236328125,0.0610809326171875,0.1002655029296875
1772709359318749400,4.85274951171875,-0.9900360107421875,0.0606689453125,0.1003265380859375
1772709359328774400,4.8627744140625,-0.9858551025390625,0.0659332275390625,0.1024169921875
1772709359338799400,4.87279931640625,-0.9869842529296875,0.06964111328125,0.097808837890625
1772709359348824600,4.882824462890625,-0.9939117431640625,0.0701446533203125,0.0950775146484375
1772709359358849500,4.892849609375,-0.9951324462890625,0.06280517578125,0.0992431640625
1772709359368874500,4.90287451171875,-0.987030029296875,0.061065673828125,0.1045074462890625
1772709359378898400,4.9128984375,-0.98272705078125,0.0603790283203125,0.0990447998046875
1772709359388923400,4.92292333984375,-0.98785400390625,0.057220458984375,0.098846435546875
1772709359398948400,4.9329482421875,-0.9920654296875,0.05615234375,0.1009979248046875
1772709359408973600,4.9429736328125,-0.9868927001953125,0.0595550537109375,0.1031646728515625
1772709359418998500,4.95299853515625,-0.985260009765625,0.064666748046875,0.1001434326171875
1772709359429023500,4.9630234375,-0.9891357421875,0.065093994140625,0.098358154296875
1772709359439048400,4.97304833984375,-0.9915618896484375,0.06488037109375,0.09808349609375
1772709359449073700,4.98307373046875,-0.9899749755859375,0.063812255859375,0.1003875732421875
1772709359459098600,4.9930986328125,-0.9862060546875,0.0579986572265625,0.1018218994140625
1772709359469123300,5.003123291015625,-0.984222412109375,0.056610107421875,0.0980224609375
1772709359479148300,5.013148193359375,-0.98895263671875,0.06561279296875,0.0978240966796875
1772709359489173500,5.023173583984375,-0.995391845703125,0.07086181640625,0.096832275390625
1772709359499198500,5.033198486328125,-0.997344970703125,0.072296142578125,0.1002655029296875
1772709359509222400,5.043222412109375,-0.9894561767578125,0.069305419921875,0.0984649658203125
1772709359519247600,5.05324755859375,-0.9855499267578125,0.063568115234375,0.097900390625
1772709359529272600,5.0632724609375,-0.9879913330078125,0.061126708984375,0.0992279052734375
1772709359539297500,5.073297607421875,-0.9911346435546875,0.0626068115234375,0.1002044677734375
1772709359549322200,5.083322265625,-0.9899749755859375,0.0623626708984375,0.10113525390625
1772709359559347500,5.093347412109375,-0.9892425537109375,0.0627593994140625,0.1009368896484375
1772709359569372400,5.103372314453125,-0.9875640869140625,0.063690185546875,0.100677490234375
1772709359579397400,5.1133974609375,-0.98681640625,0.0637359619140625,0.1029510498046875
1772709359589422600,5.123422607421875,-0.98931884765625,0.063018798828125,0.1018829345703125
1772709359599447600,5.133447509765625,-0.989013671875,0.0613555908203125,0.0981597900390625
1772709359609472500,5.143472412109375,-0.988739013671875,0.06085205078125,0.097015380859375
1772709359619497500,5.15349755859375,-0.9896240234375,0.060943603515625,0.0985870361328125
1772709359629521400,5.163521484375,-0.9880523681640625,0.0638580322265625,0.1001739501953125
1772709359639546400,5.17354638671875,-0.990631103515625,0.0671234130859375,0.09967041015625
1772709359649571300,5.1835712890625,-0.992034912109375,0.066253662109375,0.09979248046875
1772709359659596500,5.193596435546875,-0.9887237548828125,0.061798095703125,0.1010589599609375
1772709359669621500,5.20362158203125,-0.985748291015625,0.0596160888671875,0.099822998046875
1772709359679646500,5.213646484375,-0.9864044189453125,0.064178466796875,0.0974578857421875
1772709359689671400,5.22367138671875,-0.991241455078125,0.0673675537109375,0.0984954833984375
1772709359699696600,5.233696533203125,-0.9922637939453125,0.068328857421875,0.10101318359375
1772709359709721600,5.2437216796875,-0.9891815185546875,0.062530517578125,0.10162353515625
1772709359719746300,5.253746337890625,-0.9819488525390625,0.0603179931640625,0.1004180908203125
1772709359729771300,5.263771240234375,-0.98345947265625,0.0608673095703125,0.0986785888671875
1772709359739796500,5.27379638671875,-0.991668701171875,0.0638580322265625,0.1005401611328125
1772709359749820400,5.2838203125,-0.9930419921875,0.0648651123046875,0.099456787109375
1772709359759845400,5.293845458984375,-0.991119384765625,0.0639495849609375,0.098419189453125
1772709359769870600,5.30387060546875,-0.9860382080078125,0.0641632080078125,0.0995941162109375
1772709359780521500,5.314521484375,-0.988037109375,0.064300537109375,0.0999298095703125
1772709359790546400,5.32454638671875,-0.9893951416015625,0.0665130615234375,0.100738525390625
1772709359800571400,5.3345712890625,-0.990203857421875,0.0684814453125,0.09893798828125
1772709359810596400,5.344596435546875,-0.98944091796875,0.0673980712890625,0.098846435546875
1772709359820621600,5.35462158203125,-0.988006591796875,0.067047119140625,0.0975799560546875
1772709359830645500,5.3646455078125,-0.9887847900390625,0.0668182373046875,0.09820556640625
1772709359840670500,5.37467041015625,-0.9912261962890625,0.06396484375,0.1006317138671875
1772709359850695400,5.3846953125,-0.9882049560546875,0.0628509521484375,0.0994873046875
1772709359860720400,5.394720458984375,-0.98779296875,0.0590362548828125,0.1002044677734375
1772709359870745300,5.404745361328125,-0.98809814453125,0.0556488037109375,0.10107421875
1772709359880770600,5.4147705078125,-0.9848480224609375,0.055389404296875,0.1024627685546875
1772709359890795500,5.42479541015625,-0.9855499267578125,0.061920166015625,0.0994110107421875
1772709359900820500,5.434820556640625,-0.99066162109375,0.0678253173828125,0.0987396240234375
1772709359910845400,5.444845458984375,-0.9945831298828125,0.069915771484375,0.0966796875
1772709359920870700,5.45487060546875,-0.99029541015625,0.068878173828125,0.097503662109375
1772709359930895600,5.4648955078125,-0.9855194091796875,0.0634765625,0.0962677001953125
1772709359940920300,5.47492041015625,-0.98779296875,0.059234619140625,0.09808349609375
1772709359950944500,5.484944580078125,-0.9905548095703125,0.0616607666015625,0.099822998046875
1772709359960969500,5.494969482421875,-0.9901580810546875,0.0654296875,0.1008453369140625
1772709359970994400,5.504994384765625,-0.992034912109375,0.0650177001953125,0.1000518798828125
1772709359981019400,5.515019287109375,-0.9898529052734375,0.064056396484375,0.0998687744140625
1772709359991044600,5.525044677734375,-0.9874725341796875,0.063201904296875,0.100799560546875
1772709360001069600,5.535069580078125,-0.9878997802734375,0.06298828125,0.10211181640625
1772709360011094500,5.545094482421875,-0.988616943359375,0.0640106201171875,0.1005096435546875
1772709360021119200,5.555119140625,-0.9896087646484375,0.063323974609375,0.0976409912109375
1772709360031144400,5.56514453125,-0.9886322021484375,0.0616912841796875,0.0974273681640625
1772709360041169400,5.57516943359375,-0.98828125,0.062744140625,0.099456787109375
1772709360051194400,5.5851943359375,-0.9884185791015625,0.0626068115234375,0.1001129150390625
1772709360061218600,5.595218505859375,-0.99066162109375,0.0631256103515625,0.1001434326171875
1772709360071243500,5.605243408203125,-0.99078369140625,0.06268310546875,0.098968505859375
1772709360081268500,5.6152685546875,-0.9898834228515625,0.0622711181640625,0.0997161865234375
1772709360091293700,5.625293701171875,-0.9868927001953125,0.061859130859375,0.101806640625
1772709360101318400,5.635318359375,-0.9881439208984375,0.0629119873046875,0.1011962890625
1772709360111343400,5.64534326171875,-0.9897308349609375,0.06280517578125,0.101226806640625
1772709360121368300,5.655368408203125,-0.9887542724609375,0.0635528564453125,0.099365234375
1772709360132020500,5.6660205078125,-0.9877166748046875,0.063751220703125,0.1001434326171875
1772709360142045400,5.67604541015625,-0.9884185791015625,0.0639495849609375,0.09881591796875
1772709360152070400,5.6860703125,-0.9895782470703125,0.0656585693359375,0.097198486328125
1772709360162095600,5.696095703125,-0.9921722412109375,0.064910888671875,0.0987701416015625
1772709360172120600,5.70612060546875,-0.9913482666015625,0.0644378662109375,0.09979248046875
1772709360182145300,5.716145263671875,-0.987548828125,0.0603485107421875,0.102447509765625
1772709360192169500,5.72616943359375,-0.984100341796875,0.062408447265625,0.097686767578125
1772709360202194400,5.7361943359375,-0.987548828125,0.06378173828125,0.09844970703125
1772709360212219400,5.746219482421875,-0.9916839599609375,0.063751220703125,0.10040283203125
1772709360222244600,5.75624462890625,-0.99188232421875,0.0655670166015625,0.101043701171875
1772709360232269600,5.76626953125,-0.988128662109375,0.060943603515625,0.1019439697265625
1772709360242294500,5.77629443359375,-0.9864501953125,0.0596923828125,0.0994110107421875
1772709360252319700,5.78631982421875,-0.985748291015625,0.061767578125,0.09912109375
1772709360262345000,5.796344970703125,-0.9898834228515625,0.0633544921875,0.0989227294921875
1772709360272369700,5.80636962890625,-0.9909820556640625,0.0634918212890625,0.0975341796875
1772709360282394600,5.81639453125,-0.989990234375,0.0608367919921875,0.0977020263671875
1772709360292419600,5.826419677734375,-0.988494873046875,0.06170654296875,0.096893310546875
1772709360302444800,5.83644482421875,-0.9879302978515625,0.063751220703125,0.0982666015625
1772709360312468700,5.84646875,-0.9897613525390625,0.0646209716796875,0.1000213623046875
1772709360322493700,5.85649365234375,-0.9895782470703125,0.0648193359375,0.0994873046875
1772709360332519000,5.866518798828125,-0.9889068603515625,0.0645599365234375,0.0997161865234375
1772709360342543600,5.876543701171875,-0.98876953125,0.0642547607421875,0.099090576171875
1772709360352568600,5.886568603515625,-0.9898834228515625,0.0649566650390625,0.100677490234375
1772709360362593500,5.896593505859375,-0.9899749755859375,0.0653228759765625,0.099884033203125
1772709360372618800,5.90661865234375,-0.98980712890625,0.06414794921875,0.09918212890625
1772709360382643700,5.916643798828125,-0.989044189453125,0.0625152587890625,0.0994720458984375
1772709360392668700,5.926668701171875,-0.98858642578125,0.0629425048828125,0.1005096435546875
1772709360402693600,5.936693603515625,-0.9888763427734375,0.0626373291015625,0.0996246337890625
1772709360412718800,5.94671875,-0.988983154296875,0.0637969970703125,0.100067138671875
1772709360422743800,5.956743896484375,-0.9873199462890625,0.063507080078125,0.0993499755859375
1772709360432768800,5.966768798828125,-0.9882659912109375,0.063720703125,0.098602294921875
1772709360442792700,5.976792724609375,-0.9877471923828125,0.0632476806640625,0.0986328125
1772709360452817700,5.986817626953125,-0.9900970458984375,0.0629119873046875,0.0985870361328125
1772709360462842600,5.996842529296875,-0.989227294921875,0.0628509521484375,0.0985260009765625
1772709360472867800,6.006867919921875,-0.9886474609375,0.0625152587890625,0.0991363525390625
1772709360482892800,6.016892822265625,-0.9896087646484375,0.0621185302734375,0.100250244140625
1772709360492917800,6.026917724609375,-0.9871673583984375,0.061309814453125,0.0993804931640625
1772709360502942700,6.036942626953125,-0.98687744140625,0.0617828369140625,0.1000213623046875
1772709360512968000,6.046968017578125,-0.98919677734375,0.064697265625,0.0996551513671875
1772709360522992600,6.05699267578125,-0.9912109375,0.065948486328125,0.0994110107421875
1772709360533017600,6.067017578125,-0.989715576171875,0.0669097900390625,0.09912109375
1772709360543042600,6.07704248046875,-0.9868927001953125,0.065032958984375,0.0994110107421875
1772709360553067800,6.08706787109375,-0.9891815185546875,0.064697265625,0.0983734130859375
1772709360563091700,6.097091796875,-0.9892425537109375,0.0651702880859375,0.1009521484375
1772709360573116700,6.10711669921875,-0.9906158447265625,0.0646209716796875,0.098602294921875
1772709360583142000,6.117141845703125,-0.9908599853515625,0.0647735595703125,0.0995330810546875
1772709360593166800,6.127166748046875,-0.988067626953125,0.064208984375,0.09912109375
1772709360603191600,6.137191650390625,-0.98828125,0.0642242431640625,0.0987548828125
1772709360613216500,6.147216552734375,-0.9881439208984375,0.0643157958984375,0.0992279052734375
1772709360623241700,6.15724169921875,-0.9899139404296875,0.0647735595703125,0.0992279052734375
1772709360633266700,6.1672666015625,-0.9892578125,0.0621795654296875,0.0985870361328125
1772709360643291600,6.177291748046875,-0.9893951416015625,0.0619964599609375,0.09771728515625
1772709360653316900,6.18731689453125,-0.9881744384765625,0.0616912841796875,0.0981597900390625
1772709360663341800,6.197341796875,-0.987548828125,0.0632476806640625,0.0967254638671875
1772709360673366800,6.20736669921875,-0.9882354736328125,0.0646514892578125,0.0973663330078125
1772709360683390700,6.217390625,-0.991058349609375,0.06488037109375,0.0982513427734375
1772709360693415700,6.227415771484375,-0.989044189453125,0.0655517578125,0.0991973876953125
1772709360703440600,6.237440673828125,-0.9872894287109375,0.064117431640625,0.1002960205078125
1772709360713465600,6.247465576171875,-0.9874114990234375,0.0636444091796875,0.0985565185546875
1772709360723490800,6.25749072265625,-0.9873504638671875,0.0648345947265625,0.0986785888671875
1772709360733515800,6.267515869140625,-0.989166259765625,0.0661468505859375,0.1011505126953125
1772709360743540700,6.277540771484375,-0.991851806640625,0.064971923828125,0.100555419921875
1772709360753565700,6.287565673828125,-0.9911651611328125,0.06488037109375,0.099395751953125
1772709360763591000,6.2975908203125,-0.986785888671875,0.0618438720703125,0.099365234375
1772709360773615900,6.307615966796875,-0.986083984375,0.0637969970703125,0.0974884033203125
1772709360783640600,6.317640625,-0.9907989501953125,0.066192626953125,0.09747314453125
1772709360793664800,6.327664794921875,-0.9920806884765625,0.065460205078125,0.09759521484375
1772709360803689700,6.337689697265625,-0.9906768798828125,0.065032958984375,0.097015380859375
1772709360813714700,6.347714599609375,-0.9890289306640625,0.0639801025390625,0.0973968505859375
1772709360823739600,6.35773974609375,-0.9879150390625,0.06494140625,0.0994415283203125
1772709360833764900,6.367764892578125,-0.990631103515625,0.0637969970703125,0.099365234375
1772709360843789800,6.377789794921875,-0.9914703369140625,0.065399169921875,0.0982666015625
1772709360853814500,6.387814453125,-0.9898681640625,0.0642852783203125,0.09918212890625
1772709360863839700,6.39783984375,-0.988189697265625,0.0620880126953125,0.0999603271484375
1772709360873864700,6.40786474609375,-0.9869537353515625,0.0608673095703125,0.1001129150390625
1772709360883889700,6.4178896484375,-0.9898529052734375,0.061798095703125,0.0980987548828125
1772709360893914600,6.42791455078125,-0.99066162109375,0.06280517578125,0.0989227294921875
1772709360903939800,6.43793994140625,-0.988189697265625,0.0624542236328125,0.09857177734375
1772709360913963800,6.4479638671875,-0.9870147705078125,0.0635223388671875,0.099273681640625
1772709360923988700,6.45798876953125,-0.9889678955078125,0.0630645751953125,0.0987091064453125
1772709360934013700,6.468013671875,-0.988739013671875,0.0642547607421875,0.0998992919921875
1772709360944038700,6.47803857421875,-0.9896697998046875,0.062744140625,0.09930419921875
1772709360954063600,6.488063720703125,-0.9893035888671875,0.0647125244140625,0.09857177734375
1772709360964088600,6.498088623046875,-0.98931884765625,0.06439208984375,0.099700927734375
1772709360974113800,6.50811376953125,-0.98919677734375,0.06439208984375,0.098419189453125
1772709360984138800,6.518138671875,-0.9886932373046875,0.063812255859375,0.100433349609375
1772709360994163700,6.528163818359375,-0.985565185546875,0.0646514892578125,0.0994110107421875
1772709361004188700,6.538188720703125,-0.989532470703125,0.063232421875,0.09967041015625
1772709361014214000,6.5482138671875,-0.990386962890625,0.0626678466796875,0.098846435546875
1772709361024238800,6.55823876953125,-0.990020751953125,0.064361572265625,0.0982513427734375
1772709361034262800,6.5682626953125,-0.99041748046875,0.06427001953125,0.0994110107421875
1772709361044287700,6.578287841796875,-0.9887542724609375,0.0631256103515625,0.1003875732421875
1772709361054312700,6.588312744140625,-0.9873809814453125,0.063690185546875,0.100616455078125
1772709361064337700,6.598337646484375,-0.9886016845703125,0.0608367919921875,0.0983123779296875
1772709361074363000,6.60836279296875,-0.9893035888671875,0.062225341796875,0.097442626953125
1772709361084387800,6.618387939453125,-0.989776611328125,0.0642547607421875,0.09991455078125
1772709361094412800,6.628412841796875,-0.990478515625,0.0643768310546875,0.09814453125
1772709361104437800,6.638437744140625,-0.988555908203125,0.0656585693359375,0.099395751953125
1772709361114462700,6.648462646484375,-0.98876953125,0.0645599365234375,0.0995635986328125
1772709361124487700,6.65848779296875,-0.9888916015625,0.0637969970703125,0.09765625
1772709361134512600,6.6685126953125,-0.9888153076171875,0.0645599365234375,0.097442626953125
1772709361144537600,6.67853759765625,-0.9882049560546875,0.0639801025390625,0.099151611328125
1772709361154561800,6.688561767578125,-0.9891357421875,0.062469482421875,0.098785400390625
1772709361164586800,6.698586669921875,-0.9907379150390625,0.0631561279296875,0.0994873046875
1772709361174611700,6.70861181640625,-0.9881591796875,0.0631561279296875,0.099029541015625
1772709361184637000,6.718636962890625,-0.9890899658203125,0.0636749267578125,0.097625732421875
1772709361194661600,6.72866162109375,-0.9897918701171875,0.063507080078125,0.09722900390625
1772709361204686600,6.7386865234375,-0.99029541015625,0.06573486328125,0.098175048828125
1772709361214711600,6.748711669921875,-0.989471435546875,0.06494140625,0.1005096435546875
1772709361224736800,6.75873681640625,-0.9893798828125,0.0616912841796875,0.099517822265625
1772709361234761700,6.76876171875,-0.9871673583984375,0.063140869140625,0.099761962890625
1772709361244786700,6.77878662109375,-0.988128662109375,0.0640716552734375,0.0987548828125
1772709361254811000,6.788810791015625,-0.990142822265625,0.064605712890625,0.101318359375
1772709361264835800,6.7988359375,-0.9910888671875,0.06414794921875,0.1007843017578125
1772709361274860800,6.80886083984375,-0.990753173828125,0.0616455078125,0.1003570556640625
1772709361284885800,6.8188857421875,-0.98785400390625,0.062347412109375,0.099945068359375
1772709361294911000,6.828910888671875,-0.9855194091796875,0.0631103515625,0.0998687744140625
1772709361304936000,6.83893603515625,-0.98992919921875,0.06475830078125,0.09942626953125
1772709361314961000,6.8489609375,-0.991455078125,0.06512451171875,0.099090576171875
1772709361324985900,6.85898583984375,-0.9900054931640625,0.062530517578125,0.097747802734375
1772709361335010800,6.8690107421875,-0.9871673583984375,0.0621795654296875,0.0977020263671875
1772709361345035800,6.879035888671875,-0.9854278564453125,0.0635986328125,0.0996246337890625
1772709361355060700,6.889060791015625,-0.9897918701171875,0.065155029296875,0.0999298095703125
1772709361365085000,6.8990849609375,-0.989837646484375,0.0644683837890625,0.100372314453125
1772709361375110000,6.90910986328125,-0.987518310546875,0.0625457763671875,0.0998687744140625
1772709361385134800,6.919134765625,-0.98748779296875,0.06292724609375,0.097686767578125
1772709361395160000,6.92916015625,-0.9887542724609375,0.06427001953125,0.0983428955078125
1772709361405184800,6.939184814453125,-0.990142822265625,0.0631866455078125,0.099884033203125
1772709361415209700,6.949209716796875,-0.9903564453125,0.0635986328125,0.098785400390625
1772709361425234700,6.959234619140625,-0.9884796142578125,0.0630645751953125,0.099273681640625
1772709361435260000,6.969260009765625,-0.9879913330078125,0.0625762939453125,0.09979248046875
1772709361445284900,6.979284912109375,-0.9900665283203125,0.062835693359375,0.0987091064453125
1772709361455309800,6.989309814453125,-0.9906463623046875,0.0631103515625,0.0994415283203125
1772709361465334800,6.999334716796875,-0.9899444580078125,0.0645294189453125,0.0991973876953125
1772709361475360000,7.009360107421875,-0.988555908203125,0.062835693359375,0.0998382568359375
1772709361485383700,7.0193837890625,-0.9881439208984375,0.064117431640625,0.09918212890625
1772709361495409000,7.029408935546875,-0.9896240234375,0.063323974609375,0.1006317138671875
1772709361505433900,7.039433837890625,-0.98895263671875,0.0628509521484375,0.10076904296875
1772709361515458800,7.049458740234375,-0.9894866943359375,0.06256103515625,0.100250244140625
1772709361525483800,7.05948388671875,-0.9895782470703125,0.0633697509765625,0.099945068359375
1772709361535509000,7.069509033203125,-0.98846435546875,0.0638580322265625,0.0988311767578125
1772709361545534000,7.079533935546875,-0.98956298828125,0.0631866455078125,0.100677490234375
1772709361555559000,7.089558837890625,-0.988983154296875,0.0645751953125,0.099212646484375
1772709361565584000,7.099583984375,-0.9901123046875,0.064361572265625,0.1002044677734375
1772709361575608800,7.10960888671875,-0.98828125,0.0636749267578125,0.1005859375
1772709361585633800,7.1196337890625,-0.9882659912109375,0.0621337890625,0.100067138671875
1772709361595657700,7.12965771484375,-0.988555908203125,0.0624847412109375,0.098236083984375
1772709361605683000,7.139682861328125,-0.9906005859375,0.062408447265625,0.099700927734375
1772709361615708000,7.1497080078125,-0.9904327392578125,0.064117431640625,0.1002349853515625
1772709361625732900,7.15973291015625,-0.9895172119140625,0.0637664794921875,0.0995330810546875
1772709361635757800,7.1697578125,-0.9888458251953125,0.063079833984375,0.0988616943359375
1772709361645783000,7.179782958984375,-0.98907470703125,0.0634307861328125,0.098419189453125
1772709361655807700,7.189807861328125,-0.9907073974609375,0.0637054443359375,0.0991668701171875
1772709361665832700,7.199832763671875,-0.986724853515625,0.0651702880859375,0.100067138671875
1772709361675857700,7.209857666015625,-0.9854583740234375,0.065399169921875,0.098114013671875
1772709361685883000,7.2198828125,-0.99212646484375,0.0597991943359375,0.1006317138671875
1772709361695907800,7.229907958984375,-0.99169921875,0.0623779296875,0.0999603271484375
1772709361705931800,7.239931884765625,-0.989349365234375,0.0630035400390625,0.098358154296875
1772709361715957000,7.24995703125,-0.9891357421875,0.0630645751953125,0.1000518798828125
1772709361725982000,7.25998193359375,-0.985595703125,0.0685882568359375,0.102081298828125
1772709361736006700,7.270006591796875,-0.9865264892578125,0.06561279296875,0.100250244140625
1772709361746031900,7.280031982421875,-0.9885711669921875,0.06011962890625,0.097625732421875
1772709361756056800,7.290056884765625,-0.9935760498046875,0.055389404296875,0.095550537109375
1772709361766081800,7.300081787109375,-0.9976959228515625,0.0557098388671875,0.098602294921875
1772709361776106800,7.310106689453125,-0.992919921875,0.0624847412109375,0.1004791259765625
1772709361786132000,7.320132080078125,-0.9840545654296875,0.068206787109375,0.1006317138671875
1772709361796157000,7.330156982421875,-0.9811859130859375,0.0655059814453125,0.1000518798828125
1772709361806182000,7.340181884765625,-0.9840850830078125,0.0650177001953125,0.102294921875
1772709361816206800,7.350206787109375,-0.987884521484375,0.0624237060546875,0.101409912109375
