time,seconds_elapsed,z,y,x
1772709354501774300,0.0357744140625,0.004869057331234217,0.018575016409158707,0.0010815097484737635
1772709354511799300,0.04579931640625,0.0051801144145429134,0.019699135795235634,0.002831739140674472
1772709354521824300,0.05582421875,0.005017928313463926,0.020662134513258934,0.002183259464800358
1772709354531849500,0.065849365234375,0.004378503188490868,0.022758575156331062,0.0005257080192677677
1772709354541874400,0.07587451171875,0.0036815537605434656,0.01961737684905529,-0.0028660940006375313
1772709354551899400,0.0858994140625,0.001734516816213727,0.011390605941414833,-0.008649680763483047
1772709354561924400,0.09592431640625,0.0026735474821180105,0.008436627686023712,-0.00806431844830513
1772709354571949600,0.105949462890625,0.003144926857203245,-0.0007949535502120852,-0.003644269658252597
1772709354581974300,0.115974365234375,0.0037707698065787554,-0.005604888778179884,-0.003108441596850753
1772709354591999200,0.125999267578125,0.002239984693005681,-0.007385744713246822,-0.00410499656572938
1772709354602023400,0.1360234375,0.0026586337480694056,-0.004337490536272526,-0.004738828632980585
1772709354612048400,0.14604833984375,0.00512844929471612,-0.000031957933970261365,-0.00039734362508170307
1772709354622073300,0.1560732421875,0.00041971419705078006,-0.001961684552952647,0.0016700683627277613
1772709354632098600,0.1660986328125,0.0017062872648239136,-0.016932377591729164,-0.00009720538218971342
1772709354642123500,0.17612353515625,0.0023337281309068203,-0.03256966173648834,0.004058124963194132
1772709354652148500,0.1861484375,0.004381432663649321,-0.04933718964457512,0.013066533021628857
1772709354662173200,0.196173095703125,0.005879993550479412,-0.05596393346786499,0.013945376500487328
1772709354672198400,0.206198486328125,0.009948770515620708,-0.043058786541223526,0.016217852011322975
1772709354682223400,0.216223388671875,0.008885370567440987,-0.017290040850639343,0.022170815616846085
1772709354692248300,0.226248291015625,0.006446714047342539,0.02708514779806137,0.015485748648643494
1772709354702273300,0.236273193359375,0.003939081449061632,0.055861666798591614,-0.0021694109309464693
1772709354712297500,0.24629736328125,0.0038986015133559704,0.055505868047475815,-0.016405604779720306
1772709354722322400,0.256322509765625,0.004168912302702665,0.059180233627557755,-0.02004135213792324
1772709354732347400,0.266347412109375,0.005913016386330128,0.06506821513175964,-0.013166934251785278
1772709354742372400,0.276372314453125,0.008581504225730896,0.06765574216842651,0.0007448861724697053
1772709354752397300,0.286397216796875,0.008801214396953583,0.07251894474029541,0.012370117008686066
1772709354762422300,0.29642236328125,0.009152485989034176,0.06817212700843811,0.01980672776699066
1772709354772447200,0.306447265625,0.008857673965394497,0.03826749324798584,0.013341105543076992
1772709354782472400,0.316472412109375,0.008463526144623756,-0.005964415613561869,-0.007595335599035025
1772709354792497400,0.326497314453125,0.006192115601152182,-0.027757594361901283,-0.017353955656290054
1772709354802522400,0.3365224609375,0.006554039195179939,-0.03247565031051636,-0.00993092730641365
1772709354812546600,0.346546630859375,0.00583605095744133,-0.02666356787085533,0.004592354875057936
1772709354822571300,0.3565712890625,0.00618039770051837,-0.016620522364974022,0.005033907014876604
1772709354832596200,0.36659619140625,0.004792091902345419,-0.010541324503719807,-0.000716922979336232
1772709354842621400,0.376621337890625,0.006366819143295288,0.003153715282678604,-0.002680737990885973
1772709354852646400,0.386646484375,0.00621075788512826,0.009077117778360844,0.0024564997293055058
1772709354862671400,0.39667138671875,0.00689066294580698,0.009249424561858177,0.0041002025827765465
1772709354872696300,0.4066962890625,0.005620335228741169,0.010492055676877499,0.00042317630141042173
1772709354882721500,0.416721435546875,0.005626194179058075,0.029332322999835014,0.002557966159656644
1772709354892746500,0.42674658203125,0.0036477316170930862,0.04440874233841896,0.006548712961375713
1772709354902771500,0.436771484375,0.003934287931770086,0.04842425882816315,0.0028043086640536785
1772709354912796400,0.44679638671875,0.006164418999105692,0.042817238718271255,-0.0037912761326879263
1772709354922820400,0.4568203125,0.0062395199202001095,0.03333238884806633,-0.007525826804339886
1772709354932845300,0.46684521484375,0.008452074602246284,0.02587101235985756,-0.0010604707058519125
1772709354942870300,0.476870361328125,0.008629441261291504,0.030654847621917725,0.005397162400186062
1772709354952895500,0.4868955078125,0.009794839657843113,0.029410619288682938,0.008857141248881817
1772709354962920400,0.49692041015625,0.00917352456599474,0.022646989673376083,0.00866326317191124
1772709354972945400,0.5069453125,0.010725081898272038,0.01417360920459032,0.008068046532571316
1772709354982970400,0.516970458984375,0.011716310866177082,0.015859123319387436,0.004870389122515917
1772709354992995600,0.52699560546875,0.010133860632777214,0.021018465980887413,0.003501257859170437
1772709355003020300,0.537020263671875,0.01227664016187191,0.02148265577852726,0.006570551078766584
1772709355013045200,0.547045166015625,0.01363431941717863,0.01955106481909752,0.013376525603234768
1772709355023069400,0.5570693359375,0.013539510779082775,0.021921809762716293,0.008438758552074432
1772709355033094400,0.567094482421875,0.011179417371749878,0.018703380599617958,0.0015092133544385433
1772709355043119400,0.577119384765625,0.009239837527275085,0.014429273083806038,-0.004277036525309086
1772709355053144600,0.58714453125,0.009858489967882633,0.013010340742766857,-0.009023589082062244
1772709355063169500,0.59716943359375,0.007840612903237343,0.006910636555403471,-0.009159409441053867
1772709355073194500,0.607194580078125,0.007128216791898012,0.014606107026338577,-0.008738630451261997
1772709355083219200,0.61721923828125,0.005393966566771269,0.022823290899395943,-0.008257930167019367
1772709355093244400,0.627244384765625,0.0025361282750964165,0.017705494537949562,-0.009741577319800854
1772709355103269400,0.637269287109375,0.0021345235873013735,0.005940979812294245,-0.010588196106255054
1772709355113294300,0.64729443359375,0.001517735538072884,-0.008802546188235283,-0.009279784746468067
1772709355123319300,0.6573193359375,0.0008961536805145442,-0.012793825939297676,-0.004318581894040108
1772709355133343500,0.667343505859375,-0.00014141385327093303,-0.014521418139338493,-0.0024687503464519978
1772709355143368400,0.677368408203125,-0.0003235740587115288,-0.022590795531868935,-0.003888481529429555
1772709355153393200,0.68739306640625,-0.002454102970659733,-0.028536302968859673,-0.00657481187954545
1772709355163418400,0.69741845703125,-0.0029704899061471224,-0.03255048766732216,-0.010039318352937698
1772709355173443300,0.707443359375,-0.0015534218400716782,-0.03287379443645477,-0.014461496844887733
1772709355183468300,0.71746826171875,-0.0018676748732104897,-0.03520725667476654,-0.014309164136648178
1772709355193493200,0.7274931640625,-0.001315068919211626,-0.027905400842428207,-0.009613744914531708
1772709355203518500,0.7375185546875,-0.001068193931132555,-0.01088700257241726,-0.005061071366071701
1772709355213543400,0.74754345703125,-0.0007286408799700439,-0.00014887070574332029,-0.00009321063407696784
1772709355223568400,0.757568359375,0.001954493811354041,0.007604124024510384,0.0008298410102725029
1772709355233593300,0.76759326171875,0.003683684393763542,0.015490543097257614,-0.001900964416563511
1772709355243618000,0.7776181640625,0.002496979897841811,0.03165140375494957,-0.00021997711155563593
1772709355253643000,0.78764306640625,0.003412308171391487,0.04512060806155205,0.0016996293561533093
1772709355263668000,0.79766796875,0.0015504923649132252,0.05193297192454338,-0.0018383801216259599
1772709355273693200,0.807693115234375,0.0028154938481748104,0.04908818379044533,-0.00951014831662178
1772709355283718000,0.8177177734375,0.004248540848493576,0.05768832936882973,-0.01116104144603014
1772709355293742800,0.827742919921875,0.004596083424985409,0.07093808799982071,-0.003518834710121155
1772709355303767800,0.837767822265625,0.006423544604331255,0.08913519978523254,0.004867459647357464
1772709355313793000,0.84779296875,0.006359894759953022,0.10585293173789978,0.005696501582860947
1772709355323818000,0.85781787109375,0.0037561224307864904,0.11620889604091644,0.006464557256549597
1772709355333843000,0.867843017578125,0.0024530377704650164,0.1362001895904541,0.008358065038919449
1772709355343868000,0.877867919921875,0.00341550400480628,0.1832268089056015,0.015727831050753593
1772709355353892000,0.88789208984375,0.0017949705943465233,0.226152703166008,0.035240545868873596
1772709355363916800,0.897916748046875,-0.002523345174267888,0.25386983156204224,0.04328302666544914
1772709355373942000,0.90794189453125,0.008203335106372833,0.28940466046333313,0.03482455760240555
1772709355383967000,0.917967041015625,0.009889115579426289,0.22864222526550293,0.034216560423374176
1772709355393992000,0.927991943359375,0.006647516507655382,0.12110991030931473,0.02756611444056034
1772709355404017000,0.938016845703125,0.005666674114763737,0.004723649006336927,0.0025752766523510218
1772709355414042000,0.9480419921875,0.002168612089008093,-0.06102287396788597,-0.0160647202283144
1772709355424067000,0.958067138671875,0.00344506511464715,-0.05158063769340515,-0.012633237056434155
1772709355434092000,0.968092041015625,0.00310524576343596,-0.0003251719754189253,-0.001862614881247282
1772709355444117000,0.978116943359375,0.004179032519459724,0.03529913350939751,0.0010836402652785182
1772709355454141000,0.988140869140625,0.002778209513053298,0.034575287252664566,-0.00737242866307497
1772709355464166000,0.998165771484375,0.0025680861435830593,0.020141754299402237,-0.012614861130714417
1772709355474190800,1.00819091796875,0.0002972087822854519,0.008629441261291504,-0.016558470204472542
1772709355484216000,1.018216064453125,0.0007707187905907631,0.005910086911171675,-0.01004943810403347
1772709355494241000,1.028240966796875,0.0010253170039504766,0.005915413144975901,-0.007793740835040808
1772709355504266000,1.038265869140625,0.0009249158320017159,0.008705341257154942,-0.0046789078041911125
1772709355514291000,1.048291015625,0.0012634035665541887,0.012573582120239735,-0.0038695731200277805
1772709355524316200,1.058316162109375,0.0016072177095338702,0.01255094539374113,0.0008689894457347691
1772709355534340900,1.0683408203125,0.0028815402183681726,0.012083826586604118,0.007340470794588327
1772709355544365800,1.07836572265625,0.0038954056799411774,0.00555215822532773,0.010047041811048985
1772709355554390800,1.088390869140625,0.0026996464002877474,-0.0020386497490108013,0.009150088764727116
1772709355564415000,1.0984150390625,0.001998702296987176,-0.00350472005084157,0.007505320478230715
1772709355574440000,1.10843994140625,0.002612028270959854,-0.00029774141148664057,0.006071474403142929
1772709355584465200,1.118465087890625,0.004210191313177347,0.004268248099833727,0.002778209513053298
1772709355594490000,1.128489990234375,0.003591006388887763,0.0035260252188891172,0.0013129384024068713
1772709355604515000,1.13851513671875,0.0023936491925269365,0.00023329291434492916,0.0005478122038766742
1772709355614539800,1.148539794921875,0.0007701861904934049,-0.00433056615293026,-0.0031374699901789427
1772709355624565000,1.15856494140625,0.0038338867016136646,-0.0035390746779739857,-0.004335626028478146
1772709355634590000,1.16858984375,0.0003201119543518871,0.0001459412305848673,-0.006019276566803455
1772709355644615000,1.178614990234375,0.0025720810517668724,0.004550543148070574,-0.008222243748605251
1772709355654639900,1.188639892578125,0.0026399914640933275,0.003629089565947652,-0.009133310988545418
1772709355664665000,1.1986650390625,0.0028240159153938293,0.0028783443849533796,-0.007939149625599384
1772709355674689000,1.20868896484375,0.0022335932590067387,0.004548412747681141,-0.006653375457972288
1772709355684714000,1.2187138671875,0.002433596644550562,0.008391087874770164,-0.00640809815376997
1772709355694739000,1.228739013671875,0.0026583673898130655,0.009531985968351364,-0.004050934221595526
1772709355704764000,1.238763916015625,0.0007795072160661221,0.007682154420763254,-0.008725048042833805
1772709355714788900,1.248788818359375,0.0024708807468414307,0.003990214318037033,-0.0070584421046078205
1772709355724813800,1.258813720703125,0.0026913906913250685,0.003180879633873701,-0.007763380650430918
1772709355734839000,1.268839111328125,0.0017132115317508578,0.006238188594579697,-0.009905894286930561
1772709355744864000,1.278864013671875,0.0033712955191731453,0.004036286845803261,-0.006413158029317856
1772709355754889000,1.288888916015625,0.0031550468411296606,0.0032463932875543833,-0.007527424953877926
1772709355764914000,1.298913818359375,0.002305498579517007,0.004199006129056215,-0.00908350944519043
1772709355774939100,1.308939208984375,0.001219727797433734,0.0049409628845751286,-0.008228635415434837
1772709355784962800,1.318962890625,0.0012383698485791683,0.005386775825172663,-0.004156128969043493
1772709355794988000,1.328988037109375,0.0031457259319722652,0.007690143771469593,-0.0013424995122477412
1772709355805013000,1.339012939453125,0.004141481593251228,0.008036354556679726,-0.0008902947301976383
1772709355815038000,1.349037841796875,0.0036735644098371267,0.008006793446838856,-0.0036597158759832382
1772709355825063000,1.35906298828125,0.003318032482638955,0.007000651676207781,-0.004741225857287645
1772709355835088100,1.369088134765625,0.0033800839446485043,0.005607818253338337,-0.005164402071386576
1772709355845113000,1.379113037109375,0.0038535939529538155,0.006582801695913076,-0.0005480785621330142
1772709355855138000,1.389137939453125,0.004060521721839905,0.009097624570131302,-0.0010631339391693473
1772709355865163000,1.3991630859375,0.0035515916533768177,0.008597482927143574,-0.0019217369845137
1772709355875188000,1.40918798828125,0.0029912625905126333,0.004165982827544212,-0.00392736354842782
1772709355885213000,1.419212890625,0.002540655666962266,0.002228266792371869,-0.006914098747074604
1772709355895236900,1.42923681640625,0.0025561018846929073,0.0018527611391618848,-0.006982009392231703
1772709355905262000,1.439261962890625,0.0028551749419420958,0.0065441858023405075,-0.00782809592783451
1772709355915287000,1.449287109375,0.0009022789890877903,0.006643521599471569,-0.008038751780986786
1772709355925312000,1.45931201171875,0.003043993143364787,0.009187106974422932,-0.0057652113027870655
1772709355935337000,1.4693369140625,0.0023758059833198786,0.009010805748403072,-0.006082127336412668
1772709355945362000,1.47936181640625,0.003777693957090378,0.009778328239917755,-0.006145776715129614
1772709355955387000,1.489386962890625,0.0019318570848554373,0.010175672359764576,-0.006171342916786671
1772709355965411800,1.499411865234375,0.0018383801216259599,0.009070727042853832,-0.008188687264919281
1772709355975436800,1.509436767578125,0.0012423646403476596,0.007179083302617073,-0.009329586289823055
1772709355985462000,1.5194619140625,0.0006985471700318158,0.010142648592591286,-0.011463310569524765
1772709355995487000,1.529487060546875,0.00034887410583905876,0.013483052141964436,-0.010944793000817299
1772709356005512000,1.539511962890625,0.001567802974022925,0.01720774918794632,-0.012356534600257874
1772709356015536000,1.5495361328125,0.0007989483419805765,0.011440940201282501,-0.008745821192860603
1772709356025560800,1.559560791015625,-0.0004878911131527275,0.012083561159670353,-0.009828662499785423
1772709356035585800,1.569585693359375,-0.000020506340661086142,0.012569854035973549,-0.01296160463243723
1772709356045611000,1.579611083984375,-0.0003653856983873993,0.012468920089304447,-0.015373097732663155
1772709356055636000,1.589635986328125,-0.0008932242053560913,0.012356800958514214,-0.014988536946475506
1772709356065661000,1.599660888671875,-0.0014889733865857124,0.013755759224295616,-0.01426628790795803
1772709356075686000,1.609685791015625,-0.0000031957933970261365,0.01193975005298853,-0.015351525507867336
1772709356085711000,1.619711181640625,0.0006130596739239991,0.010014018043875694,-0.014547251164913177
1772709356095736000,1.629736083984375,0.0008239820599555969,0.010684335604310036,-0.01410782989114523
1772709356105761000,1.639760986328125,0.0011949603212997317,0.007522897329181433,-0.010859837755560875
1772709356115786000,1.649785888671875,0.0007765777409076691,0.010699782520532608,-0.010085390880703926
1772709356125811000,1.65981103515625,0.0010032127611339092,0.009277121163904667,-0.009919209405779839
1772709356135835000,1.6698349609375,0.0008506136364303529,0.005304484162479639,-0.006681338418275118
1772709356145859800,1.67985986328125,-0.0007225155713967979,0.007143663242459297,-0.00512685114517808
1772709356155885000,1.689885009765625,0.0002468750171829015,0.010609501041471958,-0.00703793577849865
1772709356165910000,1.699909912109375,0.0006945523782633245,0.009755957871675491,-0.008586564101278782
1772709356175935000,1.70993505859375,0.0011523497523739934,0.008990298956632614,-0.009169796481728554
1772709356185960000,1.7199599609375,-0.0007571366732008755,0.01008299458771944,-0.010399644263088703
1772709356195985200,1.729985107421875,0.000728907180018723,0.011490474455058575,-0.010382866486907005
1772709356206009900,1.740009765625,0.002142513170838356,0.010944260284304619,-0.009097358211874962
1772709356216034800,1.750034912109375,0.002103897277265787,0.01182337012141943,-0.008204933255910873
1772709356226060000,1.76006005859375,0.0020777983590960503,0.015977634117007256,-0.0088789789006114
1772709356236085000,1.7700849609375,0.001427987008355558,0.011302455328404903,-0.008700280450284481
1772709356246110000,1.78010986328125,0.003308711340650916,0.007504787761718035,-0.008913333527743816
1772709356256134000,1.7901337890625,0.0032690302468836308,0.009103217162191868,-0.006189186125993729
1772709356266158800,1.800158935546875,0.004277036525309086,0.014767760410904884,-0.0017001620726659894
1772709356276183800,1.810183837890625,0.006127933505922556,0.01477361936122179,-0.00038722361205145717
1772709356286208800,1.820208740234375,0.005660548806190491,0.009763681329786777,-0.0009978864109143615
1772709356296234000,1.83023388671875,0.006870422977954149,0.005389705300331116,-0.003992877434939146
1772709356306259000,1.840259033203125,0.0060328589752316475,0.005042961798608303,-0.001758218975737691
1772709356316284000,1.850283935546875,0.006674414500594139,0.009093363769352436,-0.0006018743733875453
1772709356326308600,1.86030859375,0.0073266224935650826,0.009184177033603191,0.0026676885318011045
1772709356336333800,1.870333740234375,0.0057441722601652145,0.006106362212449312,0.004197407979518175
1772709356346358800,1.88035888671875,0.00449727987870574,0.006551908794790506,0.0006593986763618886
1772709356356383700,1.8903837890625,0.004883971065282822,0.006053365301340818,-0.002855441300198436
1772709356366408700,1.90040869140625,0.004419249482452869,0.006175870541483164,-0.0019374496769160032
1772709356376434000,1.910433837890625,0.005787848029285669,0.009020659141242504,-0.0001174454009742476
1772709356386457900,1.920457763671875,0.004956941585987806,0.011494736187160015,0.0016338493442162871
1772709356396483000,1.930483154296875,0.0030218889005482197,0.008913333527743816,0.0008964200387708843
1772709356406507800,1.9405078125,0.007114368490874767,0.002520149340853095,-0.002802444389089942
1772709356416532700,1.95053271484375,0.004647482186555862,0.004829110112041235,-0.005117796827107668
1772709356426557700,1.9605576171875,0.002698581200093031,0.006842459551990032,-0.005832056514918804
1772709356436583000,1.9705830078125,0.003433080855756998,0.0062248725444078445,-0.00734313391149044
1772709356446608000,1.98060791015625,0.002011485630646348,0.006644320674240589,-0.0041462755762040615
1772709356456632800,1.9906328125,0.0036272252909839153,0.007382815238088369,-0.002832538215443492
1772709356466657800,2.00065771484375,0.004033623728901148,0.006204366218298674,-0.004538558889180422
1772709356476683000,2.01068310546875,0.0018666095566004515,0.007954595610499382,-0.006166815757751465
1772709356486708000,2.0207080078125,0.001332912128418684,0.007392136380076408,0.0005262406193651259
1772709356496733000,2.03073291015625,0.003908189013600349,0.008343683555722237,0.0032519858796149492
1772709356506757600,2.040757568359375,0.0036458675749599934,0.006387591827660799,0.0013456953456625342
1772709356516781800,2.05078173828125,0.0031848743092268705,0.004712729714810848,-0.003850131994113326
1772709356526806800,2.060806884765625,0.003947869874536991,0.00589677132666111,-0.005883188918232918
1772709356536831700,2.070831787109375,0.0029949909076094627,0.0025475798174738884,-0.0026027073618024588
1772709356546857000,2.08085693359375,0.003174221608787775,0.0035563854034990072,-0.0029257487040013075
1772709356556882000,2.0908818359375,0.0031380027066916227,0.0049492185935378075,-0.005910619627684355
1772709356566907000,2.100906982421875,0.0015446334145963192,0.006951382849365473,-0.009528257884085178
1772709356576931800,2.110931884765625,0.0036434705834835768,0.0022951122373342514,-0.013965616934001446
1772709356586956800,2.120956787109375,0.004286624025553465,0.0006181196658872068,-0.01130778156220913
1772709356596981800,2.130981689453125,0.004518585279583931,0.004584099166095257,-0.00802996288985014
1772709356607006700,2.1410068359375,0.0014705975772812963,0.012312326580286026,-0.007032343186438084
1772709356617032000,2.151031982421875,0.003428287338465452,0.014525679871439934,-0.0049795787781476974
1772709356627057000,2.161056884765625,0.0019124159589409828,0.010965566150844097,-0.003918042406439781
1772709356637081900,2.171081787109375,0.0033422671258449554,0.013076387345790863,-0.00014407701382879168
1772709356647106000,2.18110595703125,0.004323109518736601,0.013353356160223484,0.0013310478534549475
1772709356657131000,2.191131103515625,0.00552339619025588,0.013875601813197136,-0.0009840379934757948
1772709356667155700,2.20115576171875,0.006188121158629656,0.011861452832818031,-0.006180131807923317
1772709356677180700,2.2111806640625,0.0038344194181263447,0.006331399083137512,-0.007245928514748812
1772709356687206000,2.221205810546875,0.004191282670944929,0.008559665642678738,-0.006159092765301466
1772709356697230800,2.23123095703125,0.004595550708472729,0.013176255859434605,-0.0017158746486529708
1772709356707255800,2.241255859375,0.00032650353386998177,0.011966647580265999,-0.006666424684226513
1772709356717280800,2.25128076171875,0.002939863596111536,0.008975385688245296,-0.011869975365698338
1772709356727306000,2.261305908203125,-0.00009374327055411413,0.0065260762348771095,-0.01278450433164835
1772709356737331000,2.2713310546875,0.002734267385676503,0.009965016506612301,-0.011052118614315987
1772709356747356000,2.28135595703125,0.002928145695477724,0.014108361676335335,-0.0096835196018219
1772709356757380900,2.291380859375,0.0021845910232514143,0.014654310420155525,-0.008139419369399548
1772709356767405800,2.30140576171875,0.0027390611357986927,0.010117349214851856,-0.007421164773404598
1772709356777429800,2.3114296875,0.003513508476316929,0.008462727069854736,-0.006317284423857927
1772709356787454700,2.321454833984375,0.0038272286765277386,0.010751980356872082,-0.0038986015133559704
1772709356797480000,2.33147998046875,0.001669003046117723,0.01062095258384943,-0.00572979124262929
1772709356807505000,2.3415048828125,0.003067695302888751,0.005348159931600094,-0.00788695178925991
1772709356817529900,2.35152978515625,0.001990712946280837,0.009532518684864044,-0.005175853613764048
1772709356827554800,2.361554931640625,0.0021467742044478655,0.012093148194253445,-0.0027300063520669937
1772709356837579800,2.371579833984375,0.0027422569692134857,0.010272610932588577,-0.00005832322858623229
1772709356847604700,2.381604736328125,0.003570500062778592,0.00871998816728592,0.0009321063989773393
1772709356857629700,2.391629638671875,0.0017092167399823666,0.01366441324353218,0.0012772521004080772
1772709356867655000,2.401655029296875,0.003525492735207081,0.014178403653204441,-0.002040514023974538
1772709356877679900,2.411679931640625,0.0033997914288192987,0.009533850476145744,0.00033928672201000154
1772709356887704800,2.421704833984375,0.004012051969766617,0.007841943763196468,-0.0009142631897702813
1772709356897729800,2.431729736328125,0.004899417515844107,0.003925233148038387,-0.005788912996649742
1772709356907754000,2.44175390625,0.004454136826097965,0.0034466630313545465,-0.009379653260111809
1772709356917778700,2.45177880859375,0.0038842204958200455,0.0062456452287733555,-0.009257947094738483
1772709356927803600,2.4618037109375,0.0027385284192860126,0.0075758942402899265,-0.0027225494850426912
1772709356937828900,2.471828857421875,0.002257561543956399,0.006779342889785767,0.001282312092371285
1772709356947853800,2.481853759765625,0.000800279900431633,0.002118011936545372,-0.0005494101205840707
1772709356957878800,2.491878662109375,0.0017936390358954668,0.00202293717302382,-0.001945439144037664
1772709356967903700,2.50190380859375,0.001487375469878316,0.005603291094303131,-0.004367318004369736
1772709356977929000,2.511928955078125,0.001383245806209743,0.004591822158545256,-0.006975617725402117
1772709356987954000,2.521953857421875,-0.0005510080372914672,0.005400358233600855,-0.005658951122313738
1772709356997979000,2.531978759765625,0.0021166803780943155,0.007260842248797417,-0.007121825125068426
1772709357008003800,2.54200390625,0.0036192359402775764,0.009225988760590553,-0.004515655804425478
1772709357018028800,2.55202880859375,0.00436092633754015,0.00857457984238863,-0.003260241821408272
1772709357028053800,2.5620537109375,0.0036543896421790123,0.004445881117135286,-0.005636313930153847
1772709357038078700,2.57207861328125,0.002147306688129902,-0.00048176583368331194,-0.0031939290929585695
1772709357048103000,2.58210302734375,0.0021933794487267733,0.00615296745672822,-0.0015864450251683593
1772709357058128000,2.5921279296875,0.002494050422683358,0.00646722037345171,-0.0007360977469943464
1772709357068152800,2.60215283203125,0.0018253305461257696,0.0011523497523739934,-0.0016407734947279096
1772709357078178000,2.612177978515625,-0.0005257080192677677,-0.000526506919413805,-0.0036005936563014984
1772709357088203000,2.622203125,0.0023643544409424067,0.004609931726008654,-0.005791842471808195
1772709357098227700,2.632227783203125,0.0026908579748123884,0.009034507907927036,-0.0016564861871302128
1772709357108252700,2.642252685546875,0.004778776317834854,0.011255317367613316,-0.002457298804074526
1772709357118278000,2.65227783203125,0.005204349290579557,0.009546900168061256,0.002782470779493451
1772709357128302800,2.662302734375,0.0067599015310406685,0.005991047248244286,0.004583300091326237
1772709357138327800,2.672327880859375,0.007242999039590359,0.004507666453719139,0.00720518222078681
1772709357148352800,2.682352783203125,0.008310660719871521,0.007290669716894627,0.007791876792907715
1772709357158378000,2.6923779296875,0.011020160280168056,0.0072898706421256065,0.00914369709789753
1772709357168403000,2.70240283203125,0.011962120421230793,0.00911280419677496,0.008615059778094292
1772709357178428000,2.712427978515625,0.013257748447358608,0.012836968526244164,0.011139203794300556
1772709357188451800,2.722451904296875,0.012253204360604286,0.011938418261706829,0.011359713971614838
1772709357198476800,2.732476806640625,0.009284578263759613,0.005743106827139854,0.009354619309306145
1772709357208501800,2.742501708984375,0.007637679576873779,0.002170742489397526,0.009035573340952396
1772709357218526700,2.752526611328125,0.009041964076459408,0.00410499656572938,0.008438758552074432
1772709357228552000,2.762552001953125,0.0057319216430187225,0.009673666208982468,0.004795554094016552
1772709357238577000,2.772576904296875,0.006041913293302059,0.014740596525371075,-0.00036698358599096537
1772709357248601000,2.78260107421875,0.007484547793865204,0.010994061827659607,0.001440237509086728
1772709357258626000,2.7926259765625,0.010119479149580002,0.01426655426621437,0.004762264434248209
1772709357268651000,2.802651123046875,0.00939217023551464,0.007366836071014404,0.011233746074140072
1772709357278676000,2.812676025390625,0.009611348621547222,0.004137753508985043,0.00749227125197649
1772709357288701200,2.822701171875,0.0067665595561265945,0.005894640926271677,0.004664526786655188
1772709357298726100,2.83272607421875,0.006708502769470215,0.010793259367346764,0.006505836267024279
1772709357308751000,2.842751220703125,0.0065380604937672615,0.013286776840686798,0.011918178759515285
1772709357318776000,2.852776123046875,0.009223592467606068,0.014749385416507721,0.009982593357563019
1772709357328800300,2.86280029296875,0.010361294262111187,0.012183429673314095,0.004970257636159658
1772709357338825000,2.872824951171875,0.007911453023552895,0.00239205127581954,-0.001064998097717762
1772709357348850000,2.882849853515625,0.005710882600396872,-0.00038748994120396674,-0.004049602895975113
1772709357358875100,2.892875244140625,0.00603419030085206,0.003775563556700945,-0.00011611382069531828
1772709357368900000,2.902900146484375,0.005083175376057625,0.004177967086434364,0.0016639430541545153
1772709357378925000,2.912925048828125,0.00493217445909977,0.006976949516683817,-0.0020397149492055178
1772709357388950000,2.922949951171875,0.005870938766747713,0.007894141599535942,-0.007711182814091444
1772709357398975200,2.932975341796875,0.00612154183909297,0.004536162130534649,-0.009165002964437008
1772709357409000200,2.943000244140625,0.003861317178234458,0.006031527183949947,0.0002998719282913953
1772709357419025200,2.953025146484375,0.003368099918588996,0.006958573590964079,0.007869108580052853
1772709357429050000,2.963050048828125,0.003847202518954873,0.0064773401245474815,0.009733853861689568
1772709357439075000,2.973074951171875,0.0035627768374979496,0.010839864611625671,0.0013243899447843432
1772709357449100000,2.98310009765625,0.0020037624053657055,0.008202536031603813,-0.005312207154929638
1772709357459125000,2.993125,0.001979261403903365,0.002153964713215828,-0.00857351440936327
1772709357469149200,3.003149169921875,0.0025600967928767204,0.001555552356876433,-0.01082761399447918
1772709357479174100,3.013174072265625,0.0012743226252496243,0.013612481765449047,-0.01092615071684122
1772709357489199000,3.02319921875,0.00034461304312571883,0.010441722348332405,-0.009297894313931465
1772709357499224000,3.03322412109375,0.0013587448047474027,0.010212424211204052,-0.008960205130279064
1772709357509249300,3.043249267578125,0.0006431533838622272,0.00897005945444107,-0.006275472696870565
1772709357519274000,3.05327392578125,0.0004021373169962317,0.00523790530860424,-0.004252802114933729
1772709357529299000,3.063298828125,0.0005928196478635073,0.008986304514110088,-0.008623582310974598
1772709357539324200,3.07332421875,0.002252235310152173,0.008506136015057564,-0.0065652248449623585
1772709357549349000,3.08334912109375,0.003084739437326789,0.009699499234557152,-0.0007028082036413252
1772709357559374000,3.0933740234375,0.00387330143712461,0.010614294558763504,0.0033846113365143538
1772709357569399000,3.10339892578125,0.003879426745697856,0.012032427825033665,0.0009092031978070736
1772709357579424300,3.11342431640625,0.0062339273281395435,0.009427856653928757,-0.006412891671061516
1772709357589449200,3.12344921875,0.005045624915510416,0.00344533147290349,-0.010323211550712585
1772709357599474200,3.13347412109375,0.0027060380671173334,0.0044264402240514755,-0.00851758848875761
1772709357609499000,3.143498779296875,0.002886600326746702,0.008022506721317768,-0.0014295848086476326
1772709357619523000,3.153523193359375,0.0044291033409535885,0.011751464568078518,0.002537459833547473
1772709357629548000,3.163548095703125,0.0015073491958901286,0.002417883835732937,-0.0031097731553018093
1772709357639573000,3.173572998046875,0.0000015978966985130683,-0.0001728391507640481,-0.01176398154348135
1772709357649598200,3.18359814453125,-0.00026072346372529864,0.007380152121186256,-0.006308495998382568
1772709357659623200,3.193623046875,0.002566488226875663,0.008656338788568974,0.0004897553008049726
1772709357669648100,3.203648193359375,0.0009451558580622077,0.005828860681504011,0.0012863067677244544
1772709357679673000,3.213673095703125,0.004288488067686558,0.009135707281529903,-0.005456816870719194
1772709357689698000,3.223697998046875,0.003525226376950741,0.013366405852138996,-0.009636914357542992
1772709357699723000,3.233722900390625,0.004683701321482658,0.010012154467403889,-0.012999155558645725
1772709357709748000,3.243748046875,0.004788097459822893,0.004893292207270861,-0.011924836784601212
1772709357719773000,3.25377294921875,0.0035779569298028946,0.007711981888860464,-0.005330050364136696
1772709357729798100,3.263798095703125,0.004096474498510361,0.009530654177069664,-0.003910319413989782
1772709357739823000,3.273822998046875,0.004043477587401867,0.004686630796641111,-0.003674363251775503
1772709357749848000,3.28384814453125,0.003226952161639929,0.0023289343807846308,-0.004832572303712368
1772709357759873000,3.293873046875,0.0029111013282090425,0.0051747881807386875,-0.004662129562348127
1772709357769897000,3.30389697265625,0.0016921724891290069,0.007820372469723225,-0.0029499835800379515
1772709357779922000,3.313921875,0.003811516100540757,0.007090133614838123,-0.005041630007326603
1772709357789947100,3.323947021484375,0.0037641117814928293,0.010059292428195477,-0.0049135321751236916
1772709357799972000,3.33397216796875,0.0067692226730287075,0.01031495537608862,-0.005795571021735668
1772709357809997000,3.3439970703125,-0.00009960222087102011,0.007947937585413456,-0.00740358792245388
1772709357820022000,3.35402197265625,0.0012010856298729777,0.00700837466865778,-0.010635600425302982
1772709357830047200,3.364047119140625,0.0033241575583815575,-0.00046685212873853743,-0.0029382656794041395
1772709357840072200,3.374072265625,0.0017531589837744832,0.01384284533560276,-0.003582750679925084
1772709357850097200,3.38409716796875,0.0016431703697890043,0.012260926887392998,-0.00020240024605300277
1772709357860122000,3.3941220703125,0.0015198660548776388,-0.000499875342939049,-0.001832787413150072
1772709357870147000,3.40414697265625,0.00014860439114272594,-0.007816111668944359,-0.013076920062303543
1772709357880172000,3.414172119140625,0.00033449303009547293,0.005067729391157627,-0.01312352530658245
1772709357890197000,3.424197021484375,-0.00017683389887679368,0.01726260967552662,-0.0026202842127531767
1772709357900222000,3.434221923828125,0.0037031255196779966,0.00823955424129963,-0.00021837920940015465
1772709357910247200,3.4442470703125,0.0010610034223645926,-0.008327704854309559,-0.0018847191240638494
1772709357920271000,3.45427099609375,0.0021901836153119802,-0.007201187312602997,-0.008347677998244762
1772709357930296000,3.464296142578125,0.001321194227784872,0.006066148169338703,-0.008826514706015587
1772709357940321300,3.4743212890625,0.0022738068364560604,0.013101953081786633,0.0015299860388040543
1772709357950346000,3.484345947265625,0.003953196108341217,0.013650298118591309,0.005543369799852371
1772709357960371000,3.494370849609375,0.004062119405716658,0.0046482812613248825,-0.0008977515972219408
1772709357970396200,3.504396240234375,0.0031851406674832106,-0.0018599516479298472,-0.0051742554642260075
1772709357980421000,3.514421142578125,0.00452923821285367,0.005916744936257601,-0.0046549392864108086
1772709357990446000,3.524446044921875,0.008138353936374187,0.010793259367346764,-0.0006697850185446441
1772709358000471000,3.534470947265625,0.006389189511537552,0.005095958709716797,0.0004165183927398175
1772709358010496300,3.544496337890625,0.006875482853502035,0.00011717908637365326,-0.007466171868145466
1772709358020521200,3.554521240234375,0.005606486462056637,0.006691458635032177,-0.006720220670104027
1772709358030546200,3.564546142578125,0.0031278827227652073,0.007682953495532274,0.00011611382069531828
1772709358040571100,3.574571044921875,0.0009512811084277928,0.0021723404061049223,-0.001427720650099218
1772709358050596000,3.58459619140625,0.0013771206140518188,0.0018940401496365666,-0.0017835189355537295
1772709358060621000,3.59462109375,0.0007619303651154041,0.008466721512377262,-0.00384374032728374
1772709358070645000,3.60464501953125,0.003299922915175557,0.009974603541195393,-0.0073045180179178715
1772709358080670200,3.614670166015625,0.003856257302686572,0.008103732950985432,-0.011051852256059647
1772709358090695200,3.624695068359375,0.003952663857489824,0.009784453548491001,-0.009165801107883453
1772709358100720000,3.63472021484375,0.0044075315818190575,0.007530886679887772,-0.007184143178164959
1772709358110745000,3.6447451171875,0.003035204717889428,0.00526560191065073,-0.008182828314602375
1772709358120770000,3.65477001953125,0.002379534300416708,0.0011046791914850473,-0.009038768708705902
1772709358130795000,3.664794921875,0.0031188279390335083,0.004881840664893389,-0.006426207721233368
1772709358140820000,3.674820068359375,0.004518851637840271,0.01028406247496605,-0.0022453111596405506
1772709358150845000,3.684844970703125,0.004600876942276955,0.010182064026594162,0.00034914040588773787
1772709358160870100,3.6948701171875,0.003739344421774149,0.005884787067770958,-0.0019595539197325706
1772709358170895000,3.70489501953125,0.005166266113519669,0.0016200009267777205,-0.0085452850908041
1772709358180920000,3.714920166015625,0.0038983351550996304,0.003856257302686572,-0.007281881291419268
1772709358190945000,3.724945068359375,0.0037465349305421114,0.006656837183982134,-0.006954312324523926
1772709358200970200,3.73497021484375,0.004079164005815983,0.004735366906970739,-0.007591873407363892
1772709358210995200,3.7449951171875,0.003614442190155387,0.00980362854897976,-0.00640729907900095
1772709358221019100,3.75501904296875,0.004113518632948399,0.016982711851596832,-0.005219529382884502
1772709358231044000,3.765044189453125,0.003926032222807407,0.006283195689320564,-0.004939631093293428
1772709358241069000,3.775069091796875,0.0027984497137367725,-0.000017843178284238093,-0.006672283634543419
1772709358251093800,3.78509375,0.0015688681742176414,0.005401156842708588,-0.0028269453905522823
1772709358261119000,3.795118896484375,0.0030093719251453876,0.016229569911956787,0.005125519819557667
1772709358271144000,3.80514404296875,0.0030418625101447105,0.006931142881512642,0.003888215171173215
1772709358281169000,3.8151689453125,0.0046450854279100895,0.0015752597246319056,-0.0009829727932810783
1772709358291193900,3.82519384765625,0.0026674221735447645,0.00791251752525568,-0.002082858234643936
1772709358301219000,3.835218994140625,0.0038181741256266832,0.011725365184247494,-0.004591555800288916
1772709358311244000,3.845244140625,0.004313255660235882,0.007385478354990482,-0.00472498033195734
1772709358321269000,3.85526904296875,0.0035004590172320604,0.0035747610963881016,-0.0008825715631246567
1772709358331294000,3.8652939453125,0.006735933478921652,0.013730726204812527,-0.0017992316279560328
1772709358341319200,3.875319091796875,0.005389438942074776,0.012949620373547077,0.0001776328426785767
1772709358351343900,3.88534375,0.0072925337590277195,0.004495682194828987,-0.004752943757921457
1772709358361368800,3.895368896484375,0.004070109222084284,0.0016351809026673436,-0.005248557776212692
1772709358371393000,3.90539306640625,0.005279982928186655,0.011300858110189438,0.0023004384711384773
1772709358381418000,3.91541796875,0.004914863966405392,0.009562079794704914,0.00404614070430398
1772709358391443000,3.92544287109375,0.003640541108325124,0.006502374075353146,-0.0026229473296552896
1772709358401468200,3.93546826171875,0.0011534150689840317,0.0015622102655470371,-0.009881393052637577
1772709358411493000,3.9454931640625,0.0004601942200679332,0.010977284051477909,-0.006858705077320337
1772709358421518000,3.95551806640625,0.002100967802107334,0.015046860091388226,-0.004968126770108938
1772709358431542800,3.965542724609375,0.0028394623659551144,0.014937138184905052,-0.002376871183514595
1772709358441568000,3.975568115234375,0.002785133896395564,0.009899236261844635,-0.005306614562869072
1772709358451593000,3.985593017578125,0.003709783311933279,0.010016415268182755,-0.010997257195413113
1772709358461618000,3.995617919921875,0.0031308121979236603,0.012762933038175106,-0.007286142557859421
1772709358471643000,4.005642822265625,0.003436276689171791,0.00993279181420803,-0.003769171889871359
1772709358481668000,4.015668212890625,0.0026048377621918917,0.007647000718861818,-0.006106362212449312
1772709358491693000,4.025693115234375,0.0028242822736501694,0.010125604458153248,-0.008502940647304058
1772709358501718000,4.035718017578125,0.0033715618774294853,0.013087306171655655,-0.008184160105884075
1772709358511742000,4.045741943359375,0.00276169809512794,0.00797137338668108,-0.008833172731101513
1772709358521767000,4.055766845703125,0.0014532869681715965,0.00526640098541975,-0.005259476602077484
1772709358531792000,4.0657919921875,0.0016903083305805922,0.007879761047661304,-0.005810751114040613
1772709358541816800,4.07581689453125,0.0027981833554804325,0.012972789816558361,-0.006136988289654255
1772709358551842000,4.085842041015625,0.0017206683987751603,0.01155918464064598,-0.005723665934056044
1772709358561867000,4.095866943359375,0.002980609890073538,0.0036458675749599934,-0.005868807900696993
1772709358571892000,4.10589208984375,0.0018437063554301858,0.0013014868600293994,-0.012974920682609081
1772709358581917000,4.1159169921875,0.001874332781881094,0.007516772020608187,-0.012209528125822544
1772709358591942100,4.125942138671875,0.0030945930629968643,0.010859837755560875,-0.005784652195870876
1772709358601966800,4.135966796875,0.005936452187597752,0.009812949225306511,-0.00014753911818843335
1772709358611991800,4.14599169921875,0.0023638217244297266,0.009328787215054035,-0.0005222458858042955
1772709358622017000,4.15601708984375,0.003132410114631057,0.0036421390250325203,-0.006324208807200193
1772709358632042000,4.1660419921875,0.0036077843979001045,0.0005225121858529747,-0.006596649996936321
1772709358642067000,4.17606689453125,0.004737230949103832,0.011814048513770103,-0.0009065400226972997
1772709358652091100,4.186091064453125,0.003974235150963068,0.01264016143977642,0.005506617948412895
1772709358662116000,4.1961162109375,0.0038831550627946854,-0.0029489181470125914,0.002228799508884549
1772709358672141000,4.20614111328125,0.002400573343038559,-0.0049004824832081795,-0.003540938952937722
1772709358682165800,4.216165771484375,0.002513757674023509,0.007456851191818714,-0.0006095975404605269
1772709358692191000,4.22619091796875,0.0019973707385361195,0.012349343858659267,0.0017590179340913892
1772709358702216000,4.2362158203125,0.0006034722900949419,0.0008351673022843897,-0.0023521038237959146
1772709358712241000,4.246240966796875,0.004424842074513435,0.0009653958841226995,-0.00395745737478137
1772709358722265900,4.256265869140625,0.0057407100684940815,0.014363759197294712,0.0005776396137662232
1772709358732291000,4.266291015625,0.006623015273362398,0.012295016087591648,-0.0022945795208215714
1772709358742316000,4.27631591796875,0.006656837183982134,-0.0007904262165538967,-0.006555104628205299
1772709358752341000,4.286341064453125,0.007047523278743029,0.005693838465958834,0.0006072007236070931
1772709358762366000,4.296365966796875,0.005378520116209984,0.014177338220179081,0.00836845114827156
1772709358772391200,4.30639111328125,0.005712214391678572,0.00612393906340003,0.004428570624440908
1772709358782416000,4.316415771484375,0.005281581077724695,0.0037878139410167933,-0.0026559706311672926
1772709358792440000,4.326440185546875,0.006582002621144056,0.005370530765503645,-0.0020295949652791023
1772709358802465000,4.336465087890625,0.007252053823322058,0.01188036147505045,-0.0007960188668221235
1772709358812490000,4.346489990234375,0.006619286723434925,0.010672884061932564,-0.000434361572843045
1772709358822515000,4.356514892578125,0.004187554586678743,0.005879460833966732,-0.004816060420125723
1772709358832540200,4.3665400390625,0.004830441437661648,0.003570500062778592,-0.004930043593049049
1772709358842565000,4.376565185546875,0.0049042110331356525,0.01073733251541853,-0.0022213426418602467
1772709358852590000,4.386590087890625,0.004481567535549402,0.015230085700750351,0.0007925567333586514
1772709358862614800,4.39661474609375,0.005303152836859226,0.011031079106032848,0.000006924218723725062
1772709358872640000,4.406639892578125,0.0049510826356709,0.005111937876790762,-0.005594502668827772
1772709358882665000,4.4166650390625,0.0035332157276570797,0.0038040592335164547,-0.00905341561883688
1772709358892690000,4.42668994140625,0.003668770659714937,0.008754076436161995,-0.007476292084902525
1772709358902715000,4.43671484375,0.001776594785042107,0.008920257911086082,-0.006457366514950991
1772709358912740000,4.446739990234375,0.0006679208017885685,0.00689199473708868,-0.002799248555675149
1772709358922765000,4.45676513671875,0.0025752766523510218,0.00936181005090475,-0.0007084008539095521
1772709358932789000,4.4667890625,0.0008857673965394497,0.007201720029115677,-0.0022306637838482857
1772709358942814000,4.47681396484375,0.0024381240364164114,0.0070283482782542706,-0.009623599238693714
1772709358952839000,4.4868388671875,0.0013901700731366873,0.006621417589485645,-0.00977433379739523
1772709358962863900,4.49686376953125,0.0020501012913882732,0.008958874270319939,-0.006295179948210716
1772709358972888800,4.506888916015625,0.002989664673805237,0.011157846078276634,-0.0028868666850030422
1772709358982914000,4.5169140625,0.004393949639052153,0.00866219773888588,-0.0037468012887984514
1772709358992939000,4.52693896484375,0.0029819414485245943,0.011124024167656898,-0.0082483422011137
1772709359002964000,4.5369638671875,0.00364719913341105,0.008193481713533401,-0.009740778245031834
1772709359012989000,4.546989013671875,0.004006459377706051,0.006922887172549963,-0.0049185920506715775
1772709359023014100,4.55701416015625,0.0043803672306239605,0.010205766186118126,-0.0017174725653603673
1772709359033038800,4.567038818359375,0.004043477587401867,0.011364773847162724,-0.0024319987278431654
1772709359043063800,4.577063720703125,0.003960653208196163,0.004456799943000078,-0.003213370218873024
1772709359053089000,4.587089111328125,0.002040247665718198,0.005301554687321186,-0.005291434936225414
1772709359063113000,4.597113037109375,0.002737196860834956,0.009182313457131386,0.00039947417099028826
1772709359073138000,4.607137939453125,0.002130528911948204,0.009221195243299007,-0.00014647385978605598
1772709359083163100,4.6171630859375,0.001891909632831812,0.007035006303340197,-0.0004780374001711607
1772709359093188000,4.62718798828125,0.003960919566452503,0.008578574284911156,-0.001085504423826933
1772709359103213000,4.637213134765625,0.005630721338093281,0.012545086443424225,-0.0034080471377819777
1772709359113237800,4.64723779296875,0.005922603886574507,0.01275547593832016,-0.0038059235084801912
1772709359123263000,4.657262939453125,0.006600112188607454,0.005906891077756882,-0.0010362359462305903
1772709359133288000,4.667287841796875,0.006129798013716936,0.006115949247032404,0.00010705907334340736
1772709359143313000,4.67731298828125,0.00497984467074275,0.006325540132820606,0.0010303769959136844
1772709359153337900,4.687337890625,0.0049460227601230145,0.008885903283953667,0.0012532835826277733
1772709359163363000,4.697363037109375,0.00569916469976306,0.00700970645993948,0.0027481159195303917
1772709359173388000,4.707387939453125,0.003629355924203992,0.007355384528636932,0.00013795174891129136
1772709359183413000,4.7174130859375,0.003975566942244768,0.008245413191616535,0.0016322514275088906
1772709359193437000,4.72743701171875,0.005629390012472868,0.009749566204845905,0.0006953513366170228
1772709359203462000,4.7374619140625,0.0032983249984681606,0.007681355345994234,-0.005616340320557356
1772709359213486800,4.74748681640625,0.0017515610670670867,0.0048855687491595745,-0.007861385121941566
1772709359223511800,4.75751171875,0.003123355330899358,0.004714594222605228,-0.006638461723923683
1772709359233537000,4.767537109375,0.0030429279431700706,0.00875221285969019,-0.0029140308033674955
1772709359243562000,4.77756201171875,0.0029379993211477995,0.01575446128845215,-0.002817890839651227
1772709359253587500,4.78758740234375,0.004520183429121971,0.012663330882787704,-0.007960454560816288
1772709359263612400,4.7976123046875,0.004893824923783541,0.007108775898814201,-0.008362592197954655
1772709359273637600,4.8076376953125,0.0026578346733003855,0.01104546058923006,-0.004835767671465874
1772709359283662600,4.81766259765625,0.0033806166611611843,0.01005183532834053,-0.0038341530598700047
1772709359293687600,4.8276875,0.0014535533264279366,0.002663427498191595,-0.004259193316102028
1772709359303712300,4.837712158203125,0.004347610287368298,0.00698014535009861,-0.004889297299087048
1772709359313736400,4.847736328125,0.0032826124224811792,0.016336895525455475,-0.005080778617411852
1772709359323761400,4.857761474609375,0.0041089910082519054,0.009550095535814762,-0.007512777578085661
1772709359333786400,4.867786376953125,0.002122006844729185,-0.005048288032412529,-0.005687180440872908
1772709359343811600,4.8778115234375,0.0019891150295734406,0.0019286612514406443,-0.002061553066596389
1772709359353836500,4.88783642578125,0.0011012171162292361,0.018575815483927727,0.003837881376966834
1772709359363861500,4.897861572265625,0.005483714863657951,0.015146195888519287,0.002704173792153597
1772709359373886500,4.907886474609375,0.0022008363157510757,-0.003909520339220762,-0.002674079965800047
1772709359383911400,4.917911376953125,0.0028479844331741333,0.002360359765589237,-0.00577772781252861
1772709359393936400,4.927936279296875,0.005909554194658995,0.01834678277373314,-0.0001776328426785767
1772709359403961300,4.93796142578125,0.007861651480197906,0.012829778715968132,0.00008016114588826895
1772709359413986600,4.947986572265625,0.005629123654216528,-0.000011984225238848012,-0.004429635591804981
1772709359424011500,4.958011474609375,0.0062578958459198475,0.003385410411283374,-0.004454669542610645
1772709359434036500,4.968036376953125,0.006647250149399042,0.011450260877609253,0.0016937704058364034
1772709359444060700,4.978060791015625,0.006640858482569456,0.011039335280656815,0.005566805601119995
1772709359454085600,4.988085693359375,0.008173241280019283,0.0054696002043783665,0.0037673076149076223
1772709359464110300,4.9981103515625,0.007516505662351847,0.00006231796578504145,0.0012708604335784912
1772709359474135300,5.00813525390625,0.005854160524904728,0.0021108214277774096,-0.005879460833966732
1772709359484160500,5.018160400390625,0.0043992758728563786,0.006339388433843851,-0.004920456558465958
1772709359494185500,5.028185546875,0.00526586826890707,0.010747453197836876,0.004240285139530897
1772709359504210400,5.03821044921875,0.004350007511675358,0.0043771713972091675,0.007868842221796513
1772709359514235400,5.0482353515625,0.002609365154057741,0.0060445768758654594,0.0010381002211943269
1772709359524260600,5.058260498046875,0.0023435817565768957,0.0060120862908661366,-0.0013108078856021166
1772709359534285600,5.06828564453125,0.002168878447264433,0.007143929600715637,-0.0046480149030685425
1772709359544310500,5.078310546875,0.0031529164407402277,0.007691209204494953,-0.007355917245149612
1772709359554335200,5.088335205078125,0.002898318227380514,0.01145931612700224,-0.005832056514918804
1772709359564360400,5.0983603515625,0.002543585142120719,0.010379403829574585,-0.009328520856797695
1772709359574384400,5.10838427734375,0.0013683321885764599,0.007845140062272549,-0.009977532550692558
1772709359584409600,5.11840966796875,0.001172323478385806,0.006223274860531092,-0.00631994754076004
1772709359594434600,5.1284345703125,0.00018668759730644524,0.007976433262228966,-0.005482915788888931
1772709359604459500,5.13845947265625,0.000993625377304852,0.009861685335636139,-0.00890933908522129
1772709359614484500,5.148484375,0.003308444982394576,0.011381817981600761,-0.011115235276520252
1772709359624509700,5.158509765625,0.002656236756592989,0.00839614775031805,-0.010687531903386116
1772709359634534400,5.168534423828125,0.00045034053619019687,0.005781722720712423,-0.0078046596609056
1772709359644559400,5.178559326171875,0.0022767363116145134,0.010275807231664658,-0.0013526194961741567
1772709359654584300,5.188584228515625,0.0034202977549284697,0.01173095777630806,0.000020772657080669887
1772709359664609500,5.198609619140625,0.0021936458069831133,0.0065013086423277855,-0.00526720006018877
1772709359674634500,5.208634521484375,0.0021907163318246603,0.0026700852904468775,-0.008802812546491623
1772709359684659500,5.218659423828125,0.0008668589289300144,0.0034975295420736074,-0.006942594423890114
1772709359694683600,5.22868359375,0.0023097596131265163,0.008808138780295849,-0.003522030543535948
1772709359704708600,5.23870849609375,0.003614974906668067,0.007808121852576733,0.0009922938188537955
1772709359714733300,5.2487333984375,0.003157443832606077,0.002772883279249072,-0.0027981833554804325
1772709359724758300,5.25875830078125,0.0010801780736073852,0.002526008291170001,-0.009415872395038605
1772709359734783500,5.268783447265625,0.0034940673504024744,0.0010295780375599861,-0.008305334486067295
1772709359744808400,5.278808349609375,0.004232561681419611,0.006189186125993729,-0.0032746228389441967
1772709359754833400,5.28883349609375,0.0035063179675489664,0.008462727069854736,-0.00009187905379803851
1772709359764858400,5.2988583984375,0.005489041097462177,0.008831574581563473,-0.002353169023990631
1772709359779268600,5.3132685546875,0.0037553233560174704,0.0049494849517941475,-0.005400624126195908
1772709359789293600,5.32329345703125,0.004048537462949753,0.003340669209137559,-0.0037089844699949026
1772709359799318500,5.333318603515625,0.0057678744196891785,0.005272259935736656,0.0015387744642794132
1772709359809343500,5.343343505859375,0.0030599720776081085,0.004363323096185923,0.002386458683758974
1772709359819367400,5.353367431640625,0.004249339923262596,0.004817125853151083,0.0022242721170186996
1772709359829392400,5.363392333984375,0.005148689262568951,0.00535348616540432,0.005045891273766756
1772709359839417300,5.373417236328125,0.003727360162883997,0.008820123039186,0.007986820302903652
1772709359849442600,5.383442626953125,0.006138586439192295,0.009703227318823338,0.004840561654418707
1772709359859467500,5.393467529296875,0.005238970275968313,0.009913350455462933,0.004165982827544212
1772709359869492500,5.403492431640625,0.007874967530369759,0.012684635818004608,0.0005483448621816933
1772709359879517400,5.413517333984375,0.0054509579204022884,0.007259777281433344,-0.0020804614759981632
1772709359889542700,5.423542724609375,0.0046701193787157536,0.0027688886038959026,-0.009272327646613121
1772709359899567400,5.4335673828125,0.0037502634804695845,0.006988401059061289,-0.009380718693137169
1772709359909592300,5.44359228515625,0.0033870083279907703,0.01091842819005251,-0.0006386260502040386
1772709359919617500,5.453617431640625,0.0028969866689294577,0.00618172949180007,0.0015694007743149996
1772709359929642500,5.463642578125,0.003032541600987315,0.0037015276029706,0.0015081481542438269
1772709359939666400,5.47366650390625,0.0038895467296242714,0.007749798707664013,-0.0006700513185933232
1772709359949691600,5.483691650390625,0.00261895265430212,0.007645668927580118,-0.005287440028041601
1772709359959716600,5.493716552734375,0.002266882685944438,0.006930344272404909,-0.0043308325111866
1772709359969741600,5.503741455078125,0.003737214021384716,0.009077916853129864,-0.0034703651908785105
1772709359979766300,5.513766357421875,0.004328702110797167,0.011766111478209496,-0.003001648932695389
1772709359989791500,5.52379150390625,0.00563950976356864,0.011607653461396694,-0.0021225393284112215
1772709359999816400,5.53381640625,0.00526613462716341,0.007439806591719389,-0.0013555489713326097
1772709360009841400,5.54384130859375,0.004796885885298252,0.005635781679302454,0.001050617080181837
1772709360019866400,5.553866455078125,0.006143379956483841,0.011553858406841755,0.0005645901546813548
1772709360029891600,5.5638916015625,0.005028580781072378,0.010908307507634163,-0.0002311623829882592
1772709360039916500,5.57391650390625,0.003712979145348072,0.008717059157788754,-0.0026080335956066847
1772709360049940500,5.5839404296875,0.0046754456125199795,0.004178233444690704,-0.00552392890676856
1772709360059965400,5.59396533203125,0.0028152274899184704,0.004602475091814995,-0.003644536016508937
1772709360069990400,5.603990478515625,0.0029760824982076883,0.010994061827659607,-0.0010684601729735732
1772709360080015400,5.614015380859375,0.0026288062799721956,0.009074721485376358,-0.0026176210958510637
1772709360090040300,5.624040283203125,0.002424275502562523,0.004206462763249874,-0.0034738273825496435
1772709360100065500,5.6340654296875,0.003996339626610279,0.0035958001390099525,-0.0037614486645907164
1772709360110090500,5.644090576171875,0.004570517223328352,0.004988633096218109,-0.0018162758788093925
1772709360120115500,5.654115478515625,0.004988633096218109,0.007281614933162928,0.00014327807002700865
1772709360139539500,5.67353955078125,0.004649613052606583,0.0015598133904859424,-0.0011491540353745222
1772709360149564400,5.683564453125,0.004123106133192778,0.003366768127307296,-0.001981125446036458
1772709360159589600,5.693589599609375,0.003481017891317606,0.007135407533496618,-0.000029827404432580806
1772709360169614600,5.703614501953125,0.005262140184640884,0.010699516162276268,-0.0019294602097943425
1772709360179639600,5.7136396484375,0.0019110844004899263,0.009609217755496502,-0.0009619337506592274
1772709360189663500,5.72366357421875,0.0043683829717338085,-0.0015486282063648105,-0.0073202308267354965
1772709360199688400,5.7336884765625,0.0015960324089974165,0.008830775506794453,-0.007991081103682518
1772709360209713400,5.74371337890625,0.004447745159268379,0.00815193634480238,-0.002865028567612171
1772709360219738400,5.75373828125,0.0027020431589335203,0.007123689632862806,-0.0031872710678726435
1772709360229763600,5.763763671875,0.002383795566856861,0.005559348501265049,-0.0038059235084801912
1772709360239788500,5.77378857421875,0.001978728687390685,0.001680987305007875,-0.007707720622420311
1772709360249813800,5.783813720703125,0.0018487664638087153,0.00487118773162365,-0.006671485025435686
1772709360259838700,5.793838623046875,0.0020599551498889923,0.004863997455686331,-0.0026176210958510637
1772709360269863700,5.80386376953125,0.003695135936141014,0.005360676907002926,-0.0034179009962826967
1772709360279888600,5.813888671875,0.003824033075943589,0.008170045912265778,-0.002466619713231921
1772709360289913600,5.82391357421875,0.005191300064325333,0.011447065509855747,-0.005124188028275967
1772709360299938600,5.8339384765625,0.0036045885644853115,0.010401774197816849,-0.005688778590410948
1772709360309962800,5.843962646484375,0.003165965899825096,0.006758303847163916,-0.00222001108340919
1772709360319987700,5.85398779296875,0.004338289611041546,0.005541239399462938,-0.001981391804292798
1772709360330012700,5.8640126953125,0.0041646515019237995,0.0075849490240216255,-0.003028546692803502
1772709360340038000,5.874037841796875,0.0018745990237221122,0.007562845014035702,-0.00347489258274436
1772709360350062600,5.8840625,0.004147340543568134,0.0071007865481078625,-0.004538825247436762
1772709360360087600,5.894087646484375,0.0036618465092033148,0.007107444107532501,-0.004263188224285841
1772709360370112800,5.90411279296875,0.0037947380915284157,0.007840879261493683,-0.0056741307489573956
1772709360380137700,5.9141376953125,0.0015960324089974165,0.007662447169423103,-0.006657636258751154
1772709360390162700,5.92416259765625,0.0016146745765581727,0.007539409212768078,-0.00860387459397316
1772709360400187600,5.934187744140625,0.0029912625905126333,0.006714095361530781,-0.009011604823172092
1772709360410212900,5.944212890625,0.0016468988033011556,0.0072943982668221,-0.007779892534017563
1772709360420237800,5.95423779296875,0.00301762786693871,0.008170312270522118,-0.008153799921274185
1772709360430262800,5.9642626953125,0.0009784454014152288,0.006632602773606777,-0.007662180811166763
1772709360440286700,5.97428662109375,0.0015374429058283567,0.007879228331148624,-0.00628905463963747
1772709360450311700,5.984311767578125,0.00192200334277004,0.009956760331988335,-0.008005994372069836
1772709360460336600,5.994336669921875,0.0018690064316615462,0.009124255739152431,-0.00717588746920228
1772709360470361600,6.004361572265625,0.002382730133831501,0.008757539093494415,-0.005231780000030994
1772709360480386800,6.01438671875,0.004191016778349876,0.009402822703123093,-0.007315437309443951
1772709360490411800,6.024411865234375,0.00145222176797688,0.007535414304584265,-0.006167348474264145
1772709360500436700,6.034436767578125,0.0025648903101682663,0.006202235817909241,-0.006627542432397604
1772709360510461700,6.044461669921875,0.0021965752821415663,0.006877347361296415,-0.005986253265291452
1772709360520487000,6.05448681640625,0.003677825443446636,0.007144728675484657,-0.0024051007349044085
1772709360530511600,6.06451171875,0.003424558788537979,0.006148972548544407,0.00007856325100874528
1772709360540536600,6.07453662109375,0.0034117756877094507,0.006644054315984249,-0.0020580908749252558
1772709360550561800,6.084561767578125,0.005116731394082308,0.003710049670189619,-0.0027537085115909576
1772709360560585700,6.094585693359375,0.002398442942649126,0.005565207917243242,-0.002971821464598179
1772709360570610700,6.104610595703125,0.004339088220149279,0.004680771846324205,-0.0034820830915123224
1772709360580636000,6.114635986328125,0.002826679265126586,0.0041550640016794205,-0.004766792058944702
1772709360590660900,6.124660888671875,0.0021441110875457525,0.005914880894124508,-0.006072007119655609
1772709360600685800,6.134685791015625,0.00028522455249913037,0.004493285436183214,-0.007498396094888449
1772709360610710500,6.14471044921875,0.001327053178101778,0.005261341109871864,-0.007816111668944359
1772709360620735700,6.15473583984375,0.00037523938226513565,0.005730323493480682,-0.006911701988428831
1772709360630760700,6.1647607421875,0.00321816373616457,0.005696501582860947,-0.005935120861977339
1772709360640785700,6.17478564453125,0.002695385366678238,0.006624879315495491,-0.005783054046332836
1772709360650810600,6.184810546875,0.000811997801065445,0.008055263198912144,-0.006215019151568413
1772709360660835800,6.1948359375,0.003967843484133482,0.008490956388413906,-0.0067899953573942184
1772709360670860800,6.20486083984375,0.0025446503423154354,0.008763930760324001,-0.003929493948817253
1772709360680884700,6.214884765625,0.004110322799533606,0.011155981570482254,-0.003932689782232046
1772709360690909700,6.22490966796875,0.003251453395932913,0.009136506356298923,-0.0024458470288664103
1772709360700934700,6.2349345703125,0.004719654098153114,0.008588960394263268,-0.0006162554491311312
1772709360710959600,6.244959716796875,0.00572925852611661,0.004506068304181099,-0.0006372944335453212
1772709360720984600,6.254984619140625,0.004108192399144173,0.0059633501805365086,0.000264718197286129
1772709360731009800,6.265009765625,0.0046211169101297855,0.005878395400941372,0.0007321029552258551
1772709360741034800,6.27503466796875,0.00424135010689497,0.004920456558465958,0.0013693973887711763
1772709360751059700,6.285059814453125,0.0054701329208910465,0.005824599415063858,0.0017321199411526322
1772709360761084700,6.295084716796875,0.004336158744990826,0.004805674310773611,-0.0010724549647420645
1772709360771110000,6.30510986328125,0.005058141890913248,0.0009715211344882846,-0.002115348819643259
1772709360781134600,6.315134521484375,0.003796336008235812,0.002823217073455453,-0.003257312346249819
1772709360791158800,6.32515869140625,0.003516437951475382,0.0038538603112101555,0.00025007082149386406
1772709360801183700,6.335183837890625,0.005087170284241438,0.009476592764258385,-0.0010002832859754562
1772709360811208700,6.345208740234375,0.004552141297608614,0.009860353544354439,-0.001725728390738368
1772709360821233700,6.355233642578125,0.005142830312252045,0.007192398887127638,-0.003296460723504424
1772709360831259000,6.3652587890625,0.005537510849535465,0.006220611743628979,-0.0020519655663520098
1772709360841283800,6.375283935546875,0.006358563434332609,0.010319748893380165,-0.00002157160452043172
1772709360851308800,6.385308837890625,0.004874649923294783,0.012309662997722626,0.0007917577750049531
1772709360861333500,6.39533349609375,0.004953745752573013,0.008610266260802746,-0.0005416869535110891
1772709360871358700,6.405358642578125,0.004598746541887522,0.007134608458727598,-0.0033603766933083534
1772709360881383700,6.4153837890625,0.003662645351141691,0.0091170659288764,-0.0031063109636306763
1772709360891408600,6.42540869140625,0.004373443312942982,0.009446498937904835,-0.001532382913865149
1772709360901433600,6.43543359375,0.0033449302427470684,0.01025743130594492,-0.002299106912687421
1772709360911457800,6.445457763671875,0.003600327530875802,0.006110356654971838,-0.0060030315071344376
1772709360921482800,6.455482666015625,0.003029345767572522,0.007345264777541161,-0.0030453247018158436
1772709360931507700,6.4655078125,0.002540122950449586,0.006785734556615353,-0.0006479470757767558
1772709360941532700,6.47553271484375,0.004897287115454674,0.007714112289249897,-0.0022540995851159096
1772709360951557600,6.4855576171875,0.004068511072546244,0.007703193463385105,-0.002046905690804124
1772709360961582600,6.49558251953125,0.0051833102479577065,0.00782836228609085,-0.0014269216917455196
1772709360971607800,6.50560791015625,0.005883987993001938,0.008800681680440903,-0.0005350290448404849
1772709360981632800,6.5156328125,0.005338306538760662,0.007645136676728725,0.00017896443023346364
1772709360991657700,6.52565771484375,0.004475974943488836,0.007399593014270067,-0.0031816784758120775
1772709361001682700,6.5356826171875,0.004744155332446098,0.004760134033858776,-0.0005379585199989378
1772709361011708000,6.5457080078125,0.005578257143497467,0.0064837317913770676,-0.00115394766908139
1772709361021732900,6.55573291015625,0.005078914575278759,0.00771624268963933,-0.0014455638593062758
1772709361031756500,6.565756591796875,0.004658135119825602,0.010456102900207043,-0.002776345470920205
1772709361041781800,6.57578173828125,0.003567570587620139,0.006789462640881538,-0.0013651363551616669
1772709361051806700,6.585806640625,0.004366252571344376,0.008116516284644604,-0.002270344877615571
1772709361061831700,6.595831787109375,0.0033995250705629587,0.008626511320471764,-0.0037140443455427885
1772709361071856600,6.605856689453125,0.0030341395176947117,0.008300273679196835,-0.00484189298003912
1772709361081881900,6.6158818359375,0.003288205014541745,0.009342102333903313,-0.005950034596025944
1772709361091906800,6.62590673828125,0.004491155035793781,0.009908556938171387,-0.006077599711716175
1772709361101931800,6.635931884765625,0.0046629286371171474,0.010127202607691288,-0.003983289934694767
1772709361111956700,6.645956787109375,0.002225070958957076,0.009468602947890759,-0.0036573191173374653
1772709361121981700,6.655981689453125,0.0034179009962826967,0.008371113799512386,-0.00421365350484848
1772709361132006700,6.666006591796875,0.003212304785847664,0.007933290675282478,-0.003974501509219408
1772709361142031600,6.676031494140625,0.003177417442202568,0.0073657711036503315,-0.004444282967597246
1772709361152055800,6.686055908203125,0.0035931370221078396,0.0075998627580702305,-0.003953995183110237
1772709361162080800,6.696080810546875,0.0035262915771454573,0.0075945365242660046,-0.004245345015078783
1772709361172105700,6.706105712890625,0.002281530061736703,0.008626511320471764,-0.003575826296582818
1772709361182130700,6.716130615234375,0.0032767534721642733,0.009275790303945541,-0.004259459674358368
1772709361192156000,6.726156005859375,0.0034818167332559824,0.008467520587146282,-0.003338006092235446
1772709361202180600,6.7361806640625,0.004849616438150406,0.010306965559720993,-0.0023182816803455353
1772709361212205600,6.74620556640625,0.005998237524181604,0.010392453521490097,-0.002430134452879429
1772709361222230800,6.756230712890625,0.004741491749882698,0.0067899953573942184,-0.0020849888678640127
1772709361232255700,6.766255859375,0.004543352872133255,0.005234975833445787,-0.004102599807083607
1772709361242280700,6.77628076171875,0.005287706386297941,0.006142048165202141,-0.0015630092239007354
1772709361252305000,6.786304931640625,0.0037297571543604136,0.00890933908522129,-0.002110022585839033
1772709361262329900,6.796329833984375,0.004914064891636372,0.006984938867390156,0.0003145193331874907
1772709361272354800,6.806354736328125,0.00296329939737916,0.008494418114423752,-0.002110022585839033
1772709361282379800,6.8163798828125,0.00355851580388844,0.008468053303658962,-0.004456001333892345
1772709361292405000,6.826405029296875,0.0029707562644034624,0.004869057331234217,-0.005483714863657951
1772709361302430000,6.836429931640625,0.002472745021805167,0.005931658670306206,-0.005564941558986902
1772709361312455000,6.846454833984375,0.0025188177824020386,0.007647533435374498,-0.0036583843175321817
1772709361322479900,6.85647998046875,0.005269596818834543,0.010448113083839417,-0.0025153555907309055
1772709361332504800,6.8665048828125,0.00227886694483459,0.010671020485460758,-0.006675213109701872
1772709361342529800,6.87652978515625,0.0029891319572925568,0.007632086984813213,-0.006626743823289871
1772709361352554800,6.8865546875,0.0023646207991987467,0.008301339112222195,-0.005347094964236021
1772709361362579000,6.896578857421875,0.005845638457685709,0.010208428837358952,-0.0004980111261829734
1772709361372604000,6.90660400390625,0.004221642855554819,0.008198541589081287,-0.0008548747282475233
1772709361382628900,6.91662890625,0.0037739656399935484,0.00569969741627574,-0.0024469124618917704
1772709361392653800,6.92665380859375,0.003459446132183075,0.0054453653283417225,-0.0015193333383649588
1772709361402678800,6.9366787109375,0.005869340617209673,0.008816661313176155,-0.0000066579027588886674
1772709361412703700,6.946703857421875,0.004853078629821539,0.009076851420104504,-0.0016828514635562897
1772709361422728700,6.956728759765625,0.004009122494608164,0.005270129535347223,-0.002478870330378413
1772709361432754000,6.96675390625,0.003869839245453477,0.007387875113636255,-0.0046450854279100895
1772709361442779000,6.97677880859375,0.004089550115168095,0.008376972749829292,-0.004024036228656769
1772709361452803800,6.986803955078125,0.002906573936343193,0.008294681087136269,-0.0024706146214157343
1772709361462828800,6.996828857421875,0.0044016726315021515,0.00711703160777688,-0.002654372714459896
1772709361472854000,7.00685400390625,0.0036338833160698414,0.007494401652365923,-0.0037907434161752462
1772709361482877700,7.016877685546875,0.003568103304132819,0.008188953623175621,-0.005389172583818436
1772709361492902700,7.026902587890625,0.004415787290781736,0.0070794811472296715,-0.0028250813484191895
1772709361502928000,7.036927978515625,0.002883138135075569,0.008558601140975952,-0.003054911969229579
1772709361512952800,7.046952880859375,0.0032810145057737827,0.008501608856022358,-0.0034269557800143957
1772709361522977800,7.056977783203125,0.0030216225422918797,0.007654457353055477,-0.002769421087577939
1772709361533002800,7.067002685546875,0.0034112429711967707,0.006401440128684044,-0.004281564150005579
1772709361543028000,7.077028076171875,0.00430100504308939,0.005842975340783596,-0.004095675423741341
1772709361553053000,7.087052978515625,0.003750795964151621,0.007497863844037056,-0.0016186692519113421
1772709361563078000,7.097077880859375,0.0030722226947546005,0.008028365671634674,0.00002210423735959921
1772709361573102800,7.107102783203125,0.0059774648398160934,0.0073410035111010075,-0.00033662354690022767
1772709361583127800,7.1171279296875,0.005667739547789097,0.006083458662033081,-0.0016522251535207033
1772709361593151700,7.12715185546875,0.004218180663883686,0.008257131092250347,-0.0034999263007193804
1772709361603177000,7.137177001953125,0.005387308541685343,0.00836632028222084,-0.0021457087714225054
1772709361613202000,7.147201904296875,0.0036245621740818024,0.008833705447614193,-0.0018442390719428658
1772709361623227000,7.157226806640625,0.0031382690649479628,0.00669332267716527,-0.003341201925650239
1772709361633251800,7.167251953125,0.002141980454325676,0.007428088691085577,-0.0021813951898366213
1772709361643277000,7.177277099609375,0.0035148400347679853,0.006932208314538002,-0.004033357370644808
1772709361653302000,7.187302001953125,0.0038778288289904594,0.006415022537112236,0.003394198836758733
1772709361663326700,7.19732666015625,0.0052142031490802765,0.008347944356501102,0.011031345464289188
1772709361673351700,7.2073515625,0.0035334820859134197,0.009314405731856823,0.006691724993288517
1772709361683377000,7.217376953125,0.00285011506639421,0.003428287338465452,0.006175337824970484
1772709361693401900,7.22740185546875,0.005064533557742834,0.004859736189246178,0.0011984225129708648
1772709361703425800,7.23742578125,0.002865028567612171,0.010297911241650581,-0.0008370315190404654
1772709361713451000,7.247450927734375,0.001201884588226676,0.010324010625481606,0.005081844050437212
1772709361723476000,7.25747607421875,0.003885552054271102,0.005620867945253849,0.014308365061879158
1772709361733501000,7.2675009765625,0.004351338837295771,0.0031302794814109802,0.023563383147120476
1772709361743525600,7.277525634765625,0.0054520233534276485,0.007978031411767006,0.010309629142284393
1772709361753550800,7.28755078125,0.0038930089212954044,0.013019395060837269,-0.015030082315206528
1772709361763575800,7.297575927734375,0.00586721021682024,0.013510216027498245,-0.03409538418054581
1772709361773600800,7.307600830078125,0.005302620120346546,0.012596751563251019,-0.034318823367357254
1772709361783625700,7.317625732421875,0.006649114191532135,0.011359713971614838,-0.020290091633796692
1772709361793651000,7.32765087890625,0.002922286745160818,0.01136690378189087,-0.009250756353139877
1772709361803676000,7.337676025390625,0.0036549223586916924,0.006940464023500681,0.004792890977114439
1772709361813700900,7.347700927734375,0.004502073861658573,0.00032730249222368,0.004501008428633213
