time,seconds_elapsed,z,y,x
1772709354508040400,0.04204052734375,0.0015193172730505466,0.011748777702450752,0.005233515985310078
1772709354518065400,0.0520654296875,0.0012543327175080776,0.013863593339920044,0.00554963294416666
1772709354528090400,0.06209033203125,-0.0006518848240375519,0.01371888630092144,0.0050060320645570755
1772709354538115600,0.072115478515625,0.0009364245925098658,0.01522543653845787,0.0030781696550548077
1772709354548139300,0.08213916015625,0.00112228374928236,0.008763812482357025,-0.0038257453124970198
1772709354558164500,0.09216455078125,-0.0006425932515412569,0.004020188469439745,-0.0058830371126532555
1772709354568189400,0.102189453125,-0.0006684239488095045,-0.004629196599125862,-0.0023577692918479443
1772709354578214400,0.11221435546875,-0.0024436870589852333,-0.012712156400084496,-0.0020051668398082256
1772709354588239400,0.1222392578125,0.00011128582991659641,-0.013151479884982109,-0.001457037404179573
1772709354598264600,0.1322646484375,-0.0017776942113414407,-0.013379713520407677,-0.0021878089755773544
1772709354608289500,0.14228955078125,0.00028763385489583015,-0.007969270460307598,0.0004823724739253521
1772709354618314500,0.152314453125,0.00010680523701012135,-0.0071362340822815895,0.0035165119916200638
1772709354628339200,0.162339111328125,-0.0025526059325784445,-0.01855643466114998,0.0030341078527271748
1772709354638364400,0.172364501953125,-0.0010215546935796738,-0.03469998389482498,0.0044288053177297115
1772709354648388400,0.182388427734375,-0.002337871817871928,-0.04942437633872032,0.01179567538201809
1772709354658413300,0.192413330078125,-0.00034822430461645126,-0.06354951113462448,0.01739523746073246
1772709354668438500,0.2024384765625,0.003201090730726719,-0.05597413331270218,0.019059499725699425
1772709354678463500,0.21246337890625,0.004261295311152935,-0.0360848531126976,0.02311709150671959
1772709354688488400,0.222488525390625,0.005799628794193268,0.001502225175499916,0.021646343171596527
1772709354698513200,0.23251318359375,0.0012040783185511827,0.04406886175274849,0.008767829276621342
1772709354708538400,0.242538330078125,0.0021380840335041285,0.0481584370136261,-0.009943561628460884
1772709354718563300,0.252563232421875,0.0016288876067847013,0.0499773770570755,-0.018020130693912506
1772709354728588300,0.26258837890625,0.001067817211151123,0.05483603850007057,-0.01329873874783516
1772709354738613200,0.27261328125,0.004399964120239019,0.059073664247989655,-0.0018697839695960283
1772709354748638500,0.282638427734375,0.005113386549055576,0.06318153440952301,0.011413244530558586
1772709354758662400,0.292662353515625,0.006387708708643913,0.06530514359474182,0.020608074963092804
1772709354768687400,0.302687255859375,0.005835552234202623,0.04734375327825546,0.021153457462787628
1772709354778712300,0.31271240234375,0.005351655650883913,-0.0011356323957443237,0.0036383792757987976
1772709354788737300,0.3227373046875,0.0032424572855234146,-0.029146526008844376,-0.012536169029772282
1772709354798762200,0.33276220703125,0.00199689669534564,-0.03897438943386078,-0.009555825032293797
1772709354808787500,0.342787353515625,0.00398885877802968,-0.036558598279953,0.004075797740370035
1772709354818812400,0.3528125,0.002953421790152788,-0.02462577074766159,0.009850064292550087
1772709354828837400,0.36283740234375,0.0008061728440225124,-0.02132292650640011,0.0036194706335663795
1772709354838862300,0.3728623046875,0.0010202908888459206,-0.008836961351335049,-0.0017598485574126244
1772709354848887600,0.382887451171875,0.0015958643052726984,0.0010196869261562824,0.004446829203516245
1772709354858912500,0.39291259765625,0.0034454299602657557,0.0023446097038686275,0.0051642851904034615
1772709354868936200,0.402936279296875,0.002699867822229862,-0.00041121290996670723,0.004827181808650494
1772709354878961400,0.41296142578125,0.0011107595637440681,0.013495015911757946,0.00423276424407959
1772709354888986400,0.422986328125,-0.000012684846296906471,0.03322795778512955,0.0075142583809792995
1772709354899011300,0.43301123046875,0.00006348150782287121,0.04120465740561485,0.0067531270906329155
1772709354909036300,0.443036376953125,0.0006564455106854439,0.04001180827617645,0.0002576238475739956
1772709354919061500,0.4530615234375,0.0015288968570530415,0.03054533712565899,-0.004413560964167118
1772709354929086500,0.46308642578125,0.004636575933545828,0.01954304799437523,-0.002244704170152545
1772709354939111400,0.473111328125,0.006175083573907614,0.020773161202669144,0.00674186646938324
1772709354949136400,0.483136474609375,0.005881358403712511,0.025025395676493645,0.012152238748967648
1772709354959161300,0.493161376953125,0.007116266991943121,0.01729930005967617,0.012215888127684593
1772709354969186300,0.503186279296875,0.005905472207814455,0.0069166854955255985,0.011407299898564816
1772709354979210500,0.51321044921875,0.008484477177262306,0.010048829019069672,0.007438390515744686
1772709354989235500,0.5232353515625,0.008815313689410686,0.01209924928843975,0.0066465893760323524
1772709354999260400,0.533260498046875,0.011437195353209972,0.014426052570343018,0.00954464077949524
1772709355009285400,0.543285400390625,0.011368241161108017,0.013783399015665054,0.01533504668623209
1772709355019310600,0.553310546875,0.011214310303330421,0.013329330831766129,0.014486563391983509
1772709355029335600,0.56333544921875,0.010101612657308578,0.013158092275261879,0.008669484406709671
1772709355039360300,0.5733603515625,0.007982535287737846,0.00967920571565628,0.0007814676500856876
1772709355049385200,0.58338525390625,0.006969914305955172,0.006769711617380381,-0.007191845215857029
1772709355059410400,0.593410400390625,0.005191189702600241,0.0026886840350925922,-0.0067311180755496025
1772709355069435400,0.603435302734375,0.002747408812865615,0.0030452581122517586,-0.00629001297056675
1772709355079459300,0.613459228515625,0.0028725771699100733,0.013143964111804962,-0.0038513566832989454
1772709355089484500,0.623484619140625,0.0013690732885152102,0.013570057228207588,-0.00549984211102128
1772709355099509500,0.633509521484375,-0.0012205848470330238,0.003942729439586401,-0.006943275686353445
1772709355109534500,0.643534423828125,-0.0022954365704208612,-0.012383246794342995,-0.006264169234782457
1772709355119559200,0.65355908203125,-0.0044609978795051575,-0.01948561519384384,-0.0042427778244018555
1772709355129584400,0.66358447265625,-0.0029202140867710114,-0.020908290520310402,0.0002752223517745733
1772709355139609300,0.673609375,-0.0028200792148709297,-0.026328623294830322,0.00012182444334030151
1772709355149634300,0.68363427734375,-0.0045406105928123,-0.032769136130809784,-0.0031670425087213516
1772709355159659300,0.6936591796875,-0.004185877740383148,-0.039567384868860245,-0.005080789793282747
1772709355169684500,0.7036845703125,-0.003945575095713139,-0.03849440813064575,-0.009643509052693844
1772709355179709400,0.71370947265625,-0.005963718518614769,-0.04163294658064842,-0.010469621047377586
1772709355189733600,0.723733642578125,-0.004449424333870411,-0.03990298882126808,-0.009152794256806374
1772709355199758300,0.73375830078125,-0.0033692463766783476,-0.024761851876974106,-0.0046608406119048595
1772709355209783300,0.743783203125,-0.004095195326954126,-0.01056534331291914,0.0014169615460559726
1772709355219808300,0.753808349609375,-0.00022082868963479996,-0.0017966190353035927,0.0015794143546372652
1772709355229833500,0.76383349609375,0.0015382179990410805,0.005072735249996185,0.0027170530520379543
1772709355239858400,0.7738583984375,-0.0014386634575203061,0.018293999135494232,0.005136800929903984
1772709355249884000,0.7838837890625,0.000595135148614645,0.03255017101764679,0.005062893033027649
1772709355259908900,0.793908935546875,-0.001788127701729536,0.04320095106959343,0.0028090595733374357
1772709355269933800,0.803933837890625,-0.002004177775233984,0.043398238718509674,-0.003377685323357582
1772709355279959000,0.813958984375,-0.0006062844768166542,0.04711255058646202,-0.007566837593913078
1772709355289984000,0.82398388671875,0.0010304111056029797,0.058660320937633514,-0.0032134014181792736
1772709355300008000,0.834008056640625,0.004083725158125162,0.0756417065858841,0.005537745542824268
1772709355310033200,0.844033203125,0.0020751648116856813,0.09278710931539536,0.008290346711874008
1772709355320057900,0.854057861328125,0.0009169557597488165,0.1051819920539856,0.01010928675532341
1772709355330082800,0.864082763671875,-0.0008161605801433325,0.11688344180583954,0.010454654693603516
1772709355340108000,0.87410791015625,-0.0015775582287460566,0.15549075603485107,0.0154787078499794
1772709355350133000,0.884133056640625,-0.0003726289141923189,0.2029607892036438,0.0328981876373291
1772709355360158000,0.894157958984375,-0.002652561292052269,0.23703007400035858,0.044787339866161346
1772709355370183000,0.904182861328125,-0.001706640818156302,0.27099812030792236,0.0428730808198452
1772709355380208000,0.9142080078125,0.009795019403100014,0.2528478801250458,0.03600798547267914
1772709355390233000,0.924233154296875,0.003510857466608286,0.15850040316581726,0.03696688264608383
1772709355400256800,0.9342568359375,0.0028434693813323975,0.03815694898366928,0.014470625668764114
1772709355410282000,0.944281982421875,-0.00040769600309431553,-0.05203130096197128,-0.009905925020575523
1772709355420307000,0.954306884765625,-0.0016676376108080149,-0.06935010850429535,-0.01394886989146471
1772709355430332000,0.964331787109375,-0.002238740213215351,-0.027605604380369186,-0.0023127736058086157
1772709355440356900,0.97435693359375,0.0016686497256159782,0.02002023719251156,0.0029118158854544163
1772709355450382000,0.984382080078125,0.0021454477682709694,0.030712047591805458,0.001062633702531457
1772709355460407000,0.994406982421875,-0.0005472744815051556,0.020047154277563095,-0.007675463333725929
1772709355470432000,1.004431884765625,-0.0022591883316636086,0.004632218740880489,-0.013086984865367413
1772709355480457000,1.01445703125,-0.0014921980910003185,-0.0017710854299366474,-0.011048868298530579
1772709355490482000,1.02448193359375,-0.004987210035324097,-0.001625660341233015,-0.005398386158049107
1772709355500507000,1.0345068359375,-0.0030718643683940172,0.0009448230266571045,-0.002307788236066699
1772709355510531000,1.044531005859375,-0.00183411396574229,0.004386968445032835,-0.0028471529949456453
1772709355520556000,1.05455615234375,-0.0013001502957195044,0.0052487668581306934,0.002244811039417982
1772709355530581000,1.0645810546875,-0.0028109955601394176,0.005410394631326199,0.006696838885545731
1772709355540606000,1.07460595703125,0.0003802704159170389,0.0014377571642398834,0.012334218248724937
1772709355550631200,1.084631103515625,-0.0024314974434673786,-0.006182374898344278,0.012320861220359802
1772709355560656100,1.09465625,-0.0011904644779860973,-0.012164900079369545,0.012520331889390945
1772709355570680800,1.104680908203125,-0.0004834742285311222,-0.008797796443104744,0.009182068519294262
1772709355580705800,1.114705810546875,0.0001189329195767641,-0.004014759324491024,0.007352210581302643
1772709355590731000,1.12473095703125,0.0010060814674943686,-0.0011777598410844803,0.005871281959116459
1772709355600756000,1.134755859375,-0.00045306445099413395,-0.005494743585586548,0.0022112997248768806
1772709355610781000,1.144781005859375,-0.0022511070128530264,-0.009660148061811924,-0.00010023033246397972
1772709355620805000,1.15480517578125,-0.001631389488466084,-0.0124274380505085,-0.0022091877181082964
1772709355630830000,1.164830078125,-0.003440066007897258,-0.0074969083070755005,-0.0031584317330271006
1772709355640855000,1.17485498046875,-0.0017660028534010053,-0.004093654919415712,-0.0037962591741234064
1772709355650879700,1.184879638671875,-0.0010612127371132374,-0.003721890039741993,-0.00673078466206789
1772709355660905000,1.194905029296875,-0.0017419166397303343,-0.0032422547228634357,-0.004662041552364826
1772709355670930000,1.204929931640625,-0.002470557577908039,-0.0025237337686121464,-0.004367495886981487
1772709355680955000,1.214954833984375,-0.001824474660679698,0.00010640406981110573,-0.0028170037548989058
1772709355690979800,1.224979736328125,-0.000786755932494998,0.001608469057828188,-0.003152798395603895
1772709355701005000,1.235005126953125,-0.0002706351224333048,0.0016598678193986416,-0.005753108765929937
1772709355711030000,1.245030029296875,-0.0007743886671960354,-0.004372470546513796,-0.006757375784218311
1772709355721055000,1.255054931640625,0.0006432118825614452,-0.005611373111605644,-0.005851102061569691
1772709355731079000,1.265078857421875,-0.002754389774054289,0.0003721509128808975,-0.005335189867764711
1772709355741103900,1.275103759765625,0.0016073354054242373,-0.0032798415049910545,-0.0046006906777620316
1772709355751128800,1.28512890625,-0.00025199586525559425,-0.00416902219876647,-0.0041134413331747055
1772709355761154000,1.295154052734375,-0.0025878543965518475,-0.0032638139091432095,-0.00510040856897831
1772709355771179000,1.305178955078125,-0.001410854747518897,-0.003482179017737508,-0.005695104133337736
1772709355781204000,1.315203857421875,-0.0014779664343222976,-0.0023127850145101547,-0.00207826541736722
1772709355791229000,1.32522900390625,0.0011093225330114365,0.00026751821860671043,0.0003610854037106037
1772709355801254100,1.335254150390625,-0.0002619391307234764,0.0009498200379312038,0.000046033645048737526
1772709355811279000,1.345279052734375,0.0007371630053967237,-0.00020887842401862144,-0.0027835455257445574
1772709355821304000,1.355303955078125,-0.0000580567866563797,0.000997533556073904,-0.002380342921242118
1772709355831328800,1.365328857421875,0.0009685901459306479,0.00003713835030794144,-0.002544741379097104
1772709355841353000,1.37535302734375,-0.0003723115660250187,-0.0016329297795891762,0.0008337446488440037
1772709355851378000,1.3853779296875,0.0005486386362463236,-0.00016443617641925812,0.0033871601335704327
1772709355861403000,1.39540283203125,0.0013542450033128262,0.003257193136960268,0.0033778392244130373
1772709355871428000,1.405427978515625,0.0003492869436740875,-0.0012086452916264534,0.0006079378072172403
1772709355881453000,1.415453125,-0.0009740376845002174,-0.0028339726850390434,-0.0008035376667976379
1772709355891478000,1.42547802734375,-0.002571193967014551,-0.004445710685104132,-0.003907590638846159
1772709355901503000,1.4355029296875,-0.0010981997475028038,-0.002514386549592018,-0.0055824522860348225
1772709355911528000,1.44552783203125,-0.00303221819922328,-0.00015059113502502441,-0.003944586031138897
1772709355921553000,1.455552978515625,0.00012096459977328777,0.0019543711096048355,-0.004505714401602745
1772709355931577900,1.465577880859375,-0.0009042620658874512,0.0018171793781220913,-0.0029570506885647774
1772709355941603000,1.47560302734375,-0.00041184364818036556,0.0016619167290627956,-0.004037495236843824
1772709355951628000,1.4856279296875,-0.0011328516993671656,0.00243240874260664,-0.004275350831449032
1772709355961652000,1.49565185546875,-0.0023459214717149734,0.0014273319393396378,-0.0036822648253291845
1772709355971677200,1.50567724609375,-0.0011118422262370586,0.0012411805801093578,-0.005936300382018089
1772709355981702000,1.515701904296875,-0.0008535156957805157,0.00023929914459586143,-0.007703840732574463
1772709355991726800,1.525726806640625,-0.0024600231554359198,0.004364782012999058,-0.007875197567045689
1772709356001751800,1.535751708984375,-0.002254693303257227,0.008950479328632355,-0.008192912675440311
1772709356011777000,1.545777099609375,-0.0015168488025665283,0.0063384342938661575,-0.006524760276079178
1772709356021802000,1.555802001953125,-0.00042628427036106586,0.0032150791957974434,-0.004447228740900755
1772709356031827000,1.565826904296875,-0.004713758826255798,0.005128240678459406,-0.00949467159807682
1772709356041852000,1.575851806640625,-0.0033297138288617134,0.004689617548137903,-0.011738650500774384
1772709356051877000,1.585877197265625,-0.005221839528530836,0.004586902912706137,-0.013995151966810226
1772709356061902000,1.595902099609375,-0.0030998329166322947,0.006447387393563986,-0.012028674595057964
1772709356071927000,1.605927001953125,-0.003826787229627371,0.0035112425684928894,-0.01202327385544777
1772709356081951000,1.615950927734375,-0.0018951963866129518,0.0024337274953722954,-0.011135109700262547
1772709356091976000,1.625975830078125,-0.0036549833603203297,0.002133585512638092,-0.011055544018745422
1772709356102001000,1.6360009765625,-0.0032778799068182707,0.001590566709637642,-0.010126899927854538
1772709356112025900,1.64602587890625,-0.0008412355091422796,0.004502217285335064,-0.007898847572505474
1772709356122051000,1.656051025390625,-0.0017107576131820679,0.0027557164430618286,-0.0072335898876190186
1772709356132076000,1.666075927734375,-0.001516960677690804,-0.00046652136370539665,-0.005489681847393513
1772709356142101000,1.67610107421875,-0.002138542477041483,0.0005902210250496864,-0.0025293121580034494
1772709356152126000,1.6861259765625,-0.001398514723405242,0.0037210695445537567,-0.002315026940777898
1772709356162151000,1.69615087890625,-0.002484551863744855,0.0034856460988521576,-0.004141689278185368
1772709356172176000,1.70617578125,-0.0014304727083072066,0.0006986483931541443,-0.007340944372117519
1772709356182200800,1.716200927734375,-0.0024262284860014915,0.004684600979089737,-0.0067459940910339355
1772709356192226000,1.72622607421875,-0.00343902874737978,0.0033112093806266785,-0.007329226471483707
1772709356202250000,1.73625,-0.002294402103871107,0.004784735850989819,-0.007845346815884113
1772709356212275000,1.74627490234375,-0.0010830408427864313,0.002883458510041237,-0.0052246213890612125
1772709356222300200,1.756300048828125,-0.002802111441269517,0.007664898410439491,-0.0064291697926819324
1772709356232325000,1.7663251953125,-0.0014239342417567968,0.00455811433494091,-0.005844525992870331
1772709356242349800,1.776349853515625,-0.0015807944582775235,0.0012669796124100685,-0.006422432139515877
1772709356252374800,1.786374755859375,0.0013282399158924818,-0.0005562566220760345,-0.005595154594630003
1772709356262400000,1.79639990234375,0.00043874396942555904,0.006147452630102634,-0.00031170970760285854
1772709356272425000,1.806425048828125,0.0016140877269208431,0.007577826268970966,0.002722771605476737
1772709356282450000,1.816449951171875,0.00314513873308897,0.004719721153378487,0.0027299621142446995
1772709356292474600,1.826474609375,0.005190798081457615,-0.0020201867446303368,0.00036119576543569565
1772709356302499800,1.836499755859375,0.005325287580490112,-0.003516084048897028,0.00121873349417001
1772709356312524800,1.84652490234375,0.0036856362130492926,0.0011948049068450928,0.00223144656047225
1772709356322549000,1.856549072265625,0.0019045143853873014,0.004324818029999733,0.004708985332399607
1772709356332574000,1.866573974609375,0.0036251009441912174,0.00027117133140563965,0.004350634757429361
1772709356342599000,1.876598876953125,0.0011153379455208778,-0.00003322819247841835,0.0045775361359119415
1772709356352623900,1.886623779296875,0.0025710437912493944,-0.00029602600261569023,0.0023237194400280714
1772709356362648800,1.89664892578125,0.0013089717831462622,-0.0020292112603783607,-0.0011322645004838705
1772709356372673800,1.906673828125,0.0009372245986014605,-0.00014795782044529915,0.0028056877199560404
1772709356382698800,1.91669873046875,0.0016253853682428598,0.0035775378346443176,0.004226217977702618
1772709356392723700,1.9267236328125,0.0005658743903040886,0.0008626356720924377,0.004570699296891689
1772709356402749000,1.9367490234375,0.0035004117526113987,-0.002424504142254591,0.001855606446042657
1772709356412774000,1.94677392578125,0.002287510549649596,-0.0042383428663015366,-0.0036776792258024216
1772709356422798800,1.956798828125,-0.0005096076056361198,-0.0022582830861210823,-0.0030835275538265705
1772709356432823800,1.96682373046875,-0.0006590960547327995,0.00028288550674915314,-0.003121726680546999
1772709356442849000,1.97684912109375,-0.002644748892635107,-0.003478829748928547,-0.002263123169541359
1772709356452872700,1.986872802734375,0.00005261157639324665,0.00036282697692513466,-0.0001434211153537035
1772709356462897700,1.996897705078125,-0.0013572657480835915,-0.002692085225135088,0.000265640439465642
1772709356472923000,2.0069228515625,-0.001577921910211444,0.0011457828804850578,-0.002443848177790642
1772709356482947800,2.01694775390625,-0.003366234712302685,-0.00031229807063937187,0.0016976336482912302
1772709356492972800,2.026972900390625,-0.00014706538058817387,-0.00017487257719039917,0.006799845024943352
1772709356502997800,2.036997802734375,-0.0012765119317919016,-0.0007597026415169239,0.006196904927492142
1772709356513023000,2.04702294921875,-0.000326002249494195,-0.0015785982832312584,-0.0001923076342791319
1772709356523048000,2.0570478515625,0.0013651049230247736,-0.0020819357596337795,-0.0029244443867355585
1772709356533073000,2.067072998046875,0.00013150577433407307,-0.003686013864353299,-0.0005438616499304771
1772709356543097900,2.077097900390625,0.0005616063717752695,-0.006560097448527813,0.0012404561275616288
1772709356553122800,2.087122802734375,0.0008771002758294344,-0.0018478897400200367,-0.001652611419558525
1772709356563147800,2.097147705078125,-0.0012161443009972572,-0.0011986112222075462,-0.006456154864281416
1772709356573172700,2.1071728515625,-0.00017398898489773273,-0.003106506075710058,-0.00868108682334423
1772709356583197000,2.117197021484375,-0.0008645467460155487,-0.0068098981864750385,-0.011155430227518082
1772709356593222000,2.127221923828125,0.0010974896140396595,-0.005022631026804447,-0.006619151681661606
1772709356603246800,2.137246826171875,0.00028708972968161106,0.0019335458055138588,-0.002931472845375538
1772709356613272000,2.14727197265625,-0.0018681504298001528,0.006806384772062302,-0.0017972791101783514
1772709356623296800,2.157296875,-0.0007357744034379721,0.004013793542981148,-0.001909131882712245
1772709356633321700,2.16732177734375,-0.0015904414467513561,0.005540560930967331,0.0008033844642341137
1772709356643346700,2.1773466796875,-0.0023177508264780045,0.005510467104613781,0.004164826590567827
1772709356653372000,2.187371826171875,0.0008792306762188673,0.00527739804238081,0.004084103740751743
1772709356663396900,2.19739697265625,0.0019783175084739923,0.005616950802505016,-0.0011032014153897762
1772709356673421800,2.207421875,0.0007999821100383997,-0.0016023004427552223,-0.0037068810779601336
1772709356683446800,2.21744677734375,0.0005855977069586515,-0.00041666068136692047,-0.0026285673957318068
1772709356693472000,2.227471923828125,0.0002429680898785591,0.005048931576311588,0.00003620306961238384
1772709356703497000,2.2374970703125,-0.0004997875075787306,0.004572492092847824,0.0006013258825987577
1772709356713520600,2.247520751953125,-0.002702901139855385,0.0015130387619137764,-0.007195332553237677
1772709356723545900,2.2575458984375,-0.0010243107099086046,-0.000721086747944355,-0.010206568986177444
1772709356733570800,2.26757080078125,-0.002353665418922901,0.000905532855540514,-0.008496517315506935
1772709356743595800,2.277595703125,-0.0010822722688317299,0.004983631428331137,-0.007494104560464621
1772709356753620700,2.287620849609375,-0.002028142102062702,0.006833216175436974,-0.0049980743788182735
1772709356763646000,2.29764599609375,-0.0012936422135680914,0.004066457971930504,-0.003739730454981327
1772709356773671000,2.3076708984375,0.00038314005360007286,0.000756705179810524,-0.004503612406551838
1772709356783696000,2.31769580078125,0.0015277666971087456,0.0024358276277780533,-0.001413280377164483
1772709356793721000,2.32772119140625,-0.000519641675055027,0.004870752803981304,0.0002647137735038996
1772709356803745800,2.337745849609375,0.0012108806986361742,0.0005540349520742893,-0.0030040498822927475
1772709356813770800,2.347770751953125,-0.0007842341437935829,-0.0006939652375876904,-0.004270943813025951
1772709356823795700,2.357795654296875,-0.00040127173997461796,0.005243285559117794,-0.0009707547724246979
1772709356833821000,2.367821044921875,-0.0009890615474432707,0.004922644700855017,0.0010863342322409153
1772709356843844900,2.377844970703125,-0.00027373642660677433,0.0009385556913912296,0.004756436683237553
1772709356853869800,2.387869873046875,-0.0003435492981225252,0.0027626175433397293,0.004948061890900135
1772709356863895000,2.39789501953125,-0.0005597979761660099,0.008283883333206177,0.0033746666740626097
1772709356873919700,2.407919677734375,0.0017136053647845984,0.004897866863757372,0.0019857597071677446
1772709356883944700,2.41794482421875,0.0023953744675964117,0.001359590794891119,0.0016350212972611189
1772709356893969700,2.4279697265625,0.0017717101145535707,-0.0021474421955645084,-0.0013360083103179932
1772709356903995000,2.437994873046875,0.000620691804215312,-0.004922722466289997,-0.0038819904439151287
1772709356914019800,2.448019775390625,-0.0005458267405629158,-0.0022636093199253082,-0.007180268410593271
1772709356924044800,2.458044921875,-0.0001727177295833826,-0.001284365076571703,-0.0033189509995281696
1772709356934069800,2.46806982421875,-0.002312571508809924,0.00037135230377316475,0.0037389984354376793
1772709356944095000,2.478094970703125,-0.001357029308564961,-0.0034183261450380087,0.003137124003842473
1772709356954120000,2.488119873046875,-0.0027706054970622063,-0.004617816768586636,0.0018883044831454754
1772709356964145000,2.498144775390625,-0.0050396183505654335,-0.0044311294332146645,-0.0006584764923900366
1772709356974169900,2.508169921875,-0.002087341621518135,-0.0011898730881512165,-0.002045316155999899
1772709356984193800,2.51819384765625,-0.0035816412419080734,-0.002073775976896286,-0.001492177601903677
1772709356994218800,2.52821875,-0.002217080444097519,-0.0015866206958889961,-0.003411108162254095
1772709357004244000,2.538243896484375,-0.0008319704793393612,0.0010296683758497238,-0.0019128136336803436
1772709357014269000,2.54826904296875,0.00037287897430360317,0.002143369521945715,-0.000948586966842413
1772709357024294000,2.5582939453125,0.000267683994024992,-0.0016332590021193027,-0.0002364576794207096
1772709357034318800,2.56831884765625,-0.000007545808330178261,-0.004874815233051777,-0.003043934004381299
1772709357044344000,2.578343994140625,-0.0007303275633603334,-0.002441218588501215,-0.00038583273999392986
1772709357054368800,2.58836865234375,-0.0022875582799315453,0.00020378315821290016,0.002262792084366083
1772709357064393700,2.598393798828125,-0.0004936531186103821,-0.003516919445246458,0.0021032686345279217
1772709357074418700,2.608418701171875,-0.004849052522331476,-0.008169958367943764,0.0003747777082026005
1772709357084444000,2.61844384765625,-0.002638628939166665,-0.005903608165681362,-0.001020984724164009
1772709357094468900,2.62846875,-0.0016341744922101498,-0.0008305427618324757,-0.0013901744969189167
1772709357104493800,2.638493896484375,0.0005347039550542831,0.0042100222781300545,0.0011606012703850865
1772709357114518000,2.64851806640625,0.0022586332634091377,0.0025601577945053577,0.002120769815519452
1772709357124543000,2.65854296875,0.004356671124696732,-0.0002761082723736763,0.006063046865165234
1772709357134567700,2.668567626953125,0.0037010859232395887,-0.0021730586886405945,0.009598774835467339
1772709357144592600,2.678592529296875,0.0037359732668846846,-0.0012779701501131058,0.010422490537166595
1772709357154617900,2.688617919921875,0.006757928989827633,-0.0004628133028745651,0.013539021834731102
1772709357164642800,2.698642822265625,0.007195752114057541,0.002341761253774166,0.01238027960062027
1772709357174667800,2.708667724609375,0.008877200074493885,0.004479164723306894,0.013231538236141205
1772709357184692700,2.718692626953125,0.00830062571913004,0.006369476672261953,0.014401464723050594
1772709357194718000,2.728718017578125,0.005484383553266525,0.0015316014178097248,0.012260462157428265
1772709357204743000,2.738742919921875,0.006017016246914864,-0.005659465678036213,0.01238403283059597
1772709357214767900,2.748767822265625,0.005264481995254755,-0.003470031311735511,0.010618511587381363
1772709357224792800,2.758792724609375,0.003947016783058643,0.00020939204841852188,0.00858838390558958
1772709357234817800,2.76881787109375,0.004125383682549,0.007172263693064451,0.004783959593623877
1772709357244842800,2.7788427734375,0.005379732698202133,0.005449197720736265,0.0027929802890866995
1772709357254866200,2.7888662109375,0.004633206874132156,0.007134895771741867,0.007770169526338577
1772709357264891100,2.79889111328125,0.0051208315417170525,0.00209619477391243,0.013245362788438797
1772709357274916000,2.808916015625,0.005427757278084755,-0.002449185587465763,0.013039075769484043
1772709357284941300,2.81894140625,0.004282597452402115,-0.003393542254343629,0.010065123438835144
1772709357294966000,2.828966064453125,0.0035550673492252827,0.0018980661407113075,0.00946066901087761
1772709357304991000,2.838990966796875,0.004792105872184038,0.0069772470742464066,0.013298017904162407
1772709357315016000,2.849015869140625,0.006244114134460688,0.006976737640798092,0.014291021972894669
1772709357325041200,2.859041259765625,0.007003381382673979,0.006940252147614956,0.011858757585287094
1772709357335066000,2.869066162109375,0.005999111570417881,-0.0012316880747675896,0.004658862017095089
1772709357345091000,2.879091064453125,0.0036973413079977036,-0.007277329917997122,0.0004281641449779272
1772709357355116000,2.889115966796875,0.0035101512912660837,-0.004353448748588562,0.0022845901548862457
1772709357365141200,2.899141357421875,0.0018496706616133451,-0.002150481566786766,0.0058641452342271805
1772709357375166200,2.909166259765625,-0.0006559840403497219,-0.00042953016236424446,0.0032266017515212297
1772709357385191200,2.919191162109375,0.0019030473195016384,0.0007161619141697884,-0.0024717641063034534
1772709357395215000,2.929215087890625,0.0017489949241280556,-0.0011413795873522758,-0.005541602149605751
1772709357405240000,2.939239990234375,0.002161518670618534,-0.0026167710311710835,-0.00021208357065916061
1772709357415265000,2.94926513671875,-0.0010632425546646118,-0.00175551138818264,0.009445742703974247
1772709357425290000,2.9592900390625,0.00032532960176467896,-0.00043032271787524223,0.015283124521374702
1772709357435315200,2.969315185546875,-0.0002222270704805851,0.002354754600673914,0.007871001027524471
1772709357445340200,2.979340087890625,-0.0019194596679881215,0.0025254632346332073,-0.00038932589814066887
1772709357455365000,2.989365234375,-0.0003088824450969696,-0.0030463626608252525,-0.005559090990573168
1772709357465390000,2.99939013671875,-0.0009123547933995724,-0.009367375634610653,-0.008462201803922653
1772709357475415000,3.0094150390625,-0.0005177762359380722,0.0030208048410713673,-0.007712080143392086
1772709357485440000,3.01943994140625,-0.0037700284738093615,0.005919921677559614,-0.00665427278727293
1772709357495465000,3.02946484375,-0.002573962090536952,-0.0013126377016305923,-0.006956323981285095
1772709357505490200,3.039490234375,-0.0020754183642566204,0.001989948097616434,-0.005801311694085598
1772709357515515100,3.04951513671875,-0.0010247176978737116,-0.001565085258334875,-0.001961983274668455
1772709357525540000,3.0595400390625,-0.0020287293009459972,-0.00012804381549358368,-0.0029164599254727364
1772709357535565000,3.06956494140625,-0.0011658878065645695,0.0017015207558870316,-0.004885310772806406
1772709357545589200,3.07958935546875,-0.0009006368927657604,0.0007909862324595451,0.0006780324038118124
1772709357555614000,3.089614013671875,0.002134803682565689,0.0028735818341374397,0.006243836600333452
1772709357565639000,3.099638916015625,0.00189938023686409,0.005904791876673698,0.00569149712100625
1772709357575664000,3.1096640625,0.0017274231649935246,0.0030983728356659412,0.000518155051395297
1772709357585689000,3.119689208984375,0.001293860375881195,-0.0035683184396475554,-0.006372507661581039
1772709357595714000,3.129714111328125,0.0008210756350308657,-0.003928428050130606,-0.008671769872307777
1772709357605739000,3.139739013671875,-0.0011624465696513653,-0.0004950808361172676,-0.00143516156822443
1772709357615764200,3.14976416015625,0.0008047530427575111,0.0031692292541265488,0.005850654095411301
1772709357625789200,3.1597890625,-0.0025532268919050694,0.0010948926210403442,0.0023291565012186766
1772709357635814100,3.169814208984375,-0.0004763181786984205,-0.007881014607846737,-0.005285962019115686
1772709357645838800,3.1798388671875,-0.0023895329795777798,-0.0021086130291223526,-0.006638847757130861
1772709357655864000,3.189864013671875,-0.0027209592517465353,0.0012532873079180717,0.0011588208144530654
1772709357665889000,3.199888916015625,-0.0013678070390596986,-0.0006868252530694008,0.0030254304874688387
1772709357675914000,3.2099140625,0.0004521971568465233,-0.0004969416186213493,-0.0006265623960644007
1772709357685939200,3.219939208984375,-0.0015359838725998998,0.003628071863204241,-0.004448703955858946
1772709357695963100,3.229963134765625,0.0015309513546526432,0.0037734471261501312,-0.008008653298020363
1772709357705988000,3.239988037109375,0.002184757497161627,-0.00004339497536420822,-0.008742621168494225
1772709357716013300,3.250013427734375,0.001284928061068058,-0.0011467193253338337,-0.003398011438548565
1772709357726038000,3.2600380859375,-0.0000490495003759861,0.002638697624206543,-0.0005079489201307297
1772709357736063000,3.27006298828125,0.00035734171979129314,0.0011912994086742401,-0.0004983216058462858
1772709357746088000,3.280087890625,0.001627669669687748,-0.004508663900196552,-0.0014583913143724203
1772709357756113200,3.290113037109375,-0.0000682855024933815,-0.002623435575515032,-0.0019517876207828522
1772709357766138000,3.30013818359375,0.00030775275081396103,0.0006615733727812767,-0.0001443002838641405
1772709357776163000,3.3101630859375,-0.00036559090949594975,-0.00017568422481417656,-0.0014013478066772223
1772709357786188000,3.32018798828125,-0.00009661167860031128,0.0016344664618372917,-0.0034652978647500277
1772709357796213200,3.330213134765625,0.0010158347431570292,0.0035851681604981422,-0.0033434678334742785
1772709357806238200,3.34023828125,-0.0018918045097962022,0.0006815241649746895,-0.00302175828255713
1772709357816263200,3.35026318359375,-0.001368150464259088,0.0011265883222222328,-0.0076509760692715645
1772709357826287900,3.360287841796875,-0.0008618836291134357,-0.0062740701250731945,-0.0039169578813016415
1772709357836313000,3.37031298828125,-0.00014578341506421566,0.000569427851587534,-0.0010513728484511375
1772709357846337000,3.3803369140625,-0.0004557755310088396,0.008754652924835682,-0.001192520372569561
1772709357856362000,3.390362060546875,0.000691247871145606,-0.004842115566134453,0.00298065273091197
1772709357866387200,3.40038720703125,-0.0029982952401041985,-0.01306276023387909,-0.006505793426185846
1772709357876412200,3.410412109375,-0.0011883194092661142,-0.009180947206914425,-0.013278934173285961
1772709357886437000,3.42043701171875,-0.0036104642786085606,0.00881003774702549,-0.002206043805927038
1772709357896462000,3.430462158203125,-0.0017249463126063347,0.0037202038802206516,0.0020677971187978983
1772709357906487000,3.440487060546875,-0.0013486415846273303,-0.010468585416674614,0.0017314398428425193
1772709357916512000,3.450511962890625,-0.0007748524658381939,-0.01745324581861496,-0.0034148646518588066
1772709357926537000,3.460536865234375,-0.003211644710972905,-0.006463710684329271,-0.009387535974383354
1772709357936562200,3.470562255859375,-0.001207534922286868,0.00556305842474103,0.0001495711039751768
1772709357946587100,3.480587158203125,0.002159499330446124,0.008827827870845795,0.01016705110669136
1772709357956612000,3.490612060546875,0.001759769394993782,0.0022333646193146706,0.0034425840713083744
1772709357966637000,3.500636962890625,0.00003404100425541401,-0.008335123769938946,-0.002052582334727049
1772709357976662300,3.510662353515625,0.001091683516278863,-0.005215536803007126,-0.0025987601839005947
1772709357986687200,3.520687255859375,0.004495203495025635,0.0018295897170901299,0.002458050148561597
1772709357996711000,3.5307109375,0.0038400429766625166,0.0016909283585846424,0.0037716396618634462
1772709358006736100,3.540736083984375,0.002630168804898858,-0.008033338002860546,-0.000850010197609663
1772709358016761000,3.550760986328125,0.0013127387501299381,-0.003739556297659874,-0.004480268340557814
1772709358026786000,3.5607861328125,-0.0010659967083483934,0.0015526777133345604,0.00138561031781137
1772709358036811000,3.57081103515625,-0.0004988003056496382,-0.003533683717250824,0.002389812609180808
1772709358046836200,3.580836181640625,-0.0019161346135661006,-0.005611482076346874,-0.0014017296489328146
1772709358056861200,3.590861083984375,-0.0014512261841446161,-0.0009475811384618282,-0.0003771265037357807
1772709358066886100,3.60088623046875,-0.0019215403590351343,0.0033574188128113747,-0.004126058425754309
1772709358076911000,3.6109111328125,-0.0004251748323440552,0.0011060312390327454,-0.00626335758715868
1772709358086936000,3.62093603515625,0.0003902851603925228,0.002663182094693184,-0.007293468341231346
1772709358096961000,3.6309609375,0.00025414652191102505,0.0014799297787249088,-0.0045261019840836525
1772709358106986000,3.640986083984375,0.002831021323800087,-0.002026654314249754,-0.0028656211216002703
1772709358117011000,3.651010986328125,-0.0017024321714416146,-0.005821356549859047,-0.005557644180953503
1772709358127036200,3.6610361328125,0.00020865234546363354,-0.005986206233501434,-0.0039581493474543095
1772709358137061000,3.67106103515625,-0.0014128978364169598,-0.00027345214039087296,0.000677209347486496
1772709358147085300,3.681085205078125,0.0008965954184532166,0.005100540816783905,0.0032162670977413654
1772709358157110000,3.691110107421875,0.0000781321432441473,0.000850125215947628,0.0038299348670989275
1772709358167135000,3.701135009765625,0.0004339306615293026,-0.00407006498426199,-0.002578695770353079
1772709358177160000,3.711159912109375,0.0005250233225524426,-0.004409371875226498,-0.0053753964602947235
1772709358187185200,3.72118505859375,-0.001675546751357615,0.000011742115020751953,-0.003087740857154131
1772709358197210000,3.731210205078125,-0.00042727030813694,-0.004634119104593992,-0.004115276038646698
1772709358207235000,3.741235107421875,0.0008742166683077812,-0.0010574939660727978,-0.004047099035233259
1772709358217260000,3.751260009765625,0.0016032857820391655,0.00848935917019844,-0.002521997783333063
1772709358227285200,3.76128515625,0.0008243112824857235,0.0043231104500591755,-0.00028227921575307846
1772709358237310200,3.771310302734375,0.0006164310034364462,-0.008693605661392212,-0.002090247580781579
1772709358247335000,3.7813349609375,-0.00200864695943892,-0.003510827664285898,-0.003114233026280999
1772709358257360000,3.79135986328125,-0.000591964228078723,0.005243242252618074,0.00607860554009676
1772709358267385000,3.801385009765625,0.0007382847834378481,0.004858682397753,0.01020490750670433
1772709358277410000,3.81141015625,0.002057701349258423,-0.004351537674665451,0.003353674430400133
1772709358287434000,3.82143408203125,0.0014062924310564995,-0.0010817083530128002,0.0023227648343890905
1772709358297459000,3.831458984375,0.0008693228010088205,0.0029745022766292095,-0.0017594832461327314
1772709358307484000,3.84148388671875,0.0017516284715384245,0.0019451905973255634,-0.002431132597848773
1772709358317508900,3.8515087890625,-0.00013119610957801342,-0.002523863222450018,0.0020293325651437044
1772709358327534000,3.8615341796875,0.0037580844946205616,0.0030056582763791084,0.0005837685894221067
1772709358337559000,3.87155908203125,0.002869592746719718,0.0047958409413695335,0.0038579858373850584
1772709358347584000,3.881583984375,0.0034839839208871126,0.0023963330313563347,-0.001132511766627431
1772709358357609000,3.89160888671875,0.0015541049651801586,-0.008980141952633858,-0.004507218021899462
1772709358367634200,3.90163427734375,0.0015032384544610977,0.002157198265194893,0.001198338344693184
1772709358377659100,3.9116591796875,0.002498364308848977,0.004641168750822544,0.00744954077526927
1772709358387683800,3.921683837890625,0.0009875528048723936,-0.0006169765256345272,0.00348595785908401
1772709358397708800,3.931708740234375,-0.0012085200287401676,-0.004929429851472378,-0.006028387695550919
1772709358407734000,3.941734130859375,-0.0028924366924911737,-0.0008750339038670063,-0.0052451519295573235
1772709358417759000,3.951759033203125,-0.002284170826897025,0.006738144438713789,-0.002178788185119629
1772709358427784000,3.961783935546875,0.00007645529694855213,0.007640956435352564,-0.0009697130881249905
1772709358437808000,3.97180810546875,-0.0008218232542276382,0.0049420795403420925,-0.002643815940245986
1772709358447833000,3.9818330078125,-0.0004159575328230858,0.001297276932746172,-0.006266780197620392
1772709358457858000,3.991858154296875,0.000538866501301527,0.006297827698290348,-0.005427557043731213
1772709358467882800,4.0018828125,0.0009660376235842705,0.005353471264243126,-0.0019505342934280634
1772709358477908000,4.011907958984375,0.0011977017857134342,0.0001669679768383503,-0.0014455358032137156
1772709358487933000,4.021932861328125,-0.0020356420427560806,0.0025406437925994396,-0.005081549286842346
1772709358497958000,4.0319580078125,-0.0022968873381614685,0.004686408676207066,-0.0064764986746013165
1772709358507982800,4.04198291015625,-0.0023144641891121864,0.003185717388987541,-0.005751586053520441
1772709358518008000,4.052008056640625,-0.0027663633227348328,-0.0022114780731499195,-0.003658710280433297
1772709358528033000,4.062032958984375,-0.0020936487708240747,-0.0006471369415521622,-0.002602234249934554
1772709358538058000,4.07205810546875,-0.00020958483219146729,0.004295968916267157,-0.0022025061771273613
1772709358548083000,4.0820830078125,-0.0009568678215146065,0.005283736158162355,-0.002265356946736574
1772709358558108000,4.09210791015625,0.00020351819694042206,-0.0037152983713895082,-0.0034300051629543304
1772709358568132900,4.1021328125,-0.0013927804538980126,-0.006097496021538973,-0.00741515913978219
1772709358578157800,4.11215771484375,-0.0025468054227530956,-0.0031441007740795612,-0.0109139084815979
1772709358588182000,4.12218212890625,-0.0006423788145184517,0.002912726253271103,-0.005199031438678503
1772709358598207000,4.13220703125,0.00024758116342127323,0.005138900130987167,0.0012766113504767418
1772709358608232000,4.14223193359375,0.0005517143290489912,0.0015415018424391747,0.00454297848045826
1772709358618257200,4.152257080078125,0.0007117702625691891,-0.0033722962252795696,-0.00206672097556293
1772709358628282000,4.1622822265625,0.0009125727228820324,-0.007246929220855236,-0.006188496015965939
1772709358638306800,4.172306884765625,0.00008270121179521084,-0.0013264529407024384,-0.0002921929117292166
1772709358648331800,4.182331787109375,0.0027511888183653355,0.007940814830362797,0.0067534660920500755
1772709358658357000,4.19235693359375,0.0001257406547665596,-0.0033809859305620193,0.006757709197700024
1772709358668382000,4.2023818359375,-0.001890272367745638,-0.014154271222651005,0.000029499176889657974
1772709358678407000,4.212406982421875,-0.000553902005776763,-0.003923297859728336,0.001135591184720397
1772709358688431900,4.222431884765625,-0.0017850813455879688,0.005371134728193283,0.004626196343451738
1772709358698457000,4.23245703125,-0.0023823126684874296,-0.0005530510097742081,0.0013364452170208097
1772709358708482000,4.24248193359375,0.0016478491015732288,-0.00898861326277256,-0.0011378978379070759
1772709358718507000,4.252507080078125,0.0011937248054891825,0.002565753646194935,0.0017096413066610694
1772709358728531000,4.262531005859375,0.0027287707198411226,0.009246827103197575,0.000955434050410986
1772709358738556000,4.272555908203125,0.0035505015403032303,-0.00275602750480175,-0.0033386587165296078
1772709358748580900,4.282580810546875,0.0024319738149642944,-0.004681493155658245,-0.0002864096313714981
1772709358758606000,4.292606201171875,0.0015242185909301043,0.007882785052061081,0.009706887416541576
1772709358768631000,4.302631103515625,0.0055309440940618515,-0.0001623588614165783,0.010653108358383179
1772709358778656000,4.312656005859375,0.003510463982820511,-0.001894751563668251,0.0021692155860364437
1772709358788681000,4.322680908203125,0.001302703283727169,-0.004108903929591179,-0.00007130159065127373
1772709358798706200,4.3327060546875,0.0034597546327859163,0.0014671767130494118,0.003580599557608366
1772709358808731100,4.342731201171875,0.002992636291310191,0.004338330589234829,0.00243171164765954
1772709358818755800,4.352755859375,0.001264913473278284,0.0016768397763371468,0.0006903389003127813
1772709358828780800,4.36278076171875,0.0004137670621275902,-0.0037751831114292145,-0.0007160764653235674
1772709358838806000,4.372805908203125,0.0015109071973711252,-0.0007730508223176003,-0.0015034626703709364
1772709358848831000,4.3828310546875,0.0009268762078136206,0.006289918906986713,0.0020193669479340315
1772709358858856000,4.39285595703125,0.00362503994256258,0.007455866318196058,0.005249833222478628
1772709358868880100,4.402880126953125,0.0021155602298676968,0.000011266209185123444,0.00004335353150963783
1772709358878905000,4.412905029296875,0.0008005818817764521,-0.004919053521007299,-0.005875180475413799
1772709358888930000,4.422929931640625,-0.0003717418294399977,-0.0006843614391982555,-0.007330065593123436
1772709358898954800,4.432954833984375,-0.002055658493191004,0.0032563181594014168,-0.003982738126069307
1772709358908980000,4.44297998046875,-0.0015110421227291226,0.0015220679342746735,-0.001106790266931057
1772709358919005000,4.4530048828125,-0.0006303347181528807,-0.0001373477280139923,0.005038453731685877
1772709358929030000,4.46302978515625,-0.001767770852893591,-0.00024334155023097992,0.0032962136901915073
1772709358939054800,4.473054931640625,0.0007149490993469954,-0.000765601173043251,-0.0029704589396715164
1772709358949080000,4.483080078125,0.0011855296324938536,-0.0012843851000070572,-0.008012089878320694
1772709358959105000,4.49310498046875,-0.0022366077173501253,-0.00060285534709692,-0.005782514810562134
1772709358969130000,4.5031298828125,0.0008739645127207041,0.0031316950917243958,0.000637035584077239
1772709358979155000,4.513155029296875,0.0008114404045045376,0.003640352748334408,0.001117875101044774
1772709358989180200,4.52318017578125,-0.00041201571002602577,0.0027045179158449173,-0.003193249925971031
1772709358999203800,4.533203857421875,0.00016440567560493946,0.0011215810663998127,-0.004580131731927395
1772709359009229000,4.54322900390625,0.001240056473761797,0.0002573849633336067,-0.00336892600171268
1772709359019254000,4.55325390625,0.0013881607446819544,0.0022999970242381096,0.00040759844705462456
1772709359029279000,4.563279052734375,0.0011274374555796385,0.00594293512403965,0.0011548814363777637
1772709359039304000,4.573303955078125,0.0007562227547168732,0.0001380392350256443,0.0010168659500777721
1772709359049329200,4.5833291015625,-0.00004245946183800697,-0.003870550775900483,-0.0009719827212393284
1772709359059354000,4.59335400390625,0.000025687506422400475,0.0010264730080962181,0.0024164209607988596
1772709359069378800,4.60337890625,-0.0008933693170547485,0.0022424720227718353,0.004198075737804174
1772709359079403800,4.61340380859375,-0.0014531606575474143,0.0016333782114088535,0.002165244659408927
1772709359089429000,4.623428955078125,-0.00035114469937980175,0.000033084768801927567,0.0018139737658202648
1772709359099454000,4.633453857421875,0.0013245083391666412,0.00460392702370882,0.0002561050932854414
1772709359109479000,4.64347900390625,0.0037040431052446365,0.004214306361973286,-0.0010083636734634638
1772709359119504000,4.65350390625,0.0037687604781240225,0.0025801612064242363,0.00007177377119660378
1772709359129528000,4.663528076171875,0.002484317636117339,-0.0028151366859674454,0.0035549222957342863
1772709359139553000,4.673552978515625,0.0012350340839475393,-0.002167485188692808,0.00393331702798605
1772709359149578000,4.683577880859375,0.0016592757310718298,-0.0005067382007837296,0.004208954516798258
1772709359159603000,4.69360302734375,0.0017724521458148956,0.0016600685194134712,0.004947529640048742
1772709359169628000,4.7036279296875,0.0011447453871369362,-0.002237201202660799,0.0030694683082401752
1772709359179652900,4.71365283203125,0.0006889048963785172,0.0010570897720754147,0.001772277639247477
1772709359189678000,4.723677978515625,-0.0003843491431325674,0.003595880698412657,0.003740353509783745
1772709359199703000,4.733703125,0.0008251683320850134,0.0014091692864894867,0.0005314354784786701
1772709359209728000,4.74372802734375,0.0005655102431774139,-0.0007666335441172123,-0.0043791672214865685
1772709359219753000,4.7537529296875,-0.0008158448617905378,-0.003791128983721137,-0.0036363943945616484
1772709359229778200,4.763778076171875,-0.00041876756586134434,-0.001060856506228447,0.000782855087891221
1772709359239803100,4.77380322265625,0.0011569682974368334,0.007693522609770298,0.00021470501087605953
1772709359249828600,4.78382861328125,0.0006725394632667303,0.007937468588352203,-0.0029094491619616747
1772709359259852300,4.793852294921875,0.0007703048177063465,0.0030877897515892982,-0.006949876435101032
1772709359269877500,4.80387744140625,0.0007066549733281136,0.001514393836259842,-0.002563650021329522
1772709359279902500,4.81390234375,0.0002517898101359606,0.0054150959476828575,-0.00010852213017642498
1772709359289927400,4.823927490234375,-0.00047978037036955357,-0.0014880835078656673,0.0010523498058319092
1772709359299952400,4.833952392578125,0.0005357398185878992,-0.002533617429435253,0.001064246753230691
1772709359309977600,4.8439775390625,0.0014020660892128944,0.0068204691633582115,0.000772364204749465
1772709359320002600,4.85400244140625,0.0016200598329305649,0.009558744728565216,-0.002533695427700877
1772709359330027500,4.864027587890625,-0.000931781018152833,-0.0070252916775643826,-0.002089480170980096
1772709359340052500,4.874052490234375,-0.0008414995390921831,-0.009496942162513733,-0.0005051246844232082
1772709359350077400,4.884077392578125,-0.0011110114865005016,0.00642077112570405,0.006336802616715431
1772709359360102400,4.894102294921875,-0.0008669767994433641,0.014063205569982529,0.006802091374993324
1772709359370127400,4.90412744140625,0.00004116096533834934,-0.005429535638540983,0.002030238974839449
1772709359380151600,4.914151611328125,-0.001504744403064251,-0.010004052892327309,-0.0010823244228959084
1772709359390176500,4.924176513671875,0.0012955693528056145,0.006283573806285858,-0.0013046986423432827
1772709359400201500,4.934201416015625,0.0024827229790389538,0.01148848794400692,0.003927984274923801
1772709359410226700,4.944226806640625,0.003762105479836464,-0.003123743925243616,-0.00016848999075591564
1772709359420251400,4.95425146484375,0.004014268517494202,-0.007336316164582968,-0.003051841864362359
1772709359430276400,4.9642763671875,0.004394035320729017,0.0024723722599446774,0.0030356119386851788
1772709359440301300,4.97430126953125,0.003203710075467825,0.0028339410200715065,0.008176722563803196
1772709359450326500,4.984326416015625,0.0046058641746640205,0.0015439055860042572,0.008558087050914764
1772709359460351500,4.9943515625,0.0050751762464642525,-0.0064023747108876705,0.004600177519023418
1772709359470376400,5.00437646484375,0.0036447930615395308,-0.0051118070259690285,-0.002120309043675661
1772709359480401400,5.0144013671875,0.0027716527692973614,-0.004941845312714577,-0.0032737695146352053
1772709359490426600,5.024426513671875,0.0013061151839792728,0.001520048826932907,0.0037164955865591764
1772709359500451600,5.03445166015625,-0.00038827373646199703,-0.0008377558551728725,0.011143281124532223
1772709359510475500,5.0444755859375,0.0019166921265423298,-0.002073462586849928,0.006098721642047167
1772709359520500500,5.05450048828125,-0.0012639565393328667,0.0015769940800964832,0.0031502139754593372
1772709359530525400,5.064525390625,0.0007326151244342327,0.0002193148247897625,-0.0013465331867337227
1772709359540550400,5.07455029296875,-0.00015142792835831642,0.0010485509410500526,-0.002920530503615737
1772709359550575600,5.08457568359375,0.00011835037730634212,0.001557481475174427,-0.003143170615658164
1772709359560600600,5.0946005859375,-0.002140667522326112,0.0028997575864195824,-0.004484842997044325
1772709359570625500,5.10462548828125,-0.002168364357203245,0.0009937332943081856,-0.006281944457441568
1772709359580650500,5.114650390625,-0.0018550005042925477,-0.00040518585592508316,-0.005163451656699181
1772709359590675500,5.124675537109375,-0.0023663274478167295,-0.0011085267178714275,-0.002905622823163867
1772709359600700400,5.134700439453125,-0.0038016512989997864,0.0023588663898408413,-0.004563203081488609
1772709359610725400,5.144725341796875,-0.000042865751311182976,0.002612931188195944,-0.007021833676844835
1772709359620750300,5.154750244140625,-0.0006361892446875572,0.0021314877085387707,-0.00825752317905426
1772709359630774500,5.1647744140625,0.0003081676550209522,0.00018604891374707222,-0.006673741154372692
1772709359640799500,5.174799560546875,-0.0007341641467064619,0.0008939136750996113,-0.0011735779698938131
1772709359650824400,5.184824462890625,-0.0001200393307954073,0.004370403941720724,0.0025055790320038795
1772709359660849700,5.194849609375,-0.0005554070230573416,0.0010323617607355118,0.0009940669406205416
1772709359670874400,5.204874267578125,-0.0017026966670528054,-0.0034137857146561146,-0.00639513973146677
1772709359680899300,5.2148994140625,-0.001488843117840588,-0.004801233299076557,-0.005013676360249519
1772709359690924300,5.22492431640625,-0.0007309075444936752,0.00027768127620220184,-0.0014791290741413832
1772709359700949500,5.234949462890625,-0.0012376776430755854,0.002629515714943409,0.0056096091866493225
1772709359710974500,5.244974365234375,0.00017832498997449875,-0.0020754914730787277,0.003419692162424326
1772709359720999400,5.25499951171875,-0.0010153348557651043,-0.005637258756905794,-0.003965804353356361
1772709359731024400,5.2650244140625,-0.0008693935815244913,-0.005439119413495064,-0.005676618777215481
1772709359741049600,5.275049560546875,-0.0013015661388635635,-0.0027370532043278217,-0.0020888953004032373
1772709359751073300,5.2850732421875,0.0004840835463255644,0.0006022844463586807,0.0011175505351275206
1772709359761098500,5.295098388671875,0.0014452221803367138,0.0018994510173797607,0.0008058799430727959
1772709359771123500,5.30512353515625,-0.0007809139788150787,-0.003605303354561329,-0.003287664847448468
1772709359789293600,5.32329345703125,0.0007691006176173687,-0.0038710341323167086,-0.000643458915874362
1772709359799318500,5.333318603515625,0.0024884375743567944,-0.0019394434057176113,0.004604300018399954
1772709359809343500,5.343343505859375,-0.00021922658197581768,-0.002848405856639147,0.0054514748044312
1772709359819367400,5.353367431640625,0.0009701412636786699,-0.0023946030996739864,0.005289288237690926
1772709359829392400,5.363392333984375,0.0018692039884626865,-0.0018582101911306381,0.008111543953418732
1772709359839417300,5.373417236328125,0.00044787488877773285,0.001608426682651043,0.011052473448216915
1772709359849442600,5.383442626953125,0.002859305590391159,0.0024915076792240143,0.007905769161880016
1772709359859467500,5.393467529296875,0.001959689427167177,0.0027016308158636093,0.0072311898693442345
1772709359869492500,5.403492431640625,0.004595390520989895,0.005472949240356684,0.003614189103245735
1772709359879517400,5.413517333984375,0.0021713809110224247,0.000048090703785419464,0.0009853828232735395
1772709359889542700,5.423542724609375,0.001390337012708187,-0.004442775156348944,-0.006206037010997534
1772709359899567400,5.4335673828125,0.000470481114462018,-0.0002232627011835575,-0.006314428057521582
1772709359909592300,5.44359228515625,0.00010751979425549507,0.0037067318335175514,0.0024270268622785807
1772709359919617500,5.453617431640625,-0.0003825018648058176,-0.001029966864734888,0.004635053686797619
1772709359929642500,5.463642578125,-0.0002472114283591509,-0.00351013895124197,0.004574375227093697
1772709359939666400,5.47366650390625,0.0006097937002778053,0.0005381321534514427,0.0023961756378412247
1772709359949691600,5.483691650390625,-0.0006607417017221451,0.00043399538844823837,-0.0022213407792150974
1772709359959716600,5.493716552734375,-0.0010128116700798273,-0.00028132926672697067,-0.001264733262360096
1772709359969741600,5.503741455078125,0.0004579629749059677,0.0018661939539015293,-0.00040522171184420586
1772709359979766300,5.513766357421875,0.0010494510643184185,0.004554388578981161,0.00006349454633891582
1772709359989791500,5.52379150390625,0.0023599485866725445,0.004395950119942427,0.0009429862257093191
1772709359999816400,5.53381640625,0.001986573450267315,0.00022810325026512146,0.001709976582787931
1772709360009841400,5.54384130859375,0.0015173545107245445,-0.0015759244561195374,0.0041160788387060165
1772709360019866400,5.553866455078125,0.0028638485819101334,0.0043421522714197636,0.003630052087828517
1772709360029891600,5.5638916015625,0.00174887222237885,0.0036966209299862385,0.002834681887179613
1772709360039916500,5.57391650390625,0.0004332705866545439,0.001505372580140829,0.0004578107036650181
1772709360049940500,5.5839404296875,0.0013955386821180582,-0.0030334466136991978,-0.0024579570163041353
1772709360059965400,5.59396533203125,-0.0004646794404834509,-0.0026092049665749073,-0.0005785641260445118
1772709360069990400,5.603990478515625,-0.00030361837707459927,0.0037823584862053394,0.0019970652647316456
1772709360080015400,5.614015380859375,-0.000650894595310092,0.0018630181439220905,0.0004479044582694769
1772709360090040300,5.624040283203125,-0.0008548269979655743,-0.0030053062364459038,-0.00040957494638860226
1772709360100065500,5.6340654296875,0.0007172371260821819,-0.0036159688606858253,-0.0006971962284296751
1772709360110090500,5.644090576171875,0.001290994929149747,-0.0022230898030102253,0.0012488676002249122
1772709360120115500,5.654115478515625,0.001709110802039504,0.0000698920339345932,0.0032084216363728046
1772709360139539500,5.67353955078125,0.0013700609561055899,-0.005651906132698059,0.0019160532392561436
1772709360149564400,5.683564453125,0.0008433759212493896,-0.0038449314888566732,0.0010844641365110874
1772709360159589600,5.693589599609375,0.000201287679374218,-0.00007629208266735077,0.0030357621144503355
1772709360169614600,5.703614501953125,0.0019819503650069237,0.0034878524020314217,0.0011368304258212447
1772709360179639600,5.7136396484375,-0.0013691054191440344,0.0023975539952516556,0.00210435688495636
1772709360189663500,5.72366357421875,0.0010889635886996984,-0.008760377764701843,-0.004255596548318863
1772709360199688400,5.7336884765625,-0.0016833869740366936,0.0016190260648727417,-0.004926446825265884
1772709360209713400,5.74371337890625,0.0011680761817842722,0.000940193422138691,0.00019973283633589745
1772709360219738400,5.75373828125,-0.0005776258185505867,-0.00008805328980088234,-0.00012250966392457485
1772709360229763600,5.763763671875,-0.0008964561857283115,-0.00165235111489892,-0.0007403339259326458
1772709360239788500,5.77378857421875,-0.0013015230651944876,-0.005530712194740772,-0.004642130807042122
1772709360249813800,5.783813720703125,-0.001431455952115357,-0.002340515609830618,-0.0036059594713151455
1772709360259838700,5.793838623046875,-0.00122026726603508,-0.0023477058857679367,0.0004479044582694769
1772709360269863700,5.80386376953125,0.00041470746509730816,-0.0018510031513869762,-0.00035192910581827164
1772709360279888600,5.813888671875,0.0005436046048998833,0.0009583658538758755,0.0005993521772325039
1772709360289913600,5.82391357421875,0.0019108629785478115,0.004235359374433756,-0.0020587260369211435
1772709360299938600,5.8339384765625,0.0003241514787077904,0.0031900680623948574,-0.0026233165990561247
1772709360309962800,5.843962646484375,-0.00011455989442765713,-0.00045339250937104225,0.0008456418290734291
1772709360319987700,5.85398779296875,0.0010577638167887926,-0.0016704569570720196,0.0010842611081898212
1772709360330012700,5.8640126953125,0.0008839801885187626,0.0003732326440513134,0.000036724377423524857
1772709360340038000,5.874037841796875,-0.0014060722896829247,0.00035112863406538963,-0.00040962151251733303
1772709360350062600,5.8840625,0.0008666431531310081,-0.0001109628938138485,-0.0014741909690201283
1772709360360087600,5.894087646484375,0.0003811491187661886,-0.00010430533438920975,-0.0011985539458692074
1772709360370112800,5.90411279296875,0.0005134693346917629,0.0006291531026363373,-0.002609051065519452
1772709360380137700,5.9141376953125,-0.0016852363478392363,0.00045072101056575775,-0.0035925565753132105
1772709360390162700,5.92416259765625,-0.001666553900577128,0.00032764021307229996,-0.0055396221578121185
1772709360400187600,5.934187744140625,-0.0002899658866226673,-0.0004976736381649971,-0.005947352387011051
1772709360410212900,5.944212890625,-0.001635075663216412,0.00008267862722277641,-0.004714685492217541
1772709360420237800,5.95423779296875,-0.0002643465995788574,0.0009585926309227943,-0.005088592879474163
1772709360430262800,5.9642626953125,-0.002303744899109006,-0.0005791201256215572,-0.004597037099301815
1772709360440286700,5.97428662109375,-0.001744747394695878,0.00066750543192029,-0.0032239111606031656
1772709360450311700,5.984311767578125,-0.0013604318955913186,0.0027450439520180225,-0.004940723069012165
1772709360460336600,5.994336669921875,-0.0014134288066998124,0.0019125393591821194,-0.004110616631805897
1772709360470361600,6.004361572265625,-0.0008994997479021549,0.0015457896515727043,-0.002167145721614361
1772709360480386800,6.01438671875,0.0009087868966162205,0.0021910732612013817,-0.004250803031027317
1772709360490411800,6.024411865234375,-0.0018308772705495358,0.0003237570635974407,-0.003100930480286479
1772709360500436700,6.034436767578125,-0.0007182087283581495,-0.0010094214230775833,-0.003561124438419938
1772709360510461700,6.044461669921875,-0.001085573574528098,-0.00033441511914134026,-0.002921873703598976
1772709360520487000,6.05448681640625,0.0003956765867769718,-0.0000670338049530983,0.0006592788267880678
1772709360530511600,6.06451171875,0.00014237267896533012,-0.0010627866722643375,0.0031430067028850317
1772709360540536600,6.07453662109375,0.00012958957813680172,-0.0005677049048244953,0.0010063524823635817
1772709360550561800,6.084561767578125,0.001833752728998661,-0.0035016201436519623,0.00031245453283190727
1772709360560585700,6.094585693359375,-0.0008845357224345207,-0.001646461896598339,0.00009434157982468605
1772709360570610700,6.104610595703125,0.001056531211361289,-0.0025309445336461067,-0.0004168120212852955
1772709360580636000,6.114635986328125,-0.00045587774366140366,-0.0030566523782908916,-0.0017015209887176752
1772709360590660900,6.124660888671875,-0.0011385483667254448,-0.00129681546241045,-0.00300635420717299
1772709360600685800,6.134685791015625,-0.0029974349308758974,-0.0027184109203517437,-0.004432743415236473
1772709360610710500,6.14471044921875,-0.001955476589500904,-0.0019503324292600155,-0.004750012420117855
1772709360620735700,6.15473583984375,-0.002907290356233716,-0.0014813500456511974,-0.0038456027396023273
1772709360630760700,6.1647607421875,-0.00006330525502562523,-0.0015152147971093655,-0.002869849791750312
1772709360640785700,6.17478564453125,-0.0005860836245119572,-0.0005868370644748211,-0.002717782976105809
1772709360650810600,6.184810546875,-0.0024684485979378223,0.0008435240015387535,-0.0031501941848546267
1772709360660835800,6.1948359375,0.0006873970851302147,0.001279217191040516,-0.0037251703906804323
1772709360670860800,6.20486083984375,-0.0007352759130299091,0.0015522213652729988,-0.0008640959858894348
1772709360680884700,6.214884765625,0.000830396544188261,0.0039442721754312515,-0.0008672918193042278
1772709360690909700,6.22490966796875,-0.00002762279473245144,0.0019247899763286114,0.0006194240413606167
1772709360700934700,6.2349345703125,0.00144057790748775,0.0013772440142929554,0.0024490156210958958
1772709360710959600,6.244959716796875,0.002450681058689952,-0.0027056182734668255,0.0024285498075187206
1772709360720984600,6.254984619140625,0.000829614931717515,-0.0012483363971114159,0.0033305624965578318
1772709360731009800,6.265009765625,0.0013424218632280827,-0.0013332781381905079,0.003798202145844698
1772709360741034800,6.27503466796875,0.0009626550599932671,-0.002291216980665922,0.0044354964047670364
1772709360751059700,6.285059814453125,0.002193131949752569,-0.0013871761038899422,0.004796245135366917
1772709360761084700,6.295084716796875,0.0010591577738523483,-0.002406101208180189,0.001991670113056898
1772709360771110000,6.30510986328125,0.001781046623364091,-0.006240162532776594,0.0009505592752248049
1772709360781134600,6.315134521484375,0.000519240740686655,-0.004388466477394104,-0.00019140425138175488
1772709360791158800,6.32515869140625,0.0002399494405835867,-0.0033578132279217243,0.003316170070320368
1772709360801183700,6.335183837890625,0.0018106817733496428,0.002264919225126505,0.0020658159628510475
1772709360811208700,6.345208740234375,0.001276036724448204,0.0026486371643841267,0.001339542679488659
1772709360821233700,6.355233642578125,0.0018667257390916348,-0.000019317492842674255,-0.00023118965327739716
1772709360831259000,6.3652587890625,0.0022609345614910126,-0.0009910520166158676,0.0010143250692635775
1772709360841283800,6.375283935546875,0.0030819871462881565,0.0031080851331353188,0.0030447191093117
1772709360851308800,6.385308837890625,0.0015980442985892296,0.0050980024971067905,0.003858112031593919
1772709360861333500,6.39533349609375,0.0016771401278674603,0.0013986057601869106,0.0025246671866625547
1772709360871358700,6.405358642578125,0.0013226419687271118,-0.00007710792124271393,-0.0002951056230813265
1772709360881383700,6.4153837890625,0.0003865407779812813,0.0019053495489060879,-0.00004103989340364933
1772709360891408600,6.42540869140625,0.00109658925794065,0.002234825398772955,0.0015337163349613547
1772709360901433600,6.43543359375,0.00006807618774473667,0.0030457577668130398,0.0007669923361390829
1772709360911457800,6.445457763671875,0.0003232969902455807,-0.0011013397015631199,-0.0029373785946518183
1772709360921482800,6.455482666015625,-0.0002476847730576992,0.0001335684210062027,0.000020328210666775703
1772709360931507700,6.4655078125,-0.0007371888495981693,-0.00042595528066158295,0.0024178330786526203
1772709360941532700,6.47553271484375,0.0016199753154069185,0.0005024224519729614,0.0008116806857287884
1772709360951557600,6.4855576171875,0.0007903659716248512,0.0004915464669466019,0.0010197039227932692
1772709360961582600,6.49558251953125,0.001905165147036314,0.0006167152896523476,0.0016396879218518734
1772709360971607800,6.50560791015625,0.002605983056128025,0.0015889457426965237,0.002529860008507967
1772709360981632800,6.5156328125,0.0020603016018867493,0.0004334007389843464,0.003243853338062763
1772709360991657700,6.52565771484375,0.0011969308834522963,0.00018786033615469933,-0.00011672615073621273
1772709361001682700,6.5356826171875,0.0014651112724095583,-0.002451598644256592,0.002526993863284588
1772709361011708000,6.5457080078125,0.0022976151667535305,-0.0007279319688677788,0.0019123429665341973
1772709361021732900,6.55573291015625,0.0017982725985348225,0.0005045789293944836,0.0016207267763093114
1772709361031756500,6.565756591796875,0.0013764705508947372,0.0032444261014461517,0.0002896899823099375
1772709361041781800,6.57578173828125,0.0002859060186892748,-0.00042221415787935257,0.0017008990980684757
1772709361051806700,6.585806640625,0.001082786824554205,0.0009048953652381897,0.0007967751007527113
1772709361061831700,6.595831787109375,0.00011605932377278805,0.0014148904010653496,-0.0006469243671745062
1772709361071856600,6.605856689453125,-0.0002503329887986183,0.0010886038653552532,-0.0017757299356162548
1772709361081881900,6.6158818359375,0.000003732508048415184,0.0021304325200617313,-0.002883871551603079
1772709361091906800,6.62590673828125,0.0012054967228323221,0.002696860581636429,-0.003011946799233556
1772709361101931800,6.635931884765625,0.0013772703241556883,0.00291550625115633,-0.0009176370222121477
1772709361111956700,6.645956787109375,-0.0010620038956403732,0.002256876789033413,-0.0005922394338995218
1772709361121981700,6.655981689453125,0.00013082614168524742,0.0011593876406550407,-0.0011485738214105368
1772709361132006700,6.666006591796875,-0.0000769647303968668,0.0007216171361505985,-0.0009084022603929043
1772709361142031600,6.676031494140625,-0.00011185207404196262,0.0001540975645184517,-0.0013781837187707424
1772709361152055800,6.686055908203125,0.0003022493328899145,0.0003881789743900299,-0.0008880870882421732
1772709361162080800,6.696080810546875,0.0002354038879275322,0.000382852740585804,-0.0011794369202107191
1772709361172105700,6.706105712890625,-0.001010702457278967,0.0014147823676466942,-0.0005108101759105921
1772709361182130700,6.716130615234375,-0.00001547904685139656,0.002064061351120472,-0.001194443553686142
1772709361192156000,6.726156005859375,0.00018708058632910252,0.0012558568269014359,-0.00027171545661985874
1772709361202180600,6.7361806640625,0.001554880291223526,0.0030953017994761467,0.000748008955270052
1772709361212205600,6.74620556640625,0.0027015774976462126,0.0031807636842131615,0.0006356458179652691
1772709361222230800,6.756230712890625,0.0014448317233473063,-0.00042169447988271713,0.0009807914029806852
1772709361232255700,6.766255859375,0.0012438546400517225,-0.0020263884216547012,-0.0010361818131059408
1772709361242280700,6.77628076171875,0.0019882081542164087,-0.0011193160898983479,0.0015034087700769305
1772709361252305000,6.786304931640625,0.0004278854466974735,0.0016462383791804314,0.0009558217134326696
1772709361262329900,6.796329833984375,0.0016121931839734316,-0.00027816183865070343,0.0033803635742515326
1772709361272354800,6.806354736328125,-0.00034118653275072575,0.0012297295033931732,0.0008887415751814842
1772709361282379800,6.8163798828125,0.00025402987375855446,0.0012033646926283836,-0.001457237172871828
1772709361292405000,6.826405029296875,-0.0003361743874847889,-0.0023971698246896267,-0.0024879751726984978
1772709361302430000,6.836429931640625,-0.0008341856300830841,-0.0013345684856176376,-0.0025692018680274487
1772709361312455000,6.846454833984375,-0.0007901880890130997,0.0003800508566200733,-0.0006647021509706974
1772709361322479900,6.85647998046875,0.001960590947419405,0.0031806305050849915,0.0004783265758305788
1772709361332504800,6.8665048828125,-0.0010326153133064508,0.0034021292813122272,-0.003682333044707775
1772709361342529800,6.87652978515625,-0.00032235030084848404,0.0003631957806646824,-0.0036338637582957745
1772709361352554800,6.8865546875,-0.0009484381880611181,0.0010305149480700493,-0.0023558076936751604
1772709361362579000,6.896578857421875,0.002532579470425844,0.002937604673206806,0.002493276260793209
1772709361372604000,6.90660400390625,0.0009067021310329437,0.0009249858558177948,0.0021354611963033676
1772709361382628900,6.91662890625,0.000459024915471673,-0.001573858316987753,0.0005434234626591206
1772709361392653800,6.92665380859375,0.00014300155453383923,-0.0018321378156542778,0.0014692770782858133
1772709361402678800,6.9366787109375,0.002552896039560437,0.0015391581691801548,0.0029819526243954897
1772709361412703700,6.946703857421875,0.0015343402046710253,0.0017949407920241356,0.0013052176218479872
1772709361422728700,6.956728759765625,0.0006903840694576502,-0.0020117810927331448,0.0005091987550258636
1772709361432754000,6.96675390625,0.0005490723997354507,0.00010147225111722946,-0.0016580098308622837
1772709361442779000,6.97677880859375,0.0007687832694500685,0.0010905698873102665,-0.001036960631608963
1772709361452803800,6.986803955078125,-0.00041605252772569656,0.0010040677152574062,0.0005151149816811085
1772709361462828800,6.996828857421875,0.0010790461674332619,-0.00017358176410198212,0.0003313568886369467
1772709361472854000,7.00685400390625,0.0003095800057053566,0.00019987579435110092,-0.0008063754066824913
1772709361482877700,7.016877685546875,0.0002437999937683344,0.000894427765160799,-0.0024048045743256807
1772709361492902700,7.026902587890625,0.0010894020088016987,-0.00021944008767604828,0.00015886384062469006
1772709361502928000,7.036927978515625,-0.00044324714690446854,0.0012596799060702324,-0.00007096678018569946
1772709361512952800,7.046952880859375,-0.00004758918657898903,0.0011980975978076458,-0.0004429211840033531
1772709361522977800,7.056977783203125,-0.0003069811500608921,0.000350946094840765,0.00021461350843310356
1772709361533002800,7.067002685546875,0.0000809181947261095,-0.0009064888581633568,-0.0012989495880901814
1772709361543028000,7.077028076171875,0.0009706802666187286,-0.0014649536460638046,-0.001113060861825943
1772709361553053000,7.087052978515625,0.00041823554784059525,0.00018607685342431068,0.0013638840755447745
1772709361563078000,7.097077880859375,-0.0002603377215564251,0.0007165786810219288,0.003004657570272684
1772709361573102800,7.107102783203125,0.0026424648240208626,0.000025502871721982956,0.002646574517711997
1772709361583127800,7.1171279296875,0.002332739531993866,-0.0012320419773459435,0.001330972881987691
1772709361593151700,7.12715185546875,0.0008818123023957014,0.0009383647702634335,-0.0005182116292417049
1772709361603177000,7.137177001953125,0.002050940180197358,0.0010475539602339268,0.0008360059000551701
1772709361613202000,7.147201904296875,0.0002851837780326605,0.0015112296678125858,0.001138250227086246
1772709361623227000,7.157226806640625,-0.00020110933110117912,-0.0006291531026363373,-0.00035871262662112713
1772709361633251800,7.167251953125,-0.0011997029650956392,0.00010193465277552605,0.0008011441677808762
1772709361643277000,7.177277099609375,0.00017315661534667015,-0.00039394572377204895,-0.0010508180130273104
1772709361653302000,7.187302001953125,0.0005341670475900173,-0.0009146924130618572,0.006376632489264011
1772709361663326700,7.19732666015625,0.0018705413676798344,0.0010182294063270092,0.01401377934962511
1772709361673351700,7.2073515625,0.00018748734146356583,0.001981224399060011,0.00967384036630392
1772709361683377000,7.217376953125,-0.000495879678055644,-0.00390489399433136,0.009157453663647175
1772709361693401900,7.22740185546875,0.0017158898990601301,-0.0024756710045039654,0.004181621130555868
1772709361703425800,7.23742578125,-0.0004836150910705328,0.0029625040479004383,0.002146166982129216
1772709361713451000,7.247450927734375,-0.002148330444470048,0.002986229956150055,0.008064341731369495
1772709361723476000,7.25747607421875,0.000535337021574378,-0.0017169127240777016,0.017290862277150154
1772709361733501000,7.2675009765625,0.0009993354324251413,-0.0042092809453606606,0.026545753702521324
1772709361743525600,7.277525634765625,0.0021000199485570192,0.0006384709849953651,0.013291999697685242
1772709361753550800,7.28755078125,0.0005389389116317034,0.005678156390786171,-0.012047074735164642
1772709361763575800,7.297575927734375,0.002513140207156539,0.006168977357447147,-0.03111237660050392
1772709361773600800,7.307600830078125,0.001948698190972209,0.005255496129393578,-0.031336136162281036
1772709361783625700,7.317625732421875,0.003295192262157798,0.004018458537757397,-0.017307402566075325
1772709361793651000,7.32765087890625,-0.00043172435835003853,0.004025658126920462,-0.006267876364290714
1772709361803676000,7.337676025390625,0.0003009112551808357,-0.00040078163146972656,0.007775770500302315
