time,seconds_elapsed,z,y,x
1772708543923377700,0.056377685546875,0.1765653581738472,-0.31800708825737234,-0.16750249240472911
1772708543933403600,0.066403564453125,0.1359101071804762,-0.2946571923300624,-0.17025168151501566
1772708543943428900,0.076428955078125,0.153111417350173,-0.23418401892781257,-0.15863591639269142
1772708543953454800,0.086454833984375,0.26816169185340405,-0.16782850948870182,-0.2272410313894972
1772708543963480800,0.096480712890625,0.41384266694188115,-0.19863018272668123,-0.34390549962371586
1772708543973505800,0.106505859375,0.4807721768766641,-0.23564357008635997,-0.3799837615577504
1772708543983531800,0.11653173828125,0.5706921017765999,-0.1951344495654106,-0.3423303227288648
1772708543993556700,0.126556640625,0.6182768597722054,-0.20314649110734462,-0.29217465479932725
1772708544003582700,0.136582763671875,0.5188257209390401,-0.25493279244601724,-0.2280395978886634
1772708544013609000,0.14660888671875,0.40931554490625854,-0.2669564077168703,-0.20810323673188685
1772708544023633700,0.156633544921875,0.3973497973024845,-0.31668840687423944,-0.21689221746306867
1772708544033660000,0.166659912109375,0.4596557390898466,-0.3592500760108232,-0.251265977034159
1772708544043686000,0.176685791015625,0.5943336741268634,-0.4322723498627543,-0.2633004790252074
1772708544053710800,0.1867109375,0.686682287478447,-0.5272954431205987,-0.2501617786519229
1772708544063736800,0.19673681640625,0.6531932748526335,-0.574936607478559,-0.18331607454307378
1772708544073762000,0.206761962890625,0.48716801539361476,-0.5528840578854084,-0.19163111761957405
1772708544083788000,0.2167880859375,0.12492577182948589,-0.47843642740547654,-0.2767322805935517
1772708544093814000,0.22681396484375,-0.016493454161286353,-0.38101094918102024,-0.32976606124266983
1772708544103839000,0.2368388671875,0.08737374754846096,-0.4096238802030682,-0.26011523658521474
1772708544113865000,0.246864990234375,0.3083820585608482,-0.5278747043132782,0.029963468848168848
1772708544123890000,0.256889892578125,0.5608119282752275,-0.6726344729036092,0.247873740779981
1772708544133916000,0.266916015625,0.7488777546286582,-0.6616586131200194,0.22487565396502612
1772708544143942000,0.27694189453125,0.9737497553318738,-0.7014405884101986,0.2602779528662562
1772708544153966800,0.286966796875,1.1215274104386568,-0.844761848630011,0.32986988694332536
1772708544163992800,0.296992919921875,1.0787035832345484,-1.0132324554145336,0.32885954085700214
1772708544174018800,0.307018798828125,0.9507406356662511,-0.9726654672265053,0.15105521547272802
1772708544184043800,0.317043701171875,0.7893231622636318,-0.8705795959755778,0.09994747098274528
1772708544194069800,0.32706982421875,0.5824813237696885,-0.7572440164357424,0.19588658310696483
1772708544204095000,0.337094970703125,0.32599311857521535,-0.6273430865421891,0.1120424709893763
1772708544214121000,0.347120849609375,-0.08053367239534855,-0.4735504089295864,-0.1256421034052968
1772708544224147000,0.35714697265625,-0.3644190030813217,-0.2841843136325478,-0.16465937793329358
1772708544234172000,0.367171875,-0.6161328334808349,-0.124513391636312,0.03628068917095661
1772708544244198000,0.377197998046875,-0.8268903841137886,-0.09659604166299104,0.14465075525790452
1772708544254222800,0.387222900390625,-0.8782382940351963,-0.1017237599402666,0.4016488096706569
1772708544264248800,0.397248779296875,-0.8729279126673937,-0.04649433241039514,0.34278219468221066
1772708544274274800,0.40727490234375,-0.6391401995807886,-0.05375497106313705,0.040015053393691775
1772708544284299800,0.4172998046875,-0.0030640637457370755,0.05576192697137594,-0.3805773800693452
1772708544294325800,0.42732568359375,0.7358025844782591,0.1267304831638932,-0.6216527659460902
1772708544304351700,0.437351806640625,1.0740431902080774,0.09663169749826192,-0.4777434767052531
1772708544314376700,0.447376708984375,1.029027990439534,-0.09009908085912466,-0.44740810580477114
1772708544324402700,0.457402587890625,0.827275584039092,-0.29045681803077456,-0.5920091767020523
1772708544334428000,0.467427978515625,0.7764110737204551,-0.2969195843040943,-0.6853536692231893
1772708544344454000,0.477453857421875,0.9165992966115474,-0.2130208193898201,-0.7424336930558085
1772708544354479900,0.48747998046875,1.1451187139064072,0.10985504394769668,-0.9095344727918505
1772708544364504800,0.4975048828125,1.2117407653272152,0.4620072706520557,-0.6674120620802044
1772708544374530800,0.50753076171875,0.768757344096899,0.49281917302310463,-0.3573579786539078
1772708544384555800,0.5175556640625,0.6265384921610355,0.48114510184228415,-0.3298189604736864
1772708544394581800,0.527581787109375,0.9771744690835475,1.0423282015174626,-1.0727622104868293
1772708544404607700,0.537607666015625,0.6730629274487495,0.8870131366431713,-0.8391460545748471
1772708544414632700,0.5476328125,0.8773422219783067,0.9601026305124163,-0.8359975274160504
1772708544424658700,0.55765869140625,1.7097820569127797,1.3275506260260939,-1.1823396065369247
1772708544434684700,0.5676845703125,2.7260259691029787,1.2806933055222034,-1.0810542380139232
1772708544444710400,0.57771044921875,2.942315434899926,0.8096896584659814,-0.33927170234322546
1772708544454736400,0.587736328125,2.876388964527845,0.3816460322141647,0.4084551286846399
1772708544464761600,0.59776171875,3.1658243305563927,0.36715135065466165,0.6985247009634972
1772708544474787600,0.60778759765625,3.5441818426191807,0.6392983127519488,0.8493743108615278
1772708544484813600,0.6178134765625,3.6363077531307932,0.9068655458435416,1.0394485544279217
1772708544494838500,0.627838623046875,3.6316374232321977,1.3416694600105286,1.100693004463613
1772708544504864500,0.637864501953125,3.6769840469121933,2.0807395218521356,0.686570351536572
1772708544514889500,0.647889404296875,2.9087592022567987,3.1740038376197215,-0.13841536799967288
1772708544524915500,0.65791552734375,3.0389976935416456,2.101578604002297,0.04205810352861881
1772708544534941400,0.66794140625,2.2737959960997105,1.177782966145873,0.010226210460066795
1772708544544966400,0.67796630859375,1.6411282074034212,1.3950401079311967,-1.0283867699265479
1772708544554992400,0.687992431640625,1.3187830899417399,2.5748800066068767,-2.400517711435258
1772708544565018400,0.698018310546875,0.5098170695751905,3.6262355641886588,-2.9752172952875493
1772708544575043300,0.708043212890625,0.46551440199017524,4.1016877150863404,-3.115955261015892
1772708544585069300,0.7180693359375,1.04822661190629,4.088628034766018,-2.971086771354079
1772708544595094500,0.728094482421875,2.0704396616339684,3.7908620627656577,-2.689584828673303
1772708544605120500,0.73812060546875,3.0219495281070468,3.584131283430755,-2.543105688944459
1772708544615146500,0.748146484375,3.5846506311297412,3.4349753257080913,-2.491436876505613
1772708544625171500,0.75817138671875,3.572329494217038,3.2543101309999822,-2.457656187456846
1772708544635197400,0.768197509765625,2.1491987255722282,2.6351976971864697,-2.2142609803304074
1772708544645222400,0.778222412109375,0.2752361602842808,2.2087223431646823,-2.265271913382411
1772708544655248400,0.788248291015625,-2.5519366456538437,2.2612308212980627,-2.3362898616746066
1772708544665274400,0.7982744140625,-4.183033872908354,2.7027541068479417,-2.047293909976631
1772708544675299300,0.80829931640625,-4.503587430778145,2.7689894970387217,-1.3809597062610088
1772708544685325300,0.8183251953125,-4.67073964844048,2.6865795093774794,-0.12854863850176335
1772708544695350500,0.8283505859375,-3.9462399637430905,1.6777143092617393,1.6300326667629181
1772708544705376500,0.83837646484375,-3.2600504282176495,0.01084814175069332,2.564256029000878
1772708544715402200,0.84840234375,-2.5670705018997193,-1.5249106426864862,2.8798873280376194
1772708544725427500,0.858427490234375,-2.712916312161088,-2.3281124004378912,2.7795243350565433
1772708544735453400,0.868453369140625,-3.5723750869244335,-3.2564728619918224,3.3175933933869004
1772708544745479400,0.8784794921875,-4.757473929041624,-4.3043402851969,4.508623086857796
1772708544755504400,0.88850439453125,-6.028833589029312,-4.896235918521881,5.50355766903758
1772708544765530400,0.8985302734375,-7.555532868698239,-5.210615171670914,5.8177603965759275
1772708544775555300,0.908555419921875,-10.07237598913908,-6.085993984621763,5.239433269876241
1772708544785581300,0.918581298828125,-12.807021902549266,-6.842724206316471,4.12714598146975
1772708544795607300,0.928607177734375,-12.791164992725848,-6.8101634144514795,4.353840813685953
1772708544805632300,0.93863232421875,-12.781738992732762,-6.785569655942917,4.539352863903344
1772708544815658200,0.948658203125,-12.772532772970198,-6.773588126248121,4.716482285700738
1772708544825683500,0.958683349609375,-12.76160221363306,-6.773779849427938,4.920466688936949
1772708544835709400,0.96870947265625,-12.753648039758204,-6.775543936491013,5.181444022244214
1772708544845735400,0.9787353515625,-12.760195853966474,-6.758145057922602,5.502133189192414
1772708544855760400,0.988760498046875,-12.791761205053328,-6.705009680062532,5.861264022737741
1772708544865786400,0.998786376953125,-12.851302942824363,-6.615095015859604,6.231486159139871
1772708544875811300,1.008811279296875,-12.934756302058696,-6.50133595021069,6.595812223240733
1772708544885837300,1.01883740234375,-13.033584925079344,-6.3830936016678805,6.942675111365318
1772708544895863300,1.02886328125,-9.101499743416905,-3.0598525577828286,0.32416298053860665
1772708544905888300,1.03888818359375,-5.901315462619066,-3.468758645105362,-0.8016847773171961
1772708544915914200,1.048914306640625,-2.3812504086464643,-3.764548056335747,-1.9850166097618638
1772708544925940500,1.0589404296875,0.8826824139624834,-3.8270191255569457,-2.846310637128353
1772708544935965200,1.068965087890625,3.549841183555126,-3.3311569315761327,-2.9611592515796423
1772708544945991400,1.078991455078125,5.926239475995302,-2.3483885880082846,-2.4016934772163627
1772708544956016400,1.089016357421875,7.548919003516435,-0.7609703434824943,-1.9756117986872792
1772708544966042600,1.099042724609375,8.388145722112059,1.1249591384530067,-0.8700665318869054
1772708544976068600,1.109068603515625,8.654774213048816,3.0572809537291525,0.34141455959081646
1772708544986093600,1.119093505859375,8.947356644931435,3.658045537686348,1.733204141293466
1772708544996119600,1.12911962890625,9.73359645422697,2.941268556195497,3.576370586301386
1772708545006144500,1.13914453125,10.42812653259635,1.8343167835980652,4.91513000408411
1772708545016170500,1.14917041015625,10.716727201366425,0.9115528268769383,5.7105392082631585
1772708545026196500,1.159196533203125,11.23722056325674,0.6336486164271831,5.648576965346932
1772708545036221400,1.169221435546875,11.878919215148686,1.2307988092795015,4.634098309263587
1772708545046247400,1.179247314453125,12.087667179524898,2.360033140833676,3.1518554264366623
1772708545056272400,1.1892724609375,11.805633029663563,3.4765830551207064,2.1414282377012075
1772708545066298400,1.19929833984375,11.239239501863718,4.200794862787426,1.6833270345769822
1772708545076324400,1.209324462890625,10.533389572578669,4.209767273794115,1.8770339355573058
1772708545086349600,1.219349609375,9.714172791832684,3.640579146839678,2.662119606381655
1772708545096375600,1.22937548828125,9.171116300478577,3.0079233408421278,3.710508130851388
1772708545106400500,1.239400390625,8.771771529966593,2.4671163819804787,4.747888354572654
1772708545116426500,1.249426513671875,7.084342174637317,1.688539070136845,5.843651793679594
1772708545126452500,1.259452392578125,6.860302533105015,1.226620062290132,5.769132267007231
1772708545136477400,1.2694775390625,7.185275660982728,1.1744506068527698,5.397347703593969
1772708545146503400,1.27950341796875,7.258885671594738,0.9449325339093804,4.850539750751853
1772708545156528400,1.2895283203125,7.657644751173257,0.9621922962680458,3.8620121130049228
1772708545166554400,1.299554443359375,7.719177955022454,1.0032005984827876,3.0366715886816382
1772708545176580400,1.309580322265625,7.52496471195519,0.9411030387490987,2.0214980822019277
1772708545186605600,1.31960546875,7.280019645038247,0.9121440707683562,0.8614087397873401
1772708545196631600,1.329631591796875,6.940173942199349,1.0452285991340875,0.07732610852569341
1772708545206657500,1.339657470703125,6.461889490485191,1.4164398927040398,-0.2577266609482467
1772708545216682500,1.3496826171875,6.0528843267023555,1.832119419684261,-0.39361704051494595
1772708545226708500,1.35970849609375,5.821822823709249,2.0217340829148887,-0.6628013534143566
1772708545236733400,1.3697333984375,5.727960298663377,2.170846493756771,-1.180375320726633
1772708545246759400,1.379759521484375,5.758454805648326,2.5728476239964366,-1.7957804244548081
1772708545256785400,1.389785400390625,5.599648976048827,2.9256694205254314,-2.235571771645546
1772708545266810400,1.399810302734375,5.398381722816825,3.0373890893012283,-2.6015552475646135
1772708545276836400,1.40983642578125,4.894432668492198,3.3852178998485205,-3.3225945626750586
1772708545286861300,1.419861328125,3.853327871289849,3.99869408134073,-4.312134007813036
1772708545296887300,1.42988720703125,3.0338427949964997,4.542241863343119,-4.975048173952103
1772708545306913300,1.439913330078125,2.4092472535967824,4.993952780908346,-5.676992327970266
1772708545316938500,1.4499384765625,1.6222142480969428,5.466373309025168,-6.636243017828464
1772708545326964500,1.459964599609375,0.5566191527605057,5.816686045342683,-7.849378452384472
1772708545336989400,1.469989501953125,-1.4811562566339969,5.6369175072133535,-8.719206060948967
1772708545347015400,1.480015380859375,-4.417177559825777,4.722637593460083,-8.005561532264947
1772708545357041400,1.49004150390625,-7.2539751031994815,2.2010674444973466,-5.935526944300532
1772708545367066400,1.50006640625,-9.35356487147212,-2.210574693033099,-3.0148668763697146
1772708545377092400,1.51009228515625,-9.673679453402757,-5.4376925734639165,-0.7729960045799612
1772708545387117300,1.520117431640625,-8.997371260422467,-6.246916367983817,-0.24782237591892478
1772708545397143300,1.530143310546875,-8.505320149162412,-8.20770323024392,0.42311961385309693
1772708545407169300,1.540169189453125,-8.65631267466247,-6.928454862833022,0.8233135485403239
1772708545417194200,1.5501943359375,-11.525331402683257,-5.753050900778174,3.831071031296253
1772708545427220200,1.56022021484375,-15.30039939172864,-7.039308270168304,6.841929841068387
1772708545437245400,1.570245361328125,-15.191289028668402,-7.308034610167145,6.837903069770336
1772708545447271400,1.580271484375,-15.077527040410041,-7.621303271725774,6.8467807882308955
1772708545457297400,1.59029736328125,-14.976401246362924,-7.957697372806072,6.910882965785264
1772708545467322400,1.600322265625,-14.903632947272062,-8.284228836041688,7.053402846494317
1772708545477348400,1.610348388671875,-14.870724364882706,-8.5597636870116,7.273442020213603
1772708545487373300,1.620373291015625,-14.87644215800762,-8.747564140427112,7.52455320854485
1772708545497399300,1.6303994140625,-14.912068767184019,-8.836176489859819,7.771278729137777
1772708545507425300,1.64042529296875,-14.964579875665903,-8.861130898374318,8.003575911405681
1772708545517450200,1.6504501953125,-6.678026396068931,-3.4975001709431406,0.43770577308833597
1772708545527476200,1.660476318359375,-1.801298895615339,-1.9159788755014537,1.8098399294674394
1772708545537501400,1.67050146484375,2.13893861284256,-0.32579788826406,1.9717825957879422
1772708545547527400,1.68052734375,5.228847578454017,1.0202983021475374,1.4566671275436878
1772708545557553400,1.690553466796875,6.8998355020701885,2.4450303685091432,0.5845289039492607
1772708545567578400,1.700578369140625,7.306690209820866,3.216540080054104,0.6695046504452824
1772708545577604400,1.710604248046875,7.0706655314624305,3.440150974780321,1.6007973660588264
1772708545587629300,1.72062939453125,6.812602624297142,3.0049355572029945,3.2186583873823285
1772708545597655300,1.7306552734375,6.916016821542382,2.356939704862982,4.8643829826653
1772708545607681300,1.740681396484375,7.422547124531865,2.4418489619940518,5.719220527368783
1772708545617706200,1.750706298828125,8.195236547380686,2.894877391898632,5.956537583625316
1772708545627732200,1.760732177734375,8.507030460211634,3.457485848201811,5.768799674052
1772708545637757200,1.770757080078125,8.555428288155793,3.8575270765453573,5.532779671868681
1772708545647783200,1.780783203125,8.504677759605645,3.9051276166319844,5.238756393527984
1772708545657809200,1.79080908203125,8.077063172420859,3.7734523705422878,4.3869437496036285
1772708545667834400,1.80083447265625,7.5316972350806,3.561823297771811,3.387140100082755
1772708545677860400,1.8108603515625,7.197627193033695,3.0889909739837047,2.8849375971645115
1772708545687885300,1.82088525390625,7.286325467184185,2.4316402871906755,2.7362653313055634
1772708545697911300,1.830911376953125,7.367114575645327,1.8804075036436319,2.6482944946467875
1772708545707937300,1.840937255859375,7.435840905869006,1.3465377966992556,2.909214544808864
1772708545717962200,1.850962158203125,7.544841963335871,0.9413140511512755,3.2103865258604287
1772708545727988200,1.86098828125,7.64827603432536,0.5940824758447706,3.189545982405543
1772708545738013200,1.87101318359375,7.716904164871573,0.019961422532796858,3.0539480099141594
1772708545748039200,1.8810390625,7.81193222656548,-0.4888324414744973,2.8965502935469147
1772708545758065200,1.891065185546875,8.097692118951677,-0.680490154840052,2.435148003050685
1772708545768090400,1.90109033203125,8.598325765118002,-0.6742553521037101,1.5960435956604777
1772708545778116400,1.911116455078125,9.014046500891446,-0.4445099001452327,0.7202772446967661
1772708545788141300,1.921141357421875,9.117668787929416,0.06205547415763139,0.19941132316701113
1772708545798167300,1.931167236328125,9.075635818842052,0.8636337223604321,0.045130642841756344
1772708545808193300,1.941193359375,8.829967698347568,1.926256231626868,-0.12478285622745752
1772708545818218200,1.95121826171875,8.271049036473036,3.1874636231735347,-0.9802624982267618
1772708545828244200,1.961244140625,7.4706445082247255,4.204387626582384,-2.319042228145152
1772708545838269200,1.971269287109375,6.611385055425763,5.088266556853056,-2.8499095384031534
1772708545848295200,1.981295166015625,6.045756666779518,5.885592992830276,-2.4786551363438365
1772708545858321200,1.991321044921875,5.58863892173469,6.296255860692262,-1.9569255106568335
1772708545868346000,2.00134619140625,5.08736230148971,6.515045911133289,-1.4386336043335497
1772708545878372000,2.0113720703125,4.719903200060129,6.468778665477037,-0.8930133999712765
1772708545888397300,2.021397216796875,4.610508174839616,6.225139420461654,-0.7060166641540825
1772708545898423300,2.03142333984375,4.584260219383239,6.234288941600918,-1.3103808800384402
1772708545908449300,2.04144921875,3.7573359329998492,6.389749552425742,-2.4442973780594763
1772708545918474200,2.05147412109375,1.8856115020275115,5.830982281720638,-3.0701696613967417
1772708545928500200,2.061500244140625,-0.2918243069916963,5.154201795053482,-2.7946637442603706
1772708545938525200,2.071525146484375,-2.8518916521310804,4.6985395095139735,-1.410460964424908
1772708545948551200,2.08155126953125,-5.5998161493092775,3.2455209676057097,1.2009516602873802
1772708545958577400,2.091577392578125,-7.045092114266753,0.16765607553124426,4.926296710264682
1772708545968602000,2.10160205078125,-5.849186046931147,-2.5209055475741624,7.283785719573498
1772708545978628400,2.11162841796875,-1.5942600732445715,-3.9721202549308536,6.653303458222746
1772708545988653000,2.121653076171875,3.342330652019381,-7.532552390605211,4.112302340342104
1772708545998679300,2.13167919921875,2.4258494288295505,-14.542927996277808,0.10465510068442672
1772708546008705300,2.141705322265625,-6.785813401570916,-19.404298353123664,-3.6828932709559794
1772708546018730500,2.15173046875,-6.708602151596546,-19.62243490809202,-3.2277851121678944
1772708546028756500,2.161756591796875,-6.669705726969242,-19.822748221600055,-2.763065952208638
1772708546038781400,2.171781494140625,-6.65642948128879,-20.01660607535839,-2.3299457533448935
1772708546048807400,2.181807373046875,-6.646297378852963,-20.230711767375468,-1.958125826357305
1772708546058833400,2.19183349609375,-6.628748278158903,-20.44605664579868,-1.6914432671457529
1772708546068858400,2.2018583984375,-6.603183044269681,-20.62661078134775,-1.5437774018503725
1772708546078884400,2.21188427734375,-6.572552928206324,-20.764261010193824,-1.4855568296805024
1772708546088909300,2.221909423828125,-6.543436723837256,-20.868397091972827,-1.4688652225986123
1772708546098935300,2.231935302734375,-8.927133356592059,-9.452795645552873,-6.880642725822329
1772708546108961300,2.241961181640625,-3.1016216152369975,-8.574486039847136,-5.302888966220617
1772708546118986500,2.251986572265625,1.041477137646079,-6.742374657338857,-4.181254296015203
1772708546129012200,2.26201220703125,3.2889491904437542,-4.511888226133585,-3.0516710048928855
1772708546139037400,2.272037353515625,4.163966768866777,-1.4079235549017786,-1.8699433927744626
1772708546149063400,2.2820634765625,3.8125878646224733,2.2162765579365193,-0.4552794237017631
1772708546159089400,2.29208935546875,2.8721085107296704,4.244634589035809,1.168584929689765
1772708546169114400,2.3021142578125,1.8038526717513799,4.615627417549491,2.646506442186236
1772708546179140400,2.312140380859375,1.8715636874526738,4.144722262431681,3.8035368354216215
1772708546189165300,2.322165283203125,3.5379525928407904,3.1062013442426917,4.305672118322551
1772708546199191300,2.33219140625,6.057953300529718,1.9239054307170211,4.474166690504551
1772708546209217300,2.34221728515625,8.580764973986149,1.4443964056439698,4.602017409870029
1772708546219242200,2.3522421875,10.420042594861984,1.405586344125867,4.756394317111373
1772708546229268200,2.362268310546875,11.380018091863393,1.2873480872362852,4.856688336509466
1772708546239293400,2.37229345703125,12.15478315194249,2.7638229080557823,5.349332737487554
1772708546249319400,2.3823193359375,11.112166781133412,3.891073080055415,5.429419835159182
1772708546259345400,2.392345458984375,8.781288715374469,3.795576524066925,5.595770673310756
1772708546269370400,2.402370361328125,6.595465017238259,2.9015988091081377,6.128695062229037
1772708546279396400,2.412396240234375,5.18229099446237,2.498576811388135,6.260373230928182
1772708546289421300,2.42242138671875,5.262894809484481,2.5764918257176874,6.092213297528028
1772708546299447300,2.432447265625,6.3966644463807345,2.628006324377656,5.697323168337345
1772708546309473300,2.442473388671875,7.334305946499109,2.4960227429911495,5.202715942853689
1772708546319498200,2.452498291015625,7.9718696905434125,2.01865423707813,4.591881508041918
1772708546329524200,2.462524169921875,8.201260629975796,1.3638473895490169,4.024368328562379
1772708546339549200,2.472549072265625,8.055907571667433,0.7732429650783539,3.6873856139391656
1772708546349575200,2.4825751953125,8.19198309854269,0.5669961698681116,3.5296287088707086
1772708546359601200,2.49260107421875,8.610114987111091,0.7562976754963397,3.3589345808178184
1772708546369626400,2.50262646484375,8.95363324098289,1.0725301552966235,3.087092739146948
1772708546379652400,2.51265234375,8.854988742357492,1.62164141664505,2.560351130516827
1772708546389677300,2.52267724609375,8.292996664386987,2.4616169077813623,1.7937464344091711
1772708546399703300,2.532703369140625,7.591565720587968,3.1903996766254306,0.947524742359668
1772708546409729300,2.542729248046875,6.88000793505013,3.8619937005653977,0.33195568024143574
1772708546419754200,2.552754150390625,6.239254455053806,4.323231448149681,-0.49788580876290794
1772708546429780200,2.5627802734375,6.167038529148697,4.557683470363915,-1.373084588971734
1772708546439805200,2.57280517578125,6.745460932916402,5.116698870611191,-1.7260107226580381
1772708546449831200,2.5828310546875,7.1302452631562945,5.744141033613682,-1.696965976089984
1772708546459856400,2.5928564453125,6.81680299859643,6.31116233792305,-1.352230016991496
1772708546469882400,2.60288232421875,5.614328658786416,6.498440813291072,-0.4758640926994383
1772708546479908400,2.612908447265625,3.6383828058391807,6.265564954352379,0.6737368811875581
1772708546489933300,2.622933349609375,1.11626203725636,6.310561449420452,0.8612057645611464
1772708546499959300,2.632959228515625,-0.9848702842831611,6.204851250192522,-0.3971691800385713
1772708546509984300,2.642984375,-2.263627068784833,5.371610035747289,-2.145146527571976
1772708546520010200,2.65301025390625,-3.700546708807349,4.091239094047248,-3.693741120445728
1772708546530036200,2.6630361328125,-5.897360587513447,1.4199679206997156,-3.699747082862258
1772708546540061200,2.673061279296875,-8.323629703059792,-2.425054186798632,-1.1077299173630772
1772708546550087200,2.683087158203125,-9.618708676809073,-6.38701106737256,4.1379724959105255
1772708546560112000,2.693112060546875,-6.836160025495291,-6.986604269462823,7.627621953353286
1772708546570138000,2.70313818359375,-5.080397138652205,-5.078029824998975,5.8663505322217935
1772708546580164000,2.7131640625,-9.906563495647907,-3.2822099453166125,0.7278424192540347
1772708546590189300,2.723189208984375,-17.499196553206442,1.6407301479965448,-6.10418313678503
1772708546600215300,2.73321533203125,-17.376621143895388,1.37795044144243,-6.116802379861474
1772708546610240300,2.743240234375,-17.266874821019172,1.1593278565227985,-6.199011291992664
1772708546620266200,2.753266357421875,-17.162724710714816,0.9336512614384292,-6.276611249023675
1772708546630292200,2.763292236328125,-17.079949396872518,0.7063023492276668,-6.2767117867887015
1772708546640317200,2.773317138671875,-17.036201440560816,0.532647617803514,-6.198975051635504
1772708546650343200,2.78334326171875,-17.034805602288245,0.43546325485855336,-6.053917761403322
1772708546660368100,2.7933681640625,-17.06345886532068,0.4025920818701386,-5.880311253035068
1772708546670394000,2.80339404296875,-17.10331507489085,0.410448640589416,-5.727118002620339
1772708546680420000,2.813420166015625,-8.670985343137383,-7.572831209501624,-12.146921332526206
1772708546690445300,2.8234453125,-2.6730057420551776,-4.557835153794288,-7.883649555298685
1772708546700471000,2.833470947265625,2.554471132567525,-1.5650921386882661,-4.823095863509178
1772708546710496300,2.843496337890625,6.10936726142466,1.8555366817593573,-2.1060998808190226
1772708546720522200,2.853522216796875,8.103569486552477,4.489286518225073,0.361111778229475
1772708546730548200,2.86354833984375,8.987256109121441,6.50719227502346,2.276374760546535
1772708546740573200,2.8735732421875,8.781423739930986,7.892540133240819,3.722171096116304
1772708546750599200,2.88359912109375,8.185404304674268,7.636814729112387,5.197145449244975
1772708546760624000,2.8936240234375,8.27961812737584,6.497644694477319,6.037997723215818
1772708546770650000,2.903650146484375,9.353108359876275,5.598513250017166,6.008290567216277
1772708546780675000,2.913675048828125,10.836487553256749,5.493422643992305,5.452184040153027
1772708546790701000,2.923701171875,12.21560382360816,6.003335575157403,4.607397349342704
1772708546800727000,2.93372705078125,12.889509631621836,6.225999252161383,3.469086561885476
1772708546810752300,2.943752197265625,13.215451896792649,6.492099919831753,1.9199400342173873
1772708546820778200,2.9537783203125,13.196107729375361,6.598443156266212,-0.2812473468651995
1772708546830803200,2.96380322265625,12.263605930233002,4.814506314340234,-0.9763856567934155
1772708546840829200,2.9738291015625,10.147038139152526,2.669687411287427,-1.6476073402896523
1772708546850855200,2.983855224609375,7.632303973689675,0.6758117877654731,-2.010377699381113
1772708546860880100,2.993880126953125,6.081383275955915,-0.6656725249364972,-1.482027924901992
1772708546870906000,3.003906005859375,5.235304207247495,-1.1318680410586297,-1.0862819825995713
1772708546880931000,3.01393115234375,5.305938416919112,-1.578267700473219,-0.6849997412189841
1772708546890957000,3.02395703125,5.917830544090271,-2.159531319016218,-0.3841611568402499
1772708546900983000,3.033983154296875,6.611646921232342,-2.6028274594575165,-0.2092160202793777
1772708546911008000,3.044008056640625,7.269931966266036,-2.4962048215597865,-0.19779935792572795
1772708546921034000,3.054033935546875,7.757537204033136,-1.7369833675712345,-0.08427680444642902
1772708546931059200,3.06405908203125,8.041927561631798,-0.7134548513308167,0.3485254145093262
1772708546941085200,3.074085205078125,8.450563307580351,0.4058072445243597,0.5988738748397677
1772708546951111200,3.084111083984375,8.810787197059392,1.79711050401479,0.5265114531360566
1772708546961136000,3.09413623046875,8.745677888289093,3.1620231847077607,0.15413053126484155
1772708546971162000,3.104162109375,8.28965319917798,4.058729740108549,-0.02615333597548306
1772708546981187000,3.11418701171875,7.562532518327235,4.6653094400852915,0.06457958580777048
1772708546991213000,3.124213134765625,6.999809787994622,5.03475240880847,0.45504641866348683
1772708547001239000,3.134239013671875,6.958098890468478,5.209220502442121,0.83830624274984
1772708547011264000,3.144263916015625,7.0740791392982,5.194551341098546,0.8799337728414685
1772708547021290000,3.1542900390625,6.8324892280280585,4.9226469555854795,0.5097701616935432
1772708547031315200,3.164315185546875,5.974058627268672,4.231026627182961,0.015904036900773643
1772708547041341200,3.174341064453125,5.4299196013748645,3.523361465169489,-0.47716180435977873
1772708547051366100,3.1843662109375,5.254849450194835,3.4465617186054587,-1.3966953277923166
1772708547061392100,3.19439208984375,5.065007846340537,3.6686090172767636,-2.328090188606083
1772708547071418000,3.204418212890625,4.203734131109714,4.2258077234908935,-3.062539604909718
1772708547081443000,3.214443115234375,2.3194097462832928,4.273378745222091,-2.7358193411037326
1772708547091469000,3.224468994140625,-0.08555120829641819,2.678243642708659,-0.05122375381877645
1772708547101494000,3.234493896484375,-3.22761706212461,-1.4416729720294474,4.483071004711091
1772708547111520000,3.24452001953125,-6.163772220829129,-7.308409288698434,9.046984309375286
1772708547121546200,3.254546142578125,-7.0027218760490415,-11.105282282316685,10.364365715825556
1772708547131571000,3.264571044921875,-6.361605407959223,-11.909748068654537,7.511809462305903
1772708547141597200,3.27459716796875,-8.403450258749723,-14.20321556442976,5.291835657286644
1772708547151622100,3.2846220703125,-13.458230725586414,-14.436686466652153,2.7056097885400057
1772708547161648400,3.2946484375,-13.351962307953833,-14.685942967027424,2.7683117439076304
1772708547171674400,3.30467431640625,-13.263061204707622,-14.910370146572589,2.8341739168718454
1772708547181699300,3.31469921875,-13.19795715663433,-15.08398016207218,2.911895454455912
1772708547191725300,3.324725341796875,-13.150460076922178,-15.216297213196754,3.000969576181471
1772708547201750300,3.334750244140625,-13.114826453483104,-15.319544821703433,3.111798433597386
1772708547211776300,3.3447763671875,-13.095228603565692,-15.379314523011445,3.2552003578379747
1772708547221802200,3.35480224609375,-13.09756084590554,-15.377184525245427,3.411745256768167
1772708547231827200,3.3648271484375,-13.115343170833587,-15.332966613334417,3.556503271792829
1772708547241853200,3.374853271484375,-6.843674638909101,-5.218735349762439,-0.8694513225980103
1772708547251878100,3.384878173828125,0.7971095783561468,-4.469935628806055,-5.816091586580872
1772708547261904100,3.394904052734375,4.946496033206582,-2.5350886789664626,-9.38157749851346
1772708547271930000,3.40493017578125,5.5988610405415296,1.150206976956129,-9.888469036030768
1772708547281955300,3.414955322265625,4.29128557331264,3.576115442496538,-7.681752187469601
1772708547291981300,3.424981201171875,3.2861060759723184,4.700267940741777,-5.108946356788278
1772708547302006300,3.43500634765625,3.203884888881445,5.788254900628328,-3.412795350342989
1772708547312032300,3.4450322265625,3.7292175074964757,5.560882899802923,-2.314489241015911
1772708547322058200,3.455058349609375,4.351832688733935,4.223549423170089,-1.7135965006344018
1772708547332083200,3.465083251953125,5.48891831831038,2.9859257363066076,-1.407686239014566
1772708547342109200,3.475109130859375,7.225439329066872,2.1996434030435976,-0.93072434114106
1772708547352134100,3.485134033203125,9.173113027253747,2.1866693551801144,-0.23886859654746948
1772708547362160000,3.49516015625,10.802831951892376,2.7534689795628187,0.4953214381676167
1772708547372186000,3.50518603515625,11.98900456072092,3.2957050944447515,1.0977066821292043
1772708547382211300,3.51521142578125,12.577089695847034,3.612231296494603,1.6646880928196013
1772708547392237300,3.5252373046875,12.682275578939914,3.999701504817605,1.9553426253795623
1772708547402262300,3.53526220703125,12.472062802708148,4.47100588838607,1.841747810381651
1772708547412288300,3.545288330078125,12.055113986444473,5.185093776923417,1.669282873263955
1772708547422314200,3.555314208984375,10.816730713385343,5.305691164159774,1.3944123314216732
1772708547432339200,3.565339111328125,9.098689946693181,4.4811365295171735,1.018431193101406
1772708547442365200,3.575365234375,7.474165668088197,3.740767952297628,1.0786601094190031
1772708547452389600,3.5853896484375,6.5305486006915565,3.2334552667587992,1.3799173576012254
1772708547462416000,3.595415771484375,6.557138501453399,2.9005758958011865,1.4406696402058004
1772708547472441900,3.60544189453125,6.673089524188637,2.576229375389218,1.7814625607669352
1772708547482466800,3.615466796875,6.757503252887726,1.7823334983825683,2.4255520533181727
1772708547492492800,3.625492919921875,7.180927987167239,0.9697352589935063,2.6831755461528894
1772708547502518000,3.63551806640625,7.871915278363227,0.6594879910826683,2.4999741109654305
1772708547512544000,3.6455439453125,8.349046468389034,0.7045671959981322,2.417459201624989
1772708547522570000,3.655570068359375,8.407433190906048,0.8413160920903087,2.1880634398870167
1772708547532595000,3.665594970703125,8.201153662469983,1.2914917629122733,1.7471053870044648
1772708547542621000,3.675620849609375,7.948183110007643,2.0276690259218215,1.4748010423883795
1772708547552646000,3.68564599609375,7.584193145993352,2.2691084228053686,1.5475716795668004
1772708547562671900,3.695671875,7.154770632603764,2.0311247193336484,1.548434433875978
1772708547572696800,3.70569677734375,6.845822172331809,1.7479262018680572,1.4323254441000521
1772708547582722800,3.715722900390625,6.763380620488524,1.2800877408444882,1.5235791018217801
1772708547592748800,3.725748779296875,6.984711003062128,1.1049690743476153,1.5179387578472494
1772708547602774000,3.73577392578125,7.12930184482634,1.4904793807744978,1.2152245157897472
1772708547612800000,3.745800048828125,6.752714265045523,1.7969544366702437,0.9306447000335901
1772708547622825000,3.755824951171875,6.025260991239548,2.065283740175515,0.5368626051500439
1772708547632851000,3.765850830078125,5.416877748972177,2.678966696286201,-0.5490461602229625
1772708547642877000,3.775876953125,4.550593512102961,3.5600527809679505,-1.8414102489903568
1772708547652902000,3.78590185546875,3.206526927822828,4.480392433151603,-2.877580804660916
1772708547662928000,3.795927978515625,1.2799807733386754,4.611651499655842,-3.7163197397395966
1772708547672952800,3.805952880859375,-1.1436229223906993,3.930665962514281,-4.414689834663272
1772708547682978800,3.815978759765625,-3.216527512833476,3.5199937423020597,-5.466797671917081
1772708547693004800,3.8260048828125,-5.572649325442314,3.2475022045508024,-6.084746614909172
1772708547703029800,3.83602978515625,-11.169101551276444,1.1870683886244893,-4.152964897859096
1772708547713055700,3.8460556640625,-17.865858951300382,-0.839098854432255,-1.1728681599669157
1772708547723081000,3.8560810546875,-17.88406563912034,-0.7654267383694648,-1.0118856439154595
1772708547733107000,3.86610693359375,-17.917607843238113,-0.6667661653921008,-0.7221436961557716
1772708547743133000,3.8761328125,-17.961169921588898,-0.5909595215186476,-0.37375323313772674
1772708547753158000,3.886157958984375,-18.004290101391074,-0.5636169026933611,-0.04514131036624312
1772708547763183900,3.896183837890625,-18.041465693575145,-0.5842215915657579,0.24434885458946226
1772708547773208800,3.906208740234375,-18.086741590106485,-0.6243894974336027,0.5519757108688355
1772708547783234800,3.91623486328125,-18.165481364822387,-0.6248676363393664,0.9192946731753647
1772708547793260800,3.9262607421875,-18.300421750187873,-0.5256088052079081,1.3468746274381875
1772708547803285800,3.93628564453125,-18.498215774351358,-0.3306576032549143,1.8153329739257693
1772708547813311700,3.946311767578125,-18.76331749411225,-0.0807400086224079,2.3243857811301947
1772708547823337000,3.9563369140625,-9.86905121885538,-12.605109337151049,-5.07639667083919
1772708547833363000,3.966363037109375,-6.0243953143209215,-9.89206501469612,-1.7499623838707803
1772708547843388700,3.976388671875,-2.2749609482258557,-7.5638886091113084,1.245458326011896
1772708547853414000,3.986413818359375,1.4441373163163662,-4.984985630598664,2.8608459429591893
1772708547863440000,3.99643994140625,4.125346238571405,-2.103629691313207,3.3115105663418767
1772708547873464800,4.00646484375,5.331912816131115,0.4621007941544056,3.3109932644695044
1772708547883490800,4.01649072265625,5.407400895574688,2.4266814957395195,3.0713679312705993
1772708547893516800,4.026516845703125,5.048434897202253,3.3515348259553313,2.6787966004163026
1772708547903541800,4.036541748046875,4.89519371599257,3.2476571028515693,1.9275100310802458
1772708547913567700,4.046567626953125,5.017970200833678,2.876528080737591,1.235333237838745
1772708547923592700,4.0565927734375,5.4265095006704325,2.566591193950176,1.2427537432283162
1772708547933618700,4.06661865234375,6.153820151135325,2.496918522787094,1.5553624795734882
1772708547943644700,4.076644775390625,6.715692402118444,2.883734358854592,1.8089228146225214
1772708547953670000,4.086669921875,7.0671291740298265,4.123145513656735,2.247080423131585
1772708547963695900,4.09669580078125,7.359134098285436,5.270317068439722,3.300425108703971
1772708547973720800,4.106720947265625,7.691293922796845,6.209259129762649,4.276458883319795
1772708547983746800,4.116746826171875,8.032392256045341,6.623524990552664,5.102062442493438
1772708547993772800,4.126772705078125,8.152379402428865,6.269408770298957,5.601483790260553
1772708548003797800,4.1367978515625,8.30308142054975,5.68722496817112,5.826095678722858
1772708548013823700,4.14682373046875,8.649680104780197,5.413405688947439,6.149219379341602
1772708548023848700,4.1568486328125,8.687472952079773,5.06380782290101,6.460328817039728
1772708548033874700,4.166874755859375,8.59989754447937,4.702280157347023,6.4341808148264885
1772708548043900700,4.176900634765625,8.632070213809609,4.367205029910803,6.116661510086059
1772708548053925600,4.186925537109375,8.559506497380138,3.8596550284847613,5.968246726119518
1772708548063951600,4.19695166015625,8.597331493383646,3.2553935423225164,6.002108663710952
1772708548073976800,4.206976806640625,8.699592428940534,2.6780019429072737,5.896833348768949
1772708548084002800,4.2170029296875,8.717842371380328,2.3610236131757496,5.605273830193281
1772708548094028800,4.22702880859375,8.7240499938488,2.4934803650319575,5.092775558710098
1772708548104053800,4.2370537109375,8.65138866226375,2.748895388036966,4.291110801267624
1772708548114079700,4.247079833984375,8.05223735872209,2.781140245820582,3.4210020376741883
1772708548124104700,4.257104736328125,7.156267008641362,2.7225799203023313,2.56691911073029
1772708548134130700,4.267130615234375,6.276709448701143,2.9637171193689107,1.664953904148936
1772708548144157000,4.277156982421875,5.63185262503922,3.1406770298182964,1.1780044999420642
1772708548154181600,4.287181640625,5.377715951406955,3.224201700723171,0.9900444720506667
1772708548164207900,4.297207763671875,5.27084255361855,3.610946517381072,1.1036854642778635
1772708548174232800,4.30723291015625,5.141565600842237,4.0715144028797745,1.364859781461954
1772708548184258800,4.3172587890625,4.899366617763042,4.179071983540058,1.8491724074244498
1772708548194283800,4.32728369140625,4.777376899385452,4.104726936651766,2.4083275084033606
1772708548204310000,4.33731005859375,4.740920853647589,4.121286734047532,2.5716633826479316
1772708548214336000,4.3473359375,4.898148474144936,4.344757051259279,2.611012519478798
1772708548224361000,4.35736083984375,5.341225418877602,4.6282577665418385,2.795278369027376
1772708548234387000,4.367386962890625,5.897272909229994,4.902726449584961,2.7004662881717083
1772708548244412000,4.377411865234375,6.045982292228937,5.470225308278203,2.4529928718209266
1772708548254438000,4.38743798828125,4.993493931224942,5.746208487537503,1.9815794749200344
1772708548264464000,4.3974638671875,2.0951251900792123,4.758588904546201,1.028502212999761
1772708548274488800,4.40748876953125,-2.715253230676055,1.8633622608184814,0.6487506162300706
1772708548284514800,4.417514892578125,-8.413717385742068,-3.1737168373718854,1.8408184205770493
1772708548294540000,4.4275400390625,-12.815158447253703,-8.44429898648858,3.967306132647395
1772708548304566000,4.43756591796875,-12.704246587729454,-7.932551241111755,2.6759602079465985
1772708548314592000,4.447592041015625,-12.573358108103275,-8.176961470499634,2.6004195215329524
1772708548324617000,4.457616943359375,-12.506049243462085,-8.473408176594972,2.764345762886107
1772708548334643000,4.467642822265625,-12.500365352606773,-8.735271645087003,3.031587709546089
1772708548344668000,4.47766796875,-12.550755815672874,-8.878723838210105,3.300978943194449
1772708548354694000,4.48769384765625,-12.651805621874331,-8.921784396779536,3.58529740460068
1772708548364719900,4.497719970703125,-12.788540489441155,-8.911070695063472,3.883390124337375
1772708548374744800,4.507744873046875,-12.958672599697111,-8.835807072025537,4.176521130013466
1772708548384770800,4.517770751953125,-13.172977029156684,-8.683155088880657,4.469008869349956
1772708548394795800,4.527795654296875,-13.434302737510203,-8.472247900643945,4.765715979947149
1772708548404821800,4.53782177734375,-13.715025220251082,-8.238064466238022,5.035606395289301
1772708548414847700,4.54784765625,-6.038249067628383,-12.869224383962154,-13.224060735183954
1772708548424873000,4.557873046875,-2.037003840500116,-10.560832875299454,-8.476581545934081
1772708548434899000,4.56789892578125,1.5365572413384914,-8.460472707176208,-3.253711872845888
1772708548444924000,4.577923828125,4.40050056579113,-5.798674587833881,0.888188610163331
1772708548454950100,4.5879501953125,6.4863137376457445,-2.7348735846862193,3.5389538788378236
1772708548464976400,4.597976318359375,6.837377584591508,-0.1511085530951619,4.523258053670824
1772708548475001000,4.6080009765625,5.61079522396326,2.051779092566669,4.239371846202015
1772708548485027300,4.61802734375,4.060691103309392,3.35264629432857,3.8840883357346057
1772708548495052000,4.628052001953125,3.4082822568327185,3.9589530225828287,3.559887945795059
1772708548505078300,4.638078369140625,3.8725405212819575,4.269418609419465,2.9204420412659644
1772708548515103000,4.64810302734375,4.579228070434928,4.143985180328786,2.1210528275400398
1772708548525129200,4.658129150390625,5.383616115361452,4.028286671049893,1.8931231928318737
1772708548535155200,4.6681552734375,6.30631255980432,4.5168809198543425,1.918210872337222
1772708548545180400,4.678180419921875,7.312581605947018,5.191415965682268,1.8565756694182753
1772708548555206400,4.688206298828125,8.468321667110919,5.809335098057985,1.9679647910654543
1772708548565231400,4.6982314453125,9.373105438244343,6.553529663306474,2.1661935533843932
1772708548575257300,4.70825732421875,9.884170462054014,6.729312931191921,2.411599954202771
1772708548585283300,4.718283447265625,10.127046321481465,6.425383760386705,2.558595519021153
1772708548595308300,4.728308349609375,9.970383933651446,5.954430382212996,2.731875864174962
1772708548605334300,4.738334228515625,9.70159212720096,5.24685845144093,3.0612814215421675
1772708548615359200,4.748359130859375,9.478549095490575,4.561552420751751,3.1409178528368473
1772708548625385200,4.75838525390625,9.315354091021417,4.007760308110714,2.9697353567451237
1772708548635411200,4.7684111328125,9.417482924631237,3.528654603141546,2.921815083184838
1772708548645436200,4.778436279296875,9.381005836105347,3.3705443545907734,2.8804987379342317
1772708548655462100,4.788462158203125,9.127173698377609,3.149689772835374,2.613264974580705
1772708548665487400,4.7984873046875,8.686043796059488,2.6603046659141776,2.265774456077069
1772708548675513300,4.808513427734375,8.369743803980946,2.360310496470332,1.8434718576952813
1772708548685538300,4.818538330078125,8.537853468498588,2.6239801376014946,1.1817756159786135
1772708548695564300,4.828564208984375,8.703332199990749,3.16806714104712,0.4497960969198495
1772708548705590300,4.83859033203125,8.444545654726028,3.81285499112606,-0.6140661102093756
1772708548715615200,4.848615234375,8.10971690326631,4.290924338784814,-1.7016390824675558
1772708548725641200,4.85864111328125,7.681601965343952,4.881137718111276,-2.051952403306961
1772708548735666200,4.868666259765625,7.236888943842053,5.397597294440865,-2.427972558463365
1772708548745692200,4.878692138671875,6.955467957442998,5.753335562938451,-2.589848150897026
1772708548755718100,4.88871826171875,7.030111987277865,6.045694707459211,-2.3503797618255016
1772708548765743400,4.898743408203125,7.607668714126944,6.239397078394889,-2.0405933894246817
1772708548775769300,4.908769287109375,8.366008709105849,6.386725820690393,-1.6160967881299555
1772708548785794300,4.918794189453125,8.977256693154573,6.583599807399511,-1.1352055149182676
1772708548795820300,4.9288203125,9.14382321988344,6.676455785751342,-0.7286576080944389
1772708548805846300,4.93884619140625,8.667164908066392,6.704747814255953,-0.4415696454422548
1772708548815871200,4.948871337890625,7.945005064493417,6.780337015986442,-0.5423898441389203
1772708548825897200,4.958897216796875,6.911100407928228,6.611297961664199,-1.167885183922574
1772708548835922200,4.968922119140625,6.236342366999387,6.499333962738514,-2.8098040302470326
1772708548845948200,4.9789482421875,5.04590508646369,6.416082848078012,-5.7542076695978635
1772708548855973000,4.98897314453125,1.0149655628174543,5.233472315645217,-8.48833160496056
1772708548865999000,4.9989990234375,-5.421693040299416,1.9436714768081902,-8.351839898499845
1772708548876025000,5.009025146484375,-11.533507694876194,-3.4164641019836064,-5.202794853308797
1772708548886050300,5.01905029296875,-14.761356812191009,-10.099507157170772,-1.4938393587268888
1772708548896076300,5.029076171875,-14.791974068772792,-10.014931515908241,-1.6730851881563662
1772708548906101200,5.039101318359375,-14.816831446653604,-9.955957933413982,-1.7745584804669021
1772708548916127200,5.049127197265625,-14.824440752613544,-9.941348393303155,-1.7649498173832892
1772708548926153200,5.0591533203125,-14.81942789288759,-9.957774627447128,-1.6876880062654613
1772708548936178200,5.06917822265625,-14.806352138215303,-9.99341292706132,-1.5978525447785854
1772708548946204200,5.0792041015625,-14.784205772858858,-10.044368038272857,-1.551110667347908
1772708548956229000,5.08922900390625,-14.750505747830866,-10.117422753089667,-1.5298469300448894
1772708548966255000,5.099255126953125,-14.701847807645796,-10.225853901714085,-1.4994320641674102
1772708548976281000,5.109281005859375,-14.643552270543575,-10.36323992666602,-1.4475127840988338
1772708548986306300,5.119306396484375,-14.579763396722077,-10.524171662378311,-1.3741658083371817
1772708548996332300,5.129332275390625,-14.519271226358413,-10.687744267988204,-1.2955360698670149
1772708549006357200,5.139357177734375,-14.471599959123134,-10.822990942823886,-1.2378554497927428
1772708549016383200,5.14938330078125,-14.43768366099596,-10.924241824555397,-1.194002864062786
1772708549026408200,5.159408203125,-6.9202014137506485,-5.514253250575066,-1.8074828449472784
1772708549036434200,5.16943408203125,-1.9670061751663683,-3.125972212639451,0.250610618397966
1772708549046460200,5.179460205078125,2.098045461440086,-0.5588447198554873,1.9545397845640777
1772708549056485000,5.189485107421875,5.020761292856931,2.3053888197153807,3.010770254705846
1772708549066511000,5.199510986328125,6.51675914479196,4.6712218789994715,3.3512110008284446
1772708549076536000,5.2095361328125,6.855812820470333,6.215563198342919,3.044730099713802
1772708549086562000,5.21956201171875,6.969240462207794,6.750666684865951,2.531625679031014
1772708549096588000,5.229588134765625,6.910427623233199,6.606474487030506,2.2215175273299215
1772708549106613200,5.23961328125,6.390608799603581,5.949327506116032,1.8097399762243032
1772708549116639200,5.24963916015625,5.708132731643318,4.624552482283115,1.5232674055241047
1772708549126664200,5.259664306640625,5.506347592017054,3.438110408863425,1.312226361774653
1772708549136690200,5.269690185546875,6.064397069841623,2.953783169853687,1.2234636440858244
1772708549146716200,5.279716064453125,7.193806757962704,3.4065777910023924,1.1324553394272923
1772708549156741000,5.2897412109375,7.87349524103105,4.223514351856708,0.9290762086078524
1772708549166767000,5.29976708984375,8.188069139969349,4.581560312774777,0.8241390395790338
1772708549176792000,5.3097919921875,8.29569715551734,4.575286639332771,0.5931481176041067
1772708549191203000,5.324203125,8.286654601883887,4.339517397040129,0.4572404215764254
1772708549201228000,5.33422802734375,8.442505673331022,4.06998383231163,0.37364926130659876
1772708549211254000,5.34425390625,8.330994094347954,3.7217055244311688,0.4417220960576087
1772708549221280000,5.354280029296875,8.008554284340143,3.483611054061353,0.7970454270787537
1772708549231305200,5.36430517578125,7.658024105879664,3.2505028476715085,1.353662387882173
1772708549241331200,5.374331298828125,7.455836230671405,2.9288287613391875,1.9307456520006059
1772708549251356200,5.384356201171875,7.278980949640274,2.6950430940791965,2.3683304290577767
1772708549261382100,5.394382080078125,7.035289097654819,2.5933681417167187,2.6766709865644573
1772708549271408400,5.404408447265625,6.6027580968558786,2.638433025845885,2.944398963175714
1772708549281433000,5.41443310546875,6.608029315257072,2.9905083879217504,3.0172984874308106
1772708549291459300,5.424459228515625,7.16768330566883,3.589365676952898,2.798847459685802
1772708549301484000,5.434484130859375,7.858167323517799,4.205303572383523,2.6562121359035373
1772708549311510000,5.444510009765625,8.219089716655015,4.745457328033447,2.3126314843200144
1772708549321535200,5.45453515625,8.592911338853835,5.750594155275821,1.4336808042317628
1772708549331561200,5.464561279296875,9.179738582873345,6.580459755808115,0.7129471940696239
1772708549341587200,5.474587158203125,9.99504958835244,6.831515414559841,-0.24835451003424822
1772708549351612200,5.484612060546875,10.597379521930216,7.175260462924838,-1.1422935734830797
1772708549361638400,5.494638427734375,10.801865152686833,8.063101282563805,-2.0293086098223925
1772708549371663000,5.5046630859375,10.59784129422307,8.759473189407586,-2.760525912337005
1772708549381689300,5.514689453125,10.274550420343875,8.639310101935267,-2.9993524963736533
1772708549391714000,5.524714111328125,9.96430022982359,7.818126989552378,-2.6545561853900552
1772708549401740300,5.534740234375,9.66330711247027,7.077531325578689,-2.0700068231746553
1772708549411766300,5.544766357421875,9.345285118904709,7.331623575547337,-1.5997905271038413
1772708549421791200,5.554791259765625,9.364611166143417,7.518682855206728,-0.891232873230055
1772708549431817200,5.564817138671875,9.525886016204952,7.120188564044237,0.5229525550780818
1772708549441842400,5.574842529296875,9.389760804969072,6.093685708168149,2.5665552458539604
1772708549451868000,5.584867919921875,2.701951266032457,1.5925217051446436,6.056010934290289
1772708549461894000,5.594893798828125,-7.264536244702339,-5.928584577816724,7.9785297329545015
1772708549471918800,5.6049189453125,-12.400956883871554,-7.495549816900492,6.818926566621661
1772708549481944800,5.61494482421875,-14.058331292676925,-6.575818652004003,6.571855009070038
1772708549491969800,5.6249697265625,-17.843083640390635,-6.104710375529527,5.622353559809923
1772708549501995800,5.634995849609375,-27.428310903358458,-2.8893264797732234,5.086123699605465
1772708549512021800,5.645021728515625,-35.9942500641346,3.6477415858149524,3.968581559410691
1772708549522046700,5.655046630859375,-42.96354196426868,2.6156109531849623,4.460876416298746
1772708549532072700,5.66507275390625,-44.35541951651573,-2.281169155216217,6.511413692110777
1772708549551497700,5.684497802734375,-35.63698560898304,-13.811941287648677,10.335547617620229
1772708549561523700,5.694523681640625,-30.7282105268836,-17.123341963875294,5.383849924117326
1772708549571548700,5.704548583984375,-23.904894785392283,-16.43402348267436,-2.7669784494772554
1772708549581574700,5.71457470703125,-17.82482902177572,-16.340426330566405,-8.083518047648667
1772708549591599600,5.724599609375,-12.961947091323136,-14.508858553415536,-10.224626405745743
1772708549601625600,5.73462548828125,-8.63453105096519,-11.94097790417671,-11.09490117355585
1772708549611651800,5.74465185546875,-5.420823856249451,-9.819881237494945,-10.984373929435014
1772708549621676800,5.7546767578125,-1.6649837147653102,-7.52641724885106,-8.858450280988215
1772708549631702800,5.764702880859375,2.2867916712731122,-5.298683915746212,-6.685159316688775
1772708549641727700,5.774727783203125,5.509938309985399,-2.948887799027562,-5.278309820759296
1772708549651754000,5.78475390625,7.6018123893141745,-0.7671540005534887,-3.8483722947090864
1772708549661780000,5.794780029296875,8.428567748871446,1.0784311960339545,-2.4381563910864292
1772708549671805000,5.804804931640625,7.963149792993068,2.4260844066292044,-1.8355495402634143
1772708549681831000,5.814830810546875,6.635726300477981,3.0723645410925147,-2.004062524884939
1772708549691855600,5.824855712890625,5.140223538583517,3.1980113206729293,-2.165193582561612
1772708549701881900,5.8348818359375,4.170650776675343,3.3733845464527605,-2.5348262286379932
1772708549711906600,5.844906494140625,4.095993302837014,3.288440071877837,-3.054372372806072
1772708549721932800,5.854932861328125,5.007290985909104,3.4776100600808855,-3.6473242371857166
1772708549731958800,5.864958740234375,6.827572814413905,4.039759082178771,-4.157174039986729
1772708549741984000,5.87498388671875,8.702826588556169,3.317524712064862,-3.520411090931296
1772708549752010000,5.885010009765625,9.636903674191236,1.7747610173016786,-2.271107926059514
1772708549762035000,5.895034912109375,10.305492671096324,0.7763070288240909,-0.6021086920425296
1772708549772061000,5.90506103515625,11.287793397152424,1.672587467767298,0.9685128775916994
1772708549782087000,5.9150869140625,11.771024657618998,3.0833044527798887,1.6628749059177934
1772708549792111900,5.92511181640625,11.498815151679516,3.9260084920972584,1.5488450605034827
1772708549802137900,5.935137939453125,10.643704050731658,4.124043631540238,1.505505684992671
1772708549812162800,5.945162841796875,9.147056210455299,4.109924505294859,1.4878272588305175
1772708549822188800,5.955188720703125,7.48648797404468,3.8612864290788766,1.6797930152319371
1772708549832214800,5.96521484375,6.98541710550487,3.774104696971178,1.7918321252204477
1772708549842239700,5.97523974609375,6.800263367205858,4.1111084543824195,0.6373951094791293
1772708549852265700,5.985265625,7.231745151212811,4.208009324210882,-0.47118601788580416
1772708549862291000,5.995291015625,7.623047485044598,4.1522108646214,-1.194696691545844
1772708549872317000,6.00531689453125,8.044544466131924,4.263493603284656,-1.503359759005159
1772708549882342000,6.015341796875,7.9706001089990135,4.480966725908219,-1.3202812195450067
1772708549892368000,6.025367919921875,7.434758371329307,4.992397952681779,-0.894969648605585
1772708549902393900,6.035393798828125,6.89110274503827,5.643085382193327,-0.5757821183919907
1772708549912418800,6.045418701171875,6.414004288238287,6.38382250046432,-0.5793681601852179
1772708549922444800,6.05544482421875,5.8837862356692545,6.844630916720629,-0.6614701048105954
1772708549932469800,6.0654697265625,5.265446832054853,7.1151844721466295,-0.752308021338284
1772708549942495700,6.075495849609375,4.950651399320364,7.431365221759677,-0.6343344067342579
1772708549952521700,6.085521728515625,5.058338451579213,7.668378326633572,-0.6305399828873575
1772708549962547000,6.095546875,5.135174438500404,8.065379748889804,-1.1776331824116408
1772708549972573000,6.105572998046875,4.909235100826621,8.09246766230166,-1.4776001715876161
1772708549982598000,6.115597900390625,4.2679421071261165,7.594841381257772,-1.5138954738058148
1772708549992623900,6.125623779296875,3.642127837586403,6.874215907645225,-1.4255403140045702
1772708550002648800,6.13564892578125,2.602725752648711,6.746344730013608,-0.979009721686691
1772708550012674800,6.1456748046875,1.0079974773705005,6.582839928942918,-0.7570696827821433
1772708550022700800,6.15570068359375,0.14150865783989428,6.485774223941564,-1.14728641333431
1772708550032725800,6.165725830078125,0.7963783414721488,5.249914331880212,-1.0517566857285796
1772708550042751700,6.175751708984375,-2.2636761686235665,2.394074818906188,-0.46222632023021576
1772708550052776700,6.185776611328125,-5.654023540315031,0.2218915235877037,-1.393871940934658
1772708550062802700,6.195802734375,-5.311949055510759,-2.6143600763410326,-0.5907331654168665
1772708550072828700,6.20582861328125,-5.027315536805987,-5.712444749623537,0.6455293160960078
1772708550082854000,6.21585400390625,-6.933056803670525,-9.004483138254285,-1.8237749313175677
1772708550092880000,6.2258798828125,-12.087683546137809,-8.386554653528332,-5.555557905387878
1772708550102904800,6.23590478515625,-17.796103278028966,-6.4889318111896515,-3.2799911002233624
1772708550112930800,6.245930908203125,-20.98314341509342,-6.662459409102797,2.265917956200987
1772708550122956800,6.255956787109375,-22.42235087379217,-5.8661862815707915,6.16087942199707
1772708550132981800,6.265981689453125,-21.197073750543595,-4.197336539027095,8.736683265450596
1772708550143007700,6.2760078125,-16.76600736609697,-5.776057097834348,10.44688617812395
1772708550153032700,6.28603271484375,-14.603629425477981,-10.92309616165161,10.464973623478413
1772708550163058700,6.29605859375,-15.939481723642348,-12.36275253316164,6.862479877144098
1772708550173084000,6.306083984375,-16.298737060350177,-9.254841462391614,1.550980757357925
1772708550183110000,6.31610986328125,-14.717984118932485,-6.84125179567635,-2.3521055627048013
1772708550193135600,6.326135498046875,-10.960926418352127,-5.18279602137506,-3.226476952178776
1772708550203160800,6.336160888671875,-5.696729294097423,-3.8970150373250245,-0.8650840672992169
1772708550213186800,6.346186767578125,-1.0934095694571733,-3.837236568188667,1.2106129303410649
1772708550223211800,6.356211669921875,2.691525733608007,-4.1365871790319675,1.378457514181733
1772708550233237800,6.36623779296875,5.487720632958412,-4.534902021974325,0.3065782240092754
1772708550243263700,6.376263671875,7.575344069105387,-4.431375596526265,-0.77524553707242
1772708550253288700,6.386288818359375,8.450282152551413,-2.776948931610584,-1.932953975699842
1772708550263314700,6.396314697265625,7.845921589928865,-0.8407517362058162,-2.3721467724755403
1772708550273339600,6.406339599609375,8.140560369819402,1.00594697458148,-3.0238232130244374
1772708550283365600,6.41636572265625,8.45535755611956,2.642901695692539,-3.868671863155067
1772708550293390800,6.426390869140625,8.604350432235002,3.029360681146383,-3.696747901046276
1772708550303416800,6.436416748046875,8.949936724552511,3.206866535040736,-2.716818288035691
1772708550313442800,6.44644287109375,9.388845443689823,3.1289567814081907,-1.590342169148475
1772708550323467800,6.4564677734375,9.815960264658928,3.2368808572933077,-0.7623539067953825
1772708550333493800,6.46649365234375,10.058272644984722,3.83857453879416,-0.23302096649780868
1772708550343518700,6.476518798828125,9.963732074546813,4.609614440870285,-0.04579319840371608
1772708550353544700,6.486544677734375,9.535665651941299,5.289705659520625,-0.06742737645432352
1772708550363570700,6.49657080078125,8.846815372774005,5.5452142060279845,0.0735692402102053
1772708550373595600,6.506595703125,8.038805630218983,5.456649202868342,0.3635284839823842
1772708550383621600,6.51662158203125,7.2405480508714914,5.051478502681851,0.7125627247966826
1772708550393646600,6.526646484375,6.619084377756715,4.650349479101598,0.918208266178146
1772708550403672600,6.536672607421875,6.2852832157790655,4.378264476324618,0.7437672066818922
1772708550413698600,6.546698486328125,6.0816077323615545,3.9498935178145764,0.5889340801056474
1772708550423723800,6.556723876953125,5.775211879181861,3.2472266024798153,0.729415294593945
1772708550433749800,6.566749755859375,4.799817863774299,2.2974977742046114,1.2394469567678867
1772708550443774700,6.576774658203125,4.439090700948238,1.3430758196771144,1.388640470021963
1772708550453801200,6.58680126953125,4.136241726595163,1.248595162732899,1.5015889499403536
1772708550463826000,6.596825927734375,3.544214575845003,1.5950208284839986,1.5699720196843145
1772708550473852000,6.606851806640625,3.133868518847227,2.050318664625287,1.0378612852364777
1772708550483878100,6.616878173828125,2.4957524016171693,2.3232445021405814,0.6773709999062121
1772708550493902800,6.62690283203125,2.2250386871933934,2.7391028928190466,0.39036804865635927
1772708550503929000,6.63692919921875,2.242268638935685,3.0801033186510205,0.025711373494798316
1772708550513954000,6.6469541015625,2.4014941552519797,2.7715917884916066,-0.5156614116892219
1772708550523980000,6.65697998046875,2.5655828936904665,2.2886332074865696,-0.9688920131023973
1772708550534006000,6.667006103515625,2.757325947251916,2.1241049085870385,-1.155057631857693
1772708550544031200,6.67703125,3.0309675318211315,2.2892659524321557,-1.255566024658829
1772708550554057200,6.68705712890625,3.235135767191648,2.4269687882483004,-1.2826514538526534
1772708550564082200,6.697082275390625,3.1084190202921627,2.26392196007818,-0.9615254298571496
1772708550574108200,6.707108154296875,2.669758138436079,2.2202730802267787,-0.489681094193086
1772708550584133000,6.717133056640625,2.327166936281323,2.364163664767146,-0.22073625260535626
1772708550594159000,6.7271591796875,1.6440999166905879,2.246923771265149,-0.4588618487657979
1772708550604185000,6.73718505859375,0.649650487679243,1.5294854032561183,-1.0758367956265806
1772708550614210000,6.7472099609375,-0.3485036410689354,0.16065174972712992,-1.5986514400713145
1772708550624236000,6.757236083984375,-1.652661993330717,-2.4578911652565,-1.1919485618814825
1772708550634261200,6.76726123046875,-3.8484056124567982,-6.391631712910533,0.9609217648755758
1772708550644287200,6.777287353515625,-4.979743053770065,-9.673048754283785,2.923797196912765
1772708550654312200,6.787312255859375,-4.205696955615282,-8.792125166687368,1.4725734294667838
1772708550664338200,6.797338134765625,-5.33835600092113,-6.064722648534178,-1.8351564492926
1772708550674364200,6.8073642578125,-9.443968195974826,-6.311915786638855,-3.7072578968837857
1772708550684389000,6.81738916015625,-12.925979121363163,-6.934309434080124,-4.143404750092327
1772708550694415000,6.8274150390625,-13.597407725608347,-4.768744095596671,-3.5520018687203523
1772708550704440000,6.837440185546875,-13.142860123312472,-2.462565586808324,-2.503763274115324
1772708550714466000,6.847466064453125,-13.037594745242595,-2.52146961119771,-1.1983673428826034
1772708550724492000,6.857491943359375,-12.41678106046915,-2.8490976374983785,-0.9602420389831066
1772708550734517000,6.86751708984375,-11.367363192951679,-3.3010926327019927,-0.9284721052348613
1772708550744543000,6.87754296875,-10.392238057613373,-4.8455797902569175,-0.12674677671156823
1772708550754568200,6.887568115234375,-9.167392896041273,-6.369854180866479,0.3933304786585271
1772708550764594200,6.89759423828125,-7.333243870225548,-6.662965020537376,0.27763350374959406
1772708550774619100,6.907619140625,-5.257110380864143,-5.8993321798473595,0.04818856910765171
1772708550784645000,6.91764501953125,-3.2774411234796044,-4.922427759876847,0.3211902483381331
1772708550794671000,6.927671142578125,-2.436674774226546,-3.8997953156933187,1.6293828245520592
1772708550804696000,6.937696044921875,-2.243871397957206,-2.4146394680291414,2.972582562869787
1772708550814722000,6.94772216796875,-1.871341569134593,-1.401636145195365,3.757591661326587
1772708550824747000,6.9577470703125,-1.4067121332854031,-1.3381161514431237,3.736897248344123
1772708550834773000,6.96777294921875,-0.8204337553203106,-1.3974357708960772,2.8036557367503643
