time,seconds_elapsed,z,y,x
1772709153589828000,0.055828125,-0.006890928557515144,-0.06230484580881893,-0.027294030443206427
1772709153599853000,0.06585302734375,0.007456745746731758,-0.029151860204339027,-0.013416896260157227
1772709153609878000,0.0758779296875,0.0475397498100996,0.01427826232984662,0.011937617487832904
1772709153619903000,0.085903076171875,0.06189093124568462,-0.002812792398408055,0.024047924661450087
1772709153629928200,0.09592822265625,0.030891981869935987,-0.014457929745689034,-0.005524097183719277
1772709153639953200,0.105953125,-0.011785714861750602,-0.00700593323931098,0.001408916949853301
1772709153649977900,0.115977783203125,-0.005669862329959869,-0.00812624250613153,-0.002315035476721823
1772709153660003000,0.126003173828125,0.04069616752564907,-0.0034811201140284537,0.01659077705591917
1772709153670028000,0.136028076171875,0.06371171693205833,-0.015985943030565976,0.010978453599475323
1772709153680053000,0.146052978515625,0.03674655311703682,-0.010596066685765982,-0.0032191447095945474
1772709153690078000,0.156077880859375,0.010075988334417342,-0.00014941840805113315,0.005163045318983495
1772709153700103200,0.166103271484375,0.018575521132349965,0.016379326262325047,-0.0006505728632211685
1772709153710128000,0.176128173828125,0.01870879212319851,0.004225874066725373,0.014327325635962188
1772709153720153000,0.186153076171875,0.02333060670495033,-0.019576734064146874,-0.0008829203143715858
1772709153730178000,0.196177978515625,0.030936990055441854,0.00979534476213157,0.000866699831932783
1772709153740203300,0.206203369140625,0.0363204366594553,0.01225165187306702,-0.007948438253812492
1772709153750227000,0.21622705078125,0.026011808612942694,-0.01255341129861772,0.0036825609702616927
1772709153760252000,0.226251953125,0.032303602233529086,-0.02571867088526487,0.010697225505299866
1772709153770277000,0.236277099609375,0.028251111972332,-0.024821283654123543,-0.005192965533211827
1772709153780302000,0.246302001953125,0.02449438978731632,0.009312456616014242,-0.00871087399367243
1772709153790327000,0.2563271484375,0.015395137530565262,0.009807254395633935,-0.017754779333993793
1772709153800352000,0.26635205078125,0.03982990608513355,0.001389116270840168,0.000051364861056208605
1772709153810377200,0.276377197265625,0.035787937217950816,-0.00598689238987863,0.0066022112766280765
1772709153820402200,0.286402099609375,0.01933013889193535,-0.005315495934337377,0.004869396134652197
1772709153830427000,0.296427001953125,0.02386661327779293,0.006042056643217802,-0.005214812038838863
1772709153840451800,0.306451904296875,0.029161797076463696,-0.000901405819132924,0.000936477132514119
1772709153850477000,0.31647705078125,0.027990999731421468,-0.024105828861147163,0.007437456524372101
1772709153860502000,0.326501953125,0.02348667404949665,-0.01223915771767497,0.0044925621788948775
1772709153870527000,0.33652685546875,0.011365443623065947,0.005204655971005559,-0.005982618073560297
1772709153880552000,0.346552001953125,0.03593640577793121,0.003950491191446781,-0.00909223799407482
1772709153890577200,0.3565771484375,0.03746902217268944,-0.012227467279881239,0.0009063377225771546
1772709153900602000,0.36660205078125,0.02238601933121681,-0.00021904957816004753,0.009100019441731274
1772709153910627000,0.376626953125,-0.011863456273078919,-0.005861293248832226,-0.003433737308345735
1772709153920652000,0.386652099609375,0.02197860757410526,-0.00021371581591665743,-0.009725165602751076
1772709153930677000,0.396677001953125,0.045370589077472684,-0.0013612053506076335,0.008835742482356726
1772709153940702000,0.406701904296875,0.032381343644857404,-0.01085252566486597,0.0000656125821173191
1772709153950726100,0.41672607421875,0.03270049259662628,0.001767301933467388,0.0012620558250695465
1772709153960751000,0.426751220703125,0.021647183662652968,-0.004588496834039688,0.005034487035870552
1772709153970776000,0.436776123046875,0.010310381612181663,-0.005612506119534373,0.008971022767201065
1772709153980801000,0.446801025390625,0.019005729243159294,-0.02696567527167499,0.017406513885594905
1772709153990826200,0.456826171875,0.0383159943908453,-0.003113748106360435,-0.0047173473780974745
1772709154000851200,0.466851318359375,0.043559740263223644,0.027756971779838203,-0.027009002956748008
1772709154010876000,0.4768759765625,0.011005962660908699,0.017634294759482146,0.006068652389198541
1772709154020900900,0.48690087890625,0.012265607333183288,-0.008830664448440075,0.0313848799534142
1772709154030926000,0.496926025390625,0.021387655943632126,-0.03757825470082462,0.018183197346515953
1772709154040951000,0.506950927734375,0.01208908172249794,-0.01869293696694076,-0.014512801738083362
1772709154050976500,0.5169765625,0.030503859335184097,0.003748173552379012,-0.03204630300421268
1772709154061001200,0.527001220703125,0.028619945284724235,0.000006137479841709137,-0.021281747883744536
1772709154071026400,0.5370263671875,0.031041619473695752,-0.013015402787178753,0.005222812682203948
1772709154081051400,0.547051513671875,0.029511341166496275,-0.011171601551398635,0.0006119944185018539
1772709154091076400,0.557076416015625,-0.001180149695277214,0.005735474912077188,0.008591960321739315
1772709154101101300,0.567101318359375,0.017117723539471625,0.013537526965141296,-0.01197162935528904
1772709154111126500,0.57712646484375,0.03349661141037941,0.009286299261450767,0.0007994798146188258
1772709154121151500,0.5871513671875,0.06285714592933654,-0.0055595338232815265,0.00683156305309385
1772709154131176400,0.597176513671875,0.030093524968624115,-0.018820947260782123,0.013576945660077035
1772709154141201400,0.607201416015625,0.014989479339122772,-0.017294322215393183,0.011388313041999935
1772709154151226600,0.6172265625,0.02354629528224468,-0.003660933660343289,0.0119767439218238
1772709154161250300,0.627250244140625,0.012334580916166306,0.004834434419125318,-0.003828947171010077
1772709154171275300,0.637275146484375,0.021018238109350204,-0.01649666903167963,-0.009600954701192677
1772709154181300500,0.647300537109375,0.03342880687117576,0.0035182372540235518,0.0008019640326499939
1772709154191325400,0.657325439453125,0.025053192713856694,0.001285875092074275,0.014191205100901425
1772709154201350400,0.667350341796875,0.009952654215693474,0.0027954759374260903,0.01697605004645884
1772709154211375400,0.677375244140625,0.009386252504587174,0.0011650982566177844,-0.00005618716664612293
1772709154221400600,0.687400634765625,0.0154021517932415,-0.006507847524061799,-0.008909684501402079
1772709154231425500,0.697425537109375,0.03113455845415592,-0.009240048966929317,0.00363393605556339
1772709154241450200,0.7074501953125,0.0293359845995903,-0.001443111480399966,0.009784275378845632
1772709154251475500,0.717475341796875,0.025152561435103415,-0.013039222054183482,-0.00462112046200782
1772709154261500400,0.72750048828125,0.01796761836707592,-0.004755231703072786,-0.007794416735880077
1772709154271525400,0.737525390625,0.0299415492773056,-0.0074514850497245785,0.001533018253557384
1772709154281550300,0.74755029296875,0.03038695495724678,-0.012451704489812254,0.008212422952242195
1772709154291575600,0.757575439453125,0.015104630151391029,0.00781746881790459,0.01810735563132912
1772709154301600500,0.7676005859375,0.021083120039105414,0.02982325665988028,-0.0004985241066664457
1772709154311625500,0.77762548828125,0.021863456761837003,0.01223294717259705,0.0006416223717853426
1772709154321650400,0.787650390625,0.03343640565574169,-0.0006659165628254413,-0.002530724054016173
1772709154331675600,0.797675537109375,0.038564416193962094,0.007801613661646842,0.011655366480350494
1772709154341700400,0.807700439453125,0.03155599873661995,-0.000951382440701127,0.007997465027309953
1772709154351725300,0.817725341796875,0.02470657123327255,-0.011934110356494783,-0.008566022162884473
1772709154361750300,0.827750244140625,0.018314239847660063,-0.006490969454497099,0.00003547317218035459
1772709154371775500,0.837775390625,0.02745733124613762,-0.0261347043402493,0.012407207760959863
1772709154381799400,0.84779931640625,0.024743980634212494,-0.016728651156648993,-0.0018999153371900318
1772709154391824400,0.857824462890625,0.036710897281765936,-0.004835676528140902,-0.003415105673111975
1772709154401849600,0.867849609375,0.03282733384668827,-0.015393749291077256,0.015976809876039624
1772709154411874300,0.877874267578125,0.025644144344329833,-0.02523651339150965,0.01385525114480406
1772709154421899300,0.887899169921875,0.03791325880885124,-0.0161690445125103,0.00600066518690437
1772709154431924200,0.89792431640625,0.02489654084742069,0.004214183628931641,-0.005806567386910319
1772709154441949400,0.907949462890625,0.02281213578879833,0.011866598078235983,-0.005729227834381163
1772709154451974400,0.917974365234375,0.024181670576333997,-0.0038322716392576693,0.0017496932115405796
1772709154461999400,0.927999267578125,0.015512626430392265,-0.005249371895566583,0.009113317314721644
1772709154472024300,0.9380244140625,0.017905074524879456,0.00845657043904066,-0.0026128859121352433
1772709154482049500,0.948049560546875,0.025710779839754103,0.01814531302154064,0.0038572234174236654
1772709154492074500,0.958074462890625,0.02604337279498577,0.011859656880795955,-0.011885668104887007
1772709154502099500,0.968099365234375,0.022474866658449173,0.02299560259692371,0.014073277809657156
1772709154512124400,0.97812451171875,0.020687983241677282,0.015305632616207003,0.004876081603765487
1772709154522149400,0.9881494140625,0.010514964273571967,-0.018805019039288162,0.012015651160106063
1772709154532174300,0.99817431640625,0.02354629528224468,-0.028755992754548786,0.010119535215198993
1772709154542199300,1.00819921875,0.03522854976952076,-0.008917977405712008,0.0036489874942228196
1772709154552224500,1.018224609375,0.05078209273219108,-0.0002758943319320679,-0.0018817951586097479
1772709154562249500,1.02824951171875,0.019080548045039177,0.0011302461389452218,0.0016593115143477915
1772709154572274400,1.0382744140625,0.012075637719035148,-0.006857318548858165,0.030925811074301597
1772709154582299400,1.04829931640625,0.026733693146705626,-0.04252060647383332,0.0093148677688092
1772709154592323300,1.0583232421875,0.026104163071513174,-0.03164762254282832,0.0006867766877636313
1772709154602348300,1.068348388671875,0.020853987458348273,-0.006293912512436509,-0.014634345758520066
1772709154612373200,1.078373291015625,0.02460895607769489,-0.0046133390143513675,-0.011777312359586357
1772709154622398500,1.0883984375,0.020136779099702833,-0.013629004640877245,-0.0010983531633391975
1772709154632423400,1.09842333984375,0.03238894242942333,-0.019078429153189063,0.01068118768595159
1772709154642448400,1.108448486328125,0.022037644284963607,-0.01919270318262279,-0.00041183220390230416
1772709154652473300,1.118473388671875,0.027866496568918226,0.018191709446534515,-0.002409399229288101
1772709154662498600,1.12849853515625,0.023836218139529228,0.022980478093028067,0.0012419628851115703
1772709154672523500,1.1385234375,0.025934651723504065,0.0068367872174829245,0.005818513553030789
1772709154682548500,1.148548583984375,0.03086567838490009,0.009437325104698538,0.0049464068936184045
1772709154692573200,1.1585732421875,0.025782676032185554,0.00028721944354474544,-0.0017944822013378143
1772709154702598400,1.168598388671875,0.025642390778660772,-0.011795651733875274,0.008530001001432537
1772709154712623400,1.178623291015625,0.023562077373266217,-0.012859335442632435,0.010172324848361313
1772709154722648300,1.1886484375,0.02386661327779293,-0.013095482286065815,0.015830314077436923
1772709154732673300,1.19867333984375,0.03926525793969631,0.014824936427175998,0.00266275293584913
1772709154742698500,1.208698486328125,0.030116905844211575,-0.008738529185578226,0.00647025546003133
1772709154752723500,1.218723388671875,0.02501636783480644,-0.017343348988890648,0.011809461063519119
1772709154762748400,1.22874853515625,0.027850129956007,-0.005260404746234417,0.0014111819721758364
1772709154772773600,1.238773681640625,0.026489362996816635,-0.009918386619910598,0.012251834536157549
1772709154782798600,1.248798583984375,0.008679565539956092,-0.0052723874449729915,-0.0010679214924573899
1772709154792823300,1.2588232421875,0.023348726883530617,-0.006369096640497445,-0.002005311940424144
1772709154802848300,1.26884814453125,0.0335275910705328,-0.006127762165293097,0.011869703350774943
1772709154812872400,1.27887255859375,0.03380348540246486,-0.006308890885859728,0.004430274065025151
1772709154822897400,1.2888974609375,0.03170212920904159,-0.005252586765959859,-0.01224657383915037
1772709154832922400,1.29892236328125,0.02602817522585392,-0.0020962416268885133,0.003492956682294607
1772709154842947600,1.308947509765625,0.024534721797704696,-0.0003304740633815527,0.007561703958548605
1772709154852972500,1.31897265625,0.020956863310933112,-0.006368146792426705,0.0031979923237115144
1772709154862997500,1.32899755859375,0.021564181554317472,-0.00671571812108159,-0.012714775872789323
1772709154873022200,1.339022216796875,0.03444879756867886,-0.017302286326140164,-0.01145754235330969
1772709154883047400,1.34904736328125,0.04074409832060337,-0.005566840346902608,0.003041888446547091
1772709154893072400,1.359072265625,0.03416004375517368,0.0007028875723481178,-0.0067042103463783856
1772709154903097300,1.369097412109375,0.01875321578681469,-0.007858823741599918,-0.009357026410102843
1772709154913122300,1.379122314453125,0.026699790877103804,-0.010029445778951047,-0.00976589947193861
1772709154923147500,1.3891474609375,0.026103578549623488,-0.01412818633466959,0.014173852107301354
1772709154933172500,1.39917236328125,0.0280506209641695,-0.006098389940336346,0.018924919091910124
1772709154943197400,1.409197509765625,0.030453005930781363,-0.009368351521715522,0.011169226931221783
1772709154953222400,1.419222412109375,0.02464168930351734,-0.016790099020302294,-0.005525339292734861
1772709154963247400,1.429247314453125,0.034219664987921714,-0.01465557120963931,0.014950718231312929
1772709154973272300,1.439272216796875,0.030906010395288466,-0.023356983255222438,0.017096498088352383
1772709154983297300,1.44929736328125,0.010839958444237708,-0.007341448803991079,-0.004149228633940219
1772709154993322500,1.459322509765625,0.025060206976532936,-0.016764599252864717,0.00040576778929680583
1772709155003346400,1.469346435546875,0.036592823860049244,-0.015197349936142563,-0.009072218119353055
1772709155013371400,1.479371337890625,0.028504794472455977,-0.017239377157762647,0.009006642069853842
1772709155023396600,1.489396728515625,0.01981879919171333,-0.0009644611179828644,0.0036832185573875903
1772709155033421600,1.499421630859375,0.025806641429662703,0.0014030717309564352,-0.011504705963283776
1772709155043446300,1.5094462890625,0.03314531375467777,-0.009083543230965732,0.0053158977931365365
1772709155053471000,1.519470947265625,0.034794250005483626,0.009552329786494373,0.010305924632772802
1772709155063496000,1.529495849609375,0.013980594557523726,0.010435688492283225,0.0007533756505697965
1772709155073521000,1.53952099609375,0.018331190982460974,-0.0023137568350881338,0.00046348932590335604
1772709155083545900,1.5495458984375,0.031335049462318416,-0.00955196446031332,0.0053077144866809246
1772709155093571000,1.559571044921875,0.04762509000599384,0.0008596125040203332,-0.003575447333976626
1772709155103596000,1.569595947265625,0.031136896541714667,0.022596593341976404,-0.002107566738501191
1772709155113621000,1.57962109375,0.008391396248340606,0.0229550513908267,0.0005418152591213583
1772709155123646000,1.58964599609375,0.020236147820949554,0.007873948245495557,0.026241269987262783
1772709155133671000,1.5996708984375,0.027843115693330762,-0.025392069279402494,0.027507344400323926
1772709155143696000,1.60969580078125,0.029584406402707097,-0.015090674691274761,-0.004382343270070851
1772709155153720800,1.619720947265625,0.021918401819467543,0.007973024705797433,-0.02158968132175505
1772709155163745800,1.629745849609375,0.027618659287691114,0.008629515853151679,-0.007469787891395389
1772709155173771000,1.63977099609375,0.024770868641138075,-0.011775631859153509,0.009311470235325395
1772709155183796000,1.6497958984375,0.02846095533072948,-0.017603972686454653,-0.003996010833606124
1772709155193821000,1.659821044921875,0.01628185723721981,-0.006128054426237941,0.00019340368025004862
1772709155203846000,1.669845947265625,0.022841946405172345,0.0006417319696396589,-0.006702529845945536
1772709155213869800,1.679869873046875,0.03677402564585209,0.005683014072477817,0.01042951447982341
1772709155223894800,1.689894775390625,0.04349252024590969,-0.005110401816293597,0.00838587982300669
1772709155233919700,1.699919677734375,0.025803134298324582,0.0062425476513803,0.01907605453301221
1772709155243945000,1.709945068359375,0.0030406828701496124,0.009748509945720433,0.015468129701539874
1772709155253970000,1.719969970703125,0.012618074032664298,0.004460267344489693,0.01889087069183588
1772709155263995000,1.729994873046875,0.021139818662405014,-0.007571165906637907,0.012337978449650108
1772709155274019800,1.740019775390625,0.03608721242547035,-0.0021441724218428135,-0.0007616320222616196
1772709155284045000,1.750045166015625,0.04279167850017547,0.005700476663932204,0.014537315124832093
1772709155294070000,1.760070068359375,0.019576807129383086,-0.0027623773854225874,0.00047247634995728726
1772709155304095000,1.770094970703125,0.02120879224538803,0.000356777548417449,0.006227277017012238
1772709155314120000,1.780119873046875,0.024335984355211258,-0.0016813041504472493,0.0054458077831193805
1772709155324145000,1.790144775390625,0.032249241697788235,0.00044978959411382674,-0.012352554964274167
1772709155334169900,1.800169921875,0.023860183537006377,-0.00718618517704308,0.0066355290243402115
1772709155344194800,1.81019482421875,0.041948213413357735,-0.029142288658395406,-0.006649959408491849
1772709155354220000,1.820219970703125,0.018430559703707695,-0.009277531433105468,0.010167027618736028
1772709155364245000,1.830244873046875,0.022446809607744214,-0.009090119102224707,0.0036574265290051696
1772709155374270000,1.84027001953125,0.034843349844217296,0.009196794347092509,0.0037962504778057335
1772709155384295000,1.850294921875,0.03124035691618919,0.007770999327674508,0.008959186198934913
1772709155394320100,1.860320068359375,0.03032850276827812,-0.009680120884627103,0.021025800361298023
1772709155404344800,1.8703447265625,0.027749007669091223,-0.0022155571576207875,0.017644816153496504
1772709155414368800,1.88036865234375,0.02145136882960796,-0.001028612395375967,0.01455032073687762
1772709155424394000,1.89039404296875,0.02773205653429031,-0.008263824345916508,-0.004498407397791743
1772709155434419000,1.9004189453125,0.032220015603303905,-0.012014409051090478,0.0013490034561604261
1772709155444444000,1.91044384765625,0.03414659975171089,-0.00019727613776922225,-0.003975442969612777
1772709155454468900,1.92046875,0.0291746565580368,0.005921791264414787,-0.018477979042008517
1772709155464494000,1.930494140625,0.02557809337079525,-0.012864376943930982,-0.007250336454436183
1772709155474519000,1.94051904296875,0.018863105902075766,-0.02719151991680264,0.0035186025802046057
1772709155484543700,1.950543701171875,0.044003392377495766,-0.01546608387492597,0.01943918875698
1772709155494568700,1.960568603515625,0.03814239138960838,-0.0028399726662784812,0.008284940199181436
1772709155504594000,1.970593994140625,0.01747252832651138,-0.009730316701903939,0.005512991267815232
1772709155514619000,1.980618896484375,0.023455109867453573,-0.011495792004466055,0.0028503844624385237
1772709155524643800,1.990643798828125,0.018640987583994864,-0.009142799137532711,0.014899499500729142
1772709155534668800,2.000668701171875,0.01888940938711166,-0.001483589621260762,0.01448105489294976
1772709155544694000,2.010694091796875,0.020647651231288908,-0.005176160528883337,0.003072100921720266
1772709155554719000,2.020718994140625,0.02662497207522392,0.004590542660653591,0.005335479276441037
1772709155564744000,2.030743896484375,0.020030980637669563,0.004351034816354513,-0.0042328517967835065
1772709155574769000,2.040768798828125,0.01837152299284935,0.019016469832882285,-0.004540748702175915
1772709155584793900,2.0507939453125,0.018517653465270994,0.004959887429699302,0.010435615427047013
1772709155594818800,2.06081884765625,0.024496143352985382,-0.006587050240114331,-0.0035778584867715833
1772709155604843800,2.07084375,0.03226327022314072,0.0013883856184780598,0.003981068992801011
1772709155614869000,2.080868896484375,0.022219430592656134,-0.013173442893102764,0.00984353128541261
1772709155624894000,2.09089404296875,0.014569792622327804,-0.012998890043795107,0.007985263132862746
1772709155634918000,2.10091796875,0.028905191966891286,0.007861965546756982,0.011167509898170828
1772709155644943000,2.110943115234375,0.04100245699584484,0.014466332247853278,-0.006730404233559965
1772709155654968000,2.120968017578125,0.02200432653725147,0.013001593457534908,0.00006418781001120805
1772709155664992800,2.13099267578125,0.012291326296329497,-0.012492547956854104,0.02562372261080891
1772709155675017700,2.141017822265625,0.009717676416039467,-0.029272417844086882,0.03145926036387682
1772709155685043000,2.15104296875,0.028068741142749785,-0.03817059457078576,-0.009807656254433094
1772709155695068000,2.16106787109375,0.0248918646723032,0.0015269903715699911,-0.01690408078879118
1772709155705092900,2.1710927734375,0.03296937266588211,-0.004889452541992068,-0.019517185896635054
1772709155715117800,2.181117919921875,0.04416881207227707,-0.012015870355814695,0.005302453789673745
1772709155725143000,2.19114306640625,0.03363163596689701,-0.005660071588307619,0.014328092820942401
1772709155735168000,2.20116796875,0.018153496327996253,0.006373626685142517,0.0016869301736354826
1772709155745193000,2.21119287109375,0.007504092019796371,0.01818250322677195,-0.0009963540935888887
1772709155755218000,2.221218017578125,0.03475742512643337,0.005642097540199756,0.0030818916633725164
1772709155765243000,2.231242919921875,0.03924655323922634,0.012252893982082605,0.020033026464283465
1772709155775267800,2.241267822265625,0.039513679742813106,0.009713877023756503,0.017485716601647435
1772709155785292800,2.251292724609375,0.023470891958475112,-0.0006442161876708269,0.014273586154729127
1772709155795318000,2.261318115234375,0.008178045758605004,-0.015662775490805504,-0.007420761117897927
1772709155805343000,2.271343017578125,0.02462473816871643,0.002781082085892558,-0.007367825354263186
1772709155815368000,2.281367919921875,0.021593407648801802,-0.0016788199324160814,0.0017688728360459208
1772709155825393000,2.291392822265625,0.02454115153849125,-0.004283960929512978,0.006577917085587978
1772709155835418000,2.301418212890625,0.03812368668913841,0.0067410717580467456,0.004967084355466067
1772709155845441800,2.31144189453125,0.027021277916431427,0.00011814648695290088,0.0066618325093761085
1772709155855466800,2.321466796875,0.017570728003978728,-0.014401742579042911,-0.0021730331901460885
1772709155865492000,2.331491943359375,0.008116670960187911,-0.0008020370978862047,0.0035483035987243054
1772709155875517000,2.341516845703125,0.021257892084121703,-0.012514175266772508,0.006194689921662211
1772709155885542000,2.3515419921875,0.04037058883309364,-0.006812237298116088,0.0038453503165394066
1772709155895566800,2.36156689453125,0.034500235494971276,-0.01547660526894033,-0.01243460722453892
1772709155905592000,2.371592041015625,0.035808980005979534,-0.00029905601181089874,-0.003061542995087802
1772709155915617000,2.381616943359375,0.01675239735841751,0.005080445069447159,0.0027271964741870758
1772709155925642000,2.39164208984375,0.009984218397736548,0.006130246383324265,0.0027362930960953234
1772709155935666700,2.401666748046875,0.02790858214497566,-0.005054799171537161,0.0006075374390929937
1772709155945692000,2.41169189453125,0.03177519444525242,0.026766353307291865,-0.008675912278145551
1772709155955716900,2.421716796875,0.034925767430663106,0.011026420927047729,-0.005771569138765335
1772709155965741800,2.431741943359375,0.029544658914208412,-0.018998349654302,0.0036641485307365653
1772709155975766800,2.441766845703125,0.02129413244128227,-0.012205036252364515,0.0021115853264927864
1772709155985792000,2.4517919921875,0.024102760121226308,-0.004558174761012196,-0.012423683971725403
1772709155995817000,2.46181689453125,0.006879822641611099,0.001079027408361435,-0.0017281024342402816
1772709156005842000,2.471842041015625,0.01420914261639118,0.017012217338383196,0.0047185164218768475
1772709156015867000,2.481866943359375,0.037111879298090934,-0.004821721068024635,0.01680715975295752
1772709156025892000,2.49189208984375,0.0382896909058094,-0.0021078589994460344,0.019961276402324438
1772709156035916800,2.501916748046875,0.03379822470545769,0.0046742023561149836,0.009073496760986744
1772709156045941800,2.511941650390625,0.02185235084593296,0.0046965603183954955,-0.005469225191324949
1772709156055967000,2.521967041015625,0.01783200928866863,-0.007604045262932777,0.0008386793138459325
1772709156065991000,2.531990966796875,0.03879179520905018,-0.00607478986904025,-0.010735950080491602
1772709156076015900,2.542015869140625,0.03132335902452469,0.007439356220513582,-0.005447196022607386
1772709156086041000,2.552041015625,0.04195873480737209,0.01479673324599862,-0.01015833285562694
1772709156096066000,2.562066162109375,0.025843466308712957,-0.005524973966553807,-0.017515015761367974
1772709156106091000,2.572091064453125,0.020059622210264205,0.010739493744447827,0.0029289661239832636
1772709156116115700,2.58211572265625,0.023996377137303352,0.0005342530071735382,0.009022460693493484
1772709156126141000,2.592140869140625,0.014008067086338996,0.010301102327182888,0.01035889692902565
1772709156136166000,2.602165771484375,0.006273673442006111,0.0006848404590040444,-0.00233384977504611
1772709156146190800,2.61219091796875,0.037142274436354636,-0.02557992000170052,0.011791048623993992
1772709156156215800,2.6222158203125,0.031330373287200924,-0.03396810137964785,0.00832432236149907
1772709156166241000,2.632240966796875,0.02533843939602375,-0.0025183394964784383,0.007721972554177045
1772709156176266000,2.642265869140625,0.025660510957241058,0.025809417908638714,-0.01971091837044805
1772709156186291000,2.652291015625,0.011811433824896812,0.01656315839663148,0.011573423817940055
1772709156196316000,2.66231591796875,0.02547638656198978,-0.01596774978674948,0.037018319263122976
1772709156206341000,2.672341064453125,0.04551671954989433,-0.030337635922804473,0.011387399726547301
1772709156216365800,2.68236572265625,0.01991641434729099,-0.038283115034550425,-0.019108349367417395
1772709156226390800,2.692390869140625,0.012459084078669547,0.012971052188798784,-0.025851905343495307
1772709156236415700,2.702415771484375,0.03555179037451744,0.0002445493455976248,-0.000967456792667508
1772709156246441000,2.71244091796875,0.02779401585459709,-0.019074264434725045,0.011253690344281494
1772709156256466000,2.7224658203125,0.006976268753409385,-0.00925984964594245,0.0046172845371067524
1772709156266491000,2.732490966796875,0.00847790548801422,0.009444339367374778,0.001488192731142044
1772709156276515000,2.74251513671875,0.01660217523276806,0.02795651293992996,0.003937010655365884
1772709156286540000,2.7525400390625,0.050469958043098444,0.0031352292858064174,0.019144078267924487
1772709156296564700,2.762564697265625,0.04900105453431606,-0.0050330987963825465,0.013176840426586567
1772709156306590000,2.77258984375,0.03450841880142688,-0.0016143033288419245,0.003460917576216161
1772709156316615000,2.782614990234375,0.01837619916796684,0.004008431923761963,0.0077225205434486265
1772709156326639900,2.792639892578125,0.007779986351728439,-0.0077555094975978135,-0.0009053878745064139
1772709156336664800,2.802664794921875,0.013636311164498328,-0.013698051289096473,0.004533259515464305
1772709156346690000,2.81268994140625,0.042377252480387685,-0.012472162755951284,0.0051602323073893785
1772709156356715000,2.822715087890625,0.03968728274405002,-0.009359437562897801,0.00429174237716943
1772709156366740000,2.832739990234375,0.022046412113308905,-0.002981353898346424,0.0193001090798527
1772709156376765000,2.842764892578125,0.01862111383974552,0.00031162323243916033,0.004034150886908173
1772709156386790000,2.852789794921875,0.0213145907074213,-0.007173617956414818,-0.0015100757693871855
1772709156396814800,2.86281494140625,0.022368483674526214,-0.011180004053562878,0.0033279753789305683
1772709156406839800,2.87283984375,0.026271920853853225,-0.012381781058758496,0.0019139438625425098
1772709156416864800,2.88286474609375,0.02913432454764843,-0.0126963999658823,-0.0010329963095486163
1772709156426890000,2.892889892578125,0.027947160589694976,-0.007143734274804592,-0.0015496040621772408
1772709156436915000,2.9029150390625,0.02121756007373333,0.00042487434856593604,-0.007744440114311873
1772709156446940000,2.91293994140625,0.0067120648592710495,-0.008394757249206304,0.008263385954499243
1772709156456964900,2.92296484375,0.024373978278040883,-0.006253580502048135,0.0007412468213587999
1772709156466990000,2.932989990234375,0.03456336385905742,0.005196472664549947,0.00017100918535143135
1772709156477013800,2.943013671875,0.02067161662876606,0.013766367284953594,-0.003022124300152063
1772709156487039000,2.9530390625,0.01831131723821163,-0.025851941876113414,0.0014257584867998956
1772709156497064000,2.96306396484375,0.022687632626295088,-0.022132556026801465,0.014636647313460706
1772709156507089000,2.9730888671875,0.02763327233493328,-0.0056097296405583615,-0.014078063582628964
1772709156517113900,2.98311376953125,0.028081016102433205,-0.0036463206131011248,-0.005634316092543303
1772709156527139000,2.99313916015625,0.027656068688631057,0.0047671413365751505,-0.0024928762616589664
1772709156537164000,3.0031640625,0.028725743746757505,0.0008165770798921585,0.007683832500874996
1772709156547189000,3.01318896484375,0.02977905219197273,-0.00434986577257514,-0.0010301467653363943
1772709156557214000,3.0232138671875,0.037116555473208426,-0.004697364035993815,-0.006527429007366299
1772709156567239000,3.033239013671875,0.03161737353503704,-0.01558861427605152,0.0018781053641811012
1772709156577263900,3.043263916015625,0.027611645025014876,-0.008331263558939098,0.017955453005246817
1772709156587288800,3.053288818359375,0.02940612722635269,-0.01211494681611657,0.026674948696792124
1772709156597313800,3.063313720703125,0.02027414174377918,-0.01503098039329052,-0.0010768719838932157
1772709156607339000,3.073339111328125,0.028804069679975508,-0.016079174271970986,-0.0016944924255833029
1772709156617364000,3.083364013671875,0.03031155163347721,-0.009297039851173758,0.00783602738790214
1772709156627389000,3.093388916015625,0.03526420560479164,-0.00030533962212502956,-0.013948299723118543
1772709156637414000,3.103413818359375,0.02674304549694061,0.0007208616204559803,0.0028197701284661887
1772709156647439000,3.113439208984375,0.020330255845189094,-0.009491247249022125,-0.006264649885334074
1772709156657464000,3.123464111328125,0.02499941670000553,-0.018047990126907824,-0.00880099996253848
1772709156667488800,3.13348876953125,0.024575638329982757,-0.017913915418460963,0.0003633899522945285
1772709156677513700,3.143513671875,0.022348609930276868,-0.02119191417582333,0.016015169125050306
1772709156687539000,3.1535390625,0.02161445043683052,-0.0076464230999350544,0.0023687749579548835
1772709156697563000,3.16356298828125,0.014307342293858527,0.012389452908560633,-0.011911861992068588
1772709156707587800,3.173587890625,0.042163901990652085,0.024038754974305628,-0.0027426132390275595
1772709156717613000,3.183613037109375,0.04741290856003761,-0.024812881151959298,0.03380691946856677
1772709156727638000,3.193637939453125,0.03467676110565662,-0.05846775186397135,0.012878113208338617
1772709156737663000,3.2036630859375,0.002771218279004097,-0.00446085186637938,0.009976510015316306
1772709156747688000,3.21368798828125,-0.04152092791199684,0.03323050782009959,-0.022846878308616578
1772709156757713000,3.223712890625,-0.0033212533771991726,-0.002557794724032283,-0.008584105808846653
1772709156767737900,3.23373779296875,0.10517653074264526,-0.04423932002522051,-0.011845153431408106
1772709156777762800,3.2437626953125,0.09827157365977764,-0.0074279580436646935,0.011785860992223023
1772709156787788000,3.2537880859375,0.016096563798189162,-0.00563975945264101,-0.018559702508710325
1772709156797813000,3.26381298828125,-0.05212064785957336,-0.0017182751599699258,0.006088781861774623
1772709156807838000,3.273837890625,-0.011703297275304794,-0.00020421733520925044,0.003837057412229478
1772709156817863000,3.28386279296875,0.05368658200204372,-0.012164996502920985,0.021489508882910013
1772709156827888000,3.29388818359375,0.06894318784475326,0.0000763531718403101,0.012769026810675859
1772709156837912800,3.303912841796875,0.041839492341876026,-0.01828019144758582,0.006052504971995949
1772709156847937800,3.313937744140625,0.03074935852885246,-0.01942534289471805,0.009686331429705023
1772709156857962800,3.323962646484375,0.03027940292954445,0.004994520351663231,-0.010116868334077298
1772709156867988000,3.333988037109375,0.006013561201095581,-0.02311119180060923,-0.0089746394963935
1772709156878013000,3.344012939453125,0.004070610439777374,0.019762319764122366,0.002073116479627788
1772709156888038000,3.354037841796875,-0.039566871234774585,0.005081833308935165,-0.010063311515934766
1772709156898062800,3.364062744140625,0.026913725888729093,-0.018848638985306025,0.025883031134121118
1772709156908088000,3.374088134765625,0.08587035724818706,-0.023116890889033674,0.0033493104279041287
1772709156918111700,3.38411181640625,0.11262041700780391,-0.0325926483079791,0.008379851941019296
1772709156928136700,3.39413671875,0.05377718289494514,0.0009404957205057144,0.015067951402813196
1772709156938162000,3.404161865234375,-0.03707096276581287,0.01530278307199478,0.002775127269141376
1772709156948187000,3.414186767578125,-0.053228316840529435,-0.0032083675872534513,0.002701185250096023
1772709156958211800,3.4242119140625,-0.014019173002243042,-0.01095730121359229,-0.005876673481054604
1772709156968236800,3.43423681640625,0.04119651826322079,-0.009671645317226647,-0.003707074357010424
1772709156978262000,3.444261962890625,0.05975567278265953,0.0011992927871644495,0.02454184565823525
1772709156988287000,3.454286865234375,0.025635376515984534,-0.0011922785244882106,0.010551021967642009
1772709156998312000,3.46431201171875,-0.009224924463033676,0.0016786007367074489,-0.009142360746115446
1772709157008337000,3.4743369140625,-0.007713350856304168,-0.01906666565015912,-0.00716579997614026
1772709157018361900,3.48436181640625,0.05694704510271549,-0.023907749005779622,0.008580890938453377
1772709157028386800,3.49438671875,0.047522214153409,-0.010967165020480752,0.015433971703611313
1772709157038411800,3.504411865234375,0.030594460228085516,-0.0016048048481345175,-0.02395100362561643
1772709157048437000,3.51443701171875,0.0023316578179597854,-0.0021888152811676263,-0.003139540134742856
1772709157058462500,3.52446240234375,0.020308044013381002,-0.0022724749766290186,0.0027761501824483275
1772709157068487400,3.5344873046875,0.03437748589813709,-0.01986132315918803,0.028686982638947665
1772709157078512000,3.54451220703125,0.05023147311210632,-0.029042335415259003,0.0048354207998141645
1772709157088537300,3.554537353515625,0.017747253614664078,0.0006523994941264391,0.006068396660871804
1772709157098562300,3.564562255859375,-0.005135609322786331,0.00020838205367326734,0.00369516472350806
1772709157108587300,3.574587158203125,0.008037760505080222,-0.003059387570619583,0.0065989964062348
1772709157118612200,3.5846123046875,0.028231238228082656,-0.004078501485288143,0.0029311580810695887
1772709157128637400,3.594637451171875,0.04602876072525978,-0.014641250423341988,0.016039938240125774
1772709157138661400,3.604661376953125,0.0681488225966692,-0.002732274508103728,-0.004154927722364664
1772709157148686000,3.61468603515625,0.034762101301550864,-0.0017302578587085008,0.0016357114430516958
1772709157158711300,3.624711181640625,-0.014018588480353355,-0.008039806331694125,0.0063530953537672755
1772709157168736300,3.634736328125,-0.033627544313669204,-0.0001549713660031557,-0.00702679336424917
1772709157178761200,3.64476123046875,0.03608370529413223,-0.011004866682365536,-0.0075059917159378525
1772709157188786200,3.6547861328125,0.08380231880247592,-0.008659399534761905,-0.004588862160220742
1772709157198811400,3.664811279296875,0.04743862752318382,-0.006573240910470486,0.00605345482006669
1772709157208836400,3.67483642578125,0.012128829210996627,-0.0020146277580410242,0.006654124126955867
1772709157218861300,3.684861328125,-0.0064233110457658765,-0.005505319418013095,0.019461948578059673
1772709157228886300,3.69488623046875,0.01691197183430195,-0.01986738757379353,0.019958426858112215
1772709157238911500,3.704911376953125,0.06731704794764519,-0.021270313174277543,-0.0030703473560512065
1772709157248936200,3.714936279296875,0.059362874072790145,0.01987988172918558,-0.002594911864027381
1772709157258961200,3.724961181640625,0.004614800319075584,0.009202712631225586,0.008175305812247097
1772709157268986000,3.734986083984375,-0.019772037440538404,-0.03523607548885047,0.016996471779979764
1772709157279011300,3.74501123046875,0.02494797877371311,-0.01733385050818324,0.02520100368671119
1772709157289036300,3.755036376953125,0.04766425297260284,-0.013263240068405865,0.01977916130106896
1772709157299061200,3.765061279296875,0.024153029003739356,-0.015331497709825634,-0.026061639104038477
1772709157309086200,3.775086181640625,0.02102174524068832,0.005026084533706307,-0.015389584572613238
1772709157319111400,3.785111328125,0.009953823259472847,-0.007234627428650856,0.009935703080892562
1772709157329136400,3.795136474609375,0.0024579145461320877,-0.024016616207733748,0.001255954877845943
1772709157339161300,3.805161376953125,0.020850480327010153,-0.003584872749447822,0.008644128900393844
1772709157349186300,3.815186279296875,0.037162732702493664,0.0005300152234733104,-0.007892104956693947
1772709157359210200,3.825210205078125,0.042399464312195774,0.006458309293910861,-0.0008508812082931398
1772709157369235200,3.835235107421875,0.06125263334214687,-0.0009710369892418384,0.015801964765787123
1772709157379260400,3.845260498046875,0.043128363108634944,-0.005715162776410579,0.014760456356219946
1772709157389285400,3.855285400390625,0.020507950499653815,-0.010065686136111616,-0.010168708119168876
1772709157399310300,3.865310302734375,0.01331774673461914,-0.015243673295900225,-0.007327091485075652
1772709157409335300,3.875335205078125,0.013912790018320083,-0.02303206214979291,0.006091631405986845
1772709157419360500,3.885360595703125,0.018245266264677047,-0.02061404122263193,0.010121982900612055
1772709157429385200,3.89538525390625,0.02675532045662403,-0.007931669782102108,-0.0009155074097216128
1772709157439410200,3.90541015625,0.030486323678493497,-0.019560586646944284,0.010016768960468471
1772709157449435100,3.91543505859375,0.03033668607473373,-0.030134587631374596,0.005897789334319532
1772709157459460400,3.92546044921875,0.016710896304249764,-0.004770429272204637,0.014379567279852927
1772709157469485300,3.9354853515625,0.019680267503857613,0.004592661552503705,-0.002230535531044006
1772709157479510300,3.94551025390625,-0.02073123786151409,0.0012263999897986649,-0.0057120940364897245
1772709157489535200,3.95553515625,0.0045662850022315975,-0.013851780546084045,-0.010052351730503142
1772709157499560400,3.965560546875,0.03465104214251041,-0.010748919159919023,0.01927121177893132
1772709157509585400,3.97558544921875,0.06337386327981949,-0.01283741587176919,0.0149694229317829
1772709157519610400,3.9856103515625,0.029991233637928962,-0.019638766449689864,-0.004134907847642899
1772709157529635000,3.995635009765625,0.004402618873119354,0.006000701719522476,-0.008818645217083395
1772709157539660300,4.005660400390625,-0.0033837972193956375,0.0028723405659198758,0.009281075097061693
1772709157549685200,4.015685302734375,0.038352819269895554,-0.0056211278174072505,-0.0013556889252737164
1772709157559710200,4.025710205078125,0.04642214395701885,-0.012491451978310942,-0.008623670634254814
1772709157569734400,4.035734375,0.041326866644620895,-0.033336525477841494,0.0068304670745506875
1772709157579759400,4.04575927734375,0.033982933622598646,-0.016685177341103554,0.00970832406580448
1772709157589784300,4.055784423828125,0.0035766894429922103,-0.006149170279502869,0.007742065494135021
1772709157599809300,4.065809326171875,-0.0076578212767839425,-0.0019813830755650995,-0.0009163111273199319
1772709157609834200,4.075834228515625,0.018224807998538015,-0.010960296888276934,-0.008747004752978682
1772709157619859200,4.085859130859375,0.03542494912445545,-0.015879267785698176,0.012047251874767243
1772709157629884200,4.09588427734375,0.03150456081032753,-0.020149054059386252,0.019275997551903127
1772709157639909400,4.105909423828125,0.031333880418539045,-0.007244491235539317,0.0038878742840141056
1772709157649934300,4.115934326171875,0.038351650226116175,-0.002098360518738627,-0.005767952409572899
1772709157659959300,4.125959228515625,0.013348141872882842,-0.017313757568225265,0.007565722546540201
1772709157669984300,4.135984375,0.029489129334688186,-0.01785575549043715,0.013634849859774112
1772709157680009500,4.146009521484375,0.041570027750730515,-0.00634725013487041,0.011839600473456084
1772709157690034400,4.156034423828125,0.040483986079692835,-0.012958558033406734,0.0046875002291053534
1772709157700059100,4.16605908203125,0.03941957171857357,-0.01334258891493082,0.00016786738019436596
1772709157710084000,4.176083984375,0.029827567508816717,-0.0024236469503492114,-0.007488930983282625
1772709157720109300,4.186109375,0.0016577040791511534,-0.004362067667022347,0.0022264073451980946
1772709157730134300,4.19613427734375,0.018372107514739035,0.010696531385555862,-0.0165005049565807
1772709157740159200,4.2061591796875,0.03302081059217453,-0.0012150018129497766,-0.0009214256938546895
1772709157750184200,4.21618408203125,0.052906829801201816,-0.009128697546944021,0.0017167407900094986
1772709157760209400,4.22620947265625,0.039844519132375716,-0.022483196095377207,0.01126797459796071
1772709157770234400,4.236234375,0.008056465205550194,-0.022229294399544595,0.010096775394119321
1772709157780258300,4.24625830078125,0.005448328533768654,-0.002052987007051706,-0.020111096669174728
1772709157790283300,4.256283203125,-0.0007400047123432159,0.0013094751633703709,-0.011306845303624868
1772709157800308200,4.26630810546875,0.014358780220150946,0.005118292861804366,0.00618752952851355
1772709157810333200,4.276333251953125,0.03450958784520626,-0.020841858629137275,0.027669804953038692
1772709157820358400,4.2863583984375,0.058657356151938435,-0.030642610218748447,0.024529643763788044
1772709157830383400,4.29638330078125,0.039676176828145976,-0.03364091525189578,0.013182429917156695
1772709157840408300,4.306408203125,0.006201192727684974,0.004151493656262755,-0.025436456410400567
1772709157850433300,4.316433349609375,0.005404489392042159,-0.0019996493846178055,-0.017250190812721847
1772709157860458500,4.32645849609375,-0.011990297523140906,-0.024648630500957367,-0.00048318040706217286
1772709157870483500,4.3364833984375,0.025815993779897687,-0.019567747040092943,0.0001505509192124009
1772709157880508200,4.346508056640625,0.03383271149694919,-0.005047200386971235,-0.004533405645936728
1772709157890533000,4.356533203125,0.024069442373514174,0.0028977672681212425,-0.01654069083649665
1772709157900558300,4.366558349609375,0.04785071545541286,-0.0009244213685393333,0.020017280905880033
1772709157910583300,4.376583251953125,0.04797638766169548,-0.002675722015276551,0.015543825286254287
1772709157920608300,4.386608154296875,0.03085048081576824,-0.0026077713456004858,-0.0033405060669407247
1772709157930633200,4.39663330078125,0.007297755792737007,-0.005102145444601774,-0.009554302547872066
1772709157940658400,4.406658447265625,0.006671732848882675,-0.001696720915287733,-0.0037546032931655643
1772709157950683400,4.416683349609375,0.024297405910491943,-0.011379179887473582,0.005329195666126906
1772709157960708400,4.426708251953125,0.03906242884397507,-0.00037307109609246254,0.002059599410928786
1772709157970732300,4.436732177734375,0.027642624685168263,-0.02072152018509805,-0.0053991190971806645
1772709157980757200,4.44675732421875,0.014593173497915267,0.0032160394370555874,0.007254135846719145
1772709157990782200,4.4567822265625,0.01889525460600853,0.015100903824344276,0.008189151674509048
1772709158000807200,4.46680712890625,-0.010151976180076598,-0.0006540069293230772,-0.011754771734215318
1772709158010832400,4.476832275390625,-0.0002811550289392471,0.0003163724727928638,-0.009131875884719193
1772709158020857300,4.486857421875,0.010033318236470221,-0.003132379741594195,-0.002472491060756147
1772709158030882300,4.49688232421875,0.022307108876109122,-0.018384236343950033,0.014145831589214503
1772709158040907300,4.5069072265625,0.06883388225138187,-0.016978461199253798,-0.0019864245768636463
1772709158050932200,4.51693212890625,0.0695475834786892,-0.015414061426743864,-0.009117299370095134
1772709158060957000,4.52695703125,0.024625322690606116,-0.0075569912508130065,0.004778429915569722
1772709158070982000,4.53698193359375,0.0055921209186315535,-0.009974939112737774,0.005996281272731721
1772709158081007000,4.547007080078125,-0.0005611410140991211,0.0024959815341979263,0.0065582625370472665
1772709158091032000,4.557031982421875,0.019484452670812606,0.0007875701811164617,-0.013602920351549983
1772709158101057000,4.56705712890625,0.04012918129265308,-0.029270079756528136,-0.002307911616191268
1772709158111082000,4.57708203125,0.03143558722734451,-0.020315569732710717,0.008005100344493985
1772709158121107200,4.587107177734375,0.032311201018095016,-0.017921148876845837,0.011498458885587752
1772709158131132200,4.597132080078125,0.05920680672824383,0.005297594951465726,0.016080160652659832
1772709158141157000,4.6071572265625,0.029698388171195984,0.011640461172163486,-0.0047894992988556625
1772709158151181800,4.617181884765625,0.00965045639872551,0.005662117414921522,-0.009202712631225586
1772709158161207000,4.62720703125,-0.024617139384150503,-0.012963015012815594,0.003733560505136847
1772709158171231000,4.63723095703125,-0.0027852468043565747,-0.022943945474922657,0.004946224230527877
1772709158181256000,4.647255859375,0.03684592183828354,-0.002896305963397026,0.0035137802746146914
1772709158191281200,4.65728125,0.04594809670448303,-0.006839709826931357,0.0028882322547957298
1772709158201306000,4.66730615234375,0.04039221614301204,-0.017150675961002705,-0.00916062705516815
1772709158211331000,4.6773310546875,0.020910101559758185,-0.02487060268856585,-0.004970518421567976
1772709158221356000,4.68735595703125,0.012055179452896117,-0.009731120419502257,-0.008312960717268288
1772709158231381000,4.697381103515625,0.008732172510027884,-0.007117430789768695,0.020392105567641556
1772709158241406000,4.707406005859375,0.026210546055436133,0.005040186124294996,-0.011595233790948987
1772709158251431000,4.717430908203125,0.027855975174903867,-0.0002281827326864004,-0.0009337737187743186
1772709158261456100,4.7274560546875,0.033087446087598796,-0.0043372254867106675,0.01967175540383905
1772709158271481000,4.737481201171875,0.025133856734633444,-0.014877105005830525,0.003389130981639027
1772709158281506000,4.747506103515625,0.0025146131694316863,-0.016489508638530968,-0.0002110489347949624
1772709158291531000,4.757531005859375,0.012524550530314444,-0.02701455591470003,0.004775324643030762
1772709158301556200,4.76755615234375,0.034490883144736285,0.0005424363136291504,0.018354279597103593
1772709158311581200,4.777581298828125,0.02908990088403225,0.014213891856744884,0.006098718733899295
1772709158321606000,4.78760595703125,0.014870821395516395,0.019155147651210427,-0.021575981589965522
1772709158331630800,4.797630859375,-0.0006575871258974075,-0.0151402129214257,0.007183006839267909
1772709158341656000,4.807656005859375,0.029429508101940154,-0.031582083025947214,0.031751959700137375
1772709158351681000,4.817680908203125,0.0275800808429718,-0.037502193789929146,0.014046535933203994
1772709158361705000,4.827705078125,0.01450549521446228,0.0032214462645351887,-0.022761391982249916
1772709158371730200,4.837730224609375,0.022269699475169182,0.00002944529019296169,-0.030622225017845627
1772709158381755100,4.847755126953125,0.03648410278856754,-0.019898001907765864,-0.010211305151879787
1772709158391780000,4.857780029296875,0.04662380400896072,-0.02162343746088445,0.017537885180301964
1772709158401804800,4.8678046875,0.012447978162765503,-0.008114113676920533,0.007301080260984599
1772709158411830000,4.877830078125,0.00675648852288723,0.0036856297101825475,0.0010258724490180612
1772709158421855000,4.88785498046875,0.025789105772972106,0.006213540752604604,0.009704743869230151
1772709158431880000,4.8978798828125,0.05559387692809105,0.0020052023425698277,0.006244666543230414
1772709158441905000,4.90790478515625,0.04944061499536037,-0.010912366093322634,0.008066803936474024
1772709158451930000,4.91793017578125,0.023686580535769462,-0.013373933901265263,-0.004533588309027254
1772709158461955000,4.927955078125,0.00857902777493,-0.018743425045162437,-0.005156505980342626
1772709158471980000,4.93797998046875,0.006943535527586937,-0.017917495615035296,0.00474850970134139
1772709158482005000,4.9480048828125,0.012933715853095053,-0.013904825907573103,-0.013655308125913142
1772709158492030200,4.9580302734375,0.04390753078758716,-0.025514599680528043,-0.0007397124513983726
1772709158502055000,4.968054931640625,0.05259294154644012,0.0005792611926794052,0.002795731665752828
1772709158512080000,4.978079833984375,0.018635142365097997,0.002699249021336436,-0.0012001330373808741
1772709158522105000,4.98810498046875,-0.00826747760772705,0.005014686356857419,0.0016288433108478783
1772709158532130000,4.998130126953125,0.01315349608361721,-0.007260127196088433,0.001713854713179171
1772709158542154000,5.008154052734375,0.042342765688896174,-0.01809540946520865,0.011589973093941807
1772709158552179200,5.01817919921875,0.060900751164555546,-0.010067951158434152,0.009575783727318049
1772709158562204200,5.0282041015625,0.043398996743559834,-0.005191138902306556,-0.005393383476138115
1772709158572229000,5.03822900390625,0.013344050219655037,-0.0029076310750097037,-0.006338811100088059
1772709158582253800,5.04825390625,0.004082300877571106,-0.011901157934963703,0.008771591204963625
1772709158592279000,5.058279052734375,0.0387993939936161,-0.01673654220215976,0.013233392919413745
1772709158602304000,5.068303955078125,0.05018529588282108,-0.01566379840411246,-0.003938289296999574
1772709158612329000,5.078328857421875,0.04392272835671902,-0.0006447276443243027,0.005229315488226712
1772709158622354000,5.08835400390625,0.008645078748464584,-0.0008541326113045215,-0.00816986245214939
1772709158632379100,5.098379150390625,-0.0003086275577545166,-0.021398834924772382,-0.0007038374204188585
1772709158642404000,5.108404052734375,0.01840893239378929,-0.018380948408320545,0.016778372049890456
1772709158652429000,5.118428955078125,0.04011398372352123,-0.008824819229543208,0.002437821606174111
1772709158662454000,5.1284541015625,0.06496843899488448,-0.01143215218372643,-0.0012746595783159136
1772709158672479200,5.138479248046875,0.043747956311702724,0.0024761077899485826,0.002287782143615186
1772709158682504000,5.14850390625,-0.0018792378753423689,-0.0036624680303037165,0.011964651625230908
1772709158692529000,5.15852880859375,-0.0011287117689847946,-0.007385726337134838,0.014997516515105962
1772709158702554000,5.16855419921875,0.0261117618560791,-0.012812354495748877,0.020033976312354207
1772709158712579000,5.1785791015625,0.046328620454669,-0.010932166772335767,0.0008858429238200187
1772709158722603000,5.18860302734375,0.03183656924366951,-0.010539660323411226,0.007102708144672214
1772709158732628200,5.198628173828125,0.007608136916160583,-0.018577347763255238,0.012415792926214635
1772709158742653200,5.208653076171875,0.007905074036121368,-0.007457695594802498,0.008790770829468966
1772709158752678100,5.21867822265625,0.03813537712693214,-0.00791325734257698,0.005343041528388858
1772709158762702800,5.228702880859375,0.04576572587490082,0.003094458884000778,-0.012159480077587067
1772709158772728000,5.23872802734375,0.02991758387982845,-0.004441489578783511,0.002728109789639711
1772709158782753000,5.2487529296875,0.026066169148683545,-0.00011515081226825714,-0.0046023792289197445
1772709158792778000,5.258778076171875,0.005610241097211838,0.0009836042098701,0.0015174553582444786
1772709158802803000,5.268802978515625,0.01163549273610115,-0.0189369017906487,0.009126030665822326
1772709158812828200,5.278828125,0.026927754414081573,-0.01754785858504474,0.011075557298399508
1772709158822853000,5.28885302734375,0.04863982000648975,-0.02175130162425339,0.013130845860391854
1772709158832878000,5.298878173828125,0.06164484753012657,-0.029080621599033473,-0.001311995914019644
1772709158842903000,5.308903076171875,0.023766660034656523,0.0086802961923182,-0.0063150283657014365
1772709158852928000,5.318927978515625,-0.011529109752178192,0.01226677637696266,0.001938530314527452
1772709158872350000,5.338349853515625,0.012612813335657119,-0.011266367162764072,0.020874336126632986
1772709158882375000,5.348375,0.034445290437340736,-0.03374949019290507,0.022419446676783264
1772709158892400000,5.358400146484375,-0.005962707796692848,-0.043804947195947165,0.0009568258007988333
1772709158902425000,5.368425048828125,0.0037859482795000073,-0.003167231859266758,-0.01953559833616018
1772709158912450000,5.378449951171875,0.009658639705181122,0.016745821487158537,-0.019075798804685472
1772709158922475000,5.38847509765625,0.03482522966563702,-0.006145078626275062,0.006126081664860248
1772709158932500200,5.398500244140625,0.061903790727257726,-0.02007518510557711,0.0103518096011132
1772709158942525200,5.408525146484375,0.039166473740339276,-0.003284793824329972,0.009331380512192846
1772709158952550000,5.4185498046875,-0.0012058686584234238,0.012209274036064744,0.00968563730996102
1772709158962574800,5.428574951171875,0.023514731100201604,0.023266747688502072,0.013546440923959017
1772709158972600000,5.43860009765625,0.054959086155891415,0.0010506780967116354,0.006628332098573446
1772709158982624000,5.4486240234375,0.04718026884794235,-0.016907587920129297,0.010314582863263786
1772709158992649000,5.45864892578125,0.03415887471139431,-0.006415420000255107,0.004716287932172417
1772709159002674200,5.468674072265625,0.016959902629256247,-0.009435498473793267,0.0021461451832205055
1772709159012699100,5.47869921875,0.00948445218205452,-0.01885696842223406,0.0011129296779632568
1772709159022724000,5.48872412109375,0.014414309799671171,-0.02132686566710472,0.013526201853528617
1772709159032749000,5.4987490234375,0.020251345390081405,-0.018111118490993977,0.005676365135982632
1772709159042774000,5.50877392578125,0.01802548603415489,-0.003946618733927607,-0.00865680571887642
1772709159052799000,5.518799072265625,0.009368716847896575,-0.010858078622817992,0.0019474077407270669
1772709159062824400,5.528824462890625,0.004903554132580757,0.0006138941146433353,0.007834602615796028
1772709159072849400,5.538849365234375,0.02167757880091667,-0.008323957035318016,-0.002293810025602579
1772709159082874400,5.548874267578125,0.03247545166909695,-0.01720255227871239,0.0031443259077146646
1772709159092899300,5.5588994140625,0.03594283551871776,-0.010567059786990284,0.007659099918417632
1772709159102924300,5.56892431640625,0.0409083489716053,-0.010205752193927765,0.014088183117844164
1772709159112949200,5.57894921875,0.029403789138793945,-0.004632335975766182,0.01353573686685413
1772709159122974500,5.588974365234375,0.026709727749228477,0.003972045436128974,0.005878792372904717
1772709159132999400,5.59899951171875,0.024475100564956664,-0.009741422617807983,-0.0024285057885572313
1772709159143024400,5.6090244140625,0.026274843463301657,-0.011150266502425074,0.004050006043165922
1772709159153048600,5.619048583984375,0.035110476347804065,0.0013608400244265793,0.010387575034238398
1772709159163073300,5.6290732421875,0.02616612239181995,0.006507701393589377,0.00035728900507092475
1772709159173098200,5.63909814453125,0.002703413739800453,-0.010405366419255734,-0.006093750297836959
1772709159183123500,5.64912353515625,0.013050035709142684,-0.009179258690401912,0.01964490392953157
1772709159193148400,5.6591484375,0.021297639572620392,-0.019314722127094865,0.01355261493641883
1772709159203173400,5.66917333984375,0.02865150946676731,-0.01569229384623468,-0.0009598945407196879
1772709159222597400,5.688597412109375,0.007433364871144294,-0.014745368384942411,0.026857611787319182
1772709159232622300,5.698622314453125,0.03796002056002617,-0.0017418021660298108,0.025186025313287973
1772709159242647300,5.708647216796875,0.0448468574643135,-0.008478270814195275,0.002289097317866981
1772709159252672500,5.718672607421875,0.015082418319582938,-0.006179784613475203,-0.008564597390778363
1772709159262697500,5.728697509765625,-0.0016547814697027206,-0.00811915517821908,0.0016469634894281625
1772709159272722400,5.738722412109375,0.025586861199140547,-0.0045412236262112856,0.013195033670403063
1772709159282747400,5.748747314453125,0.046536125725507735,-0.009156243140995501,0.01577938760779798
1772709159292772600,5.758772705078125,0.05925707561075687,-0.032785102140158416,-0.0007695961330085992
1772709159302797300,5.76879736328125,0.03248012784421444,0.013450360138341784,0.004203662234917283
1772709159312822300,5.778822265625,0.01273088675737381,0.015171923233941197,-0.0011380275866016746
1772709159322847500,5.788847412109375,0.015432546931505203,-0.006180734461545944,0.005247654862515628
1772709159332871400,5.798871337890625,0.0395312153995037,-0.000207286075130105,0.0005030176186934113
1772709159342896400,5.808896484375,0.024262919119000432,-0.016772709494084118,0.003237009159848094
1772709159352921600,5.818921630859375,0.03129530197381973,-0.008956482785195112,-0.005081321852281689
1772709159362946600,5.828946533203125,0.008256371691823005,-0.016051920938864348,0.00540766772981733
1772709159372971300,5.83897119140625,0.012298340559005737,-0.01300524671934545,-0.0072702467313036315
1772709159382996200,5.848996337890625,0.03428863857090473,-0.011194544035568833,-0.0017107859732583164
1772709159393021400,5.859021484375,0.022484219008684157,0.017847645249217746,-0.00791723939795047
1772709159403046400,5.86904638671875,0.003942600145936012,0.0011897943064570426,-0.008363375730253756
1772709159413071400,5.8790712890625,0.034898879423737525,-0.01631933970339596,0.016367051302641628
1772709159423096300,5.889096435546875,0.03728489777743816,-0.016671002685278654,0.01214026392046362
1772709159433121500,5.89912158203125,0.03534311605989933,-0.0012134674429893494,0.004128551172092557
1772709159443146500,5.909146484375,0.0024631752431392667,-0.000566109450161457,-0.012867774477414787
1772709159453171500,5.91917138671875,-0.02474105802476406,-0.009267813756689428,-0.0069948638560250395
1772709159463196400,5.929196533203125,-0.011108253991603851,-0.019698022356256843,0.0040779169633984565
1772709159473221400,5.939221435546875,0.0159685535043478,-0.019679609916731716,0.005846789799444377
1772709159483246300,5.949246337890625,0.068192077216506,-0.0015824468858540058,-0.0012730156105011702
1772709159493271300,5.959271240234375,0.08928571864962577,-0.006573387040942907,0.004000942737050354
1772709159503296300,5.969296142578125,0.06936345908343791,-0.011764745138958095,0.005365691751614212
1772709159513320400,5.979320556640625,0.034925182908773424,-0.01691993594504893,0.015333689666911959
1772709159523345400,5.989345458984375,0.000803133076429367,-0.008891235529258846,0.004806815759837627
1772709159533370400,5.999370361328125,0.0026081366717815397,-0.005780483097583055,-0.003760631175152957
1772709159543395600,6.0093955078125,0.008016717717051506,-0.0012926701590418815,0.006302570742927492
1772709159553420300,6.019420166015625,0.02193476843237877,-0.019928470111265778,0.0017327420767396687
1772709159563445200,6.0294453125,0.05529752433001995,-0.014453691961988806,-0.001437850783392787
1772709159573470500,6.039470458984375,0.048858431193232535,-0.013963862618431449,0.004418218301050365
1772709159583495400,6.049495361328125,0.015787936240434647,-0.020908567189797757,0.016606887940503655
1772709159593520400,6.059520263671875,-0.007855389675498009,-0.017957389234006405,-0.0013979936970397828
1772709159603545300,6.06954541015625,-0.002472527593374252,0.00489412871710956,0.008129640039615332
1772709159613570600,6.079570556640625,0.010841712009906768,0.004061550350487232,0.0026273162962868806
1772709159623595500,6.089595458984375,0.05812894836366176,-0.008128580593690276,-0.0037230025785043833
1772709159633620500,6.099620361328125,0.0615519085496664,-0.017673530791327358,-0.0007092442478984594
1772709159643645400,6.1096455078125,0.04087093957066536,-0.0035283202566206455,-0.00020081980172544716
1772709159653670400,6.11967041015625,0.01331599316895008,-0.013944719526544212,0.019604279658198356
1772709159663695400,6.1296953125,0.009566869768500328,-0.011875731232762336,0.008528283968381583
1772709159673720300,6.13972021484375,0.017487725895643232,-0.00992211294695735,0.007189253916963934
1772709159683745300,6.149745361328125,0.024661563047766684,0.00004259703271090984,-0.008637041572481394
1772709159693770500,6.1597705078125,0.011200608450174331,-0.0004876373864710331,-0.004127893584966659
1772709159703794400,6.16979443359375,0.02899754642546177,-0.017583149094134568,0.005248677775822579
1772709159713819400,6.1798193359375,0.05186696535944938,-0.012850275353342294,0.012308679289929568
1772709159723844600,6.1898447265625,0.0370218629270792,-0.008868219979852437,0.0019239537999033926
1772709159733869300,6.199869384765625,0.02233107427358627,-0.000856836025044322,-0.003574899344705045
1772709159743894300,6.209894287109375,0.015558803659677505,0.0037253771986812353,0.0119328682474792
1772709159753919500,6.21991943359375,0.030914778223633765,-0.016896482004225253,0.01818864070661366
1772709159763944400,6.2299443359375,0.03965981021523476,-0.02331336330920458,0.019107801378145814
1772709159773969400,6.239969482421875,0.0409258846282959,-0.02981521948389709,0.01707088872306049
1772709159783994400,6.249994384765625,0.033983518144488335,-0.002837707643955946,0.0045278526879847045
1772709159794019600,6.26001953125,-0.000180032742023468,-0.01836092853359878,-0.009951265976205468
1772709159804044500,6.27004443359375,0.0035118075132369994,-0.01531067411750555,-0.003839139771461487
1772709159814069500,6.280069580078125,0.0037561376631259917,-0.0010375994194298983,-0.00409819256644696
1772709159824094200,6.29009423828125,0.03782850313484668,-0.000030468203499913213,0.00710186789445579
1772709159834119400,6.300119384765625,0.040651159340143204,-0.010894903501868248,0.0021085896518081427
1772709159844144400,6.310144287109375,0.026112930899858472,-0.014464870943129062,-0.009904358094558119
1772709159854169300,6.32016943359375,0.012333411872386933,-0.002131166809797287,-0.00630377631932497
1772709159864194300,6.3301943359375,0.017394202393293378,0.003477174591273069,-0.00380392232760787
1772709159874218500,6.340218505859375,0.023521745362877846,-0.004115034103393554,-0.010617438267357646
1772709159884243500,6.350243408203125,0.042351533517241476,-0.0035252515166997907,-0.0020075769627466798
1772709159894268400,6.360268310546875,0.05308277088999748,0.010123407672718167,0.006023644203692675
1772709159904293400,6.37029345703125,0.006814940711855888,-0.008548048114776611,0.007634075075015425
1772709159914318300,6.380318359375,-0.02163666226863861,-0.01721760371737182,0.010418006705120206
1772709159924343300,6.39034326171875,0.012596446722745895,-0.026407602997496723,-0.006443951974995434
1772709159934368300,6.4003681640625,0.06762859811484813,-0.004949000709503889,0.007050795294344425
1772709159944393500,6.4103935546875,0.05655541543662548,0.010788155191764235,-0.003391505601815879
1772709159954418400,6.42041845703125,0.016434417450428007,-0.010892127022892236,0.009239500977657735
1772709159964443400,6.430443359375,0.004106850796937942,-0.037031142212077976,0.019625833902880547
1772709159974468400,6.44046826171875,-0.002374327915906906,-0.031613354947045445,0.008817183912359177
1772709159984493600,6.45049365234375,0.01585048008263111,-0.009535159455984831,-0.011257160943001509
1772709159994518500,6.4605185546875,0.04246902241706848,-0.014531652569025754,-0.02688095613028854
1772709160004543200,6.470543212890625,0.01790039834976196,0.0002946720976382494,-0.017550050542131067
1772709160014568400,6.480568359375,-0.008923311167955398,-0.003115501672029495,-0.0065429919026792046
1772709160024593400,6.490593505859375,-0.00504500842988491,0.018155834415555,-0.010037482954934238
1772709160034618400,6.500618408203125,0.01680032815337181,0.00004179331511259079,0.01468216695562005
1772709160044643300,6.510643310546875,0.10671090070307254,-0.003297507175430655,0.017096680751442907
1772709160054668500,6.52066845703125,0.11355974368453026,-0.02123348829522729,0.021774280641041695
1772709160064692200,6.530692138671875,0.031209377256035804,-0.026451442139223215,0.029238990498520433
1772709160074717200,6.54071728515625,-0.02029343096613884,0.001484539469331503,-0.002697751183994114
1772709160084742400,6.550742431640625,-0.04814706805348396,-0.003038637043535709,-0.006193886204063892
1772709160094767000,6.56076708984375,-0.01268120239675045,-0.008091828779876232,-0.005791004491597414
1772709160104792000,6.5707919921875,0.02756955944895744,-0.018441227228194475,0.005207067123800516
1772709160114817000,6.580817138671875,0.06060790569782257,-0.028970439222827552,0.025803061233088374
1772709160124842200,6.59084228515625,0.0755465316325426,-0.009480214398354291,0.024382526910677552
1772709160134867200,6.6008671875,0.009534721064567566,-0.02394018997065723,-0.010147774928994477
1772709160144892200,6.61089208984375,0.02851473134458065,-0.002518558692187071,-0.007726027674786746
1772709160154917000,6.620917236328125,0.013980594557523726,-0.018411928068473932,0.010839958444237708
1772709160164942300,6.6309423828125,0.0045329672545194625,-0.00278568519577384,-0.005889642560482025
1772709160174967300,6.64096728515625,-0.01567570803761482,-0.015105872260406612,-0.013265139764547348
1772709160184992300,6.6509921875,0.005410334610939025,-0.01240603871718049,0.014424027476087212
1772709160195017200,6.661017333984375,0.043240006789565084,-0.011962532733380793,-0.0026167949022725223
1772709160205042200,6.671042236328125,0.07209259178638458,-0.015630845982581375,-0.007135185642167925
1772709160215067100,6.681067138671875,0.05335808070003986,-0.00912146408855915,0.007387808696366846
1772709160225092000,6.691092041015625,0.029548750567436218,0.0017313538372516631,-0.011955701133795082
1772709160235116300,6.7011162109375,-0.006961071184277534,0.020787571158632636,0.0023710034476593137
1772709160245141200,6.711141357421875,0.015761048233509063,-0.01553184258751571,0.011908245262876153
1772709160255166200,6.721166259765625,0.06943418623209,-0.03884484057053923,0.022099676670506597
1772709160265191400,6.73119140625,0.05653145003914833,-0.010751111117005347,0.0009415551664307712
1772709160275216100,6.741216064453125,0.00008592471778392792,-0.01187879997268319,-0.01522642990015447
1772709160285241000,6.751240966796875,-0.03239420312643051,0.017604264947399497,-0.009033931935578584
1772709160295266000,6.76126611328125,-0.05152852718532085,-0.00021364275068044662,-0.010436163416318594
1772709160305291300,6.771291259765625,0.014617138895392416,-0.02191971699371934,0.006566665039211511
1772709160315316200,6.781316162109375,0.087903324380517,-0.029031814021244644,0.025509667777083814
1772709160325341200,6.791341064453125,0.1037321771532297,-0.012867372618615626,0.02173164707571268
1772709160335366100,6.8013662109375,0.04280570702552795,-0.008829203143715858,0.012386822560057043
1772709160345391400,6.811391357421875,0.0005839373677968978,-0.007540332376956939,-0.011646671717241406
1772709160355416300,6.821416259765625,-0.0060369420766830445,-0.012521335659921168,0.005105871771648526
1772709160365441300,6.831441162109375,0.0015717793613672256,-0.012099383920803666,0.0020603300632908938
1772709160375466000,6.841466064453125,0.0226566529661417,-0.006750424108281731,-0.006508249382860958
1772709160385491200,6.8514912109375,0.051069677501916884,-0.011427402943372725,-0.0013847688892856239
1772709160395516200,6.86151611328125,0.05059153859615326,-0.013469503230229019,0.020645532339438794
1772709160405541000,6.871541015625,0.04489420373737812,-0.005602861508354544,-0.0012737827954813837
1772709160415566000,6.881566162109375,-0.009110358172655104,-0.0069325026769191025,-0.010394187438115477
1772709160425590300,6.89159033203125,-0.011066168415546416,-0.02692074015140533,0.01380469000134617
1772709160435615200,6.901615234375,0.026148586735129355,-0.021466712529212235,0.012572042933851479
1772709160445640200,6.91164013671875,0.05006546889543533,-0.008257029278948903,0.007944565796293318
1772709160455665200,6.9216650390625,0.006525602376461028,-0.02389525485038757,-0.021138540020771323
1772709160465690000,6.931690185546875,0.010106383472681045,-0.00956526233330369,-0.015052717301063239
1772709160475715000,6.941715087890625,0.02687982361912727,0.018914470763131973,-0.0013613880136981605
1772709160485740300,6.951740234375,0.0007242226213216781,-0.017954978081211447,0.008937193562835455
1772709160495765200,6.96176513671875,0.01372165136039257,-0.03006678309217095,0.023039953195303678
1772709160505790200,6.971790283203125,0.04239595718085765,-0.02524192021898925,0.02544303228165954
1772709160515815200,6.981815185546875,0.0071878656774759285,-0.035439269910752774,-0.015983678008243442
1772709160525840400,6.99184033203125,0.017208324432373044,-0.002846767733246088,-0.02727170901354402
1772709160535865300,7.001865234375,0.031277766317129134,0.004490954743698239,-0.02403349427729845
1772709160545890000,7.01189013671875,0.044861470511555666,-0.026042861338332293,-0.007455430572479963
1772709160555915000,7.0219150390625,0.031195933252573013,-0.011288798190280794,0.011334756223857403
1772709160565940200,7.031940185546875,0.012767711636424064,0.0022633418221026658,0.02159614759515971
1772709160575965200,7.041965087890625,0.04074994353950023,-0.0017574381265789269,0.004040617160312831
1772709160585990100,7.051990234375,0.0450952792674303,-0.002608867324143648,0.007729717469215393
1772709160596015000,7.06201513671875,0.023232407027482985,-0.009123290719464421,-0.009416939903795718
1772709160606040300,7.072040283203125,-0.012263853767514227,0.0034333354495465753,0.007646350034698843
1772709160616064300,7.082064208984375,-0.027850129956007,-0.004034150886908173,0.018443638380989433
1772709160626089200,7.092089111328125,0.015377017351984977,-0.015419979710876941,0.017086597748845814
1772709160636114200,7.1021142578125,0.07040507709085941,-0.02388283376023173,0.005466010320931673
1772709160646139100,7.11213916015625,0.04256137687563896,-0.007149725624173879,-0.01706968314666301
1772709160656164000,7.1221640625,0.011720248410105705,-0.0013083791848272084,0.017334983019344507
1772709160666189300,7.132189208984375,0.006615618747472763,0.006559285450354218,0.017532551418058574
1772709160676214300,7.14221435546875,0.009000468057394026,-0.015208017460629343,-0.007277955113723874
1772709160686239200,7.1522392578125,0.024842764833569526,-0.02226977254040539,0.007912928549014032
1772709160696264200,7.16226416015625,0.04322890087366104,-0.015921718687936664,0.009555909983068704
1772709160706289400,7.172289306640625,0.030351299121975896,-0.014650821969285606,-0.009363054292090237
1772709160716314400,7.182314453125,0.01329027420580387,-0.013250088325887917,0.00020465572662651537
1772709160726339000,7.192339111328125,0.024779636469483373,-0.0023316578179597854,0.010183942220918833
1772709160736364000,7.202364013671875,0.044649873587489126,-0.00526961096599698,0.02291475591305643
1772709160746389200,7.21238916015625,0.05316811108589172,-0.003895619199052453,-0.003055040189065039
1772709160756414200,7.222414306640625,0.032225860822200775,-0.009184738583117722,-0.008819302804209292
1772709160766439200,7.232439208984375,-0.012360299879312515,-0.01682078641951084,0.0010730360589921474
1772709160776464100,7.242464111328125,0.0071107087880373,0.004078574550524354,-0.002698518368974328
1772709160786489300,7.2524892578125,0.009095745125412941,-0.004513166575506329,-0.006121734283305705
1772709160796514300,7.262514404296875,0.04980886378586292,-0.04276946666836738,-0.010927271401509642
1772709160806538000,7.2725380859375,0.07448737796843051,-0.03652414253801107,0.016651238538883624
1772709160816563200,7.282563232421875,0.04336860160529613,-0.0101432083517313,0.007973426564596592
1772709160826588200,7.292588134765625,0.016002455773949622,0.005103972075507044,0.0026291429271921513
1772709160836613000,7.302613037109375,0.024386837759613988,0.006665595369040966,-0.0010499474443495273
1772709160846638000,7.31263818359375,0.03604863398075103,-0.016428718362003564,-0.0021765768541023136
1772709160856663300,7.322663330078125,0.014797171637415885,-0.0048714784938842055,0.003988375516422092
1772709160866688300,7.332688232421875,0.027840777605772016,-0.005744096609950065,0.004973258367925882
1772709160876713200,7.342713134765625,0.012007248657941817,-0.004631897584348917,0.0026619126856327053
1772709160886738200,7.35273828125,0.014857377392053603,-0.014330942365154623,0.012795695621892809
1772709160896763100,7.36276318359375,0.016809680503606796,-0.0077421385593712325,0.012576353782787918
1772709160906788000,7.3727880859375,0.019970774883031842,-0.013859598526358603,-0.00538680760487914
1772709160916813000,7.38281298828125,0.02821487161517143,0.005435615182667971,-0.0020411139061674473
1772709160926838300,7.39283837890625,0.03555705107152462,-0.008616364110633731,0.011074534385092556
1772709160936863200,7.40286328125,0.04050444434583187,-0.00249452022947371,0.005687726780213415
1772709160946888200,7.41288818359375,0.021226327902078627,0.0024112258601933717,-0.002247230937518179
1772709160956913200,7.4229130859375,0.0188484928548336,-0.004008724184706807,-0.004375402072630823
1772709160966938400,7.4329384765625,0.029655718073248863,-0.0096389120914042,0.007403919580951332
1772709160976963300,7.44296337890625,0.0256412217348814,-0.024597484835609792,0.0077433076031506055
1772709160986988300,7.45298828125,0.008749708166718483,-0.02631444482132792,-0.0027028292179107666
1772709160997012200,7.46301220703125,0.029250059881806373,-0.005614771141856908,-0.009370506946183741
1772709161007037200,7.473037109375,0.026756489500403404,0.01671155389137566,-0.016924392924457788
1772709161017062100,7.483062255859375,0.02097615253329277,-0.005945610531419516,0.005111095936037599
1772709161027087000,7.493087158203125,0.022327567142248154,-0.0022064240030944347,0.020640052446722984
1772709161037112300,7.5031123046875,0.029643443113565444,-0.030730799958854912,0.012328735697269439
1772709161047137300,7.51313720703125,0.01154138471186161,-0.02275850590541959,0.0010766527881845831
1772709161057162200,7.523162353515625,0.029233693268895147,-0.0018037614863365887,-0.010904986504465341
1772709161067187000,7.53318701171875,0.05262099859714508,-0.008756284037977456,-0.02565912271775305
1772709161077212000,7.5432119140625,0.02852466821670532,-0.03432948203794658,0.0038805677603930234
1772709161087236900,7.55323681640625,0.0035118075132369994,-0.01708418659605086,-0.005739566565304994
1772709161097261800,7.56326171875,0.003531681257486343,-0.007744915038347244,-0.0012142711605876684
1772709161107286800,7.573286865234375,0.03993161289393902,-0.01102919740602374,-0.009515468374826013
1772709161117311700,7.583311767578125,0.08035831582844256,0.006124255033954978,0.007889547673426568
1772709161127336700,7.593336669921875,0.06899696385860443,-0.013760449000820517,0.020834552105516196
1772709161137361700,7.603361572265625,0.011392916151881217,-0.008094093802198768,0.0034516382912173865
1772709161147387000,7.613386962890625,0.004962006321549415,-0.009559563244879245,0.002357997835613787
1772709161157411800,7.623411865234375,0.007821487405896187,-0.002309080659970641,0.012274923150800168
1772709161167436800,7.633436767578125,0.0311702142894268,-0.01995535811819136,-0.02202916871756315
1772709161177460700,7.643460693359375,0.0470300467222929,-0.018425372071936726,-0.004725932543352246
1772709161187485700,7.653485595703125,0.022946575823426244,-0.013338570326939225,0.0146170292975381
1772709161197510700,7.6635107421875,0.014290391159057616,-0.001050897292420268,0.0031452757557854055
1772709161207535600,7.67353564453125,0.0013046528577804564,-0.007976531837135552,-0.007967544813081621
1772709161217560800,7.683560791015625,0.003122515934705734,-0.017351313099637628,-0.008586370831169187
1772709161227585800,7.693585693359375,0.04758066634237766,-0.014878200984373688,0.004056691512279212
1772709161237610800,7.70361083984375,0.043413609790802,-0.020049027751013634,0.00755107296667993
1772709161247636000,7.713635986328125,0.02845803272128105,-0.019473639015853403,0.002922317187488079
1772709161257661000,7.723660888671875,0.01229775603711605,-0.004633724215254187,0.011683825389854609
1772709161267686000,7.733685791015625,0.0396925434410572,-0.021553221768885848,0.005216054147854447
1772709161277710600,7.743710693359375,0.016359598648548124,-0.012836319893226027,-0.012607260377705097
1772709161287735800,7.75373583984375,0.011728431716561316,-0.012469678537920116,-0.011852606085501611
1772709161297760800,7.7637607421875,0.02025894417464733,-0.008110679610818624,0.003254179490357637
1772709161307785700,7.77378564453125,0.0264168822824955,-0.005640417039766908,-0.002983509322814643
1772709161317810700,7.783810791015625,0.023472645524144173,-0.01123158811032772,-0.013262947807461022
1772709161327836000,7.7938359375,0.02993102788329124,-0.01693944436311722,-0.004028049939684569
1772709161337860900,7.80386083984375,0.030553543695807456,-0.005132759778574109,0.00888531724512577
1772709161347885800,7.8138857421875,-0.0017255086183547972,-0.020802695662528275,-0.008903620086796581
1772709161357909800,7.82390966796875,-0.0031827216893434524,-0.006952230290696025,-0.007600063207559287
1772709161367934700,7.833934814453125,0.0007382511466741561,0.002443666825070977,0.005750380220264196
1772709161377959700,7.843959716796875,0.023660861572623253,-0.005305778257921338,0.014381357378140091
1772709161387984600,7.853984619140625,0.043887657043337816,-0.012438991138711572,-0.010037263759225607
1772709161398009900,7.864009765625,0.039574470019340516,-0.00971621511131525,-0.013043204109556972
1772709161408034800,7.874034912109375,0.028813422030210492,-0.00953676689118147,0.005342274343408644
1772709161418059800,7.884059814453125,0.040941666719317434,-0.008614172153547405,0.020097470002621413
1772709161428084700,7.894084716796875,0.06518062044084072,-0.0018211510125547645,0.013114296584390103
1772709161438110000,7.90410986328125,0.06772913587987422,-0.00542136746160686,0.007686901240795851
1772709161448135000,7.914135009765625,0.025832944914698598,-0.0013683657437562943,0.0027833105755969883
1772709161458159600,7.92415966796875,-0.008721651116013526,-0.007772314501926302,-0.0044682314552366735
1772709161468184800,7.934184814453125,0.0007242226213216781,0.008630757962167262,-0.017921404605172574
1772709161478209800,7.944209716796875,0.04039572327435016,-0.0072789049617946145,-0.007765482902340591
1772709161488234800,7.95423486328125,0.044161213287711144,-0.004348404467850923,-0.0013621186660602688
1772709161498259700,7.964259765625,0.033710546422004696,-0.005616086316108704,-0.0009467427982017397
1772709161508285000,7.974284912109375,0.0008113163828849792,-0.012698445792496203,0.002394311258010566
1772709161518310000,7.984309814453125,0.009500818794965744,-0.020166297455132005,0.01130092701949179
1772709161528334800,7.9943349609375,0.05364274286031723,-0.009967194197699427,0.01411503459215164
1772709161538358800,8.00435888671875,0.0566372485011816,-0.022991730139404535,-0.008076813873834908
1772709161548383700,8.0143837890625,0.003391396003961563,-0.004085588813200593,-0.017815240816958247
1772709161558408700,8.02440869140625,-0.023064064723253248,0.0046192572984844445,0.0004012742772698402
1772709161568433700,8.03443359375,-0.003781272104382515,-0.027999109972640872,0.028670689091272652
1772709161578459000,8.044458984375,0.06382862130999564,-0.03821852536574006,0.010791004735976457
1772709161588483800,8.05448388671875,0.06382336061298848,-0.028193244305253027,-0.01302300157174468
1772709161598508800,8.0645087890625,0.02927987049818039,-0.005560775932297111,-0.018550934680365026
1772709161608533800,8.07453369140625,0.007150456276535987,-0.004578779157623648,-0.01115348137281835
1772709161618559000,8.08455908203125,0.013128361642360687,-0.010963000302016735,0.0021737273098900913
1772709161628583700,8.094583740234375,0.0401981548756361,-0.02120375074408948,0.009510573003999889
1772709161638608600,8.104608642578125,0.03899579334855079,-0.01088723165206611,-0.014992365415953099
1772709161648633600,8.114633544921874,0.026883915272355077,0.004834361353889108,-0.018455474949255583
1772709161658658800,8.124658935546876,0.030025135907530785,0.005078910699486732,0.013871763888187706
1772709161668683800,8.134683837890625,0.023586627292633056,0.010449863148108125,0.023959004268981517
1772709161678708700,8.144708740234375,0.033306057274341584,-0.008117109351605176,0.01248144204095006
1772709161688733700,8.154733642578124,0.030600305446982383,-0.010317615070566534,-0.006347067471779882
1772709161698759000,8.164759033203126,0.024010990184545517,-0.006988105321675538,-0.004528985199145972
1772709161708783900,8.174783935546875,0.008445172262191773,-0.016218436612188816,0.014474332891218364
1772709161718807800,8.184807861328125,-0.0033709377378225323,-0.0099231358602643,0.004863514383137226
1772709161728832800,8.194832763671876,0.014732289707660674,-0.0036657559659332034,-0.00903532017506659
1772709161738857700,8.204857666015625,0.043912206962704654,-0.008159487188607454,0.010631284129619598
1772709161748882700,8.214882568359375,0.04286941991150379,-0.0047643648575991385,0.0051668447112664575
1772709161758908000,8.224907958984375,0.029860885256528854,0.0033907384168356653,0.004152114710770547
1772709161768932900,8.234932861328126,0.008619359785318375,-0.002641965876147151,0.00011149755045771598
1772709161778957800,8.244957763671875,-0.0005056114345788955,-0.01154138471186161,0.01108779572546482
1772709161788982800,8.254982666015625,0.038707039535045625,-0.016343232035636902,0.004613704340532421
1772709161799008000,8.265008056640625,0.04619008876681328,-0.014503522453084587,-0.0004262625880539417
1772709161809032700,8.27503271484375,0.04244038084447384,-0.02170695102587342,-0.0038632878320291634
1772709161819057700,8.2850576171875,0.044077042135596274,-0.01529657252691686,0.005435542117431759
1772709161829082600,8.29508251953125,0.011454875472187995,0.009050225483253597,0.015486286412738262
1772709161839107800,8.30510791015625,0.005014613291621208,-0.010263619861006736,-0.004298245183192193
1772709161849132800,8.3151328125,0.027598201021552086,-0.015533376957476138,-0.0067963821418583386
1772709161859157800,8.32515771484375,0.035680385190248486,-0.006604439766332507,0.005376176613010466
1772709161869182700,8.3351826171875,0.03718494453430175,-0.01149710717871785,0.0012801760036498307
1772709161879208000,8.3452080078125,0.04434124602973461,-0.0006595598872750997,0.027610074122436344
1772709161889233000,8.35523291015625,0.03401332876086235,-0.015541341068223118,0.006999393900670111
1772709161899256800,8.3652568359375,0.00812894591987133,-0.00886310541331768,-0.016642251514829693
1772709161909281800,8.37528173828125,0.00886485897898674,0.0029604572407901284,0.01303469200953841
1772709161919306800,8.385306640625,0.03517535827755928,-0.028945962368696926,0.013984284351952373
1772709161929331700,8.395331787109376,0.05296645103394985,-0.005161474416404962,0.00039718262404203413
1772709161939357000,8.40535693359375,0.0323117855399847,-0.010178425795584917,-0.001702675732038915
1772709161949382000,8.4153818359375,0.008508300626277924,-0.000542144052684307,0.0013179872633889316
1772709161959406800,8.42540673828125,0.016305238112807274,-0.005700841990113258,0.017223777729831635
1772709161969431800,8.435431884765626,0.0386427421271801,-0.004743760460987687,0.0034970483355224132
1772709161979457000,8.44545703125,0.09304360987842082,0.0412350967079401,0.014149813644587993
1772709161989481700,8.455481689453125,0.17464929541945456,0.059852776481583714,0.038035168155469
1772709161999506700,8.465506591796874,0.048020811325311656,-0.03501132682226598,-0.011118336994200945
1772709162009531600,8.47553173828125,-0.07948796273469924,-0.04354651545546949,-0.027715762986615298
1772709162019556900,8.485556884765625,-0.046802667707204815,0.0029861762039363384,-0.015990728803537784
1772709162029581800,8.495581787109375,0.0024450550645589825,-0.024079160049930215,-0.014742007384076713
1772709162039606800,8.505606689453124,0.001693359914422035,-0.03412109998427331,-0.011836495200917124
1772709162049631700,8.5156318359375,0.02750818465054035,0.01453406372182071,-0.008531791099719703
1772709162059657000,8.525656982421875,0.004808277064561843,0.018830738002434372,-0.021464812833070755
1772709162069681000,8.535680908203124,-0.08922434385120868,-0.05253332031369209,-0.04203015607576817
1772709162079705600,8.54570556640625,-0.09587854104340075,-0.07705043338946997,0.0029248744707554577
1772709162089730800,8.555730712890625,-0.024940379989147186,-0.010903817460685968,0.0331799101440236
1772709162099755800,8.565755859375,0.06023498073220253,0.001342792911082506,0.05014419668745249
1772709162109780700,8.57578076171875,0.17756313703954218,-0.03375248586758971,0.07403382551465183
1772709162119805700,8.5858056640625,0.24194880771040916,-0.1319453682679683,0.14386464638151228
