time,seconds_elapsed,z,y,x
1772709153589828000,0.055828125,-0.997650146484375,0.0594329833984375,-0.044830322265625
1772709153599853000,0.06585302734375,-0.996185302734375,0.0628814697265625,-0.0433502197265625
1772709153609878000,0.0758779296875,-0.992095947265625,0.0673370361328125,-0.040771484375
1772709153619903000,0.085903076171875,-0.990631103515625,0.0655975341796875,-0.0395660400390625
1772709153629928200,0.09592822265625,-0.9937896728515625,0.064453125,-0.042572021484375
1772709153639953200,0.105953125,-0.998138427734375,0.065277099609375,-0.041839599609375
1772709153649977900,0.115977783203125,-0.9975128173828125,0.0652008056640625,-0.042205810546875
1772709153660003000,0.126003173828125,-0.9927825927734375,0.065704345703125,-0.040283203125
1772709153670028000,0.136028076171875,-0.9904327392578125,0.0644683837890625,-0.040863037109375
1772709153680053000,0.146052978515625,-0.9931793212890625,0.0650634765625,-0.0423126220703125
1772709153690078000,0.156077880859375,-0.9958953857421875,0.066192626953125,-0.04144287109375
1772709153700103200,0.166103271484375,-0.995025634765625,0.06793212890625,-0.042022705078125
1772709153710128000,0.176128173828125,-0.9950103759765625,0.0667266845703125,-0.0404815673828125
1772709153720153000,0.186153076171875,-0.994537353515625,0.0643310546875,-0.042022705078125
1772709153730178000,0.196177978515625,-0.9937591552734375,0.0673675537109375,-0.041839599609375
1772709153740203300,0.206203369140625,-0.9932098388671875,0.0676422119140625,-0.0427093505859375
1772709153750227000,0.21622705078125,-0.9942626953125,0.0651092529296875,-0.0414886474609375
1772709153760252000,0.226251953125,-0.993621826171875,0.0637664794921875,-0.0407562255859375
1772709153770277000,0.236277099609375,-0.9940338134765625,0.0638885498046875,-0.0423583984375
1772709153780302000,0.246302001953125,-0.994415283203125,0.0673980712890625,-0.0427093505859375
1772709153790327000,0.2563271484375,-0.9953460693359375,0.0674285888671875,-0.0435943603515625
1772709153800352000,0.26635205078125,-0.99285888671875,0.0665130615234375,-0.0417633056640625
1772709153810377200,0.276377197265625,-0.9932708740234375,0.065765380859375,-0.0410919189453125
1772709153820402200,0.286402099609375,-0.9949493408203125,0.065826416015625,-0.0412750244140625
1772709153830427000,0.296427001953125,-0.9944915771484375,0.066925048828125,-0.0422821044921875
1772709153840451800,0.306451904296875,-0.99395751953125,0.0661468505859375,-0.0416259765625
1772709153850477000,0.31647705078125,-0.99407958984375,0.0637359619140625,-0.0409698486328125
1772709153860502000,0.326501953125,-0.994537353515625,0.0649566650390625,-0.041290283203125
1772709153870527000,0.33652685546875,-0.9957733154296875,0.0667266845703125,-0.0423736572265625
1772709153880552000,0.346552001953125,-0.9932708740234375,0.066558837890625,-0.0426788330078125
1772709153890577200,0.3565771484375,-0.9931182861328125,0.0648651123046875,-0.0416412353515625
1772709153900602000,0.36660205078125,-0.994659423828125,0.0660552978515625,-0.0407867431640625
1772709153910627000,0.376626953125,-0.9981536865234375,0.065460205078125,-0.04205322265625
1772709153920652000,0.386652099609375,-0.9947052001953125,0.066009521484375,-0.0426788330078125
1772709153930677000,0.396677001953125,-0.9923248291015625,0.065826416015625,-0.040771484375
1772709153940702000,0.406701904296875,-0.99365234375,0.0648193359375,-0.041656494140625
1772709153950726100,0.41672607421875,-0.993621826171875,0.0660858154296875,-0.0415191650390625
1772709153960751000,0.426751220703125,-0.9947509765625,0.0654144287109375,-0.0411224365234375
1772709153970776000,0.436776123046875,-0.99591064453125,0.0652618408203125,-0.04071044921875
1772709153980801000,0.446801025390625,-0.995025634765625,0.0630645751953125,-0.0398406982421875
1772709153990826200,0.456826171875,-0.9930572509765625,0.0654754638671875,-0.0421142578125
1772709154000851200,0.466851318359375,-0.992523193359375,0.068603515625,-0.044403076171875
1772709154010876000,0.4768759765625,-0.995849609375,0.0675048828125,-0.0409698486328125
1772709154020900900,0.48690087890625,-0.9957275390625,0.064727783203125,-0.038360595703125
1772709154030926000,0.496926025390625,-0.9947967529296875,0.061798095703125,-0.0397186279296875
1772709154040951000,0.506950927734375,-0.9957427978515625,0.063751220703125,-0.043060302734375
1772709154050976500,0.5169765625,-0.993865966796875,0.0660552978515625,-0.0447998046875
1772709154061001200,0.527001220703125,-0.9940643310546875,0.0656280517578125,-0.0436248779296875
1772709154071026400,0.5370263671875,-0.9938201904296875,0.0642852783203125,-0.0408782958984375
1772709154081051400,0.547051513671875,-0.9939727783203125,0.06451416015625,-0.0413665771484375
1772709154091076400,0.557076416015625,-0.997100830078125,0.0662689208984375,-0.0405426025390625
1772709154101101300,0.567101318359375,-0.9952392578125,0.0670318603515625,-0.0425872802734375
1772709154111126500,0.57712646484375,-0.9935760498046875,0.0665283203125,-0.041229248046875
1772709154121151500,0.5871513671875,-0.9905853271484375,0.064971923828125,-0.0406036376953125
1772709154131176400,0.597176513671875,-0.993927001953125,0.0635986328125,-0.0399322509765625
1772709154141201400,0.607201416015625,-0.9954681396484375,0.0637359619140625,-0.0401611328125
1772709154151226600,0.6172265625,-0.994598388671875,0.065093994140625,-0.0400848388671875
1772709154161250300,0.627250244140625,-0.9957427978515625,0.065948486328125,-0.04168701171875
1772709154171275300,0.637275146484375,-0.9948577880859375,0.06378173828125,-0.0422515869140625
1772709154181300500,0.647300537109375,-0.99359130859375,0.0658416748046875,-0.0411834716796875
1772709154191325400,0.657325439453125,-0.99444580078125,0.06561279296875,-0.0398101806640625
1772709154201350400,0.667350341796875,-0.9959869384765625,0.0657501220703125,-0.039520263671875
1772709154211375400,0.677375244140625,-0.9960479736328125,0.0655517578125,-0.041229248046875
1772709154221400600,0.687400634765625,-0.9954376220703125,0.0647430419921875,-0.0420989990234375
1772709154231425500,0.697425537109375,-0.99383544921875,0.064453125,-0.0407867431640625
1772709154241450200,0.7074501953125,-0.9940185546875,0.0652618408203125,-0.0401458740234375
1772709154251475500,0.717475341796875,-0.99444580078125,0.0640716552734375,-0.0416107177734375
1772709154261500400,0.72750048828125,-0.99517822265625,0.06494140625,-0.041900634765625
1772709154271525400,0.737525390625,-0.99395751953125,0.064697265625,-0.0408935546875
1772709154281550300,0.74755029296875,-0.9939117431640625,0.0642242431640625,-0.0401611328125
1772709154291575600,0.757575439453125,-0.9954681396484375,0.0663299560546875,-0.0391387939453125
1772709154301600500,0.7676005859375,-0.9948577880859375,0.0685882568359375,-0.0410308837890625
1772709154311625500,0.77762548828125,-0.994781494140625,0.0667572021484375,-0.0408935546875
1772709154321650400,0.787650390625,-0.9936065673828125,0.0653839111328125,-0.0411834716796875
1772709154331675600,0.797675537109375,-0.9930877685546875,0.0661773681640625,-0.0397491455078125
1772709154341700400,0.807700439453125,-0.993804931640625,0.0652313232421875,-0.0401458740234375
1772709154351725300,0.817725341796875,-0.9945068359375,0.064056396484375,-0.041839599609375
1772709154361750300,0.827750244140625,-0.9951629638671875,0.0645599365234375,-0.0409393310546875
1772709154371775500,0.837775390625,-0.994232177734375,0.0625457763671875,-0.0396575927734375
1772709154381799400,0.84779931640625,-0.9945068359375,0.0635223388671875,-0.0411376953125
1772709154391824400,0.857824462890625,-0.9932861328125,0.0647430419921875,-0.041290283203125
1772709154401849600,0.867849609375,-0.993682861328125,0.06365966796875,-0.039306640625
1772709154411874300,0.877874267578125,-0.994415283203125,0.0626678466796875,-0.0395050048828125
1772709154421899300,0.887899169921875,-0.9931640625,0.0635986328125,-0.0402984619140625
1772709154431924200,0.89792431640625,-0.9944915771484375,0.065673828125,-0.04150390625
1772709154441949400,0.907949462890625,-0.9947052001953125,0.0664520263671875,-0.041473388671875
1772709154451974400,0.917974365234375,-0.99456787109375,0.0648345947265625,-0.040679931640625
1772709154461999400,0.927999267578125,-0.995452880859375,0.0646820068359375,-0.0399169921875
1772709154472024300,0.9380244140625,-0.995208740234375,0.0660858154296875,-0.041107177734375
1772709154482049500,0.948049560546875,-0.994415283203125,0.0670623779296875,-0.0404052734375
1772709154492074500,0.958074462890625,-0.994384765625,0.0663909912109375,-0.0419769287109375
1772709154502099500,0.968099365234375,-0.9947509765625,0.0675048828125,-0.039306640625
1772709154512124400,0.97812451171875,-0.99493408203125,0.06671142578125,-0.0402374267578125
1772709154522149400,0.9881494140625,-0.9959716796875,0.063232421875,-0.0395050048828125
1772709154532174300,0.99817431640625,-0.9946441650390625,0.06219482421875,-0.039703369140625
1772709154542199300,1.00819921875,-0.9934539794921875,0.0641937255859375,-0.040374755859375
1772709154552224500,1.018224609375,-0.9918670654296875,0.0650787353515625,-0.04095458984375
1772709154562249500,1.02824951171875,-0.9951019287109375,0.0652008056640625,-0.0405731201171875
1772709154572274400,1.0382744140625,-0.995819091796875,0.0643463134765625,-0.0375823974609375
1772709154582299400,1.04829931640625,-0.99432373046875,0.0607147216796875,-0.039794921875
1772709154592323300,1.0583232421875,-0.994384765625,0.061859130859375,-0.0406951904296875
1772709154602348300,1.068348388671875,-0.9949188232421875,0.0644683837890625,-0.0422515869140625
1772709154612373200,1.078373291015625,-0.994537353515625,0.06463623046875,-0.04193115234375
1772709154622398500,1.0883984375,-0.9949951171875,0.0637054443359375,-0.0408172607421875
1772709154632423400,1.09842333984375,-0.993743896484375,0.06317138671875,-0.0396270751953125
1772709154642448400,1.108448486328125,-0.9947967529296875,0.063201904296875,-0.0407562255859375
1772709154652473300,1.118473388671875,-0.99420166015625,0.067047119140625,-0.040924072265625
1772709154662498600,1.12849853515625,-0.9946136474609375,0.067535400390625,-0.04052734375
1772709154672523500,1.1385234375,-0.9944000244140625,0.065887451171875,-0.0400543212890625
1772709154682548500,1.148548583984375,-0.993896484375,0.066162109375,-0.0401458740234375
1772709154692573200,1.1585732421875,-0.994415283203125,0.0652313232421875,-0.0408172607421875
1772709154702598400,1.168598388671875,-0.9944305419921875,0.063995361328125,-0.0397491455078125
1772709154712623400,1.178623291015625,-0.9946441650390625,0.063873291015625,-0.0395660400390625
1772709154722648300,1.1886484375,-0.9946136474609375,0.0638427734375,-0.0389862060546875
1772709154732673300,1.19867333984375,-0.9930419921875,0.06671142578125,-0.0403289794921875
1772709154742698500,1.208698486328125,-0.9939727783203125,0.0643463134765625,-0.0399322509765625
1772709154752723500,1.218723388671875,-0.9944915771484375,0.0634918212890625,-0.0393829345703125
1772709154762748400,1.22874853515625,-0.99420166015625,0.0647430419921875,-0.040435791015625
1772709154772773600,1.238773681640625,-0.9943389892578125,0.0642852783203125,-0.039337158203125
1772709154782798600,1.248798583984375,-0.99615478515625,0.0647735595703125,-0.040679931640625
1772709154792823300,1.2588232421875,-0.994659423828125,0.064666748046875,-0.0407562255859375
1772709154802848300,1.26884814453125,-0.993621826171875,0.064697265625,-0.0393218994140625
1772709154812872400,1.27887255859375,-0.99359130859375,0.0647125244140625,-0.0400848388671875
1772709154822897400,1.2888974609375,-0.993804931640625,0.0648345947265625,-0.041778564453125
1772709154832922400,1.29892236328125,-0.994384765625,0.065155029296875,-0.0401458740234375
1772709154842947600,1.308947509765625,-0.994537353515625,0.065338134765625,-0.0397186279296875
1772709154852972500,1.31897265625,-0.994903564453125,0.0647125244140625,-0.0401458740234375
1772709154862997500,1.32899755859375,-0.994842529296875,0.064666748046875,-0.0417633056640625
1772709154873022200,1.339022216796875,-0.9935302734375,0.063568115234375,-0.0416259765625
1772709154883047400,1.34904736328125,-0.992889404296875,0.06475830078125,-0.040130615234375
1772709154893072400,1.359072265625,-0.993560791015625,0.065399169921875,-0.0411224365234375
1772709154903097300,1.369097412109375,-0.9951324462890625,0.06451416015625,-0.0413970947265625
1772709154913122300,1.379122314453125,-0.99432373046875,0.0642852783203125,-0.041412353515625
1772709154923147500,1.3891474609375,-0.994384765625,0.063873291015625,-0.0389556884765625
1772709154933172500,1.39917236328125,-0.9941864013671875,0.0646820068359375,-0.038482666015625
1772709154943197400,1.409197509765625,-0.9939422607421875,0.0643157958984375,-0.039306640625
1772709154953222400,1.419222412109375,-0.994537353515625,0.063507080078125,-0.0410308837890625
1772709154963247400,1.429247314453125,-0.993560791015625,0.0637054443359375,-0.038970947265625
1772709154973272300,1.439272216796875,-0.993896484375,0.0628204345703125,-0.0388031005859375
1772709154983297300,1.44929736328125,-0.995941162109375,0.0644378662109375,-0.0410308837890625
1772709154993322500,1.459322509765625,-0.9944915771484375,0.063446044921875,-0.0406036376953125
1772709155003346400,1.469346435546875,-0.993316650390625,0.0635833740234375,-0.0415802001953125
1772709155013371400,1.479371337890625,-0.994140625,0.0633697509765625,-0.039764404296875
1772709155023396600,1.489396728515625,-0.995025634765625,0.0650177001953125,-0.04034423828125
1772709155033421600,1.499421630859375,-0.994415283203125,0.0652313232421875,-0.04193115234375
1772709155043446300,1.5094462890625,-0.9936676025390625,0.06414794921875,-0.04022216796875
1772709155053471000,1.519470947265625,-0.993499755859375,0.0660400390625,-0.0397186279296875
1772709155063496000,1.529495849609375,-0.9956207275390625,0.066131591796875,-0.0407257080078125
1772709155073521000,1.53952099609375,-0.99517822265625,0.0648040771484375,-0.040771484375
1772709155083545900,1.5495458984375,-0.9938507080078125,0.064056396484375,-0.0403289794921875
1772709155093571000,1.559571044921875,-0.9921875,0.06512451171875,-0.0412750244140625
1772709155103596000,1.569595947265625,-0.993865966796875,0.0673675537109375,-0.0411529541015625
1772709155113621000,1.57962109375,-0.996185302734375,0.0673980712890625,-0.0408935546875
1772709155123646000,1.58964599609375,-0.9949798583984375,0.065826416015625,-0.03826904296875
1772709155133671000,1.5996708984375,-0.99420166015625,0.06243896484375,-0.0381927490234375
1772709155143696000,1.60969580078125,-0.9940185546875,0.06353759765625,-0.04150390625
1772709155153720800,1.619720947265625,-0.9947967529296875,0.0659332275390625,-0.04327392578125
1772709155163745800,1.629745849609375,-0.9942169189453125,0.0659942626953125,-0.04180908203125
1772709155173771000,1.63977099609375,-0.9945068359375,0.0639190673828125,-0.04010009765625
1772709155183796000,1.6497958984375,-0.9941253662109375,0.063385009765625,-0.0414886474609375
1772709155193821000,1.659821044921875,-0.995361328125,0.06463623046875,-0.04107666015625
1772709155203846000,1.669845947265625,-0.99468994140625,0.0653839111328125,-0.041748046875
1772709155213869800,1.679869873046875,-0.9932708740234375,0.065887451171875,-0.03997802734375
1772709155223894800,1.689894775390625,-0.992584228515625,0.064788818359375,-0.04022216796875
1772709155233919700,1.699919677734375,-0.994384765625,0.0659637451171875,-0.0391845703125
1772709155243945000,1.709945068359375,-0.9967041015625,0.0663299560546875,-0.039581298828125
1772709155253970000,1.719969970703125,-0.9957275390625,0.0657806396484375,-0.03924560546875
1772709155263995000,1.729994873046875,-0.9948577880859375,0.064544677734375,-0.039947509765625
1772709155274019800,1.740019775390625,-0.9933319091796875,0.0651092529296875,-0.0413055419921875
1772709155284045000,1.750045166015625,-0.992645263671875,0.0659332275390625,-0.0397796630859375
1772709155294070000,1.760070068359375,-0.9950103759765625,0.065093994140625,-0.041229248046875
1772709155304095000,1.770094970703125,-0.994842529296875,0.0654296875,-0.0406494140625
1772709155314120000,1.780119873046875,-0.9945220947265625,0.06524658203125,-0.0407257080078125
1772709155324145000,1.790144775390625,-0.99371337890625,0.06549072265625,-0.04254150390625
1772709155334169900,1.800169921875,-0.99456787109375,0.064727783203125,-0.0406036376953125
1772709155344194800,1.81019482421875,-0.9927215576171875,0.0625152587890625,-0.041961669921875
1772709155354220000,1.820219970703125,-0.9951171875,0.0645751953125,-0.040252685546875
1772709155364245000,1.830244873046875,-0.9947052001953125,0.06463623046875,-0.0409088134765625
1772709155374270000,1.84027001953125,-0.993438720703125,0.0665283203125,-0.0409088134765625
1772709155384295000,1.850294921875,-0.993804931640625,0.06640625,-0.040374755859375
1772709155394320100,1.860320068359375,-0.993896484375,0.0646514892578125,-0.0391387939453125
1772709155404344800,1.8703447265625,-0.9941558837890625,0.0654449462890625,-0.039520263671875
1772709155414368800,1.88036865234375,-0.9947967529296875,0.065582275390625,-0.0398406982421875
1772709155424394000,1.89039404296875,-0.9941558837890625,0.0648345947265625,-0.04180908203125
1772709155434419000,1.9004189453125,-0.9936981201171875,0.064453125,-0.0412139892578125
1772709155444444000,1.91044384765625,-0.993499755859375,0.065673828125,-0.041778564453125
1772709155454468900,1.92046875,-0.9940032958984375,0.0663299560546875,-0.0432891845703125
1772709155464494000,1.930494140625,-0.9943695068359375,0.064422607421875,-0.042144775390625
1772709155474519000,1.94051904296875,-0.99505615234375,0.0629425048828125,-0.0410308837890625
1772709155484543700,1.950543701171875,-0.99249267578125,0.0641326904296875,-0.0394134521484375
1772709155494568700,1.960568603515625,-0.9930877685546875,0.0654449462890625,-0.0405731201171875
1772709155504594000,1.970593994140625,-0.9951934814453125,0.06475830078125,-0.0408782958984375
1772709155514619000,1.980618896484375,-0.9945831298828125,0.0645904541015625,-0.0411376953125
1772709155524643800,1.990643798828125,-0.9950714111328125,0.0648651123046875,-0.0399169921875
1772709155534668800,2.000668701171875,-0.9950408935546875,0.065704345703125,-0.0399932861328125
1772709155544694000,2.010694091796875,-0.9948577880859375,0.06536865234375,-0.0411834716796875
1772709155554719000,2.020718994140625,-0.9942474365234375,0.066375732421875,-0.04095458984375
1772709155564744000,2.030743896484375,-0.9949188232421875,0.066375732421875,-0.0419158935546875
1772709155574769000,2.040768798828125,-0.995086669921875,0.067901611328125,-0.04193115234375
1772709155584793900,2.0507939453125,-0.9950714111328125,0.0664825439453125,-0.0403900146484375
1772709155594818800,2.06081884765625,-0.9944610595703125,0.0653228759765625,-0.04180908203125
1772709155604843800,2.07084375,-0.9936676025390625,0.066162109375,-0.0410308837890625
1772709155614869000,2.080868896484375,-0.99468994140625,0.0647125244140625,-0.0404205322265625
1772709155624894000,2.09089404296875,-0.9954681396484375,0.0647430419921875,-0.0406341552734375
1772709155634918000,2.10091796875,-0.9940032958984375,0.06689453125,-0.04034423828125
1772709155644943000,2.110943115234375,-0.992767333984375,0.0675811767578125,-0.042205810546875
1772709155654968000,2.120968017578125,-0.9947052001953125,0.0674285888671875,-0.04150390625
1772709155664992800,2.13099267578125,-0.995697021484375,0.0648193359375,-0.03887939453125
1772709155675017700,2.141017822265625,-0.9959564208984375,0.0631256103515625,-0.038330078125
1772709155685043000,2.15104296875,-0.99407958984375,0.0622711181640625,-0.0425872802734375
1772709155695068000,2.16106787109375,-0.9944000244140625,0.066375732421875,-0.043304443359375
1772709155705092900,2.1710927734375,-0.9935760498046875,0.0657501220703125,-0.0435333251953125
1772709155715117800,2.181117919921875,-0.992431640625,0.0650787353515625,-0.0409698486328125
1772709155725143000,2.19114306640625,-0.993499755859375,0.0658111572265625,-0.040069580078125
1772709155735168000,2.20116796875,-0.9950714111328125,0.0671234130859375,-0.0413818359375
1772709155745193000,2.21119287109375,-0.99615478515625,0.0683746337890625,-0.0416412353515625
1772709155755218000,2.221218017578125,-0.993377685546875,0.0670928955078125,-0.0411834716796875
1772709155765243000,2.231242919921875,-0.992919921875,0.0677642822265625,-0.039459228515625
1772709155775267800,2.241267822265625,-0.992889404296875,0.067535400390625,-0.0397491455078125
1772709155785292800,2.251292724609375,-0.9945220947265625,0.0665130615234375,-0.04010009765625
1772709155795318000,2.261318115234375,-0.9960784912109375,0.0650177001953125,-0.042327880859375
1772709155805343000,2.271343017578125,-0.9944000244140625,0.066925048828125,-0.0423126220703125
1772709155815368000,2.281367919921875,-0.9947052001953125,0.0665283203125,-0.0413818359375
1772709155825393000,2.291392822265625,-0.9944000244140625,0.0663299560546875,-0.0408935546875
1772709155835418000,2.301418212890625,-0.993011474609375,0.0675048828125,-0.0410614013671875
1772709155845441800,2.31144189453125,-0.994140625,0.0668792724609375,-0.0408782958984375
1772709155855466800,2.321466796875,-0.9951019287109375,0.0654449462890625,-0.0417633056640625
1772709155865492000,2.331491943359375,-0.996063232421875,0.0668792724609375,-0.041168212890625
1772709155875517000,2.341516845703125,-0.994720458984375,0.0657196044921875,-0.0409088134765625
1772709155885542000,2.3515419921875,-0.992767333984375,0.0663604736328125,-0.0411529541015625
1772709155895566800,2.36156689453125,-0.9933624267578125,0.0655364990234375,-0.0428009033203125
1772709155905592000,2.371592041015625,-0.99322509765625,0.0671539306640625,-0.0418243408203125
1772709155915617000,2.381616943359375,-0.9951629638671875,0.0677947998046875,-0.0412139892578125
1772709155925642000,2.39164208984375,-0.995849609375,0.067962646484375,-0.04119873046875
1772709155935666700,2.401666748046875,-0.9940185546875,0.066864013671875,-0.0414276123046875
1772709155945692000,2.41169189453125,-0.993621826171875,0.0701446533203125,-0.0423736572265625
1772709155955716900,2.421716796875,-0.9933013916015625,0.06854248046875,-0.04205322265625
1772709155965741800,2.431741943359375,-0.9938507080078125,0.06549072265625,-0.0410614013671875
1772709155975766800,2.441766845703125,-0.99468994140625,0.0662078857421875,-0.041229248046875
1772709155985792000,2.4517919921875,-0.9944000244140625,0.0670318603515625,-0.042724609375
1772709155995817000,2.46181689453125,-0.99615478515625,0.0676422119140625,-0.0416107177734375
1772709156005842000,2.471842041015625,-0.9954071044921875,0.0692901611328125,-0.040924072265625
1772709156015867000,2.481866943359375,-0.993072509765625,0.0670623779296875,-0.0396728515625
1772709156025892000,2.49189208984375,-0.992950439453125,0.0673675537109375,-0.0393524169921875
1772709156035916800,2.501916748046875,-0.993408203125,0.0680694580078125,-0.0404510498046875
1772709156045941800,2.511941650390625,-0.99462890625,0.06805419921875,-0.041900634765625
1772709156055967000,2.521967041015625,-0.9950408935546875,0.0667877197265625,-0.041229248046875
1772709156065991000,2.531990966796875,-0.9929046630859375,0.0669403076171875,-0.042388916015625
1772709156076015900,2.542015869140625,-0.9936676025390625,0.0683135986328125,-0.0418243408203125
1772709156086041000,2.552041015625,-0.992584228515625,0.069061279296875,-0.0422821044921875
1772709156096066000,2.562066162109375,-0.994232177734375,0.0669403076171875,-0.042999267578125
1772709156106091000,2.572091064453125,-0.9948272705078125,0.06854248046875,-0.0408782958984375
1772709156116115700,2.58211572265625,-0.9944305419921875,0.06744384765625,-0.0402374267578125
1772709156126141000,2.592140869140625,-0.995452880859375,0.0683746337890625,-0.0401153564453125
1772709156136166000,2.602165771484375,-0.996246337890625,0.06732177734375,-0.041412353515625
1772709156146190800,2.61219091796875,-0.99310302734375,0.0645751953125,-0.03997802734375
1772709156156215800,2.6222158203125,-0.9936981201171875,0.0636749267578125,-0.04034423828125
1772709156166241000,2.632240966796875,-0.9943084716796875,0.066864013671875,-0.0404510498046875
1772709156176266000,2.642265869140625,-0.9942779541015625,0.0697021484375,-0.04327392578125
1772709156186291000,2.652291015625,-0.995697021484375,0.068695068359375,-0.0400238037109375
1772709156196316000,2.66231591796875,-0.9943084716796875,0.0653228759765625,-0.0373992919921875
1772709156206341000,2.672341064453125,-0.9922637939453125,0.0638580322265625,-0.0400390625
1772709156216365800,2.68236572265625,-0.994873046875,0.0630645751953125,-0.04315185546875
1772709156226390800,2.692390869140625,-0.995635986328125,0.0682830810546875,-0.043792724609375
1772709156236415700,2.702415771484375,-0.9932861328125,0.06695556640625,-0.0411834716796875
1772709156246441000,2.71244091796875,-0.99407958984375,0.064971923828125,-0.0399017333984375
1772709156256466000,2.7224658203125,-0.9962005615234375,0.0659942626953125,-0.04058837890625
1772709156266491000,2.732490966796875,-0.9960479736328125,0.067901611328125,-0.0408935546875
1772709156276515000,2.74251513671875,-0.9952239990234375,0.0697479248046875,-0.0406036376953125
1772709156286540000,2.7525400390625,-0.9917755126953125,0.0671539306640625,-0.039031982421875
1772709156296564700,2.762564697265625,-0.9919281005859375,0.0662689208984375,-0.0396575927734375
1772709156306590000,2.77258984375,-0.993408203125,0.0665740966796875,-0.0406646728515625
1772709156316615000,2.782614990234375,-0.99505615234375,0.067108154296875,-0.04022216796875
1772709156326639900,2.792639892578125,-0.9961395263671875,0.0658721923828125,-0.0410919189453125
1772709156336664800,2.802664794921875,-0.99554443359375,0.0652313232421875,-0.0405426025390625
1772709156346690000,2.81268994140625,-0.99261474609375,0.065338134765625,-0.0404815673828125
1772709156356715000,2.822715087890625,-0.992889404296875,0.0656585693359375,-0.040557861328125
1772709156366740000,2.832739990234375,-0.99468994140625,0.0662994384765625,-0.03900146484375
1772709156376765000,2.842764892578125,-0.9950408935546875,0.066619873046875,-0.0405426025390625
1772709156386790000,2.852789794921875,-0.9947662353515625,0.06585693359375,-0.041107177734375
1772709156396814800,2.86281494140625,-0.994659423828125,0.0654449462890625,-0.0406036376953125
1772709156406839800,2.87283984375,-0.9942626953125,0.0653076171875,-0.040740966796875
1772709156416864800,2.88286474609375,-0.9939727783203125,0.0652618408203125,-0.041015625
1772709156426890000,2.892889892578125,-0.9940948486328125,0.065826416015625,-0.041046142578125
1772709156436915000,2.9029150390625,-0.994781494140625,0.0666046142578125,-0.041656494140625
1772709156446940000,2.91293994140625,-0.9962615966796875,0.0657196044921875,-0.03997802734375
1772709156456964900,2.92296484375,-0.9944610595703125,0.0659332275390625,-0.040740966796875
1772709156466990000,2.932989990234375,-0.9934234619140625,0.06707763671875,-0.040802001953125
1772709156477013800,2.943013671875,-0.994842529296875,0.0679168701171875,-0.0411224365234375
1772709156487039000,2.9530390625,-0.995086669921875,0.0638275146484375,-0.0406646728515625
1772709156497064000,2.96306396484375,-0.9946441650390625,0.06414794921875,-0.0393218994140625
1772709156507089000,2.9730888671875,-0.994140625,0.0658111572265625,-0.042266845703125
1772709156517113900,2.98311376953125,-0.9940948486328125,0.066009521484375,-0.041412353515625
1772709156527139000,2.99313916015625,-0.994140625,0.0668487548828125,-0.0410614013671875
1772709156537164000,3.0031640625,-0.9940338134765625,0.0664215087890625,-0.040008544921875
1772709156547189000,3.01318896484375,-0.993927001953125,0.065887451171875,-0.0408935546875
1772709156557214000,3.0232138671875,-0.9931793212890625,0.0658416748046875,-0.0414581298828125
1772709156567239000,3.033239013671875,-0.993743896484375,0.0646820068359375,-0.04058837890625
1772709156577263900,3.043263916015625,-0.9941558837890625,0.0653839111328125,-0.0389251708984375
1772709156587288800,3.053288818359375,-0.9939727783203125,0.0649871826171875,-0.038055419921875
1772709156597313800,3.063313720703125,-0.994903564453125,0.0646820068359375,-0.0409088134765625
1772709156607339000,3.073339111328125,-0.9940338134765625,0.0645751953125,-0.0409698486328125
1772709156617364000,3.083364013671875,-0.9938812255859375,0.0652618408203125,-0.03997802734375
1772709156627389000,3.093388916015625,-0.993377685546875,0.066162109375,-0.0421905517578125
1772709156637414000,3.103413818359375,-0.9942474365234375,0.066253662109375,-0.0404815673828125
1772709156647439000,3.113439208984375,-0.994903564453125,0.065185546875,-0.0413970947265625
1772709156657464000,3.123464111328125,-0.9944305419921875,0.0642852783203125,-0.0416259765625
1772709156667488800,3.13348876953125,-0.994476318359375,0.0642852783203125,-0.0406494140625
1772709156677513700,3.143513671875,-0.9947052001953125,0.0639190673828125,-0.0390625
1772709156687539000,3.1535390625,-0.994781494140625,0.0652618408203125,-0.0404815673828125
1772709156697563000,3.16356298828125,-0.9955291748046875,0.0672607421875,-0.0419464111328125
1772709156707587800,3.173587890625,-0.9926910400390625,0.068389892578125,-0.041046142578125
1772709156717613000,3.183613037109375,-0.992156982421875,0.0633697509765625,-0.037353515625
1772709156727638000,3.193637939453125,-0.9934539794921875,0.059906005859375,-0.039581298828125
1772709156737663000,3.2036630859375,-0.9967041015625,0.0654296875,-0.0399322509765625
1772709156747688000,3.21368798828125,-1.001220703125,0.06927490234375,-0.04327392578125
1772709156757713000,3.223712890625,-0.9973297119140625,0.0655670166015625,-0.04180908203125
1772709156767737900,3.23373779296875,-0.98626708984375,0.061279296875,-0.04217529296875
1772709156777762800,3.2437626953125,-0.986968994140625,0.0650482177734375,-0.039794921875
1772709156787788000,3.2537880859375,-0.9953460693359375,0.06524658203125,-0.0429229736328125
1772709156797813000,3.26381298828125,-1.0023040771484375,0.06561279296875,-0.0404205322265625
1772709156807838000,3.273837890625,-0.9981842041015625,0.06573486328125,-0.0406646728515625
1772709156817863000,3.28386279296875,-0.99151611328125,0.0644989013671875,-0.0388946533203125
1772709156827888000,3.29388818359375,-0.989959716796875,0.0657501220703125,-0.039794921875
1772709156837912800,3.303912841796875,-0.9927215576171875,0.0638885498046875,-0.0405120849609375
1772709156847937800,3.313937744140625,-0.9938507080078125,0.0637664794921875,-0.040191650390625
1772709156857962800,3.323962646484375,-0.993896484375,0.066253662109375,-0.042266845703125
1772709156867988000,3.333988037109375,-0.996368408203125,0.0634002685546875,-0.0421905517578125
1772709156878013000,3.344012939453125,-0.9965667724609375,0.067779541015625,-0.041046142578125
1772709156888038000,3.354037841796875,-1.0010223388671875,0.066253662109375,-0.0421905517578125
1772709156898062800,3.364062744140625,-0.9942474365234375,0.0637664794921875,-0.0384979248046875
1772709156908088000,3.374088134765625,-0.9882354736328125,0.0633087158203125,-0.04083251953125
1772709156918111700,3.38411181640625,-0.985504150390625,0.0623626708984375,-0.040374755859375
1772709156928136700,3.39413671875,-0.9915008544921875,0.0658111572265625,-0.03973388671875
1772709156938162000,3.404161865234375,-1.000762939453125,0.0672760009765625,-0.0410308837890625
1772709156948187000,3.414186767578125,-1.002410888671875,0.06536865234375,-0.0410614013671875
1772709156958211800,3.4242119140625,-0.9984130859375,0.0645751953125,-0.04193115234375
1772709156968236800,3.43423681640625,-0.9927825927734375,0.0647125244140625,-0.0417022705078125
1772709156978262000,3.444261962890625,-0.9908905029296875,0.065826416015625,-0.0388031005859375
1772709156988287000,3.454286865234375,-0.9943695068359375,0.065582275390625,-0.0402374267578125
1772709156998312000,3.46431201171875,-0.9979248046875,0.0658721923828125,-0.042236328125
1772709157008337000,3.4743369140625,-0.997772216796875,0.063751220703125,-0.0420074462890625
1772709157018361900,3.48436181640625,-0.991180419921875,0.0632476806640625,-0.040374755859375
1772709157028386800,3.49438671875,-0.9921417236328125,0.0645751953125,-0.0396575927734375
1772709157038411800,3.504411865234375,-0.993865966796875,0.0655517578125,-0.0436859130859375
1772709157048437000,3.51443701171875,-0.9967498779296875,0.06549072265625,-0.0415191650390625
1772709157058462500,3.52446240234375,-0.9949188232421875,0.0654754638671875,-0.0408782958984375
1772709157068487400,3.5344873046875,-0.9934844970703125,0.0636749267578125,-0.038238525390625
1772709157078512000,3.54451220703125,-0.9918670654296875,0.062744140625,-0.040679931640625
1772709157088537300,3.554537353515625,-0.99517822265625,0.0657806396484375,-0.0405731201171875
1772709157098562300,3.564562255859375,-0.9975128173828125,0.06573486328125,-0.0407867431640625
1772709157108587300,3.574587158203125,-0.9961700439453125,0.065399169921875,-0.0404815673828125
1772709157118612200,3.5846123046875,-0.994110107421875,0.0652923583984375,-0.0408782958984375
1772709157128637400,3.594637451171875,-0.9922943115234375,0.0642242431640625,-0.03955078125
1772709157138661400,3.604661376953125,-0.9900360107421875,0.065460205078125,-0.0416412353515625
1772709157148686000,3.61468603515625,-0.993438720703125,0.065582275390625,-0.0410614013671875
1772709157158711300,3.624711181640625,-0.9984130859375,0.06494140625,-0.0405731201171875
1772709157168736300,3.634736328125,-1.0004119873046875,0.0657501220703125,-0.0419464111328125
1772709157178761200,3.64476123046875,-0.9933013916015625,0.064666748046875,-0.0420074462890625
1772709157188786200,3.6547861328125,-0.988433837890625,0.0649261474609375,-0.041717529296875
1772709157198811400,3.664811279296875,-0.9921417236328125,0.0651397705078125,-0.0406341552734375
1772709157208836400,3.67483642578125,-0.9957427978515625,0.0655975341796875,-0.0405731201171875
1772709157218861300,3.684861328125,-0.9976348876953125,0.0652313232421875,-0.039276123046875
1772709157228886300,3.69488623046875,-0.9952545166015625,0.0637664794921875,-0.03924560546875
1772709157238911500,3.704911376953125,-0.9901123046875,0.063629150390625,-0.0416412353515625
1772709157248936200,3.714936279296875,-0.9909210205078125,0.067840576171875,-0.0416259765625
1772709157258961200,3.724961181640625,-0.9965057373046875,0.066741943359375,-0.040496826171875
1772709157268986000,3.734986083984375,-0.998992919921875,0.06219482421875,-0.03961181640625
1772709157279011300,3.74501123046875,-0.9944305419921875,0.06402587890625,-0.038818359375
1772709157289036300,3.755036376953125,-0.9921112060546875,0.0644683837890625,-0.039398193359375
1772709157299061200,3.765061279296875,-0.9945068359375,0.06427001953125,-0.044097900390625
1772709157309086200,3.775086181640625,-0.9948272705078125,0.06634521484375,-0.0429840087890625
1772709157319111400,3.785111328125,-0.9959564208984375,0.065093994140625,-0.0403900146484375
1772709157329136400,3.795136474609375,-0.9967193603515625,0.063385009765625,-0.0413055419921875
1772709157339161300,3.805161376953125,-0.994842529296875,0.0654754638671875,-0.0405731201171875
1772709157349186300,3.815186279296875,-0.9931793212890625,0.065887451171875,-0.042266845703125
1772709157359210200,3.825210205078125,-0.992645263671875,0.0664825439453125,-0.04156494140625
1772709157369235200,3.835235107421875,-0.99072265625,0.065704345703125,-0.0399017333984375
1772709157379260400,3.845260498046875,-0.9925689697265625,0.0652008056640625,-0.0400848388671875
1772709157389285400,3.855285400390625,-0.994873046875,0.0647430419921875,-0.0427093505859375
1772709157399310300,3.865310302734375,-0.99560546875,0.064178466796875,-0.0424957275390625
1772709157409335300,3.875335205078125,-0.99554443359375,0.0633544921875,-0.0411834716796875
1772709157419360500,3.885360595703125,-0.9951019287109375,0.0635833740234375,-0.0408172607421875
1772709157429385200,3.89538525390625,-0.994232177734375,0.0648651123046875,-0.0420074462890625
1772709157439410200,3.90541015625,-0.9938507080078125,0.0636749267578125,-0.040924072265625
1772709157449435100,3.91543505859375,-0.993865966796875,0.062591552734375,-0.041351318359375
1772709157459460400,3.92546044921875,-0.9952545166015625,0.065185546875,-0.040496826171875
1772709157469485300,3.9354853515625,-0.9949493408203125,0.0661468505859375,-0.042236328125
1772709157479510300,3.94551025390625,-0.9990692138671875,0.0658111572265625,-0.0426025390625
1772709157489535200,3.95553515625,-0.996490478515625,0.06427001953125,-0.04302978515625
1772709157499560400,3.965560546875,-0.9934234619140625,0.0645751953125,-0.0400390625
1772709157509585400,3.97558544921875,-0.9904937744140625,0.064361572265625,-0.040496826171875
1772709157519610400,3.9856103515625,-0.993896484375,0.0636749267578125,-0.0424652099609375
1772709157529635000,3.995635009765625,-0.9965057373046875,0.0662841796875,-0.0429534912109375
1772709157539660300,4.005660400390625,-0.9972991943359375,0.0659637451171875,-0.0411224365234375
1772709157549685200,4.015685302734375,-0.9930419921875,0.0650787353515625,-0.042266845703125
1772709157559710200,4.025710205078125,-0.992218017578125,0.064361572265625,-0.043060302734375
1772709157569734400,4.035734375,-0.99273681640625,0.062225341796875,-0.0415191650390625
1772709157579759400,4.04575927734375,-0.9934844970703125,0.0639190673828125,-0.041259765625
1772709157589784300,4.055784423828125,-0.99658203125,0.06500244140625,-0.0415191650390625
1772709157599809300,4.065809326171875,-0.9977264404296875,0.0654144287109375,-0.042449951171875
1772709157609834200,4.075834228515625,-0.995086669921875,0.0644989013671875,-0.0432586669921875
1772709157619859200,4.085859130859375,-0.9933319091796875,0.0640106201171875,-0.0411376953125
1772709157629884200,4.09588427734375,-0.9937286376953125,0.0635986328125,-0.040435791015625
1772709157639909400,4.105909423828125,-0.993743896484375,0.0649261474609375,-0.0420379638671875
1772709157649934300,4.115934326171875,-0.9930267333984375,0.065460205078125,-0.0430450439453125
1772709157659959300,4.125959228515625,-0.995574951171875,0.0639190673828125,-0.0417022705078125
1772709157669984300,4.135984375,-0.993927001953125,0.0638885498046875,-0.0410919189453125
1772709157680009500,4.146009521484375,-0.9926910400390625,0.065093994140625,-0.04132080078125
1772709157690034400,4.156034423828125,-0.9927978515625,0.0644378662109375,-0.0421142578125
1772709157700059100,4.16605908203125,-0.9929046630859375,0.0644073486328125,-0.0426025390625
1772709157710084000,4.176083984375,-0.9938812255859375,0.0655364990234375,-0.04339599609375
1772709157720109300,4.186109375,-0.9967498779296875,0.06536865234375,-0.042449951171875
1772709157730134300,4.19613427734375,-0.9950408935546875,0.066925048828125,-0.04443359375
1772709157740159200,4.2061591796875,-0.9935455322265625,0.065704345703125,-0.0428924560546875
1772709157750184200,4.21618408203125,-0.99151611328125,0.0648956298828125,-0.04266357421875
1772709157760209400,4.22620947265625,-0.9928436279296875,0.0635528564453125,-0.0417633056640625
1772709157770234400,4.236234375,-0.9960784912109375,0.0635986328125,-0.0420074462890625
1772709157780258300,4.24625830078125,-0.996337890625,0.065673828125,-0.0452117919921875
1772709157790283300,4.256283203125,-0.9969635009765625,0.0660400390625,-0.044403076171875
1772709157800308200,4.26630810546875,-0.99542236328125,0.0664215087890625,-0.04266357421875
1772709157810333200,4.276333251953125,-0.9933624267578125,0.0637969970703125,-0.040557861328125
1772709157820358400,4.2863583984375,-0.9908905029296875,0.0628509521484375,-0.041015625
1772709157830383400,4.29638330078125,-0.9928131103515625,0.0626373291015625,-0.042327880859375
1772709157840408300,4.306408203125,-0.9962158203125,0.0665740966796875,-0.04638671875
1772709157850433300,4.316433349609375,-0.9962921142578125,0.0659942626953125,-0.04559326171875
1772709157860458500,4.32645849609375,-0.9980621337890625,0.063720703125,-0.043914794921875
1772709157870483500,4.3364833984375,-0.99420166015625,0.0642852783203125,-0.0438995361328125
1772709157880508200,4.346508056640625,-0.993377685546875,0.065826416015625,-0.04443359375
1772709157890533000,4.356533203125,-0.9943695068359375,0.0666656494140625,-0.0457000732421875
1772709157900558300,4.366558349609375,-0.991943359375,0.0662689208984375,-0.0420074462890625
1772709157910583300,4.376583251953125,-0.9919281005859375,0.0660858154296875,-0.0425262451171875
1772709157920608300,4.386608154296875,-0.9936676025390625,0.0661163330078125,-0.0445709228515625
1772709157930633200,4.39663330078125,-0.996063232421875,0.065887451171875,-0.0453033447265625
1772709157940658400,4.406658447265625,-0.996124267578125,0.0662384033203125,-0.044769287109375
1772709157950683400,4.416683349609375,-0.99432373046875,0.0652618408203125,-0.0438995361328125
1772709157960708400,4.426708251953125,-0.9928131103515625,0.06640625,-0.0443115234375
1772709157970732300,4.436732177734375,-0.9939727783203125,0.064361572265625,-0.045135498046875
1772709157980757200,4.44675732421875,-0.99530029296875,0.06683349609375,-0.0438690185546875
1772709157990782200,4.4567822265625,-0.9948577880859375,0.0680694580078125,-0.0438232421875
1772709158000807200,4.46680712890625,-0.9978179931640625,0.0664825439453125,-0.045867919921875
1772709158010832400,4.476832275390625,-0.9968109130859375,0.0666046142578125,-0.0455780029296875
1772709158020857300,4.486857421875,-0.995758056640625,0.0662841796875,-0.0448760986328125
1772709158030882300,4.49688232421875,-0.9945068359375,0.0647430419921875,-0.04315185546875
1772709158040907300,4.5069072265625,-0.9897613525390625,0.064910888671875,-0.0447845458984375
1772709158050932200,4.51693212890625,-0.98968505859375,0.0651092529296875,-0.0455322265625
1772709158060957000,4.52695703125,-0.9942626953125,0.065948486328125,-0.04412841796875
1772709158070982000,4.53698193359375,-0.9962005615234375,0.06573486328125,-0.0440216064453125
1772709158081007000,4.547007080078125,-0.996826171875,0.0670166015625,-0.0439910888671875
1772709158091032000,4.557031982421875,-0.994781494140625,0.0668487548828125,-0.046051025390625
1772709158101057000,4.56705712890625,-0.99267578125,0.0637969970703125,-0.044891357421875
1772709158111082000,4.57708203125,-0.993560791015625,0.0647430419921875,-0.0438232421875
1772709158121107200,4.587107177734375,-0.99346923828125,0.0650177001953125,-0.0434722900390625
1772709158131132200,4.597132080078125,-0.99072265625,0.0673980712890625,-0.0430755615234375
1772709158141157000,4.6071572265625,-0.9937286376953125,0.06805419921875,-0.045257568359375
1772709158151181800,4.617181884765625,-0.9957733154296875,0.06744384765625,-0.0457000732421875
1772709158161207000,4.62720703125,-0.999267578125,0.0655517578125,-0.04437255859375
1772709158171231000,4.63723095703125,-0.997039794921875,0.064544677734375,-0.0442657470703125
1772709158181256000,4.647255859375,-0.9929962158203125,0.066619873046875,-0.0444183349609375
1772709158191281200,4.65728125,-0.9920654296875,0.0662689208984375,-0.044464111328125
1772709158201306000,4.66730615234375,-0.9926300048828125,0.0652618408203125,-0.0456695556640625
1772709158211331000,4.6773310546875,-0.9946136474609375,0.0645294189453125,-0.04522705078125
1772709158221356000,4.68735595703125,-0.995513916015625,0.0661163330078125,-0.045562744140625
1772709158231381000,4.697381103515625,-0.995849609375,0.0664215087890625,-0.0426483154296875
1772709158241406000,4.707406005859375,-0.9940643310546875,0.0677032470703125,-0.0459136962890625
1772709158251431000,4.717430908203125,-0.993896484375,0.0671844482421875,-0.0447998046875
1772709158261456100,4.7274560546875,-0.9933624267578125,0.0667877197265625,-0.0426788330078125
1772709158271481000,4.737481201171875,-0.994171142578125,0.06573486328125,-0.0443572998046875
1772709158281506000,4.747506103515625,-0.9964752197265625,0.0655975341796875,-0.04473876953125
1772709158291531000,4.757531005859375,-0.995452880859375,0.064544677734375,-0.0442352294921875
1772709158301556200,4.76755615234375,-0.9932098388671875,0.0673828125,-0.042877197265625
1772709158311581200,4.777581298828125,-0.9937591552734375,0.06878662109375,-0.0441436767578125
1772709158321606000,4.78760595703125,-0.995208740234375,0.069305419921875,-0.0469512939453125
1772709158331630800,4.797630859375,-0.996795654296875,0.0657958984375,-0.0439605712890625
1772709158341656000,4.807656005859375,-0.9937286376953125,0.0641326904296875,-0.041412353515625
1772709158351681000,4.817680908203125,-0.9939117431640625,0.0635833740234375,-0.0432586669921875
1772709158361705000,4.827705078125,-0.9952392578125,0.06781005859375,-0.047027587890625
1772709158371730200,4.837730224609375,-0.99444580078125,0.067535400390625,-0.04779052734375
1772709158381755100,4.847755126953125,-0.9929962158203125,0.0655517578125,-0.0456390380859375
1772709158391780000,4.857780029296875,-0.9919586181640625,0.0654449462890625,-0.04278564453125
1772709158401804800,4.8678046875,-0.9954376220703125,0.06689453125,-0.043853759765625
1772709158411830000,4.877830078125,-0.9960174560546875,0.068115234375,-0.0444793701171875
1772709158421855000,4.88785498046875,-0.99407958984375,0.068359375,-0.043548583984375
1772709158431880000,4.8978798828125,-0.9910430908203125,0.067901611328125,-0.04388427734375
1772709158441905000,4.90790478515625,-0.991668701171875,0.06658935546875,-0.043731689453125
1772709158451930000,4.91793017578125,-0.994293212890625,0.06634521484375,-0.0450439453125
1772709158461955000,4.927955078125,-0.9958343505859375,0.0657806396484375,-0.0451202392578125
1772709158471980000,4.93797998046875,-0.996002197265625,0.06585693359375,-0.044097900390625
1772709158482005000,4.9480048828125,-0.995391845703125,0.0662689208984375,-0.04595947265625
1772709158492030200,4.9580302734375,-0.9922332763671875,0.065093994140625,-0.0446319580078125
1772709158502055000,4.968054931640625,-0.9913482666015625,0.0677490234375,-0.0442657470703125
1772709158512080000,4.978079833984375,-0.99481201171875,0.0679473876953125,-0.044677734375
1772709158522105000,4.98810498046875,-0.99755859375,0.068145751953125,-0.04437255859375
1772709158532130000,4.998130126953125,-0.9953765869140625,0.066864013671875,-0.0443572998046875
1772709158542154000,5.008154052734375,-0.992401123046875,0.06573486328125,-0.043365478515625
1772709158552179200,5.01817919921875,-0.990509033203125,0.0665435791015625,-0.0435791015625
1772709158562204200,5.0282041015625,-0.9922943115234375,0.0670318603515625,-0.04510498046875
1772709158572229000,5.03822900390625,-0.995361328125,0.0672454833984375,-0.0451812744140625
1772709158582253800,5.04825390625,-0.996307373046875,0.066314697265625,-0.0436248779296875
1772709158592279000,5.058279052734375,-0.992767333984375,0.0658111572265625,-0.043182373046875
1772709158602304000,5.068303955078125,-0.991607666015625,0.065887451171875,-0.044952392578125
1772709158612329000,5.078328857421875,-0.99224853515625,0.0673828125,-0.0440216064453125
1772709158622354000,5.08835400390625,-0.995849609375,0.06732177734375,-0.0453643798828125
1772709158632379100,5.098379150390625,-0.99676513671875,0.0652008056640625,-0.044586181640625
1772709158642404000,5.108404052734375,-0.9948577880859375,0.06549072265625,-0.0428009033203125
1772709158652429000,5.118428955078125,-0.992645263671875,0.0664520263671875,-0.0442657470703125
1772709158662454000,5.1284541015625,-0.9901123046875,0.066162109375,-0.044647216796875
1772709158672479200,5.138479248046875,-0.992279052734375,0.0675506591796875,-0.0442657470703125
1772709158682504000,5.14850390625,-0.9969329833984375,0.0669097900390625,-0.04327392578125
1772709158692529000,5.15852880859375,-0.996856689453125,0.0665130615234375,-0.0429840087890625
1772709158702554000,5.16855419921875,-0.99407958984375,0.0659332275390625,-0.0424957275390625
1772709158712579000,5.1785791015625,-0.9920196533203125,0.06610107421875,-0.0444488525390625
1772709158722603000,5.18860302734375,-0.993499755859375,0.066131591796875,-0.0437774658203125
1772709158732628200,5.198628173828125,-0.9959716796875,0.0653076171875,-0.043212890625
1772709158742653200,5.208653076171875,-0.995941162109375,0.066436767578125,-0.0435943603515625
1772709158752678100,5.21867822265625,-0.99285888671875,0.066375732421875,-0.0439605712890625
1772709158762702800,5.228702880859375,-0.9920806884765625,0.0674896240234375,-0.0457611083984375
1772709158772728000,5.23872802734375,-0.9936981201171875,0.0666961669921875,-0.04425048828125
1772709158782753000,5.2487529296875,-0.9940948486328125,0.06707763671875,-0.0449981689453125
1772709158792778000,5.258778076171875,-0.996185302734375,0.0671234130859375,-0.04437255859375
1772709158802803000,5.268802978515625,-0.995574951171875,0.065032958984375,-0.0435943603515625
1772709158812828200,5.278828125,-0.9940185546875,0.0651397705078125,-0.0433807373046875
1772709158822853000,5.28885302734375,-0.9918060302734375,0.0646820068359375,-0.043182373046875
1772709158832878000,5.298878173828125,-0.990478515625,0.0639190673828125,-0.044708251953125
1772709158842903000,5.308903076171875,-0.9943389892578125,0.0677642822265625,-0.0452728271484375
1772709158852928000,5.318927978515625,-0.9979400634765625,0.0680999755859375,-0.04443359375
1772709158863578000,5.329578125,-0.9954833984375,0.0656280517578125,-0.0424957275390625
1772709158873603000,5.33960302734375,-0.993255615234375,0.0633544921875,-0.0423431396484375
1772709158883628000,5.3496279296875,-0.99737548828125,0.0623626708984375,-0.04449462890625
1772709158893653200,5.3596533203125,-0.9963836669921875,0.0665130615234375,-0.0465240478515625
1772709158903678000,5.369677978515625,-0.99578857421875,0.0685272216796875,-0.046417236328125
1772709158913703000,5.379702880859375,-0.99322509765625,0.0661773681640625,-0.0438079833984375
1772709158923728000,5.389727783203125,-0.9904632568359375,0.0647735595703125,-0.043365478515625
1772709158933753000,5.399753173828125,-0.9927825927734375,0.0664825439453125,-0.04345703125
1772709158943778000,5.409778076171875,-0.9969024658203125,0.068023681640625,-0.0434112548828125
1772709158953803000,5.419802978515625,-0.994384765625,0.0691070556640625,-0.0430145263671875
1772709158963828000,5.429827880859375,-0.991180419921875,0.066802978515625,-0.043731689453125
1772709158973853200,5.439853271484375,-0.991973876953125,0.06494140625,-0.04339599609375
1772709158983878100,5.449878173828125,-0.9933013916015625,0.06597900390625,-0.0440216064453125
1772709158993902800,5.45990283203125,-0.99505615234375,0.0656280517578125,-0.0443267822265625
1772709159003928000,5.469927978515625,-0.995819091796875,0.06463623046875,-0.044464111328125
1772709159013952000,5.479951904296875,-0.9953155517578125,0.0643768310546875,-0.0432281494140625
1772709159023977000,5.48997705078125,-0.994720458984375,0.064697265625,-0.044036865234375
1772709159034002200,5.500002197265625,-0.9949493408203125,0.066131591796875,-0.04547119140625
1772709159044027100,5.510027099609375,-0.9958343505859375,0.0654144287109375,-0.0443572998046875
1772709159054052000,5.520052001953125,-0.9962921142578125,0.0665740966796875,-0.0437164306640625
1772709159064077300,5.530077392578125,-0.9945831298828125,0.0656585693359375,-0.0447235107421875
1772709159074102500,5.5401025390625,-0.9934844970703125,0.0647430419921875,-0.04412841796875
1772709159084127500,5.55012744140625,-0.993133544921875,0.065399169921875,-0.04364013671875
1772709159094152400,5.56015234375,-0.9926300048828125,0.0654144287109375,-0.0429534912109375
1772709159104177400,5.570177490234375,-0.993804931640625,0.0659637451171875,-0.042999267578125
1772709159114202600,5.58020263671875,-0.99407958984375,0.06683349609375,-0.043792724609375
1772709159124227600,5.5902275390625,-0.9943084716796875,0.0654144287109375,-0.044647216796875
1772709159134252300,5.600252197265625,-0.9941253662109375,0.0652618408203125,-0.0439910888671875
1772709159144277200,5.61027734375,-0.99322509765625,0.0665130615234375,-0.043365478515625
1772709159154302500,5.620302490234375,-0.994140625,0.066986083984375,-0.0443878173828125
1772709159164327400,5.630327392578125,-0.9965362548828125,0.065216064453125,-0.0450439453125
1772709159174352400,5.640352294921875,-0.9954833984375,0.0653076171875,-0.04241943359375
1772709159184376600,5.65037646484375,-0.9946441650390625,0.0642547607421875,-0.04302978515625
1772709159194401500,5.660401611328125,-0.993896484375,0.0646209716796875,-0.044464111328125
1772709159204426500,5.670426513671875,-0.9962310791015625,0.065826416015625,-0.0438232421875
1772709159215079400,5.681079345703125,-0.996063232421875,0.0646820068359375,-0.0416107177734375
1772709159225104400,5.6911044921875,-0.992950439453125,0.066009521484375,-0.041778564453125
1772709159235129300,5.70112939453125,-0.99224853515625,0.065338134765625,-0.0440826416015625
1772709159245153500,5.711153564453125,-0.9952850341796875,0.0655670166015625,-0.045166015625
1772709159255178500,5.721178466796875,-0.9969940185546875,0.0653533935546875,-0.044097900390625
1772709159265203500,5.731203369140625,-0.9942169189453125,0.065704345703125,-0.0429229736328125
1772709159275228400,5.741228515625,-0.9920806884765625,0.0652313232421875,-0.04266357421875
1772709159285253600,5.751253662109375,-0.99078369140625,0.062835693359375,-0.0443267822265625
1772709159295278300,5.7612783203125,-0.9935150146484375,0.067535400390625,-0.0438232421875
1772709159305303300,5.77130322265625,-0.9955291748046875,0.0677032470703125,-0.04437255859375
1772709159315328300,5.781328369140625,-0.9952545166015625,0.0655059814453125,-0.043731689453125
1772709159325353500,5.791353515625,-0.9927978515625,0.06610107421875,-0.044219970703125
1772709159335378400,5.80137841796875,-0.994354248046875,0.0644073486328125,-0.0439605712890625
1772709159345403400,5.8114033203125,-0.9936370849609375,0.0652008056640625,-0.0448150634765625
1772709159355428400,5.821428466796875,-0.9959869384765625,0.0644683837890625,-0.0437469482421875
1772709159365453600,5.83145361328125,-0.995574951171875,0.0647735595703125,-0.0450439453125
1772709159375478500,5.841478515625,-0.9933319091796875,0.0649871826171875,-0.0444488525390625
1772709159385503500,5.85150341796875,-0.994537353515625,0.0679473876953125,-0.0450439453125
1772709159395528200,5.861528076171875,-0.996429443359375,0.0662384033203125,-0.045074462890625
1772709159405553400,5.871553466796875,-0.9932708740234375,0.0644683837890625,-0.042572021484375
1772709159415577300,5.881577392578125,-0.9930267333984375,0.0644378662109375,-0.0430145263671875
1772709159425602600,5.8916025390625,-0.99322509765625,0.0660247802734375,-0.0438079833984375
1772709159435627500,5.90162744140625,-0.99658203125,0.0660858154296875,-0.0454559326171875
1772709159445652500,5.911652587890625,-0.999359130859375,0.0652008056640625,-0.0447845458984375
1772709159455677400,5.921677490234375,-0.9979705810546875,0.0641632080078125,-0.0435791015625
1772709159465702400,5.931702392578125,-0.995208740234375,0.064208984375,-0.0433502197265625
1772709159475727400,5.941727294921875,-0.9898834228515625,0.066070556640625,-0.0440521240234375
1772709159485752300,5.95175244140625,-0.98773193359375,0.0655670166015625,-0.04351806640625
1772709159495777300,5.96177734375,-0.9897613525390625,0.0650482177734375,-0.0434112548828125
1772709159505802500,5.971802490234375,-0.9932708740234375,0.0645294189453125,-0.0424346923828125
1772709159515827500,5.981827392578125,-0.9967498779296875,0.065338134765625,-0.0435333251953125
1772709159525852400,5.991852294921875,-0.9965667724609375,0.065643310546875,-0.044403076171875
1772709159535877400,6.00187744140625,-0.9960174560546875,0.0660858154296875,-0.0433502197265625
1772709159545902600,6.011902587890625,-0.994598388671875,0.064178466796875,-0.0438232421875
1772709159555927600,6.021927490234375,-0.9911956787109375,0.064727783203125,-0.0441741943359375
1772709159565952300,6.0319521484375,-0.991851806640625,0.0647735595703125,-0.0435943603515625
1772709159575977200,6.041977294921875,-0.9952239990234375,0.0640716552734375,-0.0423431396484375
1772709159586002400,6.05200244140625,-0.9976348876953125,0.0643768310546875,-0.0441741943359375
1772709159596027400,6.06202734375,-0.9970855712890625,0.0666961669921875,-0.0432281494140625
1772709159606051300,6.07205126953125,-0.9957275390625,0.0666046142578125,-0.0438079833984375
1772709159616076500,6.08207666015625,-0.99090576171875,0.0653533935546875,-0.044464111328125
1772709159626101500,6.0921015625,-0.9905548095703125,0.0643768310546875,-0.0442047119140625
1772709159636126500,6.10212646484375,-0.9926605224609375,0.0658111572265625,-0.0442352294921875
1772709159646151400,6.1121513671875,-0.9954681396484375,0.064727783203125,-0.04229736328125
1772709159656176400,6.12217626953125,-0.995849609375,0.064910888671875,-0.043487548828125
1772709159666201300,6.132201416015625,-0.9950408935546875,0.065093994140625,-0.043670654296875
1772709159676226300,6.142226318359375,-0.9943084716796875,0.06610107421875,-0.045318603515625
1772709159686251500,6.15225146484375,-0.9956817626953125,0.0660247802734375,-0.0448760986328125
1772709159696276500,6.1622763671875,-0.993865966796875,0.06427001953125,-0.0439605712890625
1772709159706301400,6.172301513671875,-0.9915313720703125,0.06475830078125,-0.0432891845703125
1772709159716326400,6.182326416015625,-0.9930419921875,0.065185546875,-0.0443878173828125
1772709159726351600,6.1923515625,-0.994537353515625,0.066009521484375,-0.0449981689453125
1772709159736376600,6.20237646484375,-0.9952239990234375,0.066497802734375,-0.0434722900390625
1772709159746401300,6.2124013671875,-0.99365234375,0.064422607421875,-0.0429229736328125
1772709159756426200,6.22242626953125,-0.9927520751953125,0.063812255859375,-0.0429534912109375
1772709159766451500,6.232451416015625,-0.99261474609375,0.0631866455078125,-0.0432891845703125
1772709159776476400,6.242476318359375,-0.993316650390625,0.0659637451171875,-0.0446624755859375
1772709159786500400,6.252500244140625,-0.996795654296875,0.0644073486328125,-0.04620361328125
1772709159796525600,6.262525634765625,-0.9964141845703125,0.0647430419921875,-0.045654296875
1772709159806550500,6.272550537109375,-0.9963836669921875,0.0662384033203125,-0.045745849609375
1772709159816575500,6.282575439453125,-0.9929046630859375,0.0663909912109375,-0.0446319580078125
1772709159826600200,6.29260009765625,-0.99261474609375,0.0653076171875,-0.0451507568359375
1772709159836625400,6.30262548828125,-0.9940948486328125,0.064971923828125,-0.04638671875
1772709159846650400,6.312650390625,-0.9954986572265625,0.0662384033203125,-0.0460357666015625
1772709159856675300,6.32267529296875,-0.9949798583984375,0.06683349609375,-0.045806884765625
1772709159866700300,6.3327001953125,-0.994354248046875,0.0660552978515625,-0.0465240478515625
1772709159876725500,6.3427255859375,-0.992431640625,0.0661163330078125,-0.0457000732421875
1772709159886750500,6.35275048828125,-0.9913330078125,0.067535400390625,-0.0449371337890625
1772709159896775400,6.362775390625,-0.9960479736328125,0.0656585693359375,-0.0447998046875
1772709159906800400,6.37280029296875,-0.9989471435546875,0.064788818359375,-0.0445404052734375
1772709159916825300,6.382825439453125,-0.995452880859375,0.0638580322265625,-0.04632568359375
1772709159926850300,6.392850341796875,-0.989837646484375,0.0660552978515625,-0.045013427734375
1772709159936875300,6.402875244140625,-0.990966796875,0.067657470703125,-0.04608154296875
1772709159946900500,6.412900390625,-0.99505615234375,0.065460205078125,-0.0448150634765625
1772709159956925400,6.422925537109375,-0.996307373046875,0.062835693359375,-0.0438232421875
1772709159966950400,6.432950439453125,-0.9969635009765625,0.0634307861328125,-0.0449676513671875
1772709159976974600,6.442974609375,-0.9951019287109375,0.0657196044921875,-0.047027587890625
1772709159986999600,6.45299951171875,-0.9923858642578125,0.0652618408203125,-0.048583984375
1772709159997024300,6.463024169921875,-0.9948883056640625,0.06683349609375,-0.047607421875
1772709160007049200,6.47304931640625,-0.99761962890625,0.066558837890625,-0.0464630126953125
1772709160017074400,6.483074462890625,-0.997222900390625,0.0687713623046875,-0.046783447265625
1772709160027099400,6.493099365234375,-0.9949951171875,0.066925048828125,-0.0442657470703125
1772709160037124400,6.503124267578125,-0.9858245849609375,0.0665740966796875,-0.0440826416015625
1772709160047149300,6.5131494140625,-0.9851226806640625,0.0647430419921875,-0.0436859130859375
1772709160057174500,6.523174560546875,-0.9935150146484375,0.0642242431640625,-0.0430145263671875
1772709160067199200,6.53319921875,-0.9987640380859375,0.06707763671875,-0.04632568359375
1772709160077224200,6.54322412109375,-1.0016021728515625,0.066619873046875,-0.046722412109375
1772709160087249200,6.553249267578125,-0.99798583984375,0.0661163330078125,-0.046661376953125
1772709160097274400,6.5632744140625,-0.9938812255859375,0.0650787353515625,-0.0455169677734375
1772709160107299000,6.573299072265625,-0.990509033203125,0.06402587890625,-0.04345703125
1772709160117324000,6.583323974609375,-0.988983154296875,0.0660247802734375,-0.04364013671875
1772709160127349200,6.593349365234375,-0.9957122802734375,0.0645599365234375,-0.0471954345703125
1772709160137374200,6.603374267578125,-0.9937744140625,0.0667572021484375,-0.0469818115234375
1772709160147398100,6.613398193359375,-0.9952545166015625,0.065155029296875,-0.04510498046875
1772709160157423400,6.62342333984375,-0.9962158203125,0.0667877197265625,-0.0467987060546875
1772709160167448300,6.6334482421875,-0.9982757568359375,0.0655670166015625,-0.047515869140625
1772709160177473300,6.643473388671875,-0.996124267578125,0.0658721923828125,-0.044677734375
1772709160187498000,6.653498046875,-0.9922637939453125,0.065948486328125,-0.0464324951171875
1772709160197523200,6.663523193359375,-0.98931884765625,0.0655975341796875,-0.0469207763671875
1772709160207548200,6.673548095703125,-0.9912261962890625,0.0662841796875,-0.04547119140625
1772709160217573000,6.683572998046875,-0.99365234375,0.0673980712890625,-0.0474700927734375
1772709160227598000,6.69359814453125,-0.99737548828125,0.0693206787109375,-0.0460357666015625
1772709160237623300,6.703623291015625,-0.99505615234375,0.06561279296875,-0.0451202392578125
1772709160247648300,6.713648193359375,-0.9895782470703125,0.063262939453125,-0.0441436767578125
1772709160257673200,6.723673095703125,-0.9908905029296875,0.066162109375,-0.04632568359375
1772709160267698200,6.7336982421875,-0.99664306640625,0.0660858154296875,-0.0479888916015625
1772709160277723400,6.743723388671875,-0.9999542236328125,0.069122314453125,-0.047332763671875
1772709160287748000,6.753748046875,-1.0019073486328125,0.06732177734375,-0.0474090576171875
1772709160297773000,6.76377294921875,-0.9951629638671875,0.06512451171875,-0.0456390380859375
1772709160307798300,6.77379833984375,-0.9876861572265625,0.0644378662109375,-0.043731689453125
1772709160317823200,6.7838232421875,-0.9860687255859375,0.0661163330078125,-0.0441436767578125
1772709160327847200,6.79384716796875,-0.992279052734375,0.066558837890625,-0.04510498046875
1772709160337872400,6.803872314453125,-0.99658203125,0.06671142578125,-0.047576904296875
1772709160347897300,6.8138974609375,-0.99725341796875,0.0662384033203125,-0.0458984375
1772709160357922300,6.82392236328125,-0.9964752197265625,0.0663299560546875,-0.0461883544921875
1772709160367947000,6.833947021484375,-0.99432373046875,0.0669097900390625,-0.0470428466796875
1772709160377972200,6.84397216796875,-0.991424560546875,0.066436767578125,-0.0465545654296875
1772709160387997200,6.8539970703125,-0.9914703369140625,0.0662384033203125,-0.0443572998046875
1772709160398022100,6.864022216796875,-0.9920501708984375,0.0670623779296875,-0.0465850830078125
1772709160408047000,6.874047119140625,-0.99755859375,0.066925048828125,-0.0474853515625
1772709160418072300,6.884072265625,-0.9977569580078125,0.0648956298828125,-0.0450286865234375
1772709160428097300,6.89409716796875,-0.99395751953125,0.06549072265625,-0.045196533203125
1772709160438122200,6.904122314453125,-0.99151611328125,0.066864013671875,-0.045684814453125
1772709160448147200,6.914147216796875,-0.9959564208984375,0.065277099609375,-0.0486297607421875
1772709160458172400,6.92417236328125,-0.9955902099609375,0.0667572021484375,-0.048004150390625
1772709160468197000,6.934197021484375,-0.9938812255859375,0.0696563720703125,-0.0465850830078125
1772709160478222000,6.94422216796875,-0.996551513671875,0.0658721923828125,-0.045501708984375
1772709160488247000,6.9542470703125,-0.9952239990234375,0.064666748046875,-0.0440673828125
1772709160498272300,6.964272216796875,-0.9922943115234375,0.0652313232421875,-0.0438385009765625
1772709160508296200,6.974296142578125,-0.995880126953125,0.0642547607421875,-0.048065185546875
1772709160518321200,6.984321044921875,-0.9948577880859375,0.0676116943359375,-0.0491790771484375
1772709160528346400,6.994346435546875,-0.9934234619140625,0.068389892578125,-0.048797607421875
1772709160538371000,7.00437109375,-0.992034912109375,0.065338134765625,-0.047088623046875
1772709160548396000,7.01439599609375,-0.9934234619140625,0.0669097900390625,-0.0451812744140625
1772709160558421200,7.024421142578125,-0.99530029296875,0.06829833984375,-0.0441741943359375
1772709160568446200,7.0344462890625,-0.9924468994140625,0.06787109375,-0.045989990234375
1772709160578471200,7.04447119140625,-0.99200439453125,0.067779541015625,-0.0456085205078125
1772709160588496100,7.05449609375,-0.994232177734375,0.0671234130859375,-0.0473785400390625
1772709160598521300,7.064521240234375,-0.9978485107421875,0.06842041015625,-0.045684814453125
1772709160608546300,7.07454638671875,-0.9994354248046875,0.0676727294921875,-0.04461669921875
1772709160618571300,7.0845712890625,-0.995025634765625,0.0665283203125,-0.044769287109375
1772709160628596200,7.09459619140625,-0.989410400390625,0.0657196044921875,-0.04595947265625
1772709160638621200,7.10462109375,-0.99224853515625,0.0674591064453125,-0.0482330322265625
1772709160648646100,7.114646240234375,-0.995391845703125,0.0680694580078125,-0.04473876953125
1772709160658671000,7.124671142578125,-0.99591064453125,0.0688934326171875,-0.0447235107421875
1772709160668696000,7.134696044921875,-0.99566650390625,0.0666961669921875,-0.0472412109375
1772709160678721300,7.14472119140625,-0.994049072265625,0.066009521484375,-0.045684814453125
1772709160688746200,7.154746337890625,-0.9921722412109375,0.0666961669921875,-0.045501708984375
1772709160698771200,7.164771240234375,-0.9934844970703125,0.066864013671875,-0.047393798828125
1772709160708795400,7.17479541015625,-0.9952239990234375,0.0670318603515625,-0.04638671875
1772709160718820000,7.184820068359375,-0.994049072265625,0.06817626953125,-0.0453948974609375
1772709160728845000,7.194844970703125,-0.9920196533203125,0.067901611328125,-0.04412841796875
1772709160738870000,7.2048701171875,-0.99114990234375,0.06805419921875,-0.046783447265625
1772709160748895200,7.214895263671875,-0.9932861328125,0.0675201416015625,-0.0473480224609375
1772709160758920200,7.224920166015625,-0.997833251953125,0.066741943359375,-0.04632568359375
1772709160768945200,7.234945068359375,-0.995849609375,0.06884765625,-0.0467071533203125
1772709160778970400,7.244970458984375,-0.9956512451171875,0.06793212890625,-0.047027587890625
1772709160788995300,7.254995361328125,-0.9915008544921875,0.06402587890625,-0.0475006103515625
1772709160799020300,7.265020263671875,-0.988983154296875,0.064666748046875,-0.044708251953125
1772709160809045200,7.275045166015625,-0.992156982421875,0.0673370361328125,-0.0456085205078125
1772709160819070200,7.2850703125,-0.9949493408203125,0.0688629150390625,-0.0461578369140625
1772709160829095200,7.29509521484375,-0.9940948486328125,0.069000244140625,-0.0465545654296875
1772709160839120100,7.3051201171875,-0.9929046630859375,0.0666351318359375,-0.0467071533203125
1772709160849145000,7.31514501953125,-0.9950714111328125,0.0677947998046875,-0.046112060546875
1772709160859170300,7.32517041015625,-0.993743896484375,0.0676727294921875,-0.0460052490234375
1772709160869195300,7.3351953125,-0.995361328125,0.0677490234375,-0.046234130859375
1772709160879220200,7.34522021484375,-0.9950714111328125,0.066741943359375,-0.0452117919921875
1772709160889245200,7.3552451171875,-0.994873046875,0.0673980712890625,-0.0452423095703125
1772709160899269000,7.36526904296875,-0.9945526123046875,0.0667572021484375,-0.04705810546875
1772709160909294000,7.375294189453125,-0.99371337890625,0.0687103271484375,-0.0467071533203125
1772709160919319000,7.385319091796875,-0.9929656982421875,0.0672454833984375,-0.0453948974609375
1772709160929344300,7.39534423828125,-0.992462158203125,0.0678558349609375,-0.0459442138671875
1772709160939369200,7.405369140625,-0.9944305419921875,0.068328857421875,-0.0467376708984375
1772709160949394200,7.415394287109375,-0.9946746826171875,0.0676422119140625,-0.046966552734375
1772709160959419100,7.425419189453125,-0.9935760498046875,0.0670318603515625,-0.045745849609375
1772709160969444400,7.4354443359375,-0.993988037109375,0.0654754638671875,-0.0457000732421875
1772709160979469300,7.44546923828125,-0.9957122802734375,0.0652618408203125,-0.046783447265625
1772709160989494000,7.455493896484375,-0.993621826171875,0.0673675537109375,-0.0474700927734375
1772709160999519200,7.465519287109375,-0.9938812255859375,0.0695953369140625,-0.0482025146484375
1772709161009544200,7.475544189453125,-0.994476318359375,0.067230224609375,-0.0459136962890625
1772709161019569200,7.485569091796875,-0.9943389892578125,0.067596435546875,-0.044342041015625
1772709161029594000,7.495593994140625,-0.99359130859375,0.064697265625,-0.0452117919921875
1772709161039619300,7.505619384765625,-0.9954376220703125,0.0655059814453125,-0.046356201171875
1772709161049644300,7.515644287109375,-0.9936370849609375,0.0676116943359375,-0.04754638671875
1772709161059668700,7.525668701171875,-0.9912567138671875,0.066864013671875,-0.04901123046875
1772709161069693700,7.535693603515625,-0.99371337890625,0.06427001953125,-0.045989990234375
1772709161079719000,7.545718994140625,-0.9962615966796875,0.0660552978515625,-0.0469818115234375
1772709161089742800,7.555742919921875,-0.9962615966796875,0.066986083984375,-0.0465087890625
1772709161099767800,7.565767822265625,-0.9925537109375,0.066619873046875,-0.0473175048828125
1772709161109792800,7.575792724609375,-0.988433837890625,0.068328857421875,-0.0455474853515625
1772709161119817700,7.585817626953125,-0.989593505859375,0.0662689208984375,-0.04425048828125
1772709161129842700,7.5958427734375,-0.9954681396484375,0.0668182373046875,-0.046051025390625
1772709161139868000,7.605867919921875,-0.996124267578125,0.0666351318359375,-0.04620361328125
1772709161149892900,7.615892822265625,-0.9958343505859375,0.0673370361328125,-0.0452117919921875
1772709161159917800,7.625917724609375,-0.9934539794921875,0.065521240234375,-0.0487213134765625
1772709161169942800,7.63594287109375,-0.9918365478515625,0.065673828125,-0.046966552734375
1772709161179968000,7.645968017578125,-0.994293212890625,0.0661773681640625,-0.0449981689453125
1772709161189993000,7.655992919921875,-0.99517822265625,0.067413330078125,-0.046142578125
1772709161200017700,7.666017578125,-0.9965057373046875,0.066680908203125,-0.0472412109375
1772709161210042600,7.676042724609375,-0.9963226318359375,0.065704345703125,-0.0472869873046875
1772709161220067800,7.68606787109375,-0.991790771484375,0.065948486328125,-0.0459747314453125
1772709161230092800,7.6960927734375,-0.992218017578125,0.0654144287109375,-0.0455780029296875
1772709161240117800,7.70611767578125,-0.993743896484375,0.065460205078125,-0.046051025390625
1772709161250142700,7.716142822265625,-0.995391845703125,0.06695556640625,-0.0451812744140625
1772709161260167000,7.7261669921875,-0.9925994873046875,0.065216064453125,-0.04583740234375
1772709161270191600,7.736191650390625,-0.9949798583984375,0.06610107421875,-0.047637939453125
1772709161280216600,7.746216552734375,-0.995452880859375,0.0661163330078125,-0.047576904296875
1772709161290241800,7.75624169921875,-0.9945831298828125,0.0665283203125,-0.04608154296875
1772709161300266800,7.766266845703125,-0.99395751953125,0.066741943359375,-0.046722412109375
1772709161310291700,7.776291748046875,-0.9942626953125,0.0661163330078125,-0.0477447509765625
1772709161320316700,7.786316650390625,-0.9936065673828125,0.06549072265625,-0.04681396484375
1772709161330342000,7.796341796875,-0.9935455322265625,0.0666656494140625,-0.0454864501953125
1772709161340366800,7.806366943359375,-0.9968414306640625,0.065032958984375,-0.0472564697265625
1772709161350391800,7.816391845703125,-0.9969940185546875,0.0664215087890625,-0.0470733642578125
1772709161360416800,7.826416748046875,-0.9965972900390625,0.067352294921875,-0.045684814453125
1772709161370441700,7.836441650390625,-0.9942626953125,0.0665435791015625,-0.044769287109375
1772709161380466700,7.846466796875,-0.9922027587890625,0.0658111572265625,-0.047210693359375
1772709161390491600,7.85649169921875,-0.992645263671875,0.066070556640625,-0.0474853515625
1772709161400516900,7.866516845703125,-0.993743896484375,0.066070556640625,-0.0456085205078125
1772709161410541800,7.876541748046875,-0.9925079345703125,0.0661468505859375,-0.0441131591796875
1772709161420566800,7.88656689453125,-0.9900360107421875,0.0668182373046875,-0.04486083984375
1772709161430591700,7.896591796875,-0.989776611328125,0.066436767578125,-0.0454254150390625
1772709161440616000,7.906615966796875,-0.994049072265625,0.06683349609375,-0.0459442138671875
1772709161450640600,7.916640625,-0.9975738525390625,0.0661468505859375,-0.0467071533203125
1772709161460665600,7.92666552734375,-0.996612548828125,0.067779541015625,-0.048095703125
1772709161470690800,7.93669091796875,-0.9925689697265625,0.066131591796875,-0.04705810546875
1772709161480715800,7.9467158203125,-0.9921875,0.06640625,-0.04638671875
1772709161490740700,7.95674072265625,-0.993255615234375,0.066253662109375,-0.04632568359375
1772709161500765700,7.966765625,-0.996612548828125,0.0655059814453125,-0.0459747314453125
1772709161510791000,7.976791015625,-0.9957275390625,0.0647125244140625,-0.0450897216796875
1772709161520815900,7.98681591796875,-0.9912261962890625,0.06573486328125,-0.044830322265625
1772709161530840800,7.9968408203125,-0.9909210205078125,0.0644073486328125,-0.047088623046875
1772709161540865800,8.00686572265625,-0.9963531494140625,0.0663299560546875,-0.04803466796875
1772709161550890800,8.016890869140624,-0.999053955078125,0.0671844482421875,-0.0461578369140625
1772709161560915700,8.026915771484376,-0.9970855712890625,0.0638580322265625,-0.0433197021484375
1772709161570940700,8.036940673828125,-0.9901885986328125,0.0628509521484375,-0.0451507568359375
1772709161580965600,8.046965576171875,-0.9901885986328125,0.06390380859375,-0.04754638671875
1772709161590990800,8.056990966796874,-0.99371337890625,0.0662078857421875,-0.048065185546875
1772709161601015800,8.067015869140626,-0.9959716796875,0.0662994384765625,-0.0472869873046875
1772709161611040800,8.077040771484375,-0.995361328125,0.0656585693359375,-0.045928955078125
1772709161621065000,8.08706494140625,-0.9925994873046875,0.06463623046875,-0.0451812744140625
1772709161631089700,8.097089599609374,-0.9927215576171875,0.065704345703125,-0.04766845703125
1772709161641114600,8.107114501953125,-0.99395751953125,0.0673065185546875,-0.048004150390625
1772709161651139800,8.117139892578125,-0.9936370849609375,0.06732177734375,-0.0447235107421875
1772709161661164800,8.127164794921875,-0.994293212890625,0.067840576171875,-0.0437469482421875
1772709161671189800,8.137189697265624,-0.9933013916015625,0.0659332275390625,-0.044952392578125
1772709161681214700,8.147214599609375,-0.9935760498046875,0.065704345703125,-0.046905517578125
1772709161691240000,8.157239990234375,-0.9942474365234375,0.0660400390625,-0.0467376708984375
1772709161701265000,8.167264892578125,-0.9958343505859375,0.065093994140625,-0.0448150634765625
1772709161711289900,8.177289794921874,-0.997039794921875,0.0657196044921875,-0.045806884765625
1772709161721314600,8.187314453125,-0.9951934814453125,0.0663604736328125,-0.0472259521484375
1772709161731339800,8.19733984375,-0.992218017578125,0.06591796875,-0.045196533203125
1772709161741364700,8.20736474609375,-0.9923248291015625,0.0662841796875,-0.04571533203125
1772709161751389700,8.2173896484375,-0.99365234375,0.067108154296875,-0.045806884765625
1772709161761414700,8.22741455078125,-0.995819091796875,0.0664825439453125,-0.0462188720703125
1772709161771439900,8.23743994140625,-0.9967498779296875,0.0655670166015625,-0.04510498046875
1772709161781464800,8.24746484375,-0.9927520751953125,0.0650787353515625,-0.045745849609375
1772709161791489800,8.25748974609375,-0.9919891357421875,0.0652618408203125,-0.0462646484375
1772709161801514800,8.2675146484375,-0.99237060546875,0.0645294189453125,-0.046630859375
1772709161811538700,8.27753857421875,-0.9922027587890625,0.065185546875,-0.0457000732421875
1772709161821563600,8.287563720703124,-0.9955291748046875,0.067657470703125,-0.0446929931640625
1772709161831588900,8.2975888671875,-0.996185302734375,0.0656890869140625,-0.046722412109375
1772709161841613800,8.30761376953125,-0.9938812255859375,0.065155029296875,-0.0469970703125
1772709161851638800,8.317638671875,-0.9930572509765625,0.066070556640625,-0.045745849609375
1772709161861663700,8.327663818359374,-0.9929046630859375,0.0655517578125,-0.046173095703125
1772709161871689000,8.33768896484375,-0.9921722412109375,0.0666656494140625,-0.0435333251953125
1772709161881714000,8.3477138671875,-0.99322509765625,0.0651397705078125,-0.045654296875
1772709161891739000,8.35773876953125,-0.9958648681640625,0.065826416015625,-0.0480499267578125
1772709161901763600,8.367763671875,-0.99578857421875,0.067047119140625,-0.0450286865234375
1772709161911788800,8.377788818359376,-0.99310302734375,0.0637969970703125,-0.04498291015625
1772709161921813800,8.387813720703125,-0.9912872314453125,0.06622314453125,-0.0464019775390625
1772709161931838700,8.397838623046875,-0.9933929443359375,0.0657196044921875,-0.0466156005859375
1772709161941863700,8.40786376953125,-0.995819091796875,0.0666961669921875,-0.0463409423828125
1772709161951889000,8.417888916015626,-0.995025634765625,0.066131591796875,-0.04473876953125
1772709161961913900,8.427913818359375,-0.992767333984375,0.0659027099609375,-0.0461883544921875
1772709161971938800,8.437938720703125,-0.98724365234375,0.0701141357421875,-0.0452728271484375
1772709161981962800,8.447962646484376,-0.97894287109375,0.0715179443359375,-0.0430908203125
1772709161991987700,8.45798779296875,-0.99188232421875,0.0612945556640625,-0.0482940673828125
1772709162002012700,8.4680126953125,-1.004913330078125,0.0598907470703125,-0.05010986328125
1772709162012037600,8.47803759765625,-1.0016021728515625,0.0642242431640625,-0.04901123046875
1772709162022062800,8.488062744140626,-0.9965972900390625,0.0611724853515625,-0.048919677734375
1772709162032087800,8.498087890625,-0.9966888427734375,0.0599212646484375,-0.048614501953125
1772709162042112800,8.50811279296875,-0.9940643310546875,0.0648040771484375,-0.0482177734375
1772709162052137700,8.5181376953125,-0.9963836669921875,0.0653228759765625,-0.0493316650390625
1772709162062163000,8.528162841796876,-1.0059661865234375,0.058349609375,-0.0511474609375
1772709162072188000,8.53818798828125,-1.006622314453125,0.0563507080078125,-0.046356201171875
1772709162082212900,8.548212890625,-0.999359130859375,0.0635833740234375,-0.0432281494140625
1772709162092237800,8.55823779296875,-0.9906463623046875,0.0651702880859375,-0.0416107177734375
1772709162102262800,8.5682626953125,-0.9786376953125,0.0619354248046875,-0.039642333984375
1772709162112287700,8.578287841796875,-0.9720306396484375,0.052093505859375,-0.0331573486328125
1772709162122312700,8.588312744140625,-0.9856414794921875,0.071563720703125,-0.0543365478515625
