time,seconds_elapsed,z,y,x
1772709153584815900,0.05081591796875,0.003653324441984296,0.007804127410054207,-0.006529804784804583
1772709153594841000,0.060841064453125,0.006305300164967775,0.01600666344165802,-0.010177802294492722
1772709153604866000,0.070865966796875,0.003983289934694767,0.006734601687639952,-0.005398760084062815
1772709153614891000,0.08089111328125,0.0007688545738346875,0.004504736978560686,-0.002831472782418132
1772709153624916000,0.090916015625,0.0018018947448581457,0.008991098031401634,-0.0076240976341068745
1772709153634941200,0.100941162109375,0.003064499469473958,0.010094712488353252,-0.009995908476412296
1772709153644966100,0.110966064453125,0.00003355582884978503,0.00902651809155941,-0.006551908794790506
1772709153654991000,0.1209912109375,0.0014018879737704992,0.006628075148910284,-0.005561479367315769
1772709153665015000,0.13101513671875,0.003823234001174569,0.007003314793109894,-0.006818757392466068
1772709153675040000,0.1410400390625,0.0022218753583729267,0.0073114424012601376,-0.007532751187682152
1772709153685065000,0.15106494140625,0.002817890839651227,0.009125853888690472,-0.0100212087854743
1772709153695090200,0.161090087890625,0.0017749968683347106,0.008409996517002583,-0.008614527061581612
1772709153705115100,0.171115234375,0.0010396981379017234,0.009256082586944103,-0.006333795841783285
1772709153715140000,0.18114013671875,0.002055694116279483,0.008739429526031017,-0.006421147845685482
1772709153725165000,0.1911650390625,0.0037971350830048323,0.007690942846238613,-0.008836101740598679
1772709153735190300,0.201190185546875,0.0027238810434937477,0.010282198898494244,-0.005921538453549147
1772709153745215000,0.211215087890625,0.0025718146935105324,0.010920025408267975,-0.0034519892651587725
1772709153755240000,0.221239990234375,0.0032418658956885338,0.009308546781539917,-0.0031068436801433563
1772709153765265000,0.231264892578125,0.003945206757634878,0.009228652343153954,-0.006237655878067017
1772709153775290000,0.2412900390625,0.006129265297204256,0.007878162898123264,-0.005273325368762016
1772709153785315000,0.251315185546875,0.005003546830266714,0.010670487768948078,-0.0005579322460107505
1772709153795340000,0.261340087890625,0.006560697220265865,0.009778328239917755,0.0008697884040884674
1772709153805365000,0.271364990234375,0.006403304636478424,0.007541006896644831,-0.0025542378425598145
1772709153815390200,0.28139013671875,0.005756955128163099,0.008142348378896713,-0.0005856291390955448
1772709153825415200,0.291415283203125,0.006352171767503023,0.009045693092048168,0.0016682040877640247
1772709153835439900,0.30143994140625,0.004174238536506891,0.009438775479793549,0.0011472897604107857
1772709153845464800,0.31146484375,0.00475480780005455,0.00881106872111559,-0.0017686053179204464
1772709153855489000,0.321489013671875,0.004674912896007299,0.006298375781625509,-0.002817890839651227
1772709153865514000,0.331513916015625,0.005029912106692791,0.009012935683131218,-0.00034887410583905876
1772709153875539000,0.3415390625,0.00532685499638319,0.009044094942510128,0.0020503676496446133
1772709153885564200,0.351564208984375,0.005679457448422909,0.008468053303658962,0.0009776464430615306
1772709153895589000,0.361589111328125,0.005023254547268152,0.00794554129242897,-0.0001960086519829929
1772709153905614000,0.371614013671875,0.005117796827107668,0.008982841856777668,0.0003989415417890996
1772709153915639000,0.38163916015625,0.006858172360807657,0.008822786621749401,-0.0004394215648062527
1772709153925664000,0.3916640625,0.006566023454070091,0.007933823391795158,0.0011251855175942183
1772709153935689000,0.40168896484375,0.0051739891059696674,0.007498130202293396,-0.0004519384237937629
1772709153945714000,0.4117138671875,0.008944492787122726,0.009812682867050171,0.0003408846096135676
1772709153955739100,0.4217392578125,0.004894091282039881,0.010488593950867653,0.0006125270738266408
1772709153965764000,0.43176416015625,0.0048855687491595745,0.008402006700634956,0.001799764228053391
1772709153975789000,0.4417890625,0.005228317808359861,0.007637413218617439,-0.00040772996726445854
1772709153985814000,0.45181396484375,0.004793157335370779,0.006518353242427111,-0.0012860405258834362
1772709153995839200,0.461839111328125,0.006721019744873047,0.006428870838135481,-0.0009632653673179448
1772709154005864200,0.4718642578125,0.0029353362042456865,0.013685718178749084,0.004323375876992941
1772709154015889000,0.481888916015625,0.0023395870812237263,0.011204451322555542,0.00487225316464901
1772709154025913900,0.491913818359375,0.006000368390232325,0.006427273154258728,-0.0029196233954280615
1772709154035939000,0.50193896484375,0.006201703101396561,0.005980394314974546,-0.006595584563910961
1772709154045964000,0.511964111328125,0.00549170421436429,0.012046542949974537,-0.005520999431610107
1772709154055988200,0.52198828125,0.007234210614115,0.013577061705291271,0.0009339706157334149
1772709154066013400,0.532013427734375,0.007888549007475376,0.012406336143612862,-0.0010809770319610834
1772709154076038400,0.542038330078125,0.006252835970371962,0.007545001804828644,-0.004923652391880751
1772709154086063400,0.5520634765625,0.004983040504157543,0.008490157313644886,-0.0054216631688177586
1772709154096088300,0.56208837890625,0.005367601290345192,0.01028352975845337,0.0006644586683250964
1772709154106113500,0.572113525390625,0.005090632475912571,0.011599398218095303,0.001918807509355247
1772709154116138500,0.582138427734375,0.00577932596206665,0.009645969606935978,-0.0004141215467825532
1772709154126163500,0.59216357421875,0.003937217406928539,0.00785286258906126,-0.00004021373388241045
1772709154136188400,0.6021884765625,0.0041220407001674175,0.008744223043322563,-0.0012207929976284504
1772709154146213600,0.612213623046875,0.004412591457366943,0.008904012851417065,-0.00023382554354611784
1772709154156238300,0.62223828125,0.003951864782720804,0.008143680170178413,-0.0030863373540341854
1772709154166263300,0.63226318359375,0.0047026099637150764,0.00818096473813057,-0.002987001556903124
1772709154176288300,0.642288330078125,0.005544168874621391,0.01022653840482235,-0.003922303672879934
1772709154186313500,0.6523134765625,0.0037643781397491693,0.00836951658129692,-0.001511343871243298
1772709154196338400,0.66233837890625,0.0036916739773005247,0.007530620787292719,-0.0014122743159532547
1772709154206363400,0.67236328125,0.004335360135883093,0.008273109793663025,-0.0020362529903650284
1772709154216388400,0.682388427734375,0.0039880839176476,0.008726646192371845,-0.0026370619889348745
1772709154226413600,0.69241357421875,0.003971039317548275,0.009138104505836964,-0.0017574200173839927
1772709154236438500,0.7024384765625,0.0030860709957778454,0.010488061234354973,-0.0036578518338501453
1772709154246463200,0.712463134765625,0.004249872639775276,0.009957559406757355,-0.0032887374982237816
1772709154256488400,0.722488525390625,0.004767591133713722,0.012109659612178802,-0.004802744835615158
1772709154266512400,0.732512451171875,0.003733219113200903,0.011840414255857468,-0.005825664848089218
1772709154276537300,0.742537353515625,0.0023755396250635386,0.010464625433087349,-0.005927663762122393
1772709154286562600,0.7525625,0.003227218519896269,0.009123457595705986,-0.006953513715416193
1772709154296587500,0.76258740234375,0.004018976353108883,0.010352506302297115,-0.0057066213339567184
1772709154306612500,0.772612548828125,0.004771851934492588,0.009424660354852676,0.00004314320904086344
1772709154316637400,0.782637451171875,0.00341603672131896,0.010403905063867569,0.00293400464579463
1772709154326662400,0.792662353515625,0.005922603886574507,0.006918626371771097,0.0027446537278592587
1772709154336687400,0.802687255859375,0.004095142707228661,0.006804642733186483,0.0020820593927055597
1772709154346712300,0.81271240234375,0.0065772091038525105,0.00723527604714036,0.0024620923213660717
1772709154356737300,0.8227373046875,0.005907423794269562,0.009784719906747341,0.0015185344964265823
1772709154366762500,0.832762451171875,0.0038919434882700443,0.007252053823322058,-0.0007858988246880472
1772709154376787500,0.842787353515625,0.004450141917914152,0.004560663364827633,-0.00021651499264407903
1772709154386812400,0.8528125,0.003695402294397354,0.008162855170667171,-0.001961684552952647
1772709154396837400,0.86283740234375,0.0031254857312887907,0.009431052021682262,-0.00196408131159842
1772709154406862600,0.872862548828125,0.0034823494497686625,0.007807855494320393,-0.00267807487398386
1772709154416887600,0.882887451171875,0.0035289546940475702,0.007249124348163605,-0.003307912265881896
1772709154426912300,0.892912353515625,0.0027885958552360535,0.008464325219392776,-0.0047116647474467754
1772709154436937200,0.902937255859375,0.004633633885532618,0.010325874201953411,-0.003260774305090308
1772709154446962400,0.91296240234375,0.004551874939352274,0.00954157393425703,-0.003481284249573946
1772709154456987400,0.9229873046875,0.005063734482973814,0.009285377338528633,-0.003603257006034255
1772709154467012400,0.933012451171875,0.004445614758878946,0.008826514706015587,-0.0035201662685722113
1772709154477037300,0.943037353515625,0.005076251458376646,0.010911503806710243,-0.003434146288782358
1772709154487062500,0.9530625,0.005213404074311256,0.009029979817569256,-0.0024897893890738487
1772709154497086500,0.96308642578125,0.003072755178436637,0.008912534452974796,-0.0027379959356039762
1772709154507111400,0.973111328125,0.0044197821989655495,0.008730906993150711,-0.0013193299528211355
1772709154517136400,0.983136474609375,0.004881307948380709,0.008772718720138073,-0.0024615598376840353
1772709154527161300,0.993161376953125,0.004251203965395689,0.007053115870803595,-0.0009488842915743589
1772709154537186300,1.003186279296875,0.003192863892763853,0.006119145080447197,-0.000007456851108145202
1772709154547211500,1.01321142578125,0.003590473672375083,0.007503190077841282,-0.003022954100742936
1772709154557236500,1.023236572265625,0.005088767968118191,0.01028352975845337,0.0016951019642874599
1772709154567261400,1.033261474609375,0.002034655073657632,0.010659302584826946,0.0033105756156146526
1772709154577286400,1.043286376953125,0.001847434788942337,0.005506617948412895,-0.003215766977518797
1772709154587311600,1.0533115234375,0.0024881914723664522,0.005149754695594311,-0.006618221756070852
1772709154597336600,1.063336669921875,0.0031007183715701103,0.007470965851098299,-0.0065537733025848866
1772709154607361300,1.073361328125,0.0028035095892846584,0.009946107864379883,-0.003963849041610956
1772709154617386200,1.08338623046875,0.004790494218468666,0.010006560944020748,-0.001079911831766367
1772709154627411500,1.093411376953125,0.002835201332345605,0.005860285833477974,-0.005643238313496113
1772709154637436400,1.1034365234375,0.004502606578171253,0.007842742837965488,-0.007493336219340563
1772709154647461400,1.11346142578125,0.005780923645943403,0.009894974529743195,-0.006096508353948593
1772709154657486300,1.123486328125,0.0041212416253983974,0.009967945516109467,-0.004968659486621618
1772709154667511600,1.133511474609375,0.004887166898697615,0.00860254280269146,-0.004203000571578741
1772709154677536500,1.14353662109375,0.003576092654839158,0.008598548360168934,-0.003979029133915901
1772709154687561500,1.1535615234375,0.0034991272259503603,0.011443602852523327,-0.0034703651908785105
1772709154697586200,1.163586181640625,0.00478463526815176,0.009637713432312012,-0.0033518546260893345
1772709154707610400,1.1736103515625,0.004491687286645174,0.008771919645369053,-0.0020993698853999376
1772709154717635300,1.18363525390625,0.005329518113285303,0.008288555778563023,-0.0033755565527826548
1772709154727660500,1.19366064453125,0.00421205535531044,0.007793740835040808,-0.0043625240214169025
1772709154737685500,1.203685546875,0.002972087822854519,0.00902758352458477,-0.004040548112243414
1772709154747710500,1.21371044921875,0.004323375876992941,0.0073013221845030785,-0.004592621233314276
1772709154757735400,1.2237353515625,0.004825647920370102,0.007984156720340252,-0.003689010627567768
1772709154767760600,1.2337607421875,0.0043619913049042225,0.0070890686474740505,-0.004585164599120617
1772709154777785300,1.243785400390625,0.002347576431930065,0.00862970668822527,-0.006084790453314781
1772709154787810300,1.253810302734375,0.0034234935883432627,0.008704275824129581,-0.005191033706068993
1772709154797835300,1.263835205078125,0.003561178920790553,0.007723167072981596,-0.00567013630643487
1772709154807860500,1.273860595703125,0.003090332029387355,0.006231530569493771,-0.004490355961024761
1772709154817885400,1.283885498046875,0.003989415243268013,0.007326888851821423,-0.005343366414308548
1772709154827910400,1.293910400390625,0.0041057956404984,0.00914582796394825,-0.003963582683354616
1772709154837935400,1.303935302734375,0.0039880839176476,0.009103217162191868,-0.0034314829390496016
1772709154847960600,1.313960693359375,0.00507039250805974,0.008376174606382847,-0.0029904635157436132
1772709154857985500,1.323985595703125,0.00624058535322547,0.008449411019682884,-0.0023499734234064817
1772709154868010500,1.334010498046875,0.0030370689928531647,0.009438509121537209,-0.0013235911028459668
1772709154878035200,1.34403515625,0.006158293690532446,0.007558317389339209,-0.002582201035693288
1772709154888060400,1.354060302734375,0.0033744913525879383,0.0071066454984247684,-0.003245594445616007
1772709154898085400,1.36408544921875,0.005620867945253849,0.009188172407448292,-0.0020184097811579704
1772709154908109300,1.374109375,0.004449876025319099,0.010363957844674587,-0.0023033679462969303
1772709154918134500,1.384134521484375,0.0049529471434652805,0.008480836637318134,-0.0035137746017426252
1772709154928159500,1.394159423828125,0.004802478477358818,0.006682670209556818,-0.003665042342618108
1772709154938184400,1.404184326171875,0.004150004126131535,0.0065345983020961285,-0.0009078715811483562
1772709154948209400,1.41420947265625,0.003945206757634878,0.008260592818260193,0.0010402307379990816
1772709154958234400,1.424234375,0.0023073628544807434,0.004405933897942305,-0.0012799152173101902
1772709154968259300,1.43425927734375,0.00375985074788332,0.0032029838766902685,-0.003020024625584483
1772709154978284300,1.4442841796875,0.004028830211609602,0.0022240057587623596,-0.0018897791160270572
1772709154988309500,1.4543095703125,0.003038134193047881,0.005823534447699785,-0.00026551715563982725
1772709154998334500,1.46433447265625,0.004612328484654427,0.005218730308115482,-0.0020660804584622383
1772709155008359400,1.474359375,0.003552124137058854,0.002460228279232979,-0.002226136391982436
1772709155018384400,1.48438427734375,0.0012799152173101902,0.00256409146822989,-0.0021936458069831133
1772709155028409600,1.49440966796875,0.0027148264925926924,0.004324440844357014,-0.0015480954898521304
1772709155038434600,1.5044345703125,0.0021853898651897907,0.005136971361935139,-0.0031249532476067543
1772709155048459500,1.51445947265625,0.00313560594804585,0.005282646510750055,-0.004381699021905661
1772709155058483700,1.524483642578125,0.0013014868600293994,0.0043713124468922615,-0.003300189273431897
1772709155068509000,1.534509033203125,0.0024794030468910933,0.006089583970606327,-0.0009843043517321348
1772709155078534000,1.544533935546875,0.0025774072855710983,0.0033987262286245823,-0.003225354477763176
1772709155088558800,1.554558837890625,0.0012271846644580364,0.0026437200140208006,-0.00529622845351696
1772709155098584000,1.564583984375,0.0041462755762040615,0.004397145472466946,-0.006351905409246683
1772709155108608000,1.57460791015625,0.003608849598094821,0.008313856087625027,-0.0018463695887476206
1772709155118633000,1.584633056640625,0.0007669904152862728,0.008143946528434753,-0.0000250337143370416
1772709155128658000,1.594657958984375,0.001796834752894938,0.00024474450037814677,-0.0015502260066568851
1772709155138683000,1.604682861328125,0.0009174589649774134,0.0011768508702516556,-0.007072823122143745
1772709155148707800,1.614707763671875,0.002923884429037571,0.005943110212683678,-0.008930111303925514
1772709155158732800,1.62473291015625,0.004230697639286518,0.010370349511504173,-0.002442385070025921
1772709155168758000,1.634758056640625,0.002865028567612171,0.008555404841899872,-0.0032117723021656275
1772709155178783000,1.644782958984375,0.003207511268556118,0.004296744242310524,-0.007652859669178724
1772709155188808000,1.654807861328125,0.0025710156187415123,0.005278651602566242,-0.00911759864538908
1772709155198833000,1.6648330078125,0.004458664450794458,0.00726350536569953,-0.008400408551096916
1772709155208858000,1.674858154296875,0.003242398612201214,0.006610498297959566,-0.004717523697763681
1772709155218882800,1.6848828125,0.0024053670931607485,0.003940146882086992,-0.006372678093612194
1772709155228907800,1.69490771484375,0.002252501668408513,0.0052235242910683155,-0.004667189903557301
1772709155238932700,1.7049326171875,0.0028490496333688498,0.006237389519810677,-0.00247540813870728
1772709155248958000,1.7149580078125,0.0009174589649774134,0.0054333810694515705,-0.002877545543015003
1772709155258983000,1.72498291015625,0.004321245010942221,0.004433896858245134,-0.0037444045301526785
1772709155269008000,1.7350078125,0.0029843382071703672,0.005869873333722353,-0.004773716442286968
1772709155279032800,1.74503271484375,0.0023313311394304037,0.005118062719702721,-0.0057220677845180035
1772709155289058000,1.75505810546875,0.0024591628462076187,0.004171575419604778,-0.004977181553840637
1772709155299083000,1.7650830078125,0.0007869640830904245,0.005835518706589937,-0.005587311927229166
1772709155309108000,1.77510791015625,0.0034120420459657907,0.00569996377453208,-0.004168113227933645
1772709155319132000,1.7851318359375,0.0021225393284112215,0.00532632227987051,-0.004333761986345053
1772709155329156900,1.795156982421875,0.0019299928098917007,0.005080512259155512,-0.003454119898378849
1772709155339181800,1.805181884765625,0.003073021536692977,0.00574843306094408,-0.007126885466277599
1772709155349207000,1.81520703125,0.002263420494273305,0.007366836071014404,-0.00640942994505167
1772709155359232000,1.82523193359375,-0.0004801679460797459,0.006961769424378872,-0.0068120998330414295
1772709155369257000,1.835257080078125,0.0015544871566817164,0.005859486758708954,-0.005834985990077257
1772709155379282000,1.845281982421875,0.0017022925894707441,0.007876564748585224,-0.004349741153419018
1772709155389307100,1.85530712890625,0.003388606244698167,0.0075700352899730206,-0.0049337721429765224
1772709155399331800,1.865331787109375,0.00242214510217309,0.004966262727975845,-0.005898369010537863
1772709155409356800,1.875356689453125,0.0036096484400331974,0.00683233980089426,-0.005328719038516283
1772709155419381800,1.8853818359375,0.002329733222723007,0.004893558565527201,-0.005511944647878408
1772709155429407000,1.895406982421875,0.002567020943388343,0.006001166999340057,-0.003805390791967511
1772709155439432000,1.905431884765625,0.0043654534965753555,0.004736698232591152,-0.005487443413585424
1772709155449457000,1.915456787109375,0.0023302659392356873,0.003022421384230256,-0.005946306046098471
1772709155459481900,1.92548193359375,0.0038421424105763435,0.0065345983020961285,-0.0030423952266573906
1772709155469507000,1.935507080078125,0.0024679512716829777,0.007224357221275568,-0.0018136126454919577
1772709155479532000,1.945531982421875,0.0010362359462305903,0.005441637244075537,-0.00213558878749609
1772709155489557000,1.955556884765625,0.0016969662392511964,0.0034293525386601686,-0.006075735669583082
1772709155499581700,1.965581787109375,0.002453836612403393,0.005981992464512587,-0.005914880894124508
1772709155509607000,1.97560693359375,0.0025502429343760014,0.009622267447412014,-0.00529622845351696
1772709155519632000,1.9856318359375,0.0022498385515064,0.0065468489192426205,-0.0052118063904345036
1772709155529655800,1.99565576171875,0.0031766186002641916,0.006200638134032488,-0.0076033249497413635
1772709155539681000,2.005680908203125,0.00027031084755435586,0.005575594026595354,-0.008477107621729374
1772709155549706000,2.0157060546875,0.002484196564182639,0.0076363482512533665,-0.006219812668859959
1772709155559731000,2.02573095703125,0.0033806166611611843,0.006844057701528072,-0.006957774516195059
1772709155569756000,2.035755859375,0.00443922309204936,0.008221711032092571,-0.006611563730984926
1772709155579780900,2.04578076171875,0.003035471076145768,0.007866178639233112,-0.005751096177846193
1772709155589805800,2.055805908203125,0.0018972359830513597,0.008085090667009354,-0.006354568526148796
1772709155599830800,2.065830810546875,0.0035976641811430454,0.00624111806973815,-0.0070403325371444225
1772709155609856000,2.07585595703125,0.0027302727103233337,0.008019044063985348,-0.0073623089119791985
1772709155619881000,2.085880859375,0.0018964370246976614,0.00418462511152029,-0.004252802114933729
1772709155629906000,2.095906005859375,0.0022533005103468895,0.0038655782118439674,-0.005434712860733271
1772709155639931000,2.105930908203125,0.004218447022140026,0.004193946253508329,-0.0043718451634049416
1772709155649956000,2.1159560546875,0.0024738102219998837,0.00902385450899601,-0.0004649879119824618
1772709155659981000,2.12598095703125,0.0005715143634006381,0.008971656672656536,-0.0015326491557061672
1772709155670005800,2.136005859375,0.002252768026664853,0.0031398669816553593,-0.005584648810327053
1772709155680030700,2.14603076171875,0.0007582019316032529,0.0010804444318637252,-0.007926899008452892
1772709155690056000,2.156055908203125,0.002335592173039913,0.00774607015773654,-0.010866762138903141
1772709155700081000,2.166080810546875,0.0037297571543604136,0.010898986831307411,-0.007793208118528128
1772709155710105900,2.17610595703125,0.003326288191601634,0.009914682246744633,-0.008509598672389984
1772709155720130800,2.186130859375,0.0016463662032037973,0.006019276566803455,-0.01050324086099863
1772709155730156000,2.196156005859375,0.003469299990683794,0.004875182639807463,-0.01062095258384943
1772709155740180000,2.206179931640625,0.0025063008069992065,0.006508765742182732,-0.009075254201889038
1772709155750205000,2.216204833984375,0.0018873822409659624,0.009986854158341885,-0.004385427106171846
1772709155760230000,2.22622998046875,0.0037827540654689074,0.007995341904461384,-0.004875448998063803
1772709155770254800,2.2362548828125,0.0010836402652785182,0.005332979839295149,-0.0057162088342010975
1772709155780279800,2.24627978515625,0.0030474551022052765,0.007208910770714283,-0.006099970545619726
1772709155790305000,2.256304931640625,0.0022455775178968906,0.004920190200209618,-0.007416370790451765
1772709155800330000,2.266330078125,0.0018666095566004515,0.007818507961928844,-0.0049561429768800735
1772709155810355000,2.27635498046875,0.002814428647980094,0.007045126520097256,-0.0086616650223732
1772709155820380000,2.2863798828125,0.0025710156187415123,0.007808920927345753,-0.008596950210630894
1772709155830405000,2.296405029296875,0.0014117417158558965,0.006866694428026676,-0.008036620914936066
1772709155840430000,2.30643017578125,-0.000055926382628967986,0.006489058490842581,-0.006773483939468861
1772709155850454800,2.316454833984375,0.0006948187365196645,0.008190019056200981,-0.00606321869418025
1772709155860479700,2.326479736328125,0.0014982944121584296,0.007258445490151644,-0.008328770287334919
1772709155870505000,2.3365048828125,0.0016791230300441384,0.0073295519687235355,-0.008617190644145012
1772709155880530000,2.346530029296875,0.0023667511995881796,0.008068579249083996,-0.00951068103313446
1772709155890555000,2.356554931640625,0.0038136467337608337,0.008285094052553177,-0.010251838713884354
1772709155900579800,2.366579833984375,0.0006458165589720011,0.008344216272234917,-0.011597533710300922
1772709155910605000,2.37660498046875,-0.00024580975878052413,0.008756473660469055,-0.01299409568309784
1772709155920630000,2.386630126953125,0.0015193333383649588,0.008301871828734875,-0.009135441854596138
1772709155930655000,2.396655029296875,-0.00022423815971706063,0.0062549663707613945,-0.009489907883107662
1772709155940680000,2.406679931640625,0.0019864519126713276,0.006740460637956858,-0.007568171247839928
1772709155950703900,2.416703857421875,0.002543585142120719,0.009273659437894821,-0.005241899751126766
1772709155960728800,2.426728759765625,0.0026106967125087976,0.010574880056083202,-0.004854409955441952
1772709155970753800,2.43675390625,0.001970472978428006,0.007928230799734592,-0.007317834068089724
1772709155980779000,2.446779052734375,0.0026557042729109526,0.006024869158864021,-0.008177502080798149
1772709155990804000,2.456803955078125,0.003897269954904914,0.009997772984206676,-0.006947388406842947
1772709156000829000,2.466828857421875,0.0036434705834835768,0.009906427003443241,-0.0051593417301774025
1772709156010854000,2.47685400390625,0.0034298852551728487,0.009434514679014683,-0.0031310785561800003
1772709156020879000,2.486879150390625,0.0030008498579263687,0.008162855170667171,-0.003935352899134159
1772709156030903800,2.49690380859375,0.004758802708238363,0.009953032247722149,-0.002682602033019066
1772709156040928800,2.5069287109375,0.005404352676123381,0.011452924460172653,-0.0026011094450950623
1772709156050954000,2.5169541015625,0.005035238806158304,0.00965475756675005,-0.0029284118209034204
1772709156060979000,2.52697900390625,0.004693022463470697,0.010785269550979137,-0.0036400086246430874
1772709156071004000,2.53700390625,0.004850415047258139,0.009708819910883904,-0.0025510420091450214
1772709156081028900,2.54702880859375,0.006652043666690588,0.009238772094249725,-0.0006135923322290182
1772709156091054000,2.55705419921875,0.0052264537662267685,0.010061955079436302,0.002162486780434847
1772709156101079000,2.5670791015625,0.007196127437055111,0.009623599238693714,0.0028818065766245127
1772709156111104000,2.57710400390625,0.0062246061861515045,0.008643555454909801,0.0036674391012638807
1772709156121128700,2.587128662109375,0.0062576294876635075,0.006232596002519131,0.00430020596832037
1772709156131154000,2.59715380859375,0.0070978570729494095,0.007028880994766951,0.0035577169619500637
1772709156141179000,2.607178955078125,0.004144411068409681,0.007790278643369675,0.004261590540409088
1772709156151203800,2.617203857421875,0.00509835546836257,0.006884004920721054,0.002877279184758663
1772709156161228800,2.627228759765625,0.005373992491513491,0.003784085623919964,0.00013156015484128147
1772709156171253000,2.6372529296875,0.006449643522500992,0.005862150341272354,0.002413090318441391
1772709156181278000,2.64727783203125,0.004541488364338875,0.013872938230633736,0.0054363105446100235
1772709156191303000,2.657302978515625,0.004563592839986086,0.00974264182150364,0.0029795446898788214
1772709156201327900,2.667327880859375,0.0019627497531473637,0.004117779433727264,-0.0028842033352702856
1772709156211352800,2.677352783203125,0.004778776317834854,0.007481351960450411,-0.005124188028275967
1772709156221377800,2.687377685546875,0.004581436049193144,0.011413242667913437,-0.0028543761000037193
1772709156231402800,2.69740283203125,0.005648298189043999,0.015029016882181168,-0.0009483516332693398
1772709156241428000,2.707427978515625,0.0057199373841285706,0.010659568943083286,-0.001823732745833695
1772709156251453000,2.717452880859375,0.006028597708791494,0.005914614535868168,-0.004394215997308493
1772709156261478000,2.727477783203125,0.00552233075723052,0.008383630774915218,-0.001677791471593082
1772709156271502800,2.7375029296875,0.007016630377620459,0.010586331598460674,0.0015723302494734526
1772709156281528000,2.747528076171875,0.004781972151249647,0.009271528571844101,0.0033776871860027313
1772709156291553000,2.757552978515625,0.007902397774159908,0.005655222572386265,0.0007717840489931405
1772709156301577700,2.76757763671875,0.004739094991236925,0.007118895649909973,0.0014809839194640517
1772709156311603000,2.77760302734375,0.005278917960822582,0.009601494297385216,0.001156877144239843
1772709156321628000,2.7876279296875,0.005991845857352018,0.008436361327767372,-0.00015872440417297184
1772709156331652900,2.79765283203125,0.004767857491970062,0.006847519893199205,-0.00027270769351162016
1772709156341677800,2.807677734375,0.002612560987472534,0.00717748561874032,-0.00033103092573583126
1772709156351703000,2.817703125,0.00615110294893384,0.008361793123185635,-0.001130511867813766
1772709156361727000,2.82772705078125,0.004963865969330072,0.007237140089273453,-0.001050617080181837
1772709156371752000,2.837751953125,0.0037175065372139215,0.00737402681261301,-0.000969923275988549
1772709156381777000,2.84777685546875,0.004853078629821539,0.007092264015227556,-0.002977946773171425
1772709156391801900,2.8578017578125,0.00500967213883996,0.007596134208142757,-0.0016924388473853469
1772709156401826800,2.867826904296875,0.004697815980762243,0.008644620887935162,-0.00233825552277267
1772709156411851800,2.877851806640625,0.003221093211323023,0.009956760331988335,-0.002865294925868511
1772709156421877000,2.887876953125,0.0047028763219714165,0.009184177033603191,-0.003528155852109194
1772709156431902000,2.89790185546875,0.003952397499233484,0.009367935359477997,-0.004598746541887522
1772709156441927000,2.907927001953125,0.006222475785762072,0.010624680668115616,-0.005679723806679249
1772709156451951900,2.917951904296875,0.005121258553117514,0.00686003640294075,-0.0023491743486374617
1772709156461977000,2.92797705078125,0.00430153775960207,0.007443268783390522,-0.0019209380261600018
1772709156472002000,2.938001953125,0.005479986313730478,0.007498396094888449,-0.0009214537567459047
1772709156482026800,2.94802685546875,0.005636580288410187,0.007849667221307755,0.001190433045849204
1772709156492051700,2.9580517578125,0.005857090000063181,0.007245928514748812,0.00224957219325006
1772709156502077000,2.968076904296875,0.00603339122608304,0.005018726922571659,-0.0014138722326606512
1772709156512102000,2.978101806640625,0.0046544065698981285,0.0075695025734603405,-0.0018301242962479591
1772709156522126800,2.988126953125,0.006217149551957846,0.009317069314420223,-0.0014564828015863895
1772709156532152000,2.998152099609375,0.006222742144018412,0.008382831700146198,-0.0007158577209338546
1772709156542177000,3.008177001953125,0.0049223206005990505,0.007949003018438816,-0.0020652813836932182
1772709156552202000,3.018201904296875,0.0056954361498355865,0.00672341650351882,-0.0003981425834354013
1772709156562227000,3.02822705078125,0.005025651305913925,0.008824650198221207,-0.0007808388327248394
1772709156572252000,3.038251953125,0.005110339727252722,0.008477107621729374,-0.001303351018577814
1772709156582275800,3.04827587890625,0.004774781409651041,0.006535663735121489,-0.0025712819769978523
1772709156592300800,3.05830078125,0.004489290527999401,0.005376389715820551,-0.002094309777021408
1772709156602326000,3.068325927734375,0.002445580903440714,0.008853944949805737,-0.0021025657188147306
1772709156612351000,3.07835107421875,0.005328985396772623,0.008609467186033726,-0.001820270554162562
1772709156622376000,3.0883759765625,0.0036991306114941835,0.009155414998531342,-0.0007068029372021556
1772709156632401000,3.09840087890625,0.0046698530204594135,0.008493087254464626,-0.0021406488958746195
1772709156642426000,3.108426025390625,0.005789712071418762,0.008357532322406769,-0.002201901515945792
1772709156652450800,3.118450927734375,0.005720736458897591,0.008734902366995811,-0.0007297061383724213
1772709156662475800,3.128475830078125,0.005372394807636738,0.009887518361210823,-0.0036157737486064434
1772709156672500700,3.138500732421875,0.005352154839783907,0.007111971732228994,-0.00039840888348408043
1772709156682526000,3.14852587890625,0.004323109518736601,0.005328452680259943,0.0003502056933939457
1772709156692551000,3.158551025390625,0.007731156423687935,0.005776130128651857,0.00026019083452410996
1772709156702575900,3.168575927734375,0.007682154420763254,0.003715375903993845,0.003108707955107093
1772709156712600800,3.178600830078125,0.0073508573696017265,0.004796619527041912,0.00008442220860160887
1772709156722626000,3.1886259765625,0.005162005312740803,-0.0018343853298574686,0.0005150553770363331
1772709156732651000,3.198651123046875,0.00615190202370286,0.0021944446489214897,-0.004976915195584297
1772709156742676000,3.208676025390625,0.005592904519289732,0.007992679253220558,-0.0035055188927799463
1772709156752701000,3.218700927734375,0.006310892757028341,0.00837031565606594,0.0029558425303548574
1772709156762726000,3.228725830078125,0.005311142187565565,0.0031529164407402277,0.0006700513185933232
1772709156772750800,3.238750732421875,0.007003847509622574,0.005032575689256191,-0.004659732803702354
1772709156782775800,3.24877587890625,0.00569996377453208,0.00415319949388504,-0.005273059010505676
1772709156792801000,3.258801025390625,0.005389971658587456,0.0071178306825459,0.0006322344415821135
1772709156802825000,3.268824951171875,0.006065881811082363,0.006088252644985914,-0.00024447820032946765
1772709156812850000,3.278849853515625,0.006298642139881849,0.003793406533077359,-0.0014644722687080503
1772709156822875100,3.288875244140625,0.00652714166790247,0.006854177452623844,-0.0026964505668729544
1772709156832899800,3.29889990234375,0.004493285436183214,0.00395799009129405,-0.003737214021384716
1772709156842924800,3.3089248046875,0.005172924138605595,0.002829342382028699,-0.0022479742765426636
1772709156852949800,3.31894970703125,0.004532966297119856,0.002112152986228466,-0.002796319080516696
1772709156862975000,3.32897509765625,0.0046418895944952965,0.003912716172635555,-0.004358529578894377
1772709156873000000,3.339,0.005256813485175371,0.008554339408874512,-0.003204581793397665
1772709156883025000,3.34902490234375,0.007538077421486378,0.01788046397268772,0.0009129316313192248
1772709156893049900,3.3590498046875,0.006387858185917139,0.009370598942041397,0.002124669961631298
1772709156903075000,3.369074951171875,0.0037476003635674715,0.003346528159454465,-0.0005139900604262948
1772709156913100000,3.37910009765625,0.005822735372930765,0.000815193576272577,-0.005312739871442318
1772709156923125000,3.389125,0.0057401773519814014,0.003363838652148843,-0.006396646611392498
1772709156933149700,3.399149658203125,0.0043835630640387535,0.0028663603588938713,-0.0027230822015553713
1772709156943175000,3.4091748046875,0.004005128052085638,0.00501100393012166,-0.0006319681415334344
1772709156953199900,3.419199951171875,0.0035811527632176876,0.0075971996411681175,-0.003150785807520151
1772709156963224800,3.429224853515625,0.00287461606785655,0.0075788237154483795,-0.003916977439075708
1772709156973249800,3.439249755859375,0.0033337450586259365,0.00962972454726696,-0.0036583843175321817
1772709156983275000,3.44927490234375,0.004229099955409765,0.005963616538792849,-0.0027092336677014828
1772709156993300000,3.459300048828125,0.004375573713332415,0.007835818454623222,-0.0024953819811344147
1772709157003325000,3.469324951171875,0.003057841444388032,0.009440639987587929,-0.002749181119725108
1772709157013350000,3.479349853515625,0.004335093777626753,0.010469418950378895,-0.0013558153295889497
1772709157023373800,3.489373779296875,0.003507116809487343,0.009669139049947262,-0.0035137746017426252
1772709157033398800,3.499398681640625,0.004199006129056215,0.004311657976359129,-0.00552206439897418
1772709157043424000,3.509424072265625,0.003993942867964506,0.012478773482143879,-0.0021931130904704332
1772709157053449500,3.519449462890625,0.0022482406347990036,0.011808455921709538,-0.002834934974089265
1772709157063474200,3.52947412109375,0.004705006722360849,0.006537261418998241,-0.0023097596131265163
1772709157073499100,3.5394990234375,0.0020474381744861603,0.006471215281635523,-0.003913781605660915
1772709157083524400,3.5495244140625,0.003644269658252597,0.005228317808359861,-0.003772101365029812
1772709157093549300,3.55954931640625,0.0027800737880170345,0.01155891828238964,-0.0022447784431278706
1772709157103574300,3.56957421875,0.003556119045242667,0.008330900222063065,-0.003123355330899358
1772709157113599200,3.57959912109375,0.002697782125324011,0.005921804811805487,-0.002746784361079335
1772709157123624400,3.58962451171875,0.0011733887949958444,0.007576693315058947,-0.003867708845064044
1772709157133649400,3.5996494140625,0.002284992253407836,0.003768639173358679,-0.005185973364859819
1772709157143674400,3.60967431640625,0.0037734329234808683,0.006009689066559076,-0.0054573495872318745
1772709157153699300,3.61969921875,0.0024762072134763002,0.008779110386967659,-0.0028064390644431114
1772709157163724300,3.629724365234375,0.0023148194886744022,0.006472013890743256,-0.0025094966404139996
1772709157173749200,3.639749267578125,0.0046695866622030735,0.006139118690043688,-0.00535348616540432
1772709157183774200,3.649774169921875,0.004868258256465197,0.006315154023468494,-0.00464588450267911
1772709157193799200,3.659799072265625,0.003579554846510291,0.007281082216650248,-0.0020546286832541227
1772709157203824400,3.669824462890625,0.0034618431236594915,0.007275755982846022,-0.0025361282750964165
1772709157213849300,3.679849365234375,0.00282055395655334,0.006293848622590303,-0.001862614881247282
1772709157223874300,3.689874267578125,0.0028796761762350798,0.0051865060813724995,-0.002596848411485553
1772709157233899300,3.699899169921875,0.0028613002505153418,0.0020503676496446133,-0.0034847462084144354
1772709157243923200,3.709923095703125,0.004079962614923716,0.003969441633671522,-0.005234176758676767
1772709157253948200,3.7199482421875,0.002709500025957823,0.012476377189159393,-0.0016863135388121009
1772709157263973000,3.72997314453125,0.0046725161373615265,0.005345230456441641,-0.0011893677292391658
1772709157273998300,3.739998291015625,0.003108441596850753,0.0030368026345968246,-0.004000067710876465
1772709157284023300,3.750023193359375,0.004349474795162678,0.005311408545821905,-0.006461361423134804
1772709157294048300,3.76004833984375,0.004525776021182537,0.004082093480974436,-0.003683151677250862
1772709157304073200,3.7700732421875,0.004655205644667149,0.011051852256059647,-0.0020732709672302008
1772709157314098400,3.780098388671875,0.005839779507368803,0.009184177033603191,-0.002799781272187829
1772709157324123400,3.790123291015625,0.0041031320579349995,0.0040823593735694885,-0.0029790119733661413
1772709157334148400,3.8001484375,0.004656004719436169,0.0054914383217692375,-0.003406981937587261
1772709157344173300,3.81017333984375,0.005940979812294245,0.006417152937501669,-0.002147306688129902
1772709157354198300,3.8201982421875,0.004756938200443983,0.005209941882640123,-0.0022770026698708534
1772709157364223200,3.83022314453125,0.004259459674358368,0.0041068606078624725,-0.0010868359822779894
1772709157374248200,3.840248291015625,0.00526613462716341,-0.00023755396250635386,-0.0008833705214783549
1772709157384273400,3.8502734375,0.0027949875220656395,0.00008096009696600959,-0.0018687400734052062
1772709157394298400,3.86029833984375,0.0035715652629733086,-0.00026551715563982725,0.0011968245962634683
1772709157404323300,3.8703232421875,0.0034120420459657907,0.0022160164080560207,-0.00023329291434492916
1772709157414348300,3.880348388671875,0.0029531794134527445,0.0035052525345236063,-0.00044581317342817783
1772709157424373500,3.89037353515625,0.0033364081755280495,0.002126534003764391,-0.0004700479330495
1772709157434398200,3.900398193359375,0.002814961364492774,0.00475427508354187,-0.001502555445767939
1772709157444423200,3.910423095703125,0.002169144805520773,0.004058923572301865,-0.0020426444243639708
1772709157454448000,3.9204482421875,0.0018303906545042992,0.0046482812613248825,-0.004280232358723879
1772709157464472300,3.930472412109375,0.0037233654875308275,0.004237622022628784,-0.0046762446872889996
1772709157474497300,3.940497314453125,0.003579554846510291,0.006934871431440115,-0.004354534670710564
1772709157484522200,3.950522216796875,0.0026011094450950623,0.009200156666338444,-0.004433097783476114
1772709157494547500,3.96054736328125,0.002603239845484495,0.007191067561507225,-0.0029846045654267073
1772709157504572400,3.970572509765625,0.0018897791160270572,0.0057622818276286125,-0.0034908715169876814
1772709157514597000,3.98059716796875,0.002490321872755885,0.005062136333435774,-0.004794755019247532
1772709157524622000,3.9906220703125,0.0033318807836622,0.006557767745107412,-0.0030123014003038406
1772709157534647300,4.000647216796875,0.0033393376506865025,0.005626993253827095,-0.003400324145331979
1772709157544672300,4.01067236328125,0.001630387152545154,0.0014479606179520488,-0.0003587277897167951
1772709157554697200,4.020697265625,0.0019379822770133615,0.002986468840390444,-0.0010820423485711217
1772709157564722200,4.03072216796875,0.001589108258485794,0.004788097459822893,-0.0020623519085347652
1772709157574747400,4.040747314453125,0.0031180288642644882,0.0032256206031888723,-0.001960352761670947
1772709157584772400,4.0507724609375,0.0001382180635118857,0.0007360977469943464,-0.004664793144911528
1772709157594797300,4.06079736328125,0.0013488910626620054,0.003355849301442504,-0.0008138620178215206
1772709157604822300,4.070822265625,0.0024045680183917284,0.007697334513068199,-0.002302036387845874
1772709157614847200,4.08084716796875,0.003602457931265235,0.00815193634480238,-0.003668504301458597
1772709157624872200,4.0908720703125,0.0037004624027758837,0.004396879114210606,-0.005650429055094719
1772709157634897200,4.100897216796875,0.0028487835079431534,0.005195028148591518,-0.00410552928224206
1772709157644922400,4.11092236328125,0.0007448861724697053,0.0049369679763913155,-0.005644835997372866
1772709157654947300,4.120947265625,0.0010245180455967784,0.0060112872160971165,-0.004575843457132578
1772709157664972300,4.13097216796875,0.0007273092633113265,0.006937001831829548,-0.0056951697915792465
1772709157674996500,4.14099658203125,0.0024655545130372047,0.0032919333316385746,-0.0056919739581644535
1772709157685021400,4.151021484375,0.0010964233661070466,0.002061286708340049,-0.00484429020434618
1772709157695046100,4.161046142578125,0.0010266485624015331,0.003614974906668067,-0.005396363325417042
1772709157705071000,4.171071044921875,0.0017603494925424457,0.004418450407683849,-0.007188670802861452
1772709157715096300,4.181096435546875,0.0020335898734629154,0.002329467097297311,-0.007139668334275484
1772709157725121300,4.191121337890625,0.003522030543535948,0.0007715177489444613,-0.0051966262981295586
1772709157735146200,4.201146240234375,0.0032178976107388735,0.0018745990237221122,-0.004253600724041462
1772709157745171200,4.211171142578125,0.0015366439474746585,0.0016442356863990426,-0.004489290527999401
1772709157755196400,4.221196533203125,0.0013020194601267576,-0.0014828480780124664,-0.005423527676612139
1772709157765221400,4.231221435546875,0.002398176584392786,-0.006580670829862356,-0.006742058787494898
1772709157775246300,4.241246337890625,0.0013520868960767984,-0.00598492193967104,-0.005964948330074549
1772709157785271300,4.251271240234375,0.0011406318517401814,-0.0004799016169272363,-0.0057372478768229485
1772709157795296300,4.261296142578125,0.0017616810509935021,0.003192064817994833,-0.002273274352774024
1772709157805321200,4.2713212890625,0.0010351707460358739,0.00009800432599149644,-0.004143878817558289
1772709157815346200,4.28134619140625,-0.0007121292874217033,-0.0067540425807237625,-0.00785499345511198
1772709157825371400,4.291371337890625,0.0012005530297756195,-0.00875221285969019,-0.013255617581307888
1772709157835396400,4.301396240234375,0.0019832560792565346,-0.006253900937736034,-0.013028450310230255
1772709157845421300,4.31142138671875,0.0009973538108170033,0.0035510589368641376,-0.008917595259845257
1772709157855446300,4.3214462890625,0.0017656758427619934,0.005162005312740803,-0.006591057404875755
1772709157865471500,4.331471435546875,0.0027169568929821253,0.0027316042687743902,-0.007394266780465841
1772709157875495200,4.3414951171875,0.0030128341168165207,0.0018008295446634293,-0.009267534129321575
1772709157885520100,4.35152001953125,0.0020186761394143105,0.0025502429343760014,-0.007185741327702999
1772709157895545300,4.36154541015625,0.0002844255941454321,0.00401737866923213,-0.00253399764187634
1772709157905570300,4.3715703125,0.0011464908020570874,0.0016679377295076847,-0.003203516360372305
1772709157915595300,4.38159521484375,0.0014769891276955605,-0.003963582683354616,-0.005741775035858154
1772709157925620200,4.3916201171875,0.0019345202017575502,-0.0022021678742021322,-0.0065322015434503555
1772709157935645400,4.4016455078125,0.0016226640436798334,0.0018823222490027547,-0.004223241005092859
1772709157945670400,4.41167041015625,0.0011608719360083342,0.0022743395529687405,-0.004283694550395012
1772709157955695400,4.4216953125,0.0016953683225437999,-0.0003605920064728707,-0.004690092988312244
1772709157965720000,4.431719970703125,0.0007691209320910275,0.0013406352372840047,-0.005599029827862978
1772709157975745300,4.441745361328125,0.0016098808264359832,0.003751062322407961,-0.005811017472296953
1772709157985770200,4.451770263671875,0.0011906992876902223,0.0004820321628358215,-0.005682120565325022
1772709157995795200,4.461795166015625,0.001930525409989059,0.00666429428383708,-0.005090898834168911
1772709158005820200,4.471820068359375,0.0017259946325793862,0.010231065563857555,-0.005377454683184624
1772709158015845400,4.481845458984375,0.0032621060963720083,0.010461429134011269,-0.006142048165202141
1772709158025870300,4.491870361328125,0.003862382611259818,0.010812434367835522,-0.00509862182661891
1772709158035895300,4.501895263671875,0.003668770659714937,0.009354619309306145,-0.0051865060813724995
1772709158045920300,4.511920166015625,0.0036522590089589357,0.005022455472499132,-0.006907174363732338
1772709158055945000,4.521945068359375,0.0029768813401460648,0.00634791050106287,-0.0062946476973593235
1772709158065970000,4.531969970703125,0.0019659455865621567,0.005440571811050177,-0.006304767448455095
1772709158075994000,4.541994140625,0.0015627428656443954,0.004707669839262962,-0.003868241561576724
1772709158086019000,4.55201904296875,0.003581951605156064,0.007842476479709148,-0.004129497334361076
1772709158096044000,4.5620439453125,0.002124137245118618,0.008899219334125519,-0.00370099488645792
1772709158106069000,4.572069091796875,0.0017563547007739544,0.00941853504627943,-0.006417685654014349
1772709158116094200,4.58209423828125,0.0030602384358644485,0.007994809187948704,-0.006472546607255936
1772709158126119200,4.592119140625,0.0017361147329211235,0.0002008023438975215,-0.004680239129811525
1772709158136144000,4.602143798828125,0.0010847054654732347,0.0015867113834246993,-0.005239502992480993
1772709158146168800,4.6121689453125,0.003531351685523987,0.008330900222063065,-0.002319879597052932
1772709158156194000,4.622194091796875,0.0017158746486529708,0.008076568134129047,-0.003412840887904167
1772709158166219000,4.632218994140625,0.0022679478861391544,0.0056978329084813595,-0.003850131994113326
1772709158176244000,4.642243896484375,0.0023840616922825575,0.006695453077554703,-0.006712231319397688
1772709158186269000,4.65226904296875,0.003492469433695078,0.009309345856308937,-0.009061938151717186
1772709158196294100,4.662294189453125,0.003772367723286152,0.010464625433087349,-0.00723500968888402
1772709158206319000,4.672319091796875,0.0015643407823517919,0.008541289716959,-0.00884995050728321
1772709158216344000,4.682343994140625,0.0013076120521873236,0.008341819047927856,-0.007478156127035618
1772709158226369000,4.692369140625,0.001258343574590981,0.006172941066324711,-0.006986802909523249
1772709158236394000,4.70239404296875,0.0031302794814109802,0.006148173473775387,-0.008566590026021004
1772709158246419000,4.7124189453125,0.0025153555907309055,0.010890730656683445,-0.005390770733356476
1772709158256444000,4.72244384765625,0.0027286747936159372,0.010689395479857922,-0.0054666707292199135
1772709158266468000,4.732468017578125,0.0023438481148332357,0.0054885088466107845,-0.005225388333201408
1772709158276493000,4.7424931640625,0.0020935109350830317,0.006595318205654621,-0.005915147252380848
1772709158286518000,4.75251806640625,0.000990962260402739,0.007577226031571627,-0.006569219287484884
1772709158296543200,4.762543212890625,0.0016266588354483247,0.00563950976356864,-0.006957774516195059
1772709158306568200,4.772568115234375,0.002344380598515272,0.003715642262250185,-0.003981159534305334
1772709158316593000,4.782593017578125,0.002159024588763714,0.010836136527359486,-0.004354001954197884
1772709158326617900,4.792617919921875,0.003058374160900712,0.014961638487875462,-0.0010458233300596476
1772709158336643000,4.80264306640625,0.0004628573951777071,0.010410829447209835,-0.004805674310773611
1772709158346668000,4.81266796875,0.0016831178218126297,0.002217081608250737,-0.01023000106215477
1772709158356693000,4.82269287109375,0.0024740765802562237,0.005620867945253849,-0.01266892347484827
1772709158366718000,4.832718017578125,0.0036274916492402554,0.010714962147176266,-0.010484864935278893
1772709158376743200,4.8427431640625,0.003222425002604723,0.014119015075266361,-0.007798002101480961
1772709158386768100,4.85276806640625,0.0031427964568138123,0.00894129741936922,-0.00839907769113779
1772709158396793000,4.86279296875,0.002971821464598179,0.006449909880757332,-0.009335178881883621
1772709158406818000,4.872818115234375,0.0028940571937710047,0.008506668731570244,-0.006339122075587511
1772709158416843000,4.882843017578125,0.0033691651187837124,0.009740778245031834,-0.004040281753987074
1772709158426868000,4.892867919921875,0.0031614385079592466,0.008979113772511482,-0.0023899206425994635
1772709158436893000,4.902892822265625,0.004592621233314276,0.0057047572918236256,-0.0031965922098606825
1772709158446917000,4.912917236328125,0.003602191573008895,0.007731422781944275,-0.003555586328729987
1772709158456942000,4.922942138671875,0.003531617810949683,0.007441138383001089,-0.0017512947088107467
1772709158466967000,4.932967041015625,0.004268514458090067,0.007682953495532274,-0.0033814155030995607
1772709158476992300,4.9429921875,0.004391286056488752,0.008801480755209923,-0.003626426449045539
1772709158487017200,4.953017333984375,0.004156395327299833,0.008284561336040497,-0.004408863373100758
1772709158497042000,4.9630419921875,0.0041699777357280254,0.007637945935130119,-0.0023515713401138783
1772709158507067000,4.97306689453125,0.0041223070584237576,0.006161755882203579,-0.0008700547041371465
1772709158517092000,4.983092041015625,0.0034437335561960936,0.009044361300766468,0.0008436894277110696
1772709158527117000,4.993116943359375,0.005119927227497101,0.00863263662904501,-0.00003462109452812001
1772709158537142000,5.00314208984375,0.0054605454206466675,0.005590507760643959,-0.0006833671359345317
1772709158547167000,5.0131669921875,0.004246676806360483,0.006031260825693607,-0.002954244613647461
1772709158557192200,5.023192138671875,0.005233111325651407,0.007735417690128088,-0.0028274781070649624
1772709158567217200,5.033217041015625,0.005245095584541559,0.00965795386582613,-0.0022000374738126993
1772709158577242000,5.0432421875,0.004926315508782864,0.009254484437406063,-0.0012942962348461151
1772709158587266800,5.053266845703125,0.005101551301777363,0.006076534744352102,-0.001835716888308525
1772709158597292000,5.0632919921875,0.005598763469606638,0.005487177055329084,0.0005512743373401463
1772709158607317000,5.07331689453125,0.005602225661277771,0.00740225613117218,-0.00011691277177305892
1772709158617342000,5.083342041015625,0.004467452876269817,0.009312009438872337,0.0012250541476532817
1772709158627367000,5.093366943359375,0.004252003040164709,0.0084249097853899,-0.0004889564006589353
1772709158637391000,5.10339111328125,0.007458981592208147,0.008154865354299545,-0.0008815063047222793
1772709158647416000,5.113416015625,0.005393167492002249,0.007102384231984615,-0.0011771172285079956
1772709158657441000,5.12344091796875,0.005339371506124735,0.0057039582170546055,-0.0007840346079319715
1772709158667466000,5.133466064453125,0.007268299348652363,0.009003082290291786,-0.0003653856983873993
1772709158677491000,5.143490966796875,0.0046695866622030735,0.008381234481930733,-0.0020756677258759737
1772709158687516000,5.153515869140625,0.004177700728178024,0.005022455472499132,-0.0008929579053074121
1772709158697541000,5.163541015625,0.006126069463789463,0.0049135321751236916,-0.0000351537273672875
1772709158707566000,5.173566162109375,0.005303152836859226,0.006916761863976717,-0.0012460930738598108
1772709158717591000,5.183591064453125,0.0032916669733822346,0.010548514313995838,-0.0026698189321905375
1772709158727616000,5.193615966796875,0.004887699615210295,0.009915747679769993,-0.002716158051043749
1772709158737641200,5.20364111328125,0.005435245577245951,0.006143113598227501,-0.0031819448340684175
1772709158747666200,5.213666259765625,0.00418382603675127,0.0059508332051336765,-0.0005819007055833936
1772709158757691100,5.223691162109375,0.005321794655174017,0.005047755315899849,-0.002017078222706914
1772709158767715800,5.2337158203125,0.005901032127439976,0.006570551078766584,-0.0005395564367063344
1772709158777741000,5.243740966796875,0.004083957523107529,0.006638994440436363,0.003572630463168025
1772709158787766000,5.25376611328125,0.006360960192978382,0.007565241772681475,0.0038029940333217382
1772709158797791000,5.263791015625,0.006142314523458481,0.0072989254258573055,0.003278617514297366
1772709158807815200,5.273815185546875,0.0070429956540465355,0.008695753291249275,0.00004474110755836591
1772709158817840000,5.283840087890625,0.0057289921678602695,0.00561074772849679,-0.0000828243064461276
1772709158827865000,5.293864990234375,0.0026399914640933275,0.001669003046117723,-0.0024048343766480684
1772709158837890000,5.30389013671875,0.005915945861488581,0.002722283359616995,-0.0014554174849763513
1772709158847915000,5.3139150390625,0.005922071170061827,0.007577492389827967,0.0007651261985301971
1772709158862325000,5.328324951171875,0.004090082831680775,0.009410812519490719,0.0016548882704228163
1772709158872350000,5.338349853515625,0.0038450718857347965,0.00621022516861558,-0.002689526416361332
1772709158882375000,5.348375,0.004689027555286884,0.00714792450889945,-0.006463225465267897
1772709158892400000,5.358400146484375,0.005905027035623789,0.012523515149950981,-0.006147641222923994
1772709158902425000,5.368425048828125,0.006897587329149246,0.013924071565270424,-0.0015571502735838294
1772709158912450000,5.378449951171875,0.003400324145331979,0.01251179724931717,-0.0031827439088374376
1772709158922475000,5.38847509765625,0.0065322015434503555,0.008383364416658878,-0.0032463932875543833
1772709158932500200,5.398500244140625,0.007426224648952484,0.008444084785878658,-0.0034083134960383177
1772709158942525200,5.408525146484375,0.006464024540036917,0.008675513789057732,-0.0009563411585986614
1772709158952550000,5.4185498046875,0.006435795221477747,0.007778827100992203,0.0019824570044875145
1772709158962574800,5.428574951171875,0.005270662251859903,0.006776946131139994,0.001258876291103661
1772709158972600000,5.43860009765625,0.005529787857085466,0.00498170917853713,0.00036724991514347494
1772709158982624000,5.4486240234375,0.005941512528806925,0.0037590519059449434,0.00018375810759607702
1772709158992649000,5.45864892578125,0.002323075430467725,0.0019379822770133615,0.0009954896522685885
1772709159002674200,5.468674072265625,0.004293282050639391,0.004567055031657219,0.0011515507940202951
1772709159012699100,5.47869921875,0.004869590047746897,0.0032671659719198942,-0.001275920425541699
1772709159022724000,5.48872412109375,0.004321245010942221,0.004523911513388157,-0.0023723437916487455
1772709159032749000,5.4987490234375,0.005817941855639219,0.00851492490619421,-0.0011310444679111242
1772709159042774000,5.50877392578125,0.0028455876745283604,0.009531186893582344,-0.0012953615514561534
1772709159052799000,5.518799072265625,0.005951365921646357,0.010949586518108845,-0.0007936219917610288
1772709159062824400,5.528824462890625,0.003635214874520898,0.009429721161723137,-0.0024431839119642973
1772709159072849400,5.538849365234375,0.005282912403345108,0.01113254576921463,-0.0016192019684240222
1772709159082874400,5.548874267578125,0.005075718741863966,0.011746138334274292,-0.0022335932590067387
1772709159092899300,5.5588994140625,0.0047148605808615685,0.009456085972487926,-0.00264824740588665
1772709159102924300,5.56892431640625,0.004228567238897085,0.008823052980005741,-0.0035659726709127426
1772709159112949200,5.57894921875,0.003605653764680028,0.00914636068046093,-0.0016998957144096494
1772709159122974500,5.588974365234375,0.004575843457132578,0.007069627288728952,-0.002989664673805237
1772709159132999400,5.59899951171875,0.004036286845803261,0.006687463726848364,-0.0018855180824175477
1772709159143024400,5.6090244140625,0.004881840664893389,0.005279982928186655,-0.00004873584839515388
1772709159153048600,5.619048583984375,0.003882888937368989,0.007024353835731745,-0.0005134574603289366
1772709159163073300,5.6290732421875,0.006203301250934601,0.006810235325247049,0.0010863033821806312
1772709159173098200,5.63909814453125,0.005222725216299295,0.007331149652600288,-0.00016298545233439654
1772709159183123500,5.64912353515625,0.0052176653407514095,0.0057529606856405735,-0.000651675509288907
1772709159193148400,5.6591484375,0.003691940102726221,0.00899908784776926,-0.0014998923288658261
1772709159203173400,5.66917333984375,0.004065847955644131,0.012133894488215446,-0.0015744607662782073
1772709159222597400,5.688597412109375,0.0022975089959800243,0.005655222572386265,-0.0022085595410317183
1772709159232622300,5.698622314453125,0.002909237053245306,0.00860573910176754,-0.0020599551498889923
1772709159242647300,5.708647216796875,0.0034226945135742426,0.01200925838202238,-0.0041643851436674595
1772709159252672500,5.718672607421875,0.005793973337858915,0.0095082838088274,-0.0030029804911464453
1772709159262697500,5.728697509765625,0.0041521345265209675,0.0068331388756632805,-0.002020007697865367
1772709159272722400,5.738722412109375,0.0034791536163538694,0.005809685681015253,-0.0032554480712860823
1772709159282747400,5.748747314453125,0.002778209513053298,0.009941580705344677,-0.0041761030443012714
1772709159292772600,5.758772705078125,0.004418716765940189,0.006050701718777418,-0.0036698358599096537
1772709159302797300,5.76879736328125,0.003279150230810046,0.004280232358723879,-0.0028706213925033808
1772709159312822300,5.778822265625,0.0047055394388735294,0.006221144460141659,0.00006444849714171141
1772709159322847500,5.788847412109375,0.0036131106317043304,0.0073255570605397224,-0.0016000272007659078
1772709159332871400,5.798871337890625,0.0024349282030016184,0.006873086094856262,-0.002965962514281273
1772709159342896400,5.808896484375,0.003084473079070449,0.00558278476819396,-0.00264771468937397
1772709159352921600,5.818921630859375,0.0034999263007193804,0.007216101046651602,-0.0035361452028155327
1772709159362946600,5.828946533203125,0.00321816373616457,0.0051564122550189495,-0.0029675604309886694
1772709159372971300,5.83897119140625,0.005539108533412218,0.008824650198221207,-0.005614476278424263
1772709159382996200,5.848996337890625,0.004427771549671888,0.010508567094802856,-0.0029798108153045177
1772709159393021400,5.859021484375,0.003991013392806053,0.01002200786024332,-0.0018037590198218822
1772709159403046400,5.86904638671875,0.004098338540643454,0.006607835181057453,-0.004620584659278393
1772709159413071400,5.8790712890625,0.001776594785042107,0.00523710623383522,-0.003722300287336111
1772709159423096300,5.889096435546875,0.0035294874105602503,0.00839881133288145,-0.00612260727211833
1772709159433121500,5.89912158203125,0.0043737092055380344,0.01369024533778429,-0.0037521275226026773
1772709159443146500,5.909146484375,0.005030178464949131,0.01655660569667816,-0.0027166905347257853
1772709159453171500,5.91917138671875,0.005105546209961176,0.016519587486982346,-0.005824599415063858
1772709159463196400,5.929196533203125,0.005787848029285669,0.013879329897463322,-0.006141249556094408
1772709159473221400,5.939221435546875,0.005212871357798576,0.01130884699523449,-0.005883188918232918
1772709159483246300,5.949246337890625,0.005279184319078922,0.009460613131523132,-0.003710316028445959
1772709159493271300,5.959271240234375,0.00444002216681838,0.004761199466884136,-0.00267754215747118
1772709159503296300,5.969296142578125,0.004807005636394024,0.0026261431630700827,-0.004442418925464153
1772709159513320400,5.979320556640625,0.003067961661145091,0.0038061898667365313,-0.00287408335134387
1772709159523345400,5.989345458984375,0.0038746329955756664,0.0059870523400604725,-0.0014138722326606512
1772709159533370400,5.999370361328125,0.005281048361212015,0.010410030372440815,-0.0016698020044714212
1772709159543395600,6.0093955078125,0.003965180367231369,0.008731706067919731,-0.002299373270943761
1772709159553420300,6.019420166015625,0.003635214874520898,0.004099137615412474,-0.0012247877893969417
1772709159563445200,6.0294453125,0.003266633255407214,0.004866394214332104,-0.0029196233954280615
1772709159573470500,6.039470458984375,0.004308195784687996,0.006968427449464798,-0.0027867318131029606
1772709159583495400,6.049495361328125,0.003982490859925747,0.008250739425420761,-0.002936934120953083
1772709159593520400,6.059520263671875,0.0031260184478014708,0.006229133810847998,-0.0014418354257941246
1772709159603545300,6.06954541015625,0.00532419141381979,0.004924451000988483,-0.002120941411703825
1772709159613570600,6.079570556640625,0.0029438582714647055,0.0067966533824801445,-0.001973402453586459
1772709159623595500,6.089595458984375,0.004393683280795813,0.004849882796406746,-0.0032296155113726854
1772709159633620500,6.099620361328125,0.002112685702741146,0.0015108112711459398,-0.0020160130225121975
1772709159643645400,6.1096455078125,0.004232029430568218,-0.0020879183430224657,-0.0016740630380809307
1772709159653670400,6.11967041015625,0.0027020431589335203,-0.00005352953667170368,0.0015478292480111122
1772709159663695400,6.1296953125,0.003233077470213175,0.002921487670391798,-0.0014397049089893699
1772709159673720300,6.13972021484375,0.005874400492757559,0.0024865935556590557,-0.0025630262680351734
1772709159683745300,6.149745361328125,0.004889830015599728,0.006217948626726866,-0.000746750389225781
1772709159693770500,6.1597705078125,0.004507932811975479,0.004522846546024084,-0.001020523370243609
1772709159703794400,6.16979443359375,0.003228017594665289,0.002377936616539955,-0.0030399984680116177
1772709159713819400,6.1798193359375,0.005705290008336306,0.003591272747144103,-0.005329518113285303
1772709159723844600,6.1898447265625,0.0031228226143866777,0.0020157466642558575,-0.004760933108627796
1772709159733869300,6.199869384765625,0.0022684806026518345,0.0020122844725847244,-0.004595550708472729
1772709159743894300,6.209894287109375,0.003257312346249819,0.00006338323146337643,-0.006110623013228178
1772709159753919500,6.21991943359375,0.002570216776803136,-0.0030839405953884125,-0.007964981719851494
1772709159763944400,6.2299443359375,0.00037497308221645653,-0.005641906522214413,-0.007723699789494276
1772709159773969400,6.239969482421875,0.00041305628838017583,-0.004286890383809805,-0.006836600601673126
1772709159783994400,6.249994384765625,0.0009917612187564373,-0.0023118900135159492,-0.00669305631890893
1772709159794019600,6.26001953125,0.00162399560213089,0.00008362325752386823,-0.006878145970404148
1772709159804044500,6.27004443359375,0.0012175972806289792,-0.0004551342281047255,-0.0070395334623754025
1772709159814069500,6.280069580078125,0.0013683321885764599,0.0017808558186516166,-0.008313856087625027
1772709159824094200,6.29009423828125,0.003094060579314828,0.0046964846551418304,-0.005653092171996832
1772709159834119400,6.300119384765625,0.002254898427054286,0.0035230957437306643,-0.007472297176718712
1772709159844144400,6.310144287109375,0.002365952357649803,0.005047223065048456,-0.007927964441478252
1772709159854169300,6.32016943359375,0.0029670277144759893,0.003943875432014465,-0.006662163883447647
1772709159864194300,6.3301943359375,0.0019984361715614796,0.0062605589628219604,-0.0054632085375487804
1772709159874218500,6.340218505859375,0.0028818065766245127,0.004855475388467312,-0.00370099488645792
1772709159884243500,6.350243408203125,0.003485811408609152,0.0020298613235354424,-0.005089567042887211
1772709159894268400,6.360268310546875,0.003179814200848341,0.0034474621061235666,-0.0060022324323654175
1772709159904293400,6.37029345703125,0.0036972665693610907,0.005613410845398903,-0.005400091875344515
1772709159914318300,6.380318359375,0.003070624778047204,0.002770220162346959,-0.003724430687725544
1772709159924343300,6.39034326171875,0.004729241598397493,-0.0005826996639370918,-0.005181978922337294
1772709159934368300,6.4003681640625,0.002427471335977316,0.004622981417924166,-0.0033182986080646515
1772709159944393500,6.4103935546875,0.0008053398923948407,0.008858739398419857,-0.0025337315164506435
1772709159954418400,6.42041845703125,0.002252501668408513,0.0023065637797117233,-0.006848851218819618
1772709159964443400,6.430443359375,0.001285241567529738,0.0022242721170186996,-0.007601460441946983
1772709159974468400,6.44046826171875,0.0009353021741844714,0.003983822651207447,-0.006110623013228178
1772709159984493600,6.45049365234375,0.000070307454734575,0.008401740342378616,-0.00765845226123929
1772709159994518500,6.4605185546875,0.002721750643104315,0.012322446331381798,-0.00788322277367115
1772709160004543200,6.470543212890625,0.005261873826384544,0.00851572398096323,-0.011949337087571621
1772709160014568400,6.480568359375,0.0027204190846532583,0.011234811507165432,-0.008051268756389618
1772709160024593400,6.490593505859375,0.004248807206749916,0.008317318744957447,-0.004188619554042816
1772709160034618400,6.500618408203125,0.0029939257074147463,0.0035598473623394966,-0.0019273296929895878
1772709160044643300,6.510643310546875,0.00007962851668708026,0.0008993495139293373,-0.0023989754263311625
1772709160054668500,6.52066845703125,0.0005454153870232403,-0.002653307281434536,-0.004253068007528782
1772709160064692200,6.530692138671875,0.0016082830261439085,-0.0006540723843500018,-0.003656253917142749
1772709160074717200,6.54071728515625,0.0008109325426630676,0.0023760723415762186,-0.003203516360372305
1772709160084742400,6.550742431640625,0.0024607607629150152,0.0057100835256278515,-0.0033742249943315983
1772709160094767000,6.56076708984375,0.0019217369845137,0.011891013942658901,-0.004444282967597246
1772709160104792000,6.5707919921875,0.004267183132469654,0.005434180144220591,-0.004591822158545256
1772709160114817000,6.580817138671875,0.0014988270122557878,0.002326537622138858,-0.0032509206794202328
1772709160124842200,6.59084228515625,0.00045833003241568804,0.004446147475391626,-0.003306048223748803
1772709160134867200,6.6008671875,0.002366218715906143,0.00404614070430398,-0.0043444144539535046
1772709160144892200,6.61089208984375,0.0004980111261829734,0.0041010016575455666,-0.005027781706303358
1772709160154917000,6.620917236328125,0.002624811604619026,0.007423028815537691,-0.0054754591546952724
1772709160164942300,6.6309423828125,0.002956375014036894,0.010426009073853493,-0.008025968447327614
1772709160174967300,6.64096728515625,0.002064748667180538,0.012516058050096035,-0.005907423794269562
1772709160184992300,6.6509921875,0.0021347899455577135,0.006901581771671772,-0.005590241402387619
1772709160195017200,6.661017333984375,0.0009707222343422472,0.004933239426463842,-0.0060206083580851555
1772709160205042200,6.671042236328125,0.0009129316313192248,0.004661863669753075,-0.004792358260601759
1772709160215067100,6.681067138671875,0.0029116340447217226,0.004974252078682184,-0.005555886775255203
1772709160225092000,6.691092041015625,0.0021046961192041636,0.0057159424759447575,-0.0013313142117112875
1772709160235116300,6.7011162109375,0.0020687435753643513,0.00384400668554008,-0.0019033611752092838
1772709160245141200,6.711141357421875,0.0016431703697890043,0.001058872789144516,-0.004215251188725233
1772709160255166200,6.721166259765625,0.0017981663113459945,0.0043832967057824135,-0.0052203284576535225
1772709160265191400,6.73119140625,0.003931624814867973,0.00624111806973815,-0.0070706927217543125
1772709160275216100,6.741216064453125,0.0034056503791362047,0.007500793319195509,-0.005514075048267841
1772709160285241000,6.751240966796875,0.0031244205310940742,0.012601013295352459,-0.005209675524383783
1772709160295266000,6.76126611328125,0.004595017991960049,0.014072409830987453,-0.004680771846324205
1772709160305291300,6.771291259765625,0.003091131104156375,0.007816644385457039,-0.0058067562058568
1772709160315316200,6.781316162109375,0.003035204717889428,0.003073287894949317,-0.006070675794035196
1772709160325341200,6.791341064453125,0.001110005541704595,0.005654157139360905,-0.006190251559019089
1772709160335366100,6.8013662109375,0.0014255901332944632,0.006457632873207331,-0.0046999468468129635
1772709160345391400,6.811391357421875,-0.000752875639591366,0.005446963477879763,-0.005526059307157993
1772709160355416300,6.821416259765625,0.0019084211671724916,0.0049132658168673515,-0.007674165070056915
1772709160365441300,6.831441162109375,0.002965962514281273,0.010843592695891857,-0.006748982705175877
1772709160375466000,6.841466064453125,0.0006186523241922259,0.00663579860702157,-0.004821120295673609
1772709160385491200,6.8514912109375,0.002281530061736703,0.0018988338997587562,-0.003716707695275545
1772709160395516200,6.86151611328125,0.0015038870042189956,0.004132959526032209,-0.005075186025351286
1772709160405541000,6.871541015625,0.0023044333793222904,0.010860903188586235,-0.0039854203350842
1772709160415566000,6.881566162109375,0.0024498419370502234,0.007899735122919083,-0.0025369273498654366
1772709160425590300,6.89159033203125,0.002891660202294588,0.004969192203134298,-0.0043894220143556595
1772709160435615200,6.901615234375,0.0005688511882908642,0.003579554846510291,-0.006849650293588638
1772709160445640200,6.91164013671875,0.0013041499769315124,0.009515208192169666,-0.0038426751270890236
1772709160455665200,6.9216650390625,0.003151318524032831,0.008949019946157932,-0.003936151973903179
1772709160465690000,6.931690185546875,0.0046783750876784325,0.007192931603640318,-0.004948419518768787
1772709160475715000,6.941715087890625,0.003885285696014762,0.01272751297801733,-0.0003211772127542645
1772709160485740300,6.951740234375,0.00017683389887679368,0.010292585007846355,-0.0026929883752018213
1772709160495765200,6.96176513671875,0.0014032195322215557,0.004355333745479584,-0.008990032598376274
1772709160505790200,6.971790283203125,0.0018096179701387882,0.006103698629885912,-0.011120827868580818
1772709160515815200,6.981815185546875,0.002754773711785674,0.007877097465097904,-0.009019327349960804
1772709160525840400,6.99184033203125,0.0022796657867729664,0.012389558367431164,-0.0051833102479577065
1772709160535865300,7.001865234375,0.004355067387223244,0.012114985845983028,-0.007699997629970312
1772709160545890000,7.01189013671875,0.002682602033019066,0.007863249629735947,-0.011115767993032932
1772709160555915000,7.0219150390625,0.0026173547375947237,0.004598480183631182,-0.007497597485780716
1772709160565940200,7.031940185546875,0.0033478597179055214,0.0018130800453945994,-0.0024551681708544493
1772709160575965200,7.041965087890625,0.001823732745833695,0.00538331363350153,-0.0026703516487032175
1772709160585990100,7.051990234375,0.00196381495334208,0.0065500447526574135,-0.006157228257507086
1772709160596015000,7.06201513671875,0.002469016704708338,0.006429403554648161,-0.00675164582207799
1772709160606040300,7.072040283203125,0.003677825443446636,0.005054146982729435,-0.002430933527648449
1772709160616064300,7.082064208984375,0.0006846986943855882,0.006599046755582094,-0.0038314899429678917
1772709160626089200,7.092089111328125,0.0017278589075431228,0.0054909056052565575,-0.008166316896677017
1772709160636114200,7.1021142578125,0.0027318706270307302,0.008473645895719528,-0.00808935146778822
1772709160646139100,7.11213916015625,0.0006993460701778531,0.008989233523607254,-0.0038101845420897007
1772709160656164000,7.1221640625,0.002628007438033819,0.003855458227917552,-0.004815261345356703
1772709160666189300,7.132189208984375,0.0021022993605583906,0.009104282595217228,-0.005685582756996155
1772709160676214300,7.14221435546875,0.002299639629200101,0.008623847737908363,-0.005048021674156189
1772709160686239200,7.1522392578125,0.003087668912485242,0.007670702878385782,-0.007186274044215679
1772709160696264200,7.16226416015625,0.0022855247370898724,0.009161540307104588,-0.006180131807923317
1772709160706289400,7.172289306640625,0.002764094853773713,0.012144813314080238,-0.007333812769502401
1772709160716314400,7.182314453125,0.0028493159916251898,0.008481102995574474,-0.006961503066122532
1772709160726339000,7.192339111328125,0.00398728484287858,0.0029728866647928953,-0.00680197961628437
1772709160736364000,7.202364013671875,0.0029140308033674955,0.004597947467118502,-0.0057588196359574795
1772709160746389200,7.21238916015625,0.0037923413328826427,0.008944492787122726,-0.0037468012887984514
1772709160756414200,7.222414306640625,0.004905010107904673,0.009429454803466797,-0.004114051349461079
1772709160766439200,7.232439208984375,0.004066647030413151,0.0059937103651463985,-0.003085272153839469
1772709160776464100,7.242464111328125,0.004059189930558205,0.00956953689455986,0.002941727638244629
1772709160786489300,7.2524892578125,0.004852279555052519,0.01089525781571865,-0.0021558289881795645
1772709160796514300,7.262514404296875,0.004259992390871048,0.007315170951187611,-0.0041582598350942135
1772709160806538000,7.2725380859375,0.003216299694031477,0.0037523938808590174,-0.001139033935032785
1772709160816563200,7.282563232421875,0.003442401997745037,0.007111971732228994,-0.0006372944335453212
1772709160826588200,7.292588134765625,0.006176669616252184,0.008048072457313538,-0.0005230448441579938
1772709160836613000,7.302613037109375,0.004457599017769098,0.003745469730347395,-0.0011534150689840317
1772709160846638000,7.31263818359375,0.005923136603087187,0.0038336203433573246,-0.0015638081822544336
1772709160856663300,7.322663330078125,0.00512685114517808,0.005746036302298307,0.0005307680112309754
1772709160866688300,7.332688232421875,0.0037856835406273603,0.008801747113466263,-0.0005467469454742968
1772709160876713200,7.342713134765625,0.003736947663128376,0.006219279952347279,-0.00037923414492979646
1772709160886738200,7.35273828125,0.00481472909450531,0.004279966000467539,-0.002386192325502634
1772709160896763100,7.36276318359375,0.004948153160512447,0.008169779554009438,-0.0011052117915824056
1772709160906788000,7.3727880859375,0.005105279851704836,0.008683236315846443,-0.0022122878581285477
1772709160916813000,7.38281298828125,0.005079447291791439,0.006350839976221323,-0.00016351809608750045
1772709160926838300,7.39283837890625,0.004255997482687235,0.005035238806158304,-0.0008692557457834482
1772709160936863200,7.40286328125,0.0041100564412772655,0.008856342174112797,-0.00020532972121145576
1772709160946888200,7.41288818359375,0.004858404863625765,0.006405168678611517,0.00035180358099751174
1772709160956913200,7.4229130859375,0.0046789078041911125,0.005789445713162422,-0.00040426786290481687
1772709160966938400,7.4329384765625,0.004321245010942221,0.007771104108542204,-0.0004985437262803316
1772709160976963300,7.44296337890625,0.0037713022902607918,0.005814213305711746,0.0007446198142133653
1772709160986988300,7.45298828125,0.004622182343155146,0.007743140682578087,-0.0013600763631984591
1772709160997012200,7.46301220703125,0.0065164887346327305,0.007998271845281124,0.00022796659322921187
1772709161007037200,7.473037109375,0.004239219706505537,0.010915498249232769,0.0037974014412611723
1772709161017062100,7.483062255859375,0.005049087107181549,0.008783104829490185,0.0008759136544540524
1772709161027087000,7.493087158203125,0.005723133217543364,0.00580728892236948,-0.0030024477746337652
1772709161037112300,7.5031123046875,0.007448595017194748,0.006071740761399269,-0.0032357405871152878
1772709161047137300,7.51313720703125,0.005514341406524181,0.007417169865220785,-0.0035931370221078396
1772709161057162200,7.523162353515625,0.00430233683437109,0.010634534992277622,-0.0009374326909892261
1772709161067187000,7.53318701171875,0.004425374791026115,0.01170352753251791,-0.0031899344176054
1772709161077212000,7.5432119140625,0.005591306835412979,0.009435580112040043,-0.00381444557569921
1772709161087236900,7.55323681640625,0.006061088293790817,0.009215602651238441,-0.002204564632847905
1772709161097261800,7.56326171875,0.005370797123759985,0.007759652566164732,0.0010341054294258356
1772709161107286800,7.573286865234375,0.0041212416253983974,0.00866379588842392,0.00012650014832615852
1772709161117311700,7.583311767578125,0.004634699318557978,0.0037582528311759233,-0.0003480751474853605
1772709161127336700,7.593336669921875,0.003599794814363122,0.0054421694949269295,-0.000179230744834058
1772709161137361700,7.603361572265625,0.0012519520241767168,0.004878378473222256,0.0005605954211205244
1772709161147387000,7.613386962890625,0.005124720744788647,0.0057348511181771755,0.0011387676931917667
1772709161157411800,7.623411865234375,0.0027254789602011442,0.006706372369080782,-0.00008069378236541525
1772709161167436800,7.633436767578125,0.003337739733979106,0.005949768237769604,-0.0018607506062835455
1772709161177460700,7.643460693359375,0.004206462763249874,0.006928746122866869,-0.002569417702034116
1772709161187485700,7.653485595703125,0.00430047232657671,0.008274441584944725,-0.0004492752777878195
1772709161197510700,7.6635107421875,0.004171575419604778,0.010659834370017052,-0.0001757686259225011
1772709161207535600,7.67353564453125,0.004849882796406746,0.009244897402822971,-0.00036139096482656896
1772709161217560800,7.683560791015625,0.0049042110331356525,0.007695736363530159,-0.0007102650706656277
1772709161227585800,7.693585693359375,0.004450940992683172,0.011334413662552834,-0.0018125474452972412
1772709161237610800,7.70361083984375,0.005628058221191168,0.009277653880417347,-0.0028674255590885878
1772709161247636000,7.713635986328125,0.0041036647744476795,0.005840312223881483,-0.0021523667965084314
1772709161257661000,7.723660888671875,0.004722583573311567,0.004504204262048006,-0.0011233213590458035
1772709161267686000,7.733685791015625,0.005241101142019033,0.009786318056285381,-0.0017334514996036887
1772709161277710600,7.743710693359375,0.005328985396772623,0.008696286007761955,-0.002210956299677491
1772709161287735800,7.75373583984375,0.005851763766258955,0.005242698825895786,-0.001614940818399191
1772709161297760800,7.7637607421875,0.007242466323077679,0.004297276493161917,-0.0017861821688711643
1772709161307785700,7.77378564453125,0.004778243601322174,0.009499495849013329,0.0004924184759147465
1772709161317810700,7.783810791015625,0.006053365301340818,0.007763913366943598,0.0011116034584119916
1772709161327836000,7.7938359375,0.006031793542206287,0.004117779433727264,-0.001019990653730929
1772709161337860900,7.80386083984375,0.005057342816144228,0.008925584144890308,0.00007882956560933962
1772709161347885800,7.8138857421875,0.005380384158343077,0.014935806393623352,-0.00014647385978605598
1772709161357909800,7.82390966796875,0.005429652985185385,0.012118448503315449,-0.0013291836949065328
1772709161367934700,7.833934814453125,0.003855458227917552,0.01074132788926363,-0.0015446334145963192
1772709161377959700,7.843959716796875,0.0031374699901789427,0.01101669855415821,-0.0023545008152723312
1772709161387984600,7.853984619140625,0.005246960092335939,0.014223144389688969,-0.0021523667965084314
1772709161398009900,7.864009765625,0.0034669029992073774,0.011333614587783813,-0.0020511667244136333
1772709161408034800,7.874034912109375,0.003497795667499304,0.006825681775808334,-0.0020807278342545033
1772709161418059800,7.884059814453125,0.004429901950061321,0.0038482677191495895,-0.0005217132274992764
1772709161428084700,7.894084716796875,0.004652276169508696,0.006137521006166935,-0.0016434367280453444
1772709161438110000,7.90410986328125,0.005097024142742157,0.007283479440957308,-0.0012330436147749424
1772709161448135000,7.914135009765625,0.003347060875967145,0.004631769843399525,0.0005483448621816933
1772709161458159600,7.92415966796875,0.005360676907002926,0.00515747768804431,0.00086872314568609
1772709161468184800,7.934184814453125,0.005475192796438932,0.006328735966235399,0.0007797735743224621
1772709161478209800,7.944209716796875,0.004055461846292019,0.00945155881345272,-0.0005930859479121864
1772709161488234800,7.95423486328125,0.005006209947168827,0.009490174241364002,-0.0009859022684395313
1772709161498259700,7.964259765625,0.0052200620993971825,0.008986038155853748,-0.00038535939529538155
1772709161508285000,7.974284912109375,0.005138036794960499,0.00785392802208662,0.00022663500567432493
1772709161518310000,7.984309814453125,0.0046453517861664295,0.003031742526218295,0.0004165183927398175
1772709161528334800,7.9943349609375,0.004815527703613043,0.0062858592718839645,-0.0015150723047554493
1772709161538358800,8.00435888671875,0.0062219430692493916,0.009984456934034824,-0.0025995115283876657
1772709161548383700,8.0143837890625,0.005532983224838972,0.012732839211821556,0.00040027310024015605
1772709161558408700,8.02440869140625,0.0021851237397640944,0.004887699615210295,0.0005190501105971634
1772709161568433700,8.03443359375,0.00407490273937583,0.003972104750573635,-0.005262672435492277
1772709161578459000,8.044458984375,0.004111920483410358,0.008376174606382847,-0.007194263394922018
1772709161588483800,8.05448388671875,0.004199805203825235,0.011800467036664486,-0.0034165694378316402
1772709161598508800,8.0645087890625,0.006143113598227501,0.011272361502051353,-0.0015686018159613013
1772709161608533800,8.07453369140625,0.003990480676293373,0.007948470301926136,-0.002025333931669593
1772709161618559000,8.08455908203125,0.00433163158595562,0.00751970149576664,-0.0049430932849645615
1772709161628583700,8.094583740234375,0.005001416429877281,0.008833971805870533,-0.004263720940798521
1772709161638608600,8.104608642578125,0.003766775131225586,0.00811971165239811,-0.00282055395655334
1772709161648633600,8.114633544921874,0.006362824235111475,0.00914236530661583,-0.003910319413989782
1772709161658658800,8.124658935546876,0.004756938200443983,0.0030533140525221825,-0.0012053466634824872
1772709161668683800,8.134683837890625,0.004933239426463842,0.0033899378031492233,-0.0004468784318305552
1772709161678708700,8.144708740234375,0.0054549528285861015,0.003632019041106105,-0.0015787219163030386
1772709161688733700,8.154733642578124,0.005167065188288689,0.004647482186555862,-0.0030011162161827087
1772709161698759000,8.164759033203126,0.006073338910937309,0.005524194799363613,-0.003314570290967822
1772709161708783900,8.174783935546875,0.003561977995559573,0.006176403257995844,-0.001811748486943543
1772709161718807800,8.184807861328125,0.0049406965263187885,0.007136738859117031,-0.0018247979460284114
1772709161728832800,8.194832763671876,0.003168629016727209,0.008006260730326176,-0.002350772265344858
1772709161738857700,8.204857666015625,0.0027827369049191475,0.00881959032267332,-0.004819256253540516
1772709161748882700,8.214882568359375,0.0035457327030599117,0.007386809680610895,-0.0019124159589409828
1772709161758908000,8.224907958984375,0.004857605788856745,0.008840896189212799,-0.0021017666440457106
1772709161768932900,8.234932861328126,0.0034852789249271154,0.00878923013806343,-0.0020985708106309175
1772709161778957800,8.244957763671875,0.004230164922773838,0.007128216791898012,-0.00395665830001235
1772709161788982800,8.254982666015625,0.004899950232356787,0.00686056911945343,-0.0049763829447329044
1772709161799008000,8.265008056640625,0.0038314899429678917,0.006720220670104027,-0.0023995081428438425
1772709161809032700,8.27503271484375,0.00436012726277113,0.005434446502476931,-0.004604339133948088
1772709161819057700,8.2850576171875,0.00387330143712461,0.004215783905237913,-0.0026698189321905375
1772709161829082600,8.29508251953125,0.003064233111217618,0.006926882080733776,-0.0008862999966368079
1772709161839107800,8.30510791015625,0.004338023252785206,0.0049372343346476555,-0.0035031221341341734
1772709161849132800,8.3151328125,0.004378503188490868,0.007305849809199572,-0.0040884846821427345
1772709161859157800,8.32515771484375,0.0025571673177182674,0.008258196525275707,-0.0027324033435434103
1772709161869182700,8.3351826171875,0.0024114924017339945,0.003525758860632777,-0.0027947211638092995
1772709161879208000,8.3452080078125,0.0015880429418757558,0.004171575419604778,-0.004542287439107895
1772709161889233000,8.35523291015625,0.004135889001190662,0.0067686899565160275,-0.0032754219137132168
1772709161899256800,8.3652568359375,0.0025989788118749857,0.007803594693541527,-0.0029646309558302164
1772709161909281800,8.37528173828125,0.004324973560869694,0.0037172401789575815,-0.0023411849979311228
1772709161919306800,8.385306640625,0.003288471372798085,0.0037470676470547915,-0.002801911672577262
1772709161929331700,8.395331787109376,0.0029561088886111975,0.005247492343187332,-0.0034738273825496435
1772709161939357000,8.40535693359375,0.0025041704066097736,0.0070395334623754025,-0.0029917950741946697
1772709161949382000,8.4153818359375,0.0033270870335400105,0.0018943065078929067,-0.0021584921050816774
1772709161959406800,8.42540673828125,0.0006210491410456598,0.0038599856197834015,0.010490191169083118
1772709161969431800,8.435431884765626,-0.007132211700081825,-0.0008862999966368079,0.04296078160405159
1772709161979457000,8.44545703125,-0.006135923322290182,-0.015305985696613789,0.04441353678703308
1772709161989481700,8.455481689453125,-0.008642223663628101,-0.015740081667900085,0.049307096749544144
1772709161999506700,8.465506591796874,-0.008499478921294212,-0.006487726699560881,0.05260542035102844
1772709162009531600,8.47553173828125,-0.005618470720946789,-0.002814162289723754,0.047088682651519775
1772709162019556900,8.485556884765625,-0.002680471632629633,0.00022157499915920198,0.030778685584664345
1772709162029581800,8.495581787109375,-0.000773381965700537,0.007586014457046986,0.02335459180176258
1772709162039606800,8.505606689453124,0.0010807107901200652,0.00942253042012453,0.015152321197092533
1772709162049631700,8.5156318359375,0.007664577569812536,0.019516443833708763,-0.00339126936160028
1772709162059657000,8.525656982421875,0.01113467663526535,0.034932151436805725,-0.01920298859477043
1772709162069681000,8.535680908203124,0.018374746665358543,0.03454545885324478,-0.045693717896938324
1772709162079705600,8.54570556640625,0.018511099740862846,0.019462114199995995,-0.05620840936899185
1772709162089730800,8.555730712890625,0.01182257104665041,0.003900465788319707,-0.04169604927301407
1772709162099755800,8.565755859375,0.00008681904728291556,-0.014040185138583183,-0.033839721232652664
1772709162109780700,8.57578076171875,-0.005754824727773666,-0.06227642297744751,-0.0343736857175827
1772709162119805700,8.5858056640625,0.008298410102725029,-0.034334804862737656,-0.006852846127003431
