time,seconds_elapsed,z,y,x
1772728906375923500,0.09092333984375,8.307880401611328,2.7254250049591064,-1.1653046607971191
1772728906385441500,0.100441650390625,8.025527000427246,2.7565317153930664,-1.2059825658798218
1772728906394959600,0.109959716796875,7.860422611236572,2.746960401535034,-1.3495519161224365
1772728906404477400,0.1194775390625,7.817351341247559,2.7637102603912354,-1.4452649354934692
1772728906413995500,0.12899560546875,7.956135272979736,2.7661030292510986,-1.6319050788879395
1772728906423513600,0.138513671875,8.109275817871094,2.801995277404785,-1.794616937637329
1772728906433031700,0.14803173828125,8.233702659606934,2.8666014671325684,-1.97407865524292
1772728906442549800,0.1575498046875,8.310273170471191,2.895315408706665,-2.117648124694824
1772728906452067800,0.16706787109375,8.422736167907715,2.9072794914245605,-2.2061824798583984
1772728906461586000,0.1765859375,8.669196128845215,2.8929226398468018,-2.1511476039886475
1772728906471104000,0.18610400390625,8.918049812316895,2.8522446155548096,-2.1200408935546875
1772728906480622000,0.1956220703125,9.142974853515625,2.847458839416504,-2.0243279933929443
1772728906490140200,0.20514013671875,9.34157943725586,2.840280532836914,-1.8831514120101929
1772728906499658200,0.214658203125,9.542576789855957,2.861815929412842,-1.7682958841323853
1772728906509176300,0.22417626953125,9.643074989318848,2.950350284576416,-1.643869161605835
1772728906518694400,0.2336943359375,9.556933403015137,3.0340991020202637,-1.545763373374939
1772728906528212500,0.24321240234375,9.346364974975586,3.105883836746216,-1.3184453248977661
1772728906537730600,0.25273046875,9.087940216064453,3.105883836746216,-0.9667003750801086
1772728906547248600,0.26224853515625,8.872586250305176,3.0173492431640625,-0.6580262184143066
1772728906556766700,0.2717666015625,8.752944946289062,3.0556344985961914,-0.4378865361213684
1772728906566284800,0.281284912109375,8.58784008026123,3.0891339778900146,-0.31345975399017334
1772728906575803000,0.290802978515625,8.2695951461792,3.1992039680480957,-0.34217363595962524
1772728906585321000,0.300321044921875,7.917850017547607,3.3379876613616943,-0.45942193269729614
1772728906594839000,0.309839111328125,7.661818027496338,3.407379388809204,-0.5335994362831116
1772728906604356900,0.31935693359375,7.51585578918457,3.5461630821228027,-0.5551348328590393
1772728906613875000,0.328875,7.460821151733398,3.658625841140747,-0.6580262184143066
1772728906623393000,0.33839306640625,7.472784996032715,3.7782669067382812,-0.7824530005455017
1772728906632911000,0.3479111328125,7.479963779449463,3.814159393310547,-0.8877372145652771
1772728906642429200,0.35742919921875,7.582854747772217,3.85483717918396,-0.9930213689804077
1772728906651947300,0.366947265625,7.850851058959961,3.864408493041992,-1.1078768968582153
1772728906661465300,0.37646533203125,8.204988479614258,3.871587038040161,-1.1485549211502075
1772728906670983400,0.3859833984375,8.58066177368164,3.8596229553222656,-1.153340458869934
1772728906680501500,0.39550146484375,8.920442581176758,3.81655216217041,-1.129412293434143
1772728906690019600,0.40501953125,9.17886734008789,3.799802303314209,-1.0480563640594482
1772728906699537700,0.41453759765625,9.243474006652832,3.799802303314209,-0.9762716293334961
1772728906709055700,0.4240556640625,9.245866775512695,3.809373617172241,-0.9475577473640442
1772728906718573800,0.43357373046875,9.248259544372559,3.8428730964660645,-0.9212366938591003
1772728906728092000,0.443091796875,9.212367057800293,3.8596229553222656,-0.9379864931106567
1772728906737610000,0.45260986328125,9.174081802368164,3.8883368968963623,-0.9762716293334961
1772728906747128000,0.462128173828125,9.212367057800293,3.91705060005188,-0.9595218896865845
1772728906756646000,0.47164599609375,9.212367057800293,3.955335855484009,-0.882951557636261
1772728906766164200,0.481164306640625,9.114261627197266,3.9696927070617676,-0.8877372145652771
1772728906775682300,0.490682373046875,9.001798629760742,4.06540584564209,-0.9284151792526245
1772728906785200400,0.500200439453125,8.941978454589844,4.144368648529053,-0.8590233325958252
1772728906794718200,0.50971826171875,8.884550094604492,4.204189300537109,-0.8207381963729858
1772728906804236300,0.519236328125,8.772088050842285,4.309473514556885,-0.8398807644844055
1772728906813754400,0.52875439453125,8.82233715057373,4.481756687164307,-0.9379864931106567
1772728906823272400,0.5382724609375,8.941978454589844,4.694717884063721,-1.0480563640594482
1772728906832790500,0.54779052734375,9.135796546936035,4.754538536071777,-1.160519003868103
1772728906842308600,0.55730859375,9.317651748657227,4.685146808624268,-1.277767300605774
1772728906851826700,0.56682666015625,9.595218658447266,4.682754039764404,-1.31365966796875
1772728906861344800,0.5763447265625,9.937392234802246,4.668396949768066,-1.3950155973434448
1772728906870862800,0.58586279296875,10.269994735717773,4.639683246612549,-1.399801254272461
1772728906880381000,0.595380859375,10.585846900939941,4.366901397705078,-1.2394821643829346
1772728906889899000,0.60489892578125,10.712666511535645,4.201796531677246,-1.0911271572113037
1772728906899417000,0.6144169921875,10.760523796081543,4.278367042541504,-1.153340458869934
1772728906908935200,0.62393505859375,10.801201820373535,4.41475772857666,-1.1222338676452637
1772728906918453200,0.633453369140625,10.65523910522461,4.457828521728516,-1.1030912399291992
1772728906927971300,0.642971435546875,10.454241752624512,4.395615100860596,-0.9499505758285522
1772728906937489400,0.652489501953125,10.250852584838867,4.455435752868652,-0.8063812255859375
1772728906947007500,0.662007568359375,10.195816993713379,4.4482574462890625,-0.5934200286865234
1772728906956525600,0.671525634765625,10.176674842834473,4.376472473144531,-0.4713860750198364
1772728906966043600,0.681043701171875,10.133604049682617,4.323830604553223,-0.4905286431312561
1772728906975561700,0.690561767578125,10.205389022827148,4.328616142272949,-0.7106683254241943
1772728906985079600,0.70007958984375,10.363314628601074,4.161118507385254,-0.8422735929489136
1772728906994598000,0.709597900390625,10.526026725769043,3.9218363761901855,-0.9116654396057129
1772728907004115700,0.71911572265625,10.839486122131348,3.625126361846924,-0.8614161610603333
1772728907013633800,0.7286337890625,11.088339805603027,3.3020951747894287,-0.7441678643226624
1772728907023151900,0.73815185546875,11.102697372436523,3.0245277881622314,-0.638883650302887
1772728907032670000,0.747669921875,10.942378044128418,2.8354947566986084,-0.638883650302887
1772728907042188000,0.75718798828125,10.578668594360352,2.8450660705566406,-0.6484549641609192
1772728907051706000,0.7667060546875,10.097711563110352,2.857030153274536,-0.6771687865257263
1772728907061224200,0.77622412109375,9.667003631591797,2.864208698272705,-0.6963114142417908
1772728907070742300,0.7857421875,9.32722282409668,2.7661030292510986,-0.5623133182525635
1772728907080260400,0.79526025390625,9.059226989746094,2.651247501373291,-0.33020952343940735
1772728907089778400,0.8047783203125,8.86780071258545,2.5674986839294434,-0.02153540402650833
1772728907099296500,0.814296630859375,8.508877754211426,2.557927370071411,0.0526420995593071
1772728907108814600,0.823814697265625,8.02074146270752,2.5435705184936523,0.04546362906694412
1772728907118332700,0.833332763671875,7.824530124664307,2.572284460067749,-0.10767702013254166
1772728907127850800,0.842850830078125,7.793423175811768,2.746960401535034,-0.22013968229293823
1772728907137368800,0.852368896484375,7.6666035652160645,2.9048867225646973,-0.33499518036842346
1772728907146887000,0.861886962890625,7.676175117492676,2.9934210777282715,-0.45942193269729614
1772728907156405000,0.871405029296875,7.822137355804443,3.077169895172119,-0.48574298620224
1772728907165923000,0.880923095703125,8.082955360412598,3.1178479194641113,-0.49292147159576416
1772728907175441000,0.89044091796875,8.343772888183594,3.13220477104187,-0.49292147159576416
1772728907184959200,0.899959228515625,8.568697929382324,3.0628130435943604,-0.44745782017707825
1772728907194477000,0.90947705078125,8.745766639709473,3.0317063331604004,-0.39960137009620667
1772728907203995400,0.918995361328125,8.944371223449707,3.0245277881622314,-0.576670229434967
1772728907213513200,0.92851318359375,9.34157943725586,3.06999135017395,-0.8614161610603333
1772728907223031300,0.93803125,9.741181373596191,3.046063184738159,-1.1174482107162476
1772728907232549400,0.94754931640625,9.973284721374512,3.0580272674560547,-1.1940184831619263
1772728907242067500,0.9570673828125,9.980463027954102,3.084348440170288,-1.069591760635376
1772728907251585500,0.96658544921875,9.798608779907227,3.0939197540283203,-0.8709874153137207
1772728907261103600,0.976103515625,9.489934921264648,3.1824541091918945,-0.7585247755050659
1772728907270621700,0.98562158203125,9.040083885192871,3.3020951747894287,-0.7585247755050659
1772728907280139800,0.995139892578125,8.597412109375,3.4719855785369873,-0.8279166221618652
1772728907289657900,1.004657958984375,8.176275253295898,3.6131622791290283,-0.851844847202301
1772728907299176000,1.014176025390625,7.850851058959961,3.6849467754364014,-0.8901300430297852
1772728907308694000,1.023694091796875,7.707281589508057,3.6777684688568115,-0.8566305041313171
1772728907318212000,1.033212158203125,7.6737823486328125,3.6466617584228516,-0.8255237936973572
1772728907327730200,1.042730224609375,7.762316703796387,3.658625841140747,-0.8973084688186646
1772728907337248300,1.052248291015625,7.929814338684082,3.6849467754364014,-0.9547362327575684
1772728907346766000,1.06176611328125,8.02074146270752,3.675375461578369,-1.0265209674835205
1772728907356284400,1.071284423828125,8.149953842163086,3.6634113788604736,-1.0671988725662231
1772728907365802200,1.08080224609375,8.307880401611328,3.658625841140747,-1.057627558708191
1772728907375320600,1.090320556640625,8.513663291931152,3.627519130706787,-1.0528420209884644
1772728907384838400,1.09983837890625,8.688339233398438,3.6083765029907227,-1.031306505203247
1772728907394356700,1.109356689453125,8.891729354858398,3.586841106414795,-0.9930213689804077
1772728907403874600,1.11887451171875,9.095118522644043,3.601198196411133,-0.9571290612220764
1772728907413393000,1.128392822265625,9.183652877807617,3.6299118995666504,-0.8901300430297852
1772728907422910700,1.13791064453125,9.193224906921387,3.7232320308685303,-0.7441678643226624
1772728907432428800,1.1474287109375,9.233902931213379,3.7974095344543457,-0.6340979933738708
1772728907441947000,1.15694677734375,9.279366493225098,3.9050865173339844,-0.519242525100708
1772728907451465000,1.16646484375,9.219545364379883,4.022335052490234,-0.4378865361213684
1772728907460983000,1.175983154296875,9.159725189208984,4.1347975730896,-0.380458801984787
1772728907470501000,1.185501220703125,9.140582084655762,4.206582069396973,-0.349352091550827
1772728907480019200,1.195019287109375,9.245866775512695,4.240081787109375,-0.28235307335853577
1772728907489537300,1.204537353515625,9.43489933013916,4.2831525802612305,-0.2871387302875519
1772728907499055400,1.214055419921875,9.631111145019531,4.285545349121094,-0.3326023519039154
1772728907508573400,1.223573486328125,9.635896682739258,4.309473514556885,-0.3900300860404968
1772728907518091500,1.233091552734375,9.573683738708496,4.359723091125488,-0.44745782017707825
1772728907527609600,1.242609619140625,9.525827407836914,4.402793884277344,-0.5694918036460876
1772728907537127700,1.252127685546875,9.621540069580078,4.433900356292725,-0.6795616149902344
1772728907546645800,1.261645751953125,9.8871431350708,4.417150497436523,-0.8063812255859375
1772728907556163600,1.27116357421875,10.119247436523438,4.398007869720459,-0.8709874153137207
1772728907565682000,1.280681884765625,10.183853149414062,4.3788652420043945,-0.9068797826766968
1772728907575199700,1.29019970703125,10.219745635986328,4.350151538848877,-0.9188438653945923
1772728907584718000,1.299718017578125,10.16710376739502,4.381258487701416,-0.882951557636261
1772728907594236000,1.30923583984375,10.068997383117676,4.383651256561279,-0.7824530005455017
1772728907603754200,1.318754150390625,10.073782920837402,4.3788652420043945,-0.7226324677467346
1772728907613272000,1.32827197265625,10.076175689697266,4.398007869720459,-0.7800601720809937
1772728907622790100,1.3377900390625,10.071390151977539,4.4410786628723145,-1.0001999139785767
1772728907632308200,1.34730810546875,10.133604049682617,4.498506546020508,-1.2323036193847656
1772728907641826300,1.356826416015625,10.1216402053833,4.553541660308838,-1.5002998113632202
1772728907651344400,1.366344482421875,10.092926025390625,4.510470867156982,-1.730010747909546
1772728907660862500,1.375862548828125,10.15753173828125,4.347758769989014,-1.9262222051620483
1772728907670380500,1.385380615234375,10.40638542175293,4.041477680206299,-2.038684844970703
1772728907679898600,1.394898681640625,10.791629791259766,3.713660717010498,-2.062613010406494
1772728907689416700,1.404416748046875,11.172088623046875,3.469592809677124,-2.1894326210021973
1772728907698934800,1.413934814453125,11.475976943969727,3.0891339778900146,-2.3473589420318604
1772728907708452900,1.423452880859375,11.741580963134766,2.691925525665283,-2.3736801147460938
1772728907717971000,1.432970947265625,11.676974296569824,2.445464849472046,-2.2540390491485596
1772728907727489000,1.442489013671875,11.167303085327148,2.2396819591522217,-2.148754835128784
1772728907737007000,1.452007080078125,10.549955368041992,2.03629207611084,-1.9573289155960083
1772728907746525200,1.461525146484375,10.107282638549805,1.911865234375,-1.6534404754638672
1772728907756043300,1.471043212890625,9.779465675354004,1.892722725868225,-1.4021940231323242
1772728907765561000,1.48056103515625,9.396614074707031,1.9525432586669922,-1.2801600694656372
1772728907775079400,1.490079345703125,8.891729354858398,2.0961127281188965,-1.2658032178878784
1772728907784597200,1.49959716796875,8.26241683959961,2.311466693878174,-1.3112667798995972
1772728907794115300,1.509115234375,7.652246952056885,2.620140790939331,-1.5361921787261963
1772728907803633400,1.51863330078125,7.307680130004883,2.854637384414673,-1.8305093050003052
1772728907813151500,1.5281513671875,7.240681171417236,3.036491870880127,-2.0243279933929443
1772728907822669600,1.537669677734375,7.513463020324707,3.0891339778900146,-2.146361827850342
1772728907832187600,1.547187744140625,7.9250288009643555,3.0173492431640625,-2.1583259105682373
1772728907841705700,1.556705810546875,8.37009334564209,2.8977081775665283,-2.132004976272583
1772728907851223800,1.566223876953125,8.827122688293457,2.7804598808288574,-2.091326951980591
1772728907860742000,1.575741943359375,9.231510162353516,2.6799614429473877,-2.014756679534912
1772728907870260000,1.585260009765625,9.650253295898438,2.5531418323516846,-1.8185452222824097
1772728907879778000,1.594778076171875,9.856036186218262,2.5938198566436768,-1.526620864868164
1772728907889296100,1.604296142578125,9.851250648498535,2.548356056213379,-1.3088740110397339
1772728907898814200,1.613814208984375,9.631111145019531,2.4909284114837646,-0.9954141974449158
1772728907908332300,1.623332275390625,9.365508079528809,2.5148565769195557,-0.729810893535614
1772728907917850400,1.632850341796875,9.131011009216309,2.562713146209717,-0.4546363055706024
1772728907927368400,1.642368408203125,8.941978454589844,2.6799614429473877,-0.19142581522464752
1772728907936886500,1.651886474609375,8.83669376373291,2.8211379051208496,-0.0023928226437419653
1772728907946404400,1.661404296875,8.781659126281738,2.940778970718384,0.05742774158716202
1772728907955922400,1.67092236328125,8.652446746826172,3.105883836746216,0.06699903309345245
1772728907965440500,1.6804404296875,8.46341323852539,3.242274761199951,0.02871387079358101
1772728907974958600,1.68995849609375,8.240880966186523,3.3379876613616943,-0.059820566326379776
1772728907984476700,1.6994765625,7.987242221832275,3.4121651649475098,-0.16749759018421173
1772728907993994800,1.708994873046875,7.714460372924805,3.4552359580993652,-0.3038884699344635
1772728908003512800,1.718512939453125,7.503891944885254,3.517449378967285,-0.5120640397071838
1772728908013031000,1.728031005859375,7.441678524017334,3.5844483375549316,-0.7345965504646301
1772728908022549000,1.737549072265625,7.51585578918457,3.672982692718506,-0.8901300430297852
1772728908032067000,1.747067138671875,7.707281589508057,3.7399818897247314,-1.0719845294952393
1772728908041585200,1.756585205078125,7.982456207275391,3.768695592880249,-1.2346965074539185
1772728908051103200,1.766103271484375,8.197810173034668,3.713660717010498,-1.3519448041915894
1772728908060621300,1.775621337890625,8.37009334564209,3.809373617172241,-1.399801254272461
1772728908070139400,1.785139404296875,8.520841598510742,3.814159393310547,-1.4213366508483887
1772728908079657500,1.794657470703125,8.575876235961914,3.8021950721740723,-1.4213366508483887
1772728908089175600,1.804175537109375,8.566305160522461,3.87876558303833,-1.4500504732131958
1772728908098693600,1.813693603515625,8.50169849395752,3.9625144004821777,-1.4117653369903564
1772728908108211700,1.823211669921875,8.516056060791016,4.000799655914307,-1.399801254272461
1772728908117729500,1.8327294921875,8.69791030883789,4.063013076782227,-1.4261223077774048
1772728908127248000,1.842247802734375,8.834300994873047,4.094119548797607,-1.368694543838501
1772728908136765700,1.851765625,8.812766075134277,4.1491546630859375,-1.3232308626174927
1772728908146284000,1.861283935546875,8.755337715148926,4.264009952545166,-1.25144624710083
1772728908155801900,1.8708017578125,8.748159408569336,4.350151538848877,-1.1988041400909424
1772728908165320000,1.88031982421875,8.709874153137207,4.457828521728516,-1.129412293434143
1772728908174838000,1.889838134765625,8.72901725769043,4.579862594604492,-1.0265209674835205
1772728908184356000,1.899356201171875,8.796015739440918,4.649254322052002,-0.9571290612220764
1772728908193874200,1.908874267578125,8.958727836608887,4.72582483291626,-0.8374879360198975
1772728908203392300,1.918392333984375,9.142974853515625,4.709074974060059,-0.7250252366065979
1772728908212910300,1.927910400390625,9.403793334960938,4.694717884063721,-0.6675975322723389
1772728908222428400,1.937428466796875,9.66939640045166,4.680361270904541,-0.6819544434547424
1772728908231946500,1.946946533203125,9.875179290771484,4.615755081176758,-0.727418065071106
1772728908241464600,1.956464599609375,10.210174560546875,4.5583271980285645,-0.8303094506263733
1772728908250982700,1.965982666015625,10.593026161193848,4.474578380584717,-0.9882357716560364
1772728908260500700,1.975500732421875,10.961520195007324,4.4482574462890625,-1.1030912399291992
1772728908270018800,1.985018798828125,11.054841041564941,4.4482574462890625,-1.1222338676452637
1772728908279537000,1.994536865234375,10.923234939575195,4.481756687164307,-1.0552347898483276
1772728908289055000,2.004054931640625,10.595418930053711,4.59421968460083,-0.9762716293334961
1772728908298573000,2.013572998046875,10.16710376739502,4.6995038986206055,-0.8925228714942932
1772728908308091000,2.0230908203125,9.791430473327637,4.823930263519287,-0.8446664214134216
1772728908317609200,2.032609130859375,9.638289451599121,4.869394302368164,-0.8183453679084778
1772728908327127000,2.042126953125,9.750752449035645,4.792823791503906,-0.7800601720809937
1772728908336645400,2.051645263671875,9.958928108215332,4.651647090911865,-0.7082754969596863
1772728908346163200,2.0611630859375,10.145567893981934,4.467400074005127,-0.6532405614852905
1772728908355681300,2.070681396484375,10.344172477722168,4.302295207977295,-0.6484549641609192
1772728908365199400,2.080199462890625,10.566704750061035,4.091726779937744,-0.7322037220001221
1772728908374717400,2.089717529296875,10.753344535827637,3.9122650623321533,-0.9379864931106567
1772728908384235500,2.099235595703125,11.011770248413086,3.672982692718506,-1.153340458869934
1772728908393753600,2.108753662109375,11.411371231079102,3.376272678375244,-1.3040883541107178
1772728908403271700,2.118271728515625,11.882757186889648,3.029313564300537,-1.3830515146255493
1772728908412789800,2.127789794921875,12.148360252380371,2.68953275680542,-1.31365966796875
1772728908422307800,2.137307861328125,11.933006286621094,2.4119651317596436,-1.0241280794143677
1772728908431826000,2.146825927734375,11.20798110961914,2.2301106452941895,-0.6221339106559753
1772728908441344000,2.156343994140625,10.250852584838867,2.2157537937164307,-0.28235307335853577
1772728908450862000,2.165862060546875,9.384650230407715,2.2372891902923584,-0.04546362906694412
1772728908460380200,2.175380126953125,8.71226692199707,2.3018953800201416,0.009571290574967861
1772728908469898200,2.184898193359375,8.226524353027344,2.390429735183716,0.009571290574967861
1772728908479416300,2.194416259765625,7.9728851318359375,2.469393014907837,-0.08853443711996078
1772728908488934400,2.203934326171875,7.884350776672363,2.517249345779419,-0.24646073579788208
1772728908498452500,2.213452392578125,7.886743545532227,2.5292134284973145,-0.3900300860404968
1772728908507970300,2.22297021484375,7.963313579559326,2.548356056213379,-0.6005984544754028
1772728908517488400,2.23248828125,8.073383331298828,2.581855535507202,-0.8159525394439697
1772728908527006500,2.24200634765625,8.188239097595215,2.6488547325134277,-0.9667003750801086
1772728908536524500,2.251524658203125,8.250452041625977,2.682354211807251,-1.093519926071167
1772728908546042600,2.261042724609375,8.322237014770508,2.6967110633850098,-1.1413763761520386
1772728908555560700,2.270560791015625,8.46341323852539,2.6464617252349854,-1.0671988725662231
1772728908565078800,2.280078857421875,8.695517539978027,2.6177480220794678,-0.9810572862625122
1772728908574596900,2.289596923828125,8.999405860900879,2.5914268493652344,-0.9308080077171326
1772728908584115000,2.299114990234375,9.205188751220703,2.6081767082214355,-0.8614161610603333
1772728908593633000,2.308633056640625,9.186046600341797,2.7110681533813477,-0.8255237936973572
1772728908603151000,2.318151123046875,8.884550094604492,2.864208698272705,-0.8231309652328491
1772728908612669200,2.327669189453125,8.48734188079834,3.0484559535980225,-0.8374879360198975
1772728908622187300,2.337187255859375,8.193024635314941,3.2159535884857178,-0.8590233325958252
1772728908631705300,2.346705322265625,7.910671710968018,3.383451223373413,-0.8446664214134216
1772728908641223400,2.356223388671875,7.625925540924072,3.5198421478271484,-0.8446664214134216
1772728908650741500,2.365741455078125,7.324429988861084,3.6610186100006104,-0.8422735929489136
1772728908660259300,2.37525927734375,7.0061845779418945,3.82373046875,-0.885344386100769
1772728908669777700,2.384777587890625,6.747759819030762,3.955335855484009,-0.9332008361816406
1772728908679295500,2.39429541015625,6.654439926147461,4.041477680206299,-0.9690931439399719
1772728908688813800,2.403813720703125,6.7932233810424805,4.118047714233398,-0.9954141974449158
1772728908698331600,2.41333154296875,7.133004188537598,4.1347975730896,-1.0121639966964722
1772728908707849700,2.422849609375,7.4225358963012695,4.1659040451049805,-1.0504491329193115
1772728908717367800,2.432367919921875,7.70249605178833,4.137190341949463,-1.074377417564392
1772728908726886000,2.441885986328125,8.075776100158691,4.077369689941406,-1.0360921621322632
1772728908736404000,2.451404052734375,8.523234367370605,3.9984066486358643,-0.9930213689804077
1772728908745922000,2.460922119140625,8.96112060546875,3.8811583518981934,-0.9308080077171326
1772728908755440000,2.470440185546875,9.437292098999023,3.7639100551605225,-0.8350951075553894
1772728908764958200,2.479958251953125,9.836894035339355,3.6370904445648193,-0.760917603969574
1772728908774476300,2.489476318359375,10.131211280822754,3.617947816848755,-0.6795616149902344
1772728908783994400,2.498994384765625,10.451848983764648,3.665804386138916,-0.7465606927871704
1772728908793512400,2.508512451171875,10.657631874084473,3.728017568588257,-0.794417142868042
1772728908803030500,2.518030517578125,10.74138069152832,3.7495529651641846,-0.7800601720809937
1772728908812548600,2.527548583984375,10.60977554321289,3.7878382205963135,-0.6125625967979431
1772728908822066700,2.537066650390625,10.284351348876953,3.8596229553222656,-0.44027936458587646
1772728908831584800,2.546584716796875,9.80100154876709,3.955335855484009,-0.31824541091918945
1772728908841102800,2.556102783203125,9.324830055236816,4.077369689941406,-0.2153540402650833
1772728908850620700,2.56562060546875,8.989834785461426,4.204189300537109,-0.08614161610603333
1772728908860138800,2.575138671875,8.793622970581055,4.2592244148254395,-0.004785645287483931
1772728908869656800,2.58465673828125,8.755337715148926,4.192225456237793,0.28235307335853577
1772728908879175000,2.5941748046875,8.642875671386719,4.383651256561279,0.0023928226437419653
1772728908888693000,2.60369287109375,8.544769287109375,4.644468784332275,-0.28235307335853577
1772728908898211000,2.613211181640625,8.482556343078613,4.8574299812316895,-0.4833501875400543
1772728908907729200,2.622729248046875,8.568697929382324,5.039284706115723,-0.6340979933738708
1772728908917247200,2.632247314453125,8.824729919433594,5.039284706115723,-0.7728816866874695
1772728908926765300,2.641765380859375,9.207581520080566,4.917250633239746,-0.7034898400306702
1772728908936283400,2.651283447265625,9.66939640045166,4.718646049499512,-0.5431707501411438
1772728908945801500,2.660801513671875,10.097711563110352,4.500899314880371,-0.349352091550827
1772728908955319600,2.670319580078125,10.39202880859375,4.323830604553223,-0.11246266216039658
1772728908964837600,2.679837646484375,10.621739387512207,4.230510234832764,0.09571290761232376
1772728908974355700,2.689355712890625,10.686346054077148,4.185046672821045,0.27756741642951965
1772728908983873800,2.698873779296875,10.636096954345703,4.225724697113037,0.30149564146995544
1772728908993391900,2.708391845703125,10.49970531463623,4.314259052276611,0.2273181527853012
1772728909002910000,2.717909912109375,10.38485050201416,4.402793884277344,0.07657032459974289
1772728909012427800,2.727427734375,10.358529090881348,4.4650068283081055,-0.1818545162677765
1772728909021946000,2.736946044921875,10.444670677185059,4.462614059448242,-0.4378865361213684
1772728909031464000,2.7464638671875,10.506884574890137,4.436293125152588,-0.7178468108177185
1772728909040982000,2.75598193359375,10.581061363220215,4.357329845428467,-1.0360921621322632
1772728909050500000,2.7655,10.652846336364746,4.185046672821045,-1.3304094076156616
1772728909060018200,2.77501806640625,10.736595153808594,3.9864425659179688,-1.5672988891601562
1772728909069536300,2.784536376953125,10.753344535827637,3.799802303314209,-1.8089739084243774
1772728909079054300,2.794054443359375,10.834700584411621,3.6394832134246826,-2.0865414142608643
1772728909088572400,2.803572509765625,10.995019912719727,3.4121651649475098,-2.344966173171997
1772728909098090500,2.813090576171875,11.152946472167969,3.1585259437561035,-2.589034080505371
1772728909107608600,2.822608642578125,11.401800155639648,2.871387243270874,-2.715853691101074
1772728909117126700,2.832126708984375,11.68175983428955,2.5459632873535156,-2.6536402702331543
1772728909126644700,2.841644775390625,11.617154121398926,2.210968017578125,-2.3641088008880615
1772728909136162800,2.851162841796875,11.186446189880371,2.03629207611084,-1.9884356260299683
1772728909145681000,2.860680908203125,10.49252700805664,1.9692929983139038,-1.6342978477478027
1772728909155199000,2.870198974609375,9.664610862731934,2.093719720840454,-1.4380863904953003
1772728909164717000,2.879717041015625,8.86780071258545,2.258824586868286,-1.4261223077774048
1772728909174235100,2.889235107421875,8.236095428466797,2.4717857837677,-1.435693621635437
1772728909183753000,2.8987529296875,7.848458290100098,2.682354211807251,-1.5146567821502686
1772728909193271300,2.908271240234375,7.606783390045166,2.861815929412842,-1.6558332443237305
1772728909202789000,2.9177890625,7.520641803741455,2.9527430534362793,-1.8305093050003052
1772728909212307200,2.92730712890625,7.635497093200684,3.0101709365844727,-1.8999011516571045
1772728909221825300,2.9368251953125,7.8077802658081055,3.029313564300537,-1.8783657550811768
1772728909231343400,2.94634326171875,8.008777618408203,3.036491870880127,-1.7874385118484497
1772728909240861400,2.955861328125,8.197810173034668,3.0269205570220947,-1.6606189012527466
1772728909250379500,2.965379638671875,8.429914474487305,2.9862427711486816,-1.5409778356552124
1772728909259897600,2.974897705078125,8.676374435424805,2.9599215984344482,-1.3902299404144287
1772728909269415700,2.984415771484375,8.925228118896484,2.9288148880004883,-1.246660590171814
1772728909278933800,2.993933837890625,9.09272575378418,2.919243574142456,-1.0528420209884644
1772728909288451800,3.003451904296875,9.059226989746094,2.9383862018585205,-0.8901300430297852
1772728909297970000,3.012969970703125,8.85344409942627,3.0340991020202637,-0.6867401003837585
1772728909307488000,3.022488037109375,8.638090133666992,3.122633457183838,-0.5144568681716919
1772728909317006000,3.032006103515625,8.489734649658203,3.16331148147583,-0.3565305769443512
1772728909326524200,3.041524169921875,8.382058143615723,3.2685956954956055,-0.24885354936122894
1772728909336042200,3.051042236328125,8.252845764160156,3.342773199081421,-0.19142581522464752
1772728909345560000,3.06056005859375,8.200202941894531,3.3619158267974854,-0.1052841991186142
1772728909355078400,3.070078369140625,8.169096946716309,3.4002010822296143,-0.04307080805301666
1772728909364596200,3.07959619140625,8.042277336120605,3.3403804302215576,0.04307080805301666
1772728909374114600,3.089114501953125,7.922635555267334,3.3332018852233887,0.11246266216039658
1772728909383632400,3.09863232421875,7.88913631439209,3.4002010822296143,0.07178468257188797
1772728909393150500,3.108150390625,7.8077802658081055,3.4193434715270996,0.014356935396790504
1772728909402668500,3.11766845703125,7.769495010375977,3.3930225372314453,0.10289137065410614
1772728909412186600,3.1271865234375,7.82692289352417,3.507878065109253,0.06939185410737991
1772728909421704700,3.13670458984375,7.865208148956299,3.6466617584228516,-0.08853443711996078
1772728909431222800,3.146222900390625,7.963313579559326,3.775874137878418,-0.2967100143432617
1772728909440740900,3.155740966796875,8.061419486999512,3.8739798069000244,-0.4666004180908203
1772728909450259000,3.165259033203125,8.25523853302002,3.926621913909912,-0.6460621356964111
1772728909459777000,3.174777099609375,8.559126853942871,3.9792640209198,-0.8063812255859375
1772728909478813200,3.193813232421875,8.839086532592773,3.972085475921631,-0.97148597240448
1772728909488331300,3.203331298828125,8.841479301452637,4.005585193634033,-0.97148597240448
1772728909497849300,3.212849365234375,8.803194046020508,4.000799655914307,-0.9667003750801086
1772728909507367400,3.222367431640625,8.731410026550293,4.036691665649414,-0.9810572862625122
1772728909516885200,3.23188525390625,8.757730484008789,4.048655986785889,-0.9930213689804077
1772728909526403300,3.2414033203125,8.884550094604492,4.063013076782227,-0.9858429431915283
1772728909535921400,3.25092138671875,9.075976371765137,4.096512317657471,-1.0145567655563354
1772728909545439500,3.260439453125,9.162117958068848,4.156332969665527,-0.9978070259094238
1772728909554957600,3.26995751953125,9.10229778289795,4.287938117980957,-0.9571290612220764
1772728909564475600,3.2794755859375,8.94676399230957,4.412364959716797,-0.9643075466156006
1772728909573993700,3.28899365234375,8.848658561706543,4.54636287689209,-0.9499505758285522
1772728909583511800,3.29851171875,8.894122123718262,4.697110652923584,-0.9355936646461487
1772728909593030000,3.30802978515625,9.020941734313965,4.871787071228027,-0.9499505758285522
1772728909602548000,3.3175478515625,9.140582084655762,5.032105922698975,-1.0121639966964722
1772728909612066000,3.327066162109375,9.286544799804688,5.089533805847168,-1.0336993932724
1772728909621584100,3.336584228515625,9.573683738708496,5.106283664703369,-1.0408778190612793
1772728909631102200,3.346102294921875,9.961320877075195,5.048855781555176,-1.074377417564392
1772728909640620300,3.355620361328125,10.272387504577637,4.9363932609558105,-1.1461620330810547
1772728909650138400,3.365138427734375,10.576275825500488,4.809573650360107,-1.2634103298187256
1772728909659656200,3.37465625,10.894521713256836,4.6995038986206055,-1.2921242713928223
1772728909669174500,3.384174560546875,11.181660652160645,4.60139799118042,-1.3351950645446777
1772728909678692400,3.3936923828125,11.397014617919922,4.529613494873047,-1.3495519161224365
1772728909688210700,3.403210693359375,11.344371795654297,4.493721008300781,-1.3543375730514526
1772728909697728500,3.412728515625,11.050054550170898,4.555934429168701,-1.2945170402526855
1772728909707246600,3.42224658203125,10.561919212341309,4.6372904777526855,-1.2801600694656372
1772728909716764700,3.4317646484375,10.073782920837402,4.675575256347656,-1.1581261157989502
1772728909726282800,3.44128271484375,9.726823806762695,4.711467742919922,-0.9690931439399719
1772728909735800800,3.45080078125,9.473184585571289,4.697110652923584,-0.7824530005455017
1772728909745319000,3.46031884765625,9.343972206115723,4.618147850036621,-0.5670989751815796
1772728909754837000,3.4698369140625,9.33440113067627,4.527220249176025,-0.41874396800994873
1772728909764355000,3.47935498046875,9.473184585571289,4.326223373413086,-0.4139583110809326
1772728909773873200,3.488873046875,9.796216011047363,4.089334011077881,-0.5359922647476196
1772728909783391200,3.49839111328125,10.327422142028809,3.7950167655944824,-0.7537391185760498
1772728909792909300,3.507909423828125,10.911271095275879,3.3619158267974854,-0.9044869542121887
1772728909802427400,3.517427490234375,11.475976943969727,2.967100143432617,-0.9858429431915283
1772728909811945500,3.526945556640625,11.85165023803711,2.651247501373291,-0.9020941257476807
1772728909821463600,3.536463623046875,11.944971084594727,2.4406790733337402,-0.7369893789291382
1772728909830981600,3.545981689453125,11.672188758850098,2.3162522315979004,-0.5790630578994751
1772728909840499500,3.55549951171875,11.064412117004395,2.2707886695861816,-0.4307080805301666
1772728909850017800,3.565017822265625,10.289137840270996,2.251646041870117,-0.1746760457754135
1772728909859535600,3.57453564453125,9.518648147583008,2.2923240661621094,0.11006984114646912
1772728909869053700,3.5840537109375,8.903693199157715,2.3258235454559326,0.3278166949748993
1772728909878571800,3.59357177734375,8.537590980529785,2.313859462738037,0.550349235534668
1772728909888089900,3.60308984375,8.360522270202637,2.313859462738037,0.698704183101654
1772728909897608000,3.61260791015625,8.346165657043457,2.3258235454559326,0.8039883971214294
1772728909907126000,3.6221259765625,8.298309326171875,2.4406790733337402,0.7848458290100098
1772728909916644000,3.63164404296875,8.193024635314941,2.455035924911499,0.5527420043945312
1772728909926162200,3.641162109375,7.982456207275391,2.421536445617676,0.20578274130821228
1772728909935680300,3.65068017578125,7.874779224395752,2.6464617252349854,0.38763725757598877
1772728909945198300,3.6601982421875,7.7838521003723145,2.7254250049591064,0.3445664644241333
1772728909954716400,3.66971630859375,7.877171993255615,2.7086751461029053,0.02632104977965355
1772728909964234200,3.679234130859375,8.135597229003906,2.7182464599609375,-0.14835500717163086
1772728909973752600,3.688752685546875,8.508877754211426,2.754138946533203,-0.24167509377002716
1772728909983270700,3.698270751953125,8.819944381713867,2.768495798110962,-0.3086741268634796
1772728909992788500,3.70778857421875,9.023334503173828,2.7661030292510986,-0.35413774847984314
1772728910002306800,3.717306884765625,9.037691116333008,2.8115665912628174,-0.6340979933738708
1772728910011824600,3.72682470703125,8.908478736877441,2.909672260284424,-0.7824530005455017
1772728910021342700,3.7363427734375,8.645268440246582,3.0867412090301514,-0.9475577473640442
1772728910030860800,3.74586083984375,8.257631301879883,3.2925238609313965,-0.9978070259094238
1772728910040379000,3.75537890625,7.929814338684082,3.452843189239502,-0.9547362327575684
1772728910049897000,3.76489697265625,7.704888820648193,3.596412420272827,-0.973878800868988
1772728910059415000,3.7744150390625,7.499105930328369,3.7256247997283936,-0.9858429431915283
1772728910068933000,3.78393310546875,7.441678524017334,3.7902309894561768,-0.849452018737793
1772728910078451200,3.793451171875,7.489534854888916,3.8356947898864746,-0.7154539823532104
1772728910087969300,3.80296923828125,7.503891944885254,3.871587038040161,-0.5551348328590393
1772728910097487400,3.8124873046875,7.5086774826049805,3.8668015003204346,-0.48813581466674805
1772728910107005400,3.82200537109375,7.561319351196289,3.845266103744507,-0.4307080805301666
1772728910116523500,3.8315234375,7.724031448364258,3.7878382205963135,-0.2847459018230438
1772728910126041600,3.84104150390625,7.984848976135254,3.7495529651641846,-0.1818545162677765
1772728910135559400,3.850559326171875,8.283951759338379,3.6873397827148438,-0.08135596662759781
1772728910145077800,3.860077880859375,8.57348346710205,3.5916268825531006,0.035892341285943985
1772728910154595600,3.869595703125,8.817551612854004,3.562912940979004,0.10289137065410614
1772728910164114000,3.879114013671875,8.994620323181152,3.510270833969116,0.1459621787071228
1772728910173631700,3.8886318359375,9.17886734008789,3.493520975112915,0.1818545162677765
1772728910183150000,3.898150146484375,9.343972206115723,3.5270206928253174,0.21774685382843018
1772728910192668000,3.90766796875,9.540184020996094,3.594019651412964,0.2799602448940277
1772728910202186000,3.91718603515625,9.66939640045166,3.665804386138916,0.16749759018421173
1772728910211704000,3.9267041015625,9.633503913879395,3.6777684688568115,-0.15074782073497772
1772728910221222100,3.93622216796875,9.638289451599121,3.799802303314209,-0.26081767678260803
1772728910230740200,3.945740234375,9.693324089050293,3.9074792861938477,-0.1746760457754135
1772728910240258300,3.95525830078125,9.736394882202148,4.0558342933654785,0.11485548317432404
1772728910249776400,3.9647763671875,9.726823806762695,4.101297855377197,0.12921242415905
1772728910259294500,3.97429443359375,9.45882797241211,4.074976921081543,-0.24646073579788208
1772728910268812500,3.9838125,9.279366493225098,4.247260093688965,-0.31824541091918945
1772728910278330600,3.99333056640625,9.186046600341797,4.474578380584717,-0.2584248483181
1772728910287848700,4.0028486328125,9.186046600341797,4.536791801452637,-0.41874396800994873
1772728910297366800,4.01236669921875,9.219545364379883,4.615755081176758,-0.48813581466674805
1772728910306884900,4.021884765625,9.437292098999023,4.721039295196533,-0.5264210104942322
1772728910316402700,4.031402587890625,9.554540634155273,4.709074974060059,-0.7010970115661621
1772728910325920800,4.040920654296875,9.650253295898438,4.694717884063721,-0.7034898400306702
1772728910335438800,4.05043896484375,9.81535816192627,4.6061835289001465,-0.605384111404419
1772728910344957000,4.05995703125,10.15035343170166,4.587040901184082,-0.1698904037475586
1772728910354475000,4.06947509765625,10.327422142028809,4.409972190856934,-0.14356936514377594
1772728910363993000,4.0789931640625,10.559526443481445,4.326223373413086,-0.1579262912273407
1772728910373511200,4.08851123046875,10.671989440917969,4.275974273681641,-0.23210379481315613
1772728910383029200,4.098029296875,10.774880409240723,4.249652862548828,-0.11485548317432404
1772728910392547300,4.10754736328125,10.875378608703613,4.280759811401367,0.13878370821475983
1772728910402065400,4.1170654296875,10.825129508972168,4.2281174659729,0.01196411345154047
1772728910411583500,4.12658349609375,10.511670112609863,4.204189300537109,-0.2632105052471161
1772728910421101600,4.1361015625,10.183853149414062,4.273581027984619,-0.16510476171970367
1772728910430619600,4.14561962890625,10.02592658996582,4.350151538848877,-0.2512463629245758
1772728910440137700,4.1551376953125,9.781859397888184,4.412364959716797,-0.6364908218383789
1772728910449655800,4.16465576171875,9.578469276428223,4.47697114944458,-1.0336993932724
1772728910459174000,4.174173828125,9.542576789855957,4.517649173736572,-1.2993026971817017
1772728910468691700,4.183691650390625,9.616754531860352,4.536791801452637,-1.4189438819885254
1772728910478209800,4.193209716796875,9.92542839050293,4.460221290588379,-1.3758729696273804
1772728910487727900,4.202727783203125,10.016355514526367,4.4961137771606445,-1.2490534782409668
1772728910497246000,4.212245849609375,10.169496536254883,4.625326156616211,-0.7513462901115417
1772728910506764000,4.221763916015625,10.092926025390625,3.926621913909912,-2.289931297302246
1772728910516282000,4.2312822265625,10.231709480285645,3.840480327606201,-2.0721843242645264
1772728910525800200,4.24080029296875,10.585846900939941,3.78544545173645,-1.7324036359786987
1772728910535318300,4.250318359375,10.832307815551758,3.3547372817993164,-1.8305093050003052
1772728910544836400,4.25983642578125,11.152946472167969,3.0484559535980225,-1.6175481081008911
1772728910554354400,4.2693544921875,11.380264282226562,2.699103832244873,-1.6462619304656982
1772728910563872500,4.27887255859375,11.291729927062988,2.50289249420166,-1.397408366203308
1772728910573390600,4.288390625,10.6624174118042,2.2612173557281494,-1.5696916580200195
1772728910582908700,4.29790869140625,9.827322959899902,2.297109842300415,-1.2969099283218384
1772728910592426500,4.307426513671875,8.908478736877441,2.390429735183716,-1.0719845294952393
1772728910601944800,4.31694482421875,8.056633949279785,2.4981069564819336,-0.9116654396057129
1772728910611462700,4.326462646484375,7.286144733428955,2.7014968395233154,-0.973878800868988
1772728910620981000,4.33598095703125,6.721438884735107,3.005385160446167,-1.153340458869934
1772728910630498800,4.345498779296875,6.4701924324035645,3.2757742404937744,-1.3639088869094849
1772728910640017200,4.35501708984375,6.553941249847412,3.421736478805542,-1.4979069232940674
1772728910649535000,4.364534912109375,6.946363925933838,3.414557933807373,-1.521835207939148
1772728910659053000,4.374052978515625,7.424928665161133,3.3858439922332764,-1.4739787578582764
1772728910668571100,4.383571044921875,7.932207107543945,3.2997024059295654,-1.435693621635437
1772728910678089200,4.393089111328125,8.429914474487305,3.22552490234375,-1.3615161180496216
1772728910687607300,4.402607177734375,8.96112060546875,3.153740167617798,-1.332802176475525
1772728910697125400,4.41212548828125,9.53779125213623,3.1034910678863525,-1.3495519161224365
1772728910706643500,4.4216435546875,10.054640769958496,3.077169895172119,-1.3878371715545654
1772728910716161500,4.43116162109375,10.372885704040527,3.10109806060791,-1.2993026971817017
1772728910725679600,4.4406796875,10.389636039733887,3.1680972576141357,-1.1222338676452637
1772728910735197700,4.45019775390625,10.066604614257812,3.2207393646240234,-0.8111668825149536
1772728910744715800,4.4597158203125,9.58325481414795,3.3164522647857666,-0.4713860750198364
1772728910754233600,4.469233642578125,9.052047729492188,3.3858439922332764,-0.28953152894973755
1772728910763752000,4.478751953125,8.635697364807129,3.5676984786987305,-0.16510476171970367
1772728910773269800,4.488269775390625,8.307880401611328,3.696911096572876,-0.09810572862625122
1772728910782788000,4.4977880859375,8.032705307006836,3.8285162448883057,-0.06939185410737991
1772728910792306000,4.507305908203125,7.7838521003723145,3.957728624343872,0.0023928226437419653
1772728910801824000,4.516823974609375,7.5708909034729,4.051048755645752,0.02632104977965355
1772728910811342000,4.526342041015625,7.4464640617370605,4.077369689941406,0.07417750358581543
1772728910820860200,4.535860107421875,7.412964344024658,4.060619831085205,0.01196411345154047
1772728910830378200,4.545378173828125,7.456035137176514,4.067798614501953,-0.07657032459974289
1772728910839896300,4.554896240234375,7.587640762329102,4.046263217926025,-0.14356936514377594
1772728910849414400,4.564414306640625,7.77188777923584,4.067798614501953,-0.24406790733337402
1772728910858932500,4.573932373046875,8.11406135559082,4.07258415222168,-0.4307080805301666
1772728910868450600,4.583450439453125,8.417949676513672,4.0319061279296875,-0.5407779216766357
1772728910877968600,4.59296875,8.683553695678711,4.0079779624938965,-0.5814558863639832
1772728910887486700,4.60248681640625,8.793622970581055,4.019941806793213,-0.5886343717575073
1772728910897004800,4.6120048828125,8.748159408569336,4.063013076782227,-0.641276478767395
1772728910906523000,4.62152294921875,8.685946464538574,4.132404804229736,-0.6460621356964111
1772728910916040700,4.631040771484375,8.70508861541748,4.1970109939575195,-0.6891329288482666
1772728910925559000,4.64055908203125,8.772088050842285,4.2281174659729,-0.6699903607368469
1772728910935076900,4.650076904296875,8.894122123718262,4.249652862548828,-0.6221339106559753
1772728910944595000,4.659594970703125,8.925228118896484,4.268795490264893,-0.5670989751815796
1772728910954113000,4.669113037109375,8.901300430297852,4.319045066833496,-0.5240281820297241
1772728910963631000,4.678631103515625,8.944371223449707,4.381258487701416,-0.519242525100708
1772728910973149200,4.688149169921875,9.006584167480469,4.462614059448242,-0.48574298620224
1772728910982667300,4.697667236328125,8.949156761169434,4.515256404876709,-0.4259224236011505
1772728910992185300,4.707185302734375,8.831908226013184,4.591826438903809,-0.39481574296951294
1772728911001703400,4.716703369140625,8.752944946289062,4.673182487487793,-0.3326023519039154
1772728911011221500,4.726221435546875,8.695517539978027,4.7401814460754395,-0.275174617767334
1772728911020739600,4.735739501953125,8.662017822265625,4.792823791503906,-0.2967100143432617
1772728911030257700,4.745257568359375,8.695517539978027,4.871787071228027,-0.30628129839897156
1772728911039775700,4.754775634765625,8.784051895141602,4.948357105255127,-0.26081767678260803
1772728911049293800,4.7642939453125,8.925228118896484,4.957928657531738,-0.2632105052471161
1772728911058812000,4.77381201171875,9.119047164916992,4.957928657531738,-0.17946170270442963
1772728911068329700,4.783329833984375,9.370293617248535,4.874179840087891,-0.10049854964017868
1772728911077847800,4.792847900390625,9.836894035339355,4.7952165603637695,-0.06699903309345245
1772728911087366000,4.802365966796875,10.380064964294434,4.728217601776123,-0.07178468257188797
1772728911096884000,4.811884033203125,10.839486122131348,4.6301116943359375,-0.08614161610603333
1772728911106402000,4.821402099609375,11.164910316467285,4.53200626373291,-0.15553347766399384
1772728911115920100,4.830920166015625,11.420942306518555,4.486542224884033,-0.2584248483181
1772728911125438200,4.840438232421875,11.43529987335205,4.515256404876709,-0.34217363595962524
1772728911134956300,4.849956298828125,11.12183952331543,4.610969066619873,-0.5144568681716919
1772728911144474400,4.859474365234375,10.595418930053711,4.716253280639648,-0.6843472719192505
1772728911153992400,4.868992431640625,10.083354949951172,4.7712883949279785,-0.8183453679084778
1772728911163510500,4.878510498046875,9.803394317626953,4.778466701507568,-0.8709874153137207
1772728911173028600,4.888028564453125,9.698110580444336,4.694717884063721,-0.8446664214134216
1772728911182546700,4.897546630859375,9.7005033493042,4.589433670043945,-0.7178468108177185
1772728911192064800,4.907064697265625,9.772287368774414,4.4650068283081055,-0.6819544434547424
1772728911201582800,4.916582763671875,9.820143699645996,4.350151538848877,-0.6293123364448547
1772728911211100700,4.9261005859375,9.975677490234375,4.218546390533447,-0.5910272002220154
1772728911220619000,4.935618896484375,10.246066093444824,4.029513359069824,-0.4331009089946747
1772728911230136800,4.94513671875,10.628918647766113,3.7663028240203857,-0.30628129839897156
1772728911239655000,4.954655029296875,10.959127426147461,3.5676984786987305,-0.2105683982372284
1772728911249173000,4.964173095703125,11.145768165588379,3.3308091163635254,-0.11006984114646912
1772728911258691000,4.973691162109375,11.227124214172363,3.0963125228881836,0.0023928226437419653
1772728911268209200,4.983209228515625,11.062019348144531,2.878565549850464,0.16031911969184875
1772728911277727200,4.992727294921875,10.667202949523926,2.7110681533813477,0.36610186100006104
1772728911287245300,5.002245361328125,10.06421184539795,2.5292134284973145,0.6173482537269592
1772728911296763400,5.011763427734375,9.4061861038208,2.400001049041748,0.8063812255859375
1772728911306281500,5.021281494140625,8.872586250305176,2.368894338607788,0.9690931439399719
1772728911315799600,5.030799560546875,8.477770805358887,2.400001049041748,1.0097711086273193
1772728911325317600,5.040317626953125,8.097311973571777,2.4526431560516357,0.9499505758285522
1772728911334835500,5.04983544921875,7.774280548095703,2.5603201389312744,0.7896314859390259
1772728911344353800,5.059353759765625,7.57806921005249,2.6799614429473877,0.6436693072319031
1772728911353871600,5.06887158203125,7.4464640617370605,2.792423963546753,0.5359922647476196
1772728911363390000,5.078389892578125,7.350750923156738,2.861815929412842,0.5240281820297241
1772728911372907800,5.08790771484375,7.389036178588867,2.9527430534362793,0.5527420043945312
1772728911382426000,5.097426025390625,7.704888820648193,2.991028308868408,0.4833501875400543
1772728911391944000,5.10694384765625,8.200202941894531,3.053241729736328,0.4211367964744568
1772728911401462000,5.1164619140625,8.628518104553223,3.1657042503356934,0.24167509377002716
1772728911410980000,5.12597998046875,8.872586250305176,3.249453067779541,0.02632104977965355
1772728911420498200,5.135498291015625,9.037691116333008,3.321237802505493,-0.2225325107574463
1772728911430016300,5.145016357421875,9.150154113769531,3.326023578643799,-0.3852444589138031
1772728911439534300,5.154534423828125,9.336793899536133,3.3164522647857666,-0.4737788736820221
1772728911449052400,5.164052490234375,9.54496955871582,3.3332018852233887,-0.4977070987224579
1772728911458570500,5.173570556640625,9.640682220458984,3.335594654083252,-0.49292147159576416
1772728911468088600,5.183088623046875,9.559326171875,3.390629768371582,-0.4785645306110382
1772728911477606700,5.192606689453125,9.34157943725586,3.469592809677124,-0.45942193269729614
1772728911487124700,5.202124755859375,9.09990406036377,3.5748770236968994,-0.4737788736820221
1772728911496642600,5.211642578125,8.824729919433594,3.682554006576538,-0.48813581466674805
1772728911506161000,5.221160888671875,8.516056060791016,3.7806596755981445,-0.48095735907554626
1772728911515678700,5.2306787109375,8.24566650390625,3.81655216217041,-0.42352959513664246
1772728911525197000,5.240197021484375,8.001599311828613,3.8835511207580566,-0.3565305769443512
1772728911534715000,5.24971484375,7.8556365966796875,3.9074792861938477,-0.27756741642951965
1772728911544233000,5.25923291015625,7.755138397216797,3.926621913909912,-0.2225325107574463
1772728911553751000,5.2687509765625,7.654639720916748,3.972085475921631,-0.22013968229293823
1772728911563269000,5.27826904296875,7.597211837768555,4.048655986785889,-0.23210379481315613
1772728911572787200,5.287787109375,7.5637125968933105,4.1036906242370605,-0.2105683982372284
1772728911582305300,5.29730517578125,7.597211837768555,4.139583110809326,-0.22492532432079315
1772728911591823400,5.3068232421875,7.810173034667969,4.163511276245117,-0.1698904037475586
1772728911601341400,5.316341552734375,7.963313579559326,4.175475597381592,-0.08853443711996078
1772728911610859500,5.325859619140625,8.042277336120605,4.1659040451049805,-0.07896314561367035
1772728911620377600,5.335377685546875,8.030312538146973,4.161118507385254,-0.06699903309345245
1772728911629895700,5.344895751953125,8.094919204711914,4.201796531677246,-0.07896314561367035
1772728911639413500,5.35441357421875,8.303094863891602,4.256831645965576,-0.08374879509210587
1772728911648931800,5.363931884765625,8.499305725097656,4.292723655700684,-0.10289137065410614
1772728911658449700,5.37344970703125,8.72183895111084,4.304687976837158,-0.11724831163883209
1772728911667968000,5.382968017578125,8.975478172302246,4.335794448852539,-0.1459621787071228
1772728911677485800,5.39248583984375,9.181260108947754,4.34536600112915,-0.15314064919948578
1772728911687004000,5.40200390625,9.32722282409668,4.316651821136475,-0.16510476171970367
1772728911696522000,5.41152197265625,9.480362892150879,4.3310089111328125,-0.17946170270442963
1772728911706040000,5.4210400390625,9.659825325012207,4.323830604553223,-0.21296121180057526
1772728911715558100,5.43055810546875,9.834501266479492,4.319045066833496,-0.22013968229293823
1772728911725076200,5.440076171875,9.985248565673828,4.333401679992676,-0.25363919138908386
1772728911734594300,5.44959423828125,10.131211280822754,4.366901397705078,-0.397208571434021
1772728911744112400,5.4591123046875,10.138389587402344,4.409972190856934,-0.5383850932121277
1772728911753630500,5.46863037109375,10.009177207946777,4.474578380584717,-0.6173482537269592
1772728911763148500,5.4781484375,9.848857879638672,4.551148891448975,-0.672383189201355
1772728911772666600,5.48766650390625,9.686145782470703,4.646861553192139,-0.760917603969574
1772728911782184400,5.497184326171875,9.643074989318848,4.742574691772461,-0.851844847202301
1772728911791702800,5.506702880859375,9.609575271606445,4.785645484924316,-0.8398807644844055
1772728911801220600,5.516220703125,9.55214786529541,4.800002098083496,-0.7800601720809937
1772728911810738700,5.52573876953125,9.492327690124512,4.778466701507568,-0.6197410821914673
1772728911820256800,5.5352568359375,9.454042434692383,4.737788677215576,-0.41874396800994873
1772728911829774800,5.54477490234375,9.456435203552246,4.656432628631592,-0.22013968229293823
1772728911839293000,5.55429296875,9.482755661010742,4.603790760040283,-0.04785645380616188
1772728911848811000,5.56381103515625,9.659825325012207,4.572684288024902,-0.02632104977965355
1772728911858329000,5.5733291015625,9.757930755615234,4.570291042327881,-0.10289137065410614
1772728911867847200,5.58284716796875,9.671789169311523,4.599005222320557,-0.1866401731967926
1772728911877365200,5.592365234375,9.499505996704102,4.656432628631592,-0.2512463629245758
1772728911886883300,5.60188330078125,9.343972206115723,4.673182487487793,-0.34695929288864136
1772728911896401400,5.6114013671875,9.257830619812012,4.687539577484131,-0.5120640397071838
1772728911905919500,5.62091943359375,9.375079154968262,4.642076015472412,-0.6795616149902344
1772728911915437600,5.6304375,9.616754531860352,4.54636287689209,-0.8135597109794617
1772728911924955400,5.639955322265625,9.963713645935059,4.350151538848877,-0.9930213689804077
1772728911934473700,5.6494736328125,10.241280555725098,4.204189300537109,-1.1437692642211914
1772728911943991600,5.658991455078125,10.461421012878418,4.063013076782227,-1.2394821643829346
1772728911953509600,5.668509521484375,10.712666511535645,3.84765887260437,-1.3854442834854126
1772728911963027700,5.67802783203125,10.96869945526123,3.5365917682647705,-1.5242279767990112
1772728911972545800,5.6875458984375,11.36351490020752,3.160918712615967,-1.5984054803848267
1772728911982063900,5.69706396484375,11.784651756286621,2.7828526496887207,-1.6151553392410278
1772728911991582000,5.70658203125,11.990434646606445,2.4095723628997803,-1.521835207939148
1772728912001100000,5.71610009765625,11.777473449707031,2.1200408935546875,-1.2801600694656372
1772728912010618000,5.7256181640625,11.140982627868652,1.954936146736145,-0.9690931439399719
1772728912020136200,5.73513623046875,10.236495018005371,1.9621145725250244,-0.7657032608985901
1772728912029654300,5.744654296875,9.29611587524414,2.1655044555664062,-0.7585247755050659
1772728912039172400,5.75417236328125,8.585447311401367,2.4023938179016113,-0.8350951075553894
1772728912048690400,5.7636904296875,7.989634990692139,2.6297121047973633,-0.8231309652328491
1772728912058208500,5.77320849609375,7.561319351196289,2.8211379051208496,-0.8207381963729858
1772728912067726300,5.782726318359375,7.381857872009277,2.943171739578247,-0.851844847202301
1772728912077244400,5.792244384765625,7.463213920593262,3.0173492431640625,-0.973878800868988
1772728912086762500,5.801762451171875,7.728816986083984,3.043670415878296,-1.0719845294952393
1772728912096280600,5.811280517578125,8.00638484954834,3.0556344985961914,-1.179661512374878
1772728912105798700,5.820798583984375,8.214560508728027,3.0963125228881836,-1.2275179624557495
1772728912115316700,5.830316650390625,8.396414756774902,3.1896326541900635,-1.1748759746551514
1772728912124834800,5.839834716796875,8.6907320022583,3.201596736907959,-1.1772687435150146
1772728912134353000,5.849352783203125,8.915657043457031,3.2063822746276855,-1.0289137363433838
1772728912143871000,5.85887109375,9.300901412963867,3.2350962162017822,-1.0408778190612793
1772728912153389000,5.86838916015625,9.432506561279297,3.2614171504974365,-1.0121639966964722
1772728912162907100,5.8779072265625,9.324830055236816,3.297309637069702,-0.885344386100769
1772728912172425200,5.88742529296875,9.032905578613281,3.3643085956573486,-0.6747759580612183
1772728912181943300,5.896943359375,8.724231719970703,3.4983067512512207,-0.4833501875400543
1772728912191461400,5.90646142578125,8.427521705627441,3.570091485977173,-0.29431718587875366
1772728912200979500,5.9159794921875,8.264809608459473,3.634697675704956,-0.2392822653055191
1772728912210497300,5.925497314453125,8.200202941894531,3.6705899238586426,-0.16510476171970367
1772728912220015400,5.935015380859375,8.176275253295898,3.689732551574707,-0.07657032459974289
1772728912229533400,5.944533447265625,8.23130989074707,3.6921253204345703,-0.040677983313798904
1772728912239051500,5.954051513671875,8.214560508728027,3.7232320308685303,-0.019142581149935722
1772728912248569600,5.963569580078125,8.173882484436035,3.7567315101623535,-0.06699903309345245
1772728912258087700,5.973087646484375,8.051848411560059,3.7902309894561768,-0.06699903309345245
1772728912267605800,5.982605712890625,8.015955924987793,3.806980848312378,-0.03349951654672623
1772728912277123800,5.992123779296875,8.02074146270752,3.7734813690185547,0.05024927482008934
1772728912286642000,6.001641845703125,8.073383331298828,3.78544545173645,0.02392822690308094
1772728912296160000,6.011159912109375,8.164310455322266,3.7950167655944824,-0.05742774158716202
1772728912305678000,6.020677978515625,8.288737297058105,3.806980848312378,-0.10049854964017868
1772728912315196200,6.030196044921875,8.425128936767578,3.8021950721740723,-0.09571290761232376
1772728912324714200,6.03971435546875,8.556734085083008,3.814159393310547,-0.15553347766399384
1772728912334232300,6.049232421875,8.738588333129883,3.8883368968963623,-0.23449662327766418
1772728912343750100,6.058750244140625,8.858229637145996,3.933800458908081,-0.31824541091918945
1772728912353268200,6.068268310546875,8.877371788024902,3.9457645416259766,-0.3924229145050049
1772728912362786300,6.077786376953125,8.848658561706543,3.933800458908081,-0.3924229145050049
1772728912372304400,6.087304443359375,8.819944381713867,4.00319242477417,-0.380458801984787
1772728912381822500,6.096822509765625,8.786444664001465,4.046263217926025,-0.397208571434021
1772728912391340500,6.106340576171875,8.760123252868652,4.091726779937744,-0.42352959513664246
1772728912400858600,6.115858642578125,8.72901725769043,4.170690059661865,-0.4139583110809326
1772728912410376700,6.125376708984375,8.70508861541748,4.230510234832764,-0.4211367964744568
1772728912419894800,6.134894775390625,8.719446182250977,4.304687976837158,-0.4211367964744568
1772728912429412900,6.144412841796875,8.671588897705078,4.429114818572998,-0.4450650215148926
1772728912438931000,6.153930908203125,8.602197647094727,4.599005222320557,-0.45224347710609436
1772728912448449000,6.163448974609375,8.403593063354492,4.711467742919922,-0.40677985548973083
1772728912457967000,6.172967041015625,8.293522834777832,4.828716278076172,-0.3565305769443512
1772728912467485200,6.182485107421875,8.425128936767578,4.931607246398926,-0.3517449200153351
1772728912477003000,6.1920029296875,8.786444664001465,4.917250633239746,-0.3517449200153351
1772728912486521000,6.20152099609375,9.291330337524414,4.826323509216309,-0.38763725757598877
1772728912496039200,6.2110390625,9.774680137634277,4.7401814460754395,-0.4785645306110382
1772728912505557200,6.22055712890625,10.133604049682617,4.6061835289001465,-0.5718846321105957
1772728912515075300,6.230075439453125,10.645668029785156,4.5200419425964355,-0.7082754969596863
1772728912524593400,6.239593505859375,11.184053421020508,4.4650068283081055,-0.8398807644844055
1772728912534111500,6.249111572265625,11.626725196838379,4.388436794281006,-0.9379864931106567
1772728912543629600,6.258629638671875,11.755937576293945,4.426722049713135,-1.0121639966964722
1772728912553147600,6.268147705078125,11.504691123962402,4.541577339172363,-1.062413215637207
1772728912562665700,6.277665771484375,10.942378044128418,4.658825874328613,-1.0791629552841187
1772728912572183800,6.287183837890625,10.315458297729492,4.785645484924316,-1.038485050201416
1772728912581702000,6.296701904296875,9.78664493560791,4.833501815795898,-0.9619147181510925
1772728912591220000,6.306219970703125,9.492327690124512,4.804787635803223,-0.763310432434082
1772728912600738000,6.315738037109375,9.442078590393066,4.709074974060059,-0.5551348328590393
1772728912610256000,6.325255859375,9.521040916442871,4.579862594604492,-0.4307080805301666
1772728912619774000,6.33477392578125,9.757930755615234,4.431507587432861,-0.31345975399017334
1772728912629292000,6.3442919921875,10.171889305114746,4.216153621673584,-0.23210379481315613
1772728912638810000,6.35381005859375,10.695917129516602,3.9074792861938477,-0.24646073579788208
1772728912648328200,6.363328125,11.191231727600098,3.5509488582611084,-0.2679961323738098
1772728912657846300,6.37284619140625,11.619546890258789,3.1968109607696533,-0.27756741642951965
1772728912667364400,6.3823642578125,11.96889877319336,2.912065267562866,-0.33020952343940735
1772728912676882400,6.39188232421875,12.081361770629883,2.6727828979492188,-0.3326023519039154
1772728912686400500,6.401400390625,11.889935493469238,2.5220351219177246,-0.26081767678260803
1772728912695918600,6.410918701171875,11.382657051086426,2.4047868251800537,-0.12203395366668701
1772728912705436700,6.420436767578125,10.638489723205566,2.3545374870300293,0.04546362906694412
1772728912714954800,6.429954833984375,9.841679573059082,2.3473589420318604,0.22971096634864807
1772728912724472800,6.439472900390625,9.20997428894043,2.3306093215942383,0.4498506486415863
1772728912733991000,6.448990966796875,8.81515884399414,2.3018953800201416,0.6340979933738708
1772728912743508700,6.4585087890625,8.535198211669922,2.2372891902923584,0.8446664214134216
1772728912753026800,6.46802685546875,8.360522270202637,2.1918256282806396,1.0217353105545044
1772728912762545000,6.477544921875,8.214560508728027,2.1439690589904785,1.1389836072921753
1772728912772063000,6.48706298828125,8.080561637878418,2.1032910346984863,1.2251251935958862
1772728912781581000,6.4965810546875,8.047062873840332,2.093719720840454,1.2538390159606934
1772728912791099100,6.50609912109375,8.109275817871094,2.1894326210021973,1.124626636505127
1772728912800617200,6.5156171875,8.214560508728027,2.2755744457244873,1.0456634759902954
1772728912810135300,6.52513525390625,8.286344528198242,2.3784656524658203,1.00259268283844
1772728912819653400,6.5346533203125,8.35573673248291,2.4574289321899414,0.9260223507881165
1772728912829171500,6.54417138671875,8.551948547363281,2.5196423530578613,0.8015955686569214
1772728912838689500,6.553689453125,8.805587768554688,2.6297121047973633,0.5742774605751038
1772728912848207600,6.56320751953125,9.10229778289795,2.6871397495269775,0.3278166949748993
1772728912857725700,6.5727255859375,9.42772102355957,2.68953275680542,0.1052841991186142
1772728912867243500,6.582243408203125,9.734002113342285,2.706282377243042,-0.08853443711996078
1772728912876761600,6.59176171875,9.987641334533691,2.7589244842529297,-0.1866401731967926
1772728912886279700,6.60127978515625,9.927821159362793,2.8809585571289062,-0.24646073579788208
1772728912895797800,6.6107978515625,9.477970123291016,3.0101709365844727,-0.31106695532798767
1772728912905315800,6.62031591796875,8.86062240600586,3.1274192333221436,-0.31345975399017334
1772728912914834000,6.629833984375,8.322237014770508,3.2350962162017822,-0.33020952343940735
1772728912924352000,6.63935205078125,7.932207107543945,3.3547372817993164,-0.3732803463935852
1772728912933870000,6.6488701171875,7.69531774520874,3.452843189239502,-0.4091726839542389
1772728912943388200,6.65838818359375,7.525427341461182,3.5509488582611084,-0.4259224236011505
1772728912952906200,6.66790625,7.4225358963012695,3.5581271648406982,-0.4043870270252228
1772728912962424300,6.67742431640625,7.401000499725342,3.562912940979004,-0.3613162338733673
1772728912971942400,6.6869423828125,7.3986077308654785,3.601198196411133,-0.34217363595962524
1772728912981460500,6.69646044921875,7.4225358963012695,3.6227335929870605,-0.32303106784820557
1772728912990978300,6.705978271484375,7.513463020324707,3.634697675704956,-0.2991028428077698
1772728913000496600,6.71549658203125,7.712067604064941,3.6538400650024414,-0.27038896083831787
1772728913010014500,6.725014404296875,7.9728851318359375,3.658625841140747,-0.2392822653055191
1772728913019532500,6.734532470703125,8.23848819732666,3.6227335929870605,-0.20338992774486542
1772728913029050600,6.744050537109375,8.528019905090332,3.6131622791290283,-0.09092725813388824
1772728913038568700,6.753568603515625,8.848658561706543,3.586841106414795,0.02871387079358101
1772728913048086800,6.763086669921875,9.169296264648438,3.5820555686950684,0.13639089465141296
1772728913057604900,6.77260498046875,9.422935485839844,3.586841106414795,0.19621145725250244
1772728913067123000,6.782123046875,9.652647018432617,3.6394832134246826,0.2727817893028259
1772728913076641000,6.79164111328125,9.848857879638672,3.6921253204345703,0.32542386651039124
1772728913086159000,6.8011591796875,9.985248565673828,3.720839262008667,0.34217363595962524
1772728913095677200,6.81067724609375,10.009177207946777,3.8356947898864746,0.3158525824546814
1772728913105195300,6.8201953125,9.913464546203613,3.9672999382019043,0.3565305769443512
1772728913114713000,6.829713134765625,9.738788604736328,4.115654945373535,0.4019941985607147
1772728913124231400,6.8392314453125,9.585647583007812,4.237689018249512,0.35892340540885925
1772728913133749200,6.848749267578125,9.573683738708496,4.35254430770874,0.24646073579788208
1772728913143267300,6.858267333984375,9.628718376159668,4.46979284286499,0.064606212079525
1772728913152785400,6.867785400390625,9.693324089050293,4.524827480316162,0.014356935396790504
1772728913162303500,6.877303466796875,9.753145217895508,4.563112735748291,-0.05024927482008934
1772728913171821600,6.886821533203125,9.80817985534668,4.53200626373291,-0.13160525262355804
1772728913181339600,6.896339599609375,9.970891952514648,4.450650215148926,-0.08853443711996078
1772728913190857700,6.905857666015625,10.224531173706055,4.335794448852539,0.007178467698395252
1772728913200375800,6.915375732421875,10.552348136901855,4.208974838256836,0.13878370821475983
1772728913209894000,6.924893798828125,10.825129508972168,4.115654945373535,0.3038884699344635
1772728913219412000,6.934411865234375,10.899307250976562,4.07258415222168,0.41156548261642456
1772728913228930000,6.943929931640625,10.796415328979492,3.9864425659179688,0.39481574296951294
1772728913238447900,6.95344775390625,10.650453567504883,4.000799655914307,0.3684946894645691
1772728913247966200,6.96296630859375,10.566704750061035,4.086941242218018,0.3158525824546814
1772728913257484000,6.972484130859375,10.432706832885742,4.153940200805664,0.24646073579788208
1772728913267002000,6.982002197265625,10.236495018005371,4.194618225097656,0.11246266216039658
1772728913276520200,6.991520263671875,10.054640769958496,4.208974838256836,-0.08374879509210587
1772728913286038300,7.001038330078125,10.030712127685547,4.185046672821045,-0.2512463629245758
1772728913295556400,7.010556396484375,10.095318794250488,4.206582069396973,-0.4139583110809326
1772728913305074400,7.020074462890625,10.147960662841797,4.180261135101318,-0.6101697683334351
1772728913314592500,7.029592529296875,10.16710376739502,4.120440483093262,-0.7417750358581543
1772728913324110600,7.039110595703125,10.195816993713379,3.981656789779663,-0.8374879360198975
1772728913333628700,7.048628662109375,10.363314628601074,3.7399818897247314,-0.9284151792526245
1772728913343146500,7.058146484375,10.753344535827637,3.4193434715270996,-1.031306505203247
1772728913352664800,7.067664794921875,11.251051902770996,3.053241729736328,-1.1174482107162476
1772728913362182700,7.0771826171875,11.784651756286621,2.682354211807251,-1.1509476900100708
1772728913371701000,7.086700927734375,12.385250091552734,2.313859462738037,-1.0289137363433838
1772728913381218800,7.09621875,12.55274772644043,2.029113531112671,-0.8709874153137207
1772728913390737000,7.10573681640625,12.083754539489746,1.7587246894836426,-0.7154539823532104
1772728913400255000,7.1152548828125,11.105090141296387,1.643869161605835,-0.5216353535652161
1772728913409773000,7.12477294921875,10.03549861907959,1.7443677186965942,-0.35413774847984314
1772728913419291100,7.134291015625,9.138189315795898,1.9286150932312012,-0.363709032535553
1772728913428809200,7.143809326171875,8.322237014770508,2.1822543144226074,-0.5742774605751038
1772728913438327300,7.153327392578125,7.616354465484619,2.4095723628997803,-0.760917603969574
1772728913447845400,7.162845458984375,7.118647575378418,2.572284460067749,-0.8662018179893494
1772728913457363500,7.172363525390625,6.876972198486328,2.6727828979492188,-0.885344386100769
1772728913466881500,7.181881591796875,6.960721015930176,2.7278177738189697,-0.8877372145652771
1772728913476399600,7.191399658203125,7.223931789398193,2.7589244842529297,-0.9547362327575684
1772728913485917400,7.20091748046875,7.470392227172852,2.8450660705566406,-1.0767701864242554
1772728913495435500,7.210435546875,7.800601959228516,2.9455647468566895,-1.2346965074539185
1772728913504953600,7.21995361328125,8.12123966217041,2.9288148880004883,-1.3567304611206055
1772728913514471700,7.2294716796875,8.46580696105957,2.9312076568603516,-1.3710874319076538
1772728913523989800,7.23898974609375,8.779266357421875,2.9288148880004883,-1.3399807214736938
1772728913533507800,7.2485078125,9.087940216064453,2.9694929122924805,-1.246660590171814
1772728913543026000,7.25802587890625,9.391828536987305,2.9383862018585205,-1.0815558433532715
1772728913552544000,7.2675439453125,9.626325607299805,2.9455647468566895,-0.9092726111412048
1772728913562062000,7.27706201171875,9.707681655883789,2.9359934329986572,-0.727418065071106
1772728913571580200,7.286580078125,9.547362327575684,2.9958138465881348,-0.5264210104942322
1772728913581098200,7.29609814453125,9.233902931213379,3.0963125228881836,-0.34695929288864136
1772728913590616300,7.3056162109375,8.812766075134277,3.2063822746276855,-0.19621145725250244
1772728913600134400,7.315134521484375,8.556734085083008,3.373879909515381,-0.04307080805301666
1772728913609652200,7.32465234375,8.329415321350098,3.4983067512512207,0.03349951654672623
1772728913619170300,7.33417041015625,8.11406135559082,3.5772697925567627,0.0933200865983963
1772728913628688400,7.3436884765625,7.884350776672363,3.6131622791290283,0.06939185410737991
1772728913638206500,7.35320654296875,7.69531774520874,3.6466617584228516,0.02153540402650833
1772728913647724500,7.362724609375,7.63310432434082,3.6610186100006104,-0.0526420995593071
1772728913657242600,7.37224267578125,7.6498541831970215,3.706482172012329,-0.15553347766399384
1772728913666760700,7.3817607421875,7.75753116607666,3.6921253204345703,-0.2512463629245758
1772728913676278800,7.39127880859375,7.944170951843262,3.665804386138916,-0.30628129839897156
1772728913685796900,7.400796875,8.149953842163086,3.6705899238586426,-0.3158525824546814
1772728913695315000,7.41031494140625,8.329415321350098,3.649054527282715,-0.35892340540885925
1772728913704833000,7.4198330078125,8.422736167907715,3.6777684688568115,-0.4498506486415863
1772728913714351000,7.42935107421875,8.38684368133545,3.728017568588257,-0.5048855543136597
1772728913723869000,7.438868896484375,8.37966537475586,3.814159393310547,-0.550349235534668
1772728913733387300,7.44838720703125,8.34138011932373,3.91705060005188,-0.5934200286865234
1772728913742905000,7.457905029296875,8.365307807922363,3.9625144004821777,-0.6197410821914673
1772728913752423200,7.467423095703125,8.46580696105957,4.00319242477417,-0.6101697683334351
1772728913761941200,7.476941162109375,8.578269004821777,4.027120590209961,-0.6005984544754028
1772728913771459300,7.486459228515625,8.685946464538574,4.027120590209961,-0.6699903607368469
1772728913780977400,7.495977294921875,8.848658561706543,4.077369689941406,-0.760917603969574
1772728913790495500,7.50549560546875,9.001798629760742,4.1659040451049805,-0.8279166221618652
1772728913800013600,7.515013671875,9.066405296325684,4.2209391593933105,-0.8542376756668091
1772728913809531600,7.52453173828125,9.032905578613281,4.280759811401367,-0.8709874153137207
1772728913819049700,7.5340498046875,8.97787094116211,4.395615100860596,-0.8279166221618652
1772728913828567600,7.543567626953125,8.927620887756348,4.524827480316162,-0.7704889178276062
1772728913838086000,7.5530859375,8.82951545715332,4.599005222320557,-0.7322037220001221
1772728913847603700,7.562603759765625,8.80798053741455,4.6995038986206055,-0.7202396392822266
1772728913857121800,7.572121826171875,8.82233715057373,4.802394866943359,-0.7657032608985901
1772728913866640000,7.581639892578125,8.97787094116211,4.8813581466674805,-0.7800601720809937
1772728913876158000,7.591157958984375,9.20279598236084,4.88853645324707,-0.8255237936973572
1772728913885676000,7.600676025390625,9.602396965026855,4.797609329223633,-0.9068797826766968
1772728913895194000,7.610194091796875,9.963713645935059,4.701896667480469,-0.973878800868988
1772728913904712200,7.619712158203125,10.234102249145508,4.599005222320557,-1.0671988725662231
1772728913914230300,7.629230224609375,10.585846900939941,4.522434711456299,-1.1318050622940063
1772728913923748400,7.638748291015625,11.038090705871582,4.481756687164307,-1.215553879737854
1772728913933266400,7.648266357421875,11.310873031616211,4.48414945602417,-1.2370892763137817
1772728913942784500,7.657784423828125,11.408978462219238,4.503292083740234,-1.2131611108779907
1772728913952302300,7.66730224609375,11.12183952331543,4.5583271980285645,-1.1174482107162476
1772728913961820400,7.6768203125,10.600204467773438,4.644468784332275,-1.0001999139785767
1772728913971338500,7.68633837890625,10.00439167022705,4.744967460632324,-0.8685946464538574
1772728913980856600,7.695856689453125,9.578469276428223,4.7952165603637695,-0.7154539823532104
1772728913990374700,7.705374755859375,9.298508644104004,4.809573650360107,-0.5790630578994751
1772728913999892700,7.714892822265625,9.221938133239746,4.785645484924316,-0.43549370765686035
1772728914009410800,7.724410888671875,9.339186668395996,4.744967460632324,-0.30628129839897156
1772728914018929000,7.733928955078125,9.578469276428223,4.644468784332275,-0.2153540402650833
1772728914028447000,7.743447021484375,9.836894035339355,4.510470867156982,-0.16031911969184875
1772728914037965000,7.752965087890625,10.059426307678223,4.347758769989014,-0.1339980661869049
1772728914047483100,7.762483154296875,10.310672760009766,4.106083869934082,-0.19621145725250244
1772728914057001200,7.772001220703125,10.626524925231934,3.799802303314209,-0.2727817893028259
1772728914066519000,7.78151904296875,11.076375961303711,3.4408788681030273,-0.3397808074951172
1772728914076037000,7.791037109375,11.643474578857422,2.9838497638702393,-0.3326023519039154
1772728914085555200,7.80055517578125,12.256037712097168,2.6392834186553955,-0.31106695532798767
1772728914095073300,7.8100732421875,12.602996826171875,2.306680917739868,-0.28235307335853577
1772728914104591400,7.81959130859375,12.504891395568848,2.007578134536743,-0.14356936514377594
1772728914114109400,7.829109375,11.858829498291016,1.8376877307891846,0.05742774158716202
1772728914123627500,7.83862744140625,10.85145092010498,1.8137595653533936,0.3397808074951172
1772728914133145600,7.8481455078125,9.872786521911621,1.9621145725250244,0.5551348328590393
1772728914142663700,7.85766357421875,9.011369705200195,2.115255117416382,0.5623133182525635
1772728914152181800,7.867181640625,8.204988479614258,2.196611166000366,0.6197410821914673
1772728914161699800,7.876699951171875,7.664210796356201,2.2229323387145996,0.638883650302887
1772728914171217700,7.8862177734375,7.441678524017334,2.282752752304077,0.6939185857772827
1772728914180736000,7.895736083984375,7.4847493171691895,2.311466693878174,0.6317051649093628
1772728914190253800,7.90525390625,7.676175117492676,2.3497519493103027,0.5024927258491516
1772728914199772000,7.91477197265625,7.905886173248291,2.4047868251800537,0.3278166949748993
1772728914209290000,7.9242900390625,8.080561637878418,2.4502503871917725,0.14117653667926788
1772728914218808000,7.93380810546875,8.260024070739746,2.4741785526275635,-0.004785645287483931
1772728914228326100,7.943326171875,8.47298526763916,2.478964328765869,-0.09810572862625122
1772728914237844200,7.95284423828125,8.73619556427002,2.500499725341797,-0.23449662327766418
1772728914247362300,7.9623623046875,8.951549530029297,2.5363919734954834,-0.33499518036842346
1772728914256880400,7.97188037109375,9.095118522644043,2.5603201389312744,-0.38763725757598877
1772728914266398500,7.9813984375,9.255437850952148,2.6464617252349854,-0.3924229145050049
1772728914275916300,7.990916259765625,9.34157943725586,2.7182464599609375,-0.44027936458587646
1772728914285434600,8.0004345703125,9.241081237792969,2.837887763977051,-0.4785645306110382
1772728914294952400,8.009952392578125,8.973084449768066,2.9838497638702393,-0.5647061467170715
1772728914304470500,8.019470458984374,8.638090133666992,3.16331148147583,-0.605384111404419
1772728914313988600,8.028988525390625,8.300702095031738,3.3332018852233887,-0.6867401003837585
1772728914323506700,8.038506591796875,8.0350980758667,3.486342668533325,-0.7561319470405579
1772728914333024800,8.048024658203126,7.795815944671631,3.634697675704956,-0.8398807644844055
1772728914342542800,8.05754296875,7.6737823486328125,3.7543387413024902,-0.885344386100769
1772728914352061000,8.06706103515625,7.609176158905029,3.809373617172241,-0.8925228714942932
1772728914361579000,8.0765791015625,7.537391185760498,3.8883368968963623,-0.9379864931106567
1772728914371097000,8.08609716796875,7.491927623748779,3.9385859966278076,-0.9020941257476807
1772728914380615200,8.095615234375,7.549355506896973,4.00319242477417,-0.8422735929489136
1772728914390133000,8.105133056640625,7.645068168640137,4.0079779624938965,-0.7728816866874695
1772728914399651300,8.1146513671875,7.802994728088379,3.9696927070617676,-0.727418065071106
1772728914409169200,8.124169189453125,8.001599311828613,3.9361932277679443,-0.6963114142417908
1772728914418687200,8.133687255859375,8.21695327758789,3.924229145050049,-0.5647061467170715
1772728914428205300,8.143205322265626,8.453842163085938,3.924229145050049,-0.5000999569892883
1772728914437723400,8.152723388671875,8.760123252868652,3.8811583518981934,-0.5000999569892883
1772728914447241500,8.162241455078124,9.128618240356445,3.8500516414642334,-0.4977070987224579
1772728914456759600,8.171759521484375,9.43489933013916,3.87876558303833,-0.4498506486415863
1772728914466277600,8.181277587890625,9.602396965026855,3.900300979614258,-0.3684946894645691
1772728914475795700,8.190795654296876,9.745966911315918,3.9218363761901855,-0.28235307335853577
1772728914485313800,8.200313720703125,9.891928672790527,3.9433717727661133,-0.1698904037475586
1772728914494831600,8.20983154296875,9.975677490234375,3.964907169342041,-0.05742774158716202
1772728914504350000,8.219349853515626,9.891928672790527,4.015156269073486,0.07657032459974289
1772728914513867800,8.22886767578125,9.619147300720215,4.132404804229736,0.17946170270442963
1772728914523385900,8.2383857421875,9.305686950683594,4.244867324829102,0.2679961323738098
1772728914532904000,8.247904052734375,8.95394229888916,4.395615100860596,0.2225325107574463
1772728914542422000,8.257422119140625,8.717052459716797,4.54636287689209,0.12442677468061447
1772728914551940000,8.266940185546876,8.640482902526855,4.666004180908203,0.02871387079358101
1772728914561458200,8.276458251953125,8.652446746826172,4.721039295196533,-0.10049854964017868
1772728914570976300,8.285976318359374,8.726624488830566,4.73300313949585,-0.26560330390930176
1772728914580494300,8.295494384765625,8.894122123718262,4.706682205200195,-0.3732803463935852
1772728914590012400,8.305012451171875,9.166903495788574,4.644468784332275,-0.519242525100708
1772728914599530500,8.314530517578126,9.473184585571289,4.567898273468018,-0.6269195079803467
1772728914609048300,8.32404833984375,9.827322959899902,4.457828521728516,-0.6484549641609192
1772728914618566400,8.33356640625,10.162318229675293,4.35254430770874,-0.6149554252624512
1772728914628084500,8.34308447265625,10.511670112609863,4.225724697113037,-0.5718846321105957
1772728914637602600,8.3526025390625,10.801201820373535,4.120440483093262,-0.5359922647476196
1772728914647120600,8.36212060546875,10.971092224121094,4.0319061279296875,-0.5048855543136597
1772728914656638700,8.371638671875,10.925628662109375,4.041477680206299,-0.47617170214653015
1772728914666156800,8.38115673828125,10.75813102722168,4.094119548797607,-0.4713860750198364
1772728914675675000,8.3906748046875,10.581061363220215,4.151547431945801,-0.5024927258491516
1772728914685193000,8.40019287109375,10.39202880859375,4.213760852813721,-0.6580262184143066
1772728914694711000,8.4097109375,10.258030891418457,4.2592244148254395,-0.8303094506263733
1772728914704229000,8.41922900390625,10.272387504577637,4.2831525802612305,-1.0289137363433838
1772728914713747000,8.428746826171874,10.286744117736816,4.309473514556885,-1.210768222808838
1772728914723265300,8.438265380859375,10.293923377990723,4.326223373413086,-1.332802176475525
1772728914732783000,8.447783203125,10.351350784301758,4.280759811401367,-1.4452649354934692
1772728914742301200,8.45730126953125,10.370492935180664,4.201796531677246,-1.5194423198699951
1772728914751819300,8.4668193359375,10.39920711517334,4.041477680206299,-1.552941918373108
1772728914761337300,8.47633740234375,10.456634521484375,3.8883368968963623,-1.6342978477478027
1772728914770855400,8.48585546875,10.693524360656738,3.634697675704956,-1.6941183805465698
1772728914780373500,8.49537353515625,11.040483474731445,3.263810157775879,-1.8161523342132568
1772728914789891600,8.5048916015625,11.35633659362793,2.912065267562866,-1.947757601737976
1772728914799409700,8.51440966796875,11.282158851623535,2.5076780319213867,-1.9094724655151367
1772728914808927700,8.523927734375,10.853843688964844,2.201396942138672,-1.6821542978286743
1772728914818445600,8.533445556640626,10.133604049682617,2.100898265838623,-1.4333007335662842
1772728914827963600,8.542963623046875,9.20279598236084,2.170290231704712,-1.2394821643829346
1772728914837481700,8.552481689453124,8.403593063354492,2.368894338607788,-1.1820544004440308
1772728914846999800,8.561999755859375,7.704888820648193,2.60339093208313,-1.277767300605774
1772728914856518000,8.571517822265625,7.156932353973389,2.7732813358306885,-1.3256237506866455
1772728914866036000,8.581035888671876,6.812366008758545,2.926422119140625,-1.2873386144638062
1772728914875554000,8.590553955078125,6.750152587890625,3.012563705444336,-1.2945170402526855
1772728914885072100,8.600072021484374,7.044469833374023,2.9934210777282715,-1.4572290182113647
1772728914894590200,8.609590087890625,7.630711555480957,2.940778970718384,-1.5744773149490356
1772728914904108300,8.6191083984375,8.214560508728027,2.833101987838745,-1.5385849475860596
1772728914913626000,8.628626220703126,8.748159408569336,2.706282377243042,-1.5050854682922363
1772728914923144400,8.63814453125,9.183652877807617,2.59621262550354,-1.5026925802230835
1772728914932662300,8.647662353515624,9.492327690124512,2.562713146209717,-1.373480200767517
1772728914942180400,8.657180419921875,9.686145782470703,2.6009981632232666,-1.3160524368286133
1772728914951698400,8.666698486328125,9.760323524475098,2.6536402702331543,-1.1054840087890625
1772728914961216500,8.676216552734376,9.762716293334961,2.667997360229492,-0.8183453679084778
1772728914970734600,8.685734619140625,9.621540069580078,2.6967110633850098,-0.638883650302887
1772728914980252700,8.695252685546874,9.430113792419434,2.7326035499572754,-0.5264210104942322
1772728914989770800,8.704770751953125,9.229117393493652,2.8043880462646484,-0.4211367964744568
1772728914999288800,8.714288818359375,8.906085968017578,2.9455647468566895,-0.3326023519039154
1772728915008807000,8.723806884765626,8.621339797973633,3.1585259437561035,-0.19381862878799438
1772728915018324700,8.73332470703125,8.243273735046387,3.3020951747894287,-0.16031911969184875
1772728915027842800,8.7428427734375,7.83410120010376,3.397808074951172,-0.12681959569454193
1772728915037361000,8.75236083984375,7.479963779449463,3.5341989994049072,-0.1052841991186142
1772728915046879000,8.76187890625,7.137789726257324,3.651447296142578,-0.08614161610603333
1772728915056397000,8.77139697265625,6.872186660766602,3.7016966342926025,-0.1339980661869049
1772728915065915100,8.7809150390625,6.764509677886963,3.775874137878418,-0.14117653667926788
1772728915075433200,8.79043310546875,6.845865726470947,3.806980848312378,-0.16510476171970367
1772728915084951300,8.799951416015626,7.10429048538208,3.8333017826080322,-0.21296121180057526
1772728915094469400,8.809469482421875,7.506284713745117,3.7974095344543457,-0.3924229145050049
1772728915103987500,8.818987548828124,7.970492362976074,3.7423746585845947,-0.5024927258491516
1772728915113505300,8.82850537109375,8.4562349319458,3.675375461578369,-0.5814558863639832
1772728915123023600,8.838023681640625,8.851051330566406,3.627519130706787,-0.6173482537269592
1772728915132541400,8.84754150390625,9.145368576049805,3.6059837341308594,-0.6484549641609192
1772728915142059500,8.8570595703125,9.513862609863281,3.5988051891326904,-0.6484549641609192
1772728915151577600,8.86657763671875,9.851250648498535,3.589233875274658,-0.6675975322723389
1772728915161095700,8.876095703125,10.03310489654541,3.603590965270996,-0.7178468108177185
1772728915170613800,8.88561376953125,10.078569412231445,3.641875982284546,-0.8159525394439697
1772728915180131800,8.8951318359375,9.985248565673828,3.6849467754364014,-0.8662018179893494
1772728915189650000,8.90464990234375,9.827322959899902,3.7710886001586914,-0.8757730722427368
1772728915199168000,8.91416796875,9.571290969848633,3.8668015003204346,-0.8446664214134216
1772728915208686000,8.92368603515625,9.293723106384277,3.988835334777832,-0.7250252366065979
1772728915218204000,8.933203857421875,9.083154678344727,4.106083869934082,-0.607776939868927
1772728915227722000,8.942721923828126,8.94676399230957,4.271188259124756,-0.6197410821914673
1772728915237240000,8.952239990234375,8.886942863464355,4.4243292808532715,-0.7034898400306702
1772728915246758100,8.961758056640624,8.877371788024902,4.548755645751953,-0.7489534616470337
1772728915256276200,8.971276123046875,9.004191398620605,4.596612453460693,-0.7489534616470337
1772728915265794300,8.980794189453125,9.21715259552002,4.59421968460083,-0.727418065071106
1772728915275312400,8.9903125,9.559326171875,4.567898273468018,-0.5790630578994751
1772728915284830500,8.99983056640625,9.970891952514648,4.481756687164307,-0.4259224236011505
1772728915294348500,9.0093486328125,10.459028244018555,4.359723091125488,-0.38285163044929504
1772728915303866600,9.01886669921875,10.942378044128418,4.211368083953857,-0.4043870270252228
1772728915313384400,9.028384521484375,11.380264282226562,4.051048755645752,-0.5623133182525635
1772728915322902800,9.03790283203125,11.660224914550781,3.9601213932037354,-0.7968099117279053
1772728915332420600,9.047420654296875,11.810972213745117,3.9601213932037354,-0.9212366938591003
1772728915341938700,9.056938720703124,11.846864700317383,4.0079779624938965,-1.0360921621322632
1772728915351456800,9.066456787109376,11.722437858581543,4.0319061279296875,-1.1485549211502075
1772728915360974800,9.075974853515625,11.499905586242676,4.122833251953125,-1.155733346939087
1772728915370493000,9.085492919921874,11.315658569335938,4.153940200805664,-1.1174482107162476
1772728915380011000,9.095010986328125,11.081161499023438,4.158725738525391,-1.1102696657180786
1772728915389528800,9.10452880859375,10.901700019836426,4.175475597381592,-1.1030912399291992
1772728915399047000,9.114046875,10.796415328979492,4.146761417388916,-1.153340458869934
1772728915408565000,9.12356494140625,10.791629791259766,4.048655986785889,-1.2299108505249023
1772728915418083000,9.1330830078125,10.863414764404297,3.900300979614258,-1.2299108505249023
1772728915427601200,9.14260107421875,10.961520195007324,3.737588882446289,-1.1653046607971191
1772728915437119200,9.152119140625,10.999805450439453,3.579662561416626,-1.1150553226470947
1772728915446637300,9.16163720703125,10.999805450439453,3.438486099243164,-1.1509476900100708
1772728915456155400,9.1711552734375,10.992627143859863,3.3092737197875977,-1.1676974296569824
1772728915465673500,9.180673583984374,11.00459098815918,3.10109806060791,-1.155733346939087
1772728915475191600,9.190191650390625,11.073983192443848,2.871387243270874,-1.0552347898483276
1772728915484709600,9.199709716796875,11.006983757019043,2.60339093208313,-0.8398807644844055
1772728915494227500,9.2092275390625,10.703095436096191,2.3712873458862305,-0.4905286431312561
1772728915503745800,9.218745849609375,10.1814603805542,2.1655044555664062,-0.13878370821475983
1772728915513263600,9.228263671875,9.525827407836914,2.0745773315429688,0.11724831163883209
1772728915522781700,9.23778173828125,8.963513374328613,2.053041934967041,0.3206382393836975
1772728915532299800,9.2472998046875,8.482556343078613,2.0865414142608643,0.35892340540885925
1772728915541817900,9.25681787109375,7.956135272979736,2.1607189178466797,0.3613162338733673
1772728915551336000,9.2663359375,7.436892986297607,2.2707886695861816,0.4163511395454407
1772728915560854000,9.27585400390625,6.970292568206787,2.3952155113220215,0.5527420043945312
1772728915570372000,9.2853720703125,6.6113691329956055,2.4287149906158447,0.7489534616470337
1772728915579890200,9.29489013671875,6.419943332672119,2.5124638080596924,0.8422735929489136
1772728915589408300,9.304408203125,6.369693756103516,2.6153552532196045,0.6628118753433228
1772728915598926000,9.313926025390625,6.453442573547363,2.7804598808288574,0.3852444589138031
1772728915608444200,9.323444091796874,6.668796539306641,2.8689942359924316,0.19142581522464752
1772728915617962200,9.332962158203125,7.054041385650635,2.9144580364227295,0.01196411345154047
1772728915627480300,9.342480224609375,7.609176158905029,2.9144580364227295,-0.14835500717163086
1772728915636998400,9.351998291015626,8.097311973571777,2.8283164501190186,-0.2991028428077698
1772728915646516500,9.3615166015625,8.623732566833496,2.723032236099243,-0.4977070987224579
1772728915656034600,9.37103466796875,9.205188751220703,2.6273193359375,-0.6843472719192505
1772728915665552600,9.380552734375,9.915857315063477,2.620140790939331,-0.8925228714942932
1772728915675070500,9.390070556640625,10.514062881469727,2.612962245941162,-0.9619147181510925
1772728915684588800,9.3995888671875,10.899307250976562,2.6488547325134277,-0.8374879360198975
1772728915694106600,9.409106689453125,10.786844253540039,2.699103832244873,-0.7800601720809937
1772728915703624700,9.418624755859375,10.188638687133789,2.857030153274536,-0.6699903607368469
1772728915713142800,9.428142822265626,9.308079719543457,3.0412776470184326,-0.5599204897880554
1772728915722660900,9.437660888671875,8.528019905090332,3.273381471633911,-0.4570291340351105
1772728915732179000,9.447178955078124,7.984848976135254,3.452843189239502,-0.43549370765686035
1772728915741697000,9.456697021484375,7.625925540924072,3.601198196411133,-0.3756731450557709
1772728915751215000,9.466215087890625,7.336394309997559,3.675375461578369,-0.33499518036842346
1772728915760733200,9.475733154296876,7.159325122833252,3.7256247997283936,-0.2392822653055191
1772728915770251000,9.4852509765625,7.087540626525879,3.78544545173645,-0.2512463629245758
1772728915779769300,9.494769287109374,7.2095746994018555,3.8021950721740723,-0.3086741268634796
1772728915789287200,9.504287109375,7.487142086029053,3.792623996734619,-0.40677985548973083
1772728915798805200,9.51380517578125,7.8795647621154785,3.809373617172241,-0.48574298620224
1772728915808323300,9.5233232421875,8.252845764160156,3.799802303314209,-0.5934200286865234
1772728915817841400,9.53284130859375,8.662017822265625,3.7974095344543457,-0.6221339106559753
1772728915827359500,9.542359375,9.016156196594238,3.7806596755981445,-0.5264210104942322
1772728915836877600,9.551877685546875,9.20997428894043,3.8021950721740723,-0.4043870270252228
1772728915846395600,9.561395751953125,9.300901412963867,3.7878382205963135,-0.25363919138908386
1772728915855913700,9.570913818359376,9.391828536987305,3.830909013748169,-0.18424734473228455
1772728915865431800,9.580431884765625,9.387042999267578,3.91705060005188,-0.16271193325519562
1772728915874949600,9.58994970703125,9.379864692687988,4.005585193634033,-0.13160525262355804
1772728915884467700,9.5994677734375,9.34157943725586,4.027120590209961,-0.04307080805301666
1772728915893985800,9.60898583984375,9.322437286376953,4.098905086517334,0.02871387079358101
1772728915903504000,9.61850390625,9.30329418182373,4.180261135101318,0.038285162299871445
1772728915913022000,9.62802197265625,9.324830055236816,4.314259052276611,-0.07178468257188797
1772728915922540000,9.6375400390625,9.384650230407715,4.417150497436523,-0.23210379481315613
1772728915932058000,9.64705810546875,9.509077072143555,4.445864677429199,-0.39481574296951294
1772728915941576200,9.656576171875,9.698110580444336,4.409972190856934,-0.4977070987224579
1772728915951094000,9.666093994140626,9.827322959899902,4.383651256561279,-0.5240281820297241
1772728915960612400,9.6756123046875,9.889535903930664,4.374079704284668,-0.5264210104942322
1772728915970130200,9.685130126953124,9.882357597351074,4.362115859985352,-0.5072783827781677
1772728915979648300,9.694648193359376,9.879964828491211,4.328616142272949,-0.44745782017707825
1772728915989166300,9.704166259765625,9.994820594787598,4.311866283416748,-0.5048855543136597
1772728915998684400,9.713684326171874,10.200602531433105,4.266402721405029,-0.5431707501411438
1772728916008202500,9.723202392578125,10.356136322021484,4.225724697113037,-0.5335994362831116
1772728916017720600,9.732720458984375,10.401599884033203,4.223331928253174,-0.45224347710609436
1772728916027238700,9.74223876953125,10.341779708862305,4.216153621673584,-0.4666004180908203
1772728916036756700,9.7517568359375,10.126425743103027,4.271188259124756,-0.46420758962631226
1772728916046274600,9.761274658203124,9.891928672790527,4.383651256561279,-0.5407779216766357
1772728916055792600,9.770792724609375,9.705288887023926,4.453042984008789,-0.6245267391204834
1772728916065310700,9.780310791015625,9.726823806762695,4.323830604553223,-0.607776939868927
1772728916074828800,9.789828857421876,9.54496955871582,4.340580463409424,-0.7465606927871704
1772728916084347000,9.799346923828125,9.394221305847168,4.405186653137207,-1.0432707071304321
1772728916093865000,9.808864990234374,9.76989459991455,4.438685894012451,-1.428515076637268
1772728916103383000,9.818383056640625,10.48534870147705,4.280759811401367,-1.7563318014144897
1772728916112901000,9.827901123046875,11.105090141296387,4.000799655914307,-1.6821542978286743
1772728916122419200,9.837419189453126,11.406585693359375,3.768695592880249,-1.454836130142212
1772728916131937000,9.84693701171875,11.686545372009277,3.4887354373931885,-1.191625714302063
