time,seconds_elapsed,z,y,x
1772728906365295400,0.08029541015625,0,0,0
1772728906374813400,0.0898134765625,-0.2489299774169922,0.04174685478210449,0.007395386695861816
1772728906384331500,0.09933154296875,-0.4388437271118164,0.05585122108459473,0.019241690635681152
1772728906393849600,0.108849609375,-0.5304231643676758,0.036086082458496094,-0.0049980878829956055
1772728906403367700,0.11836767578125,-0.5442066192626953,-0.007843017578125,-0.09838008880615234
1772728906412885500,0.127885498046875,-0.4762992858886719,-0.019554615020751953,-0.13395750522613525
1772728906422403600,0.137403564453125,-0.27620792388916016,-0.038461923599243164,-0.24319016933441162
1772728906431921700,0.146921630859375,-0.09552574157714844,-0.021964311599731445,-0.32354116439819336
1772728906441439700,0.156439697265625,0.03619670867919922,0.02285289764404297,-0.41787195205688477
1772728906450957800,0.165957763671875,0.11005687713623047,0.03621411323547363,-0.47910070419311523
1772728906460476000,0.175475830078125,0.20898818969726562,0.037779808044433594,-0.49321961402893066
1772728906469994000,0.184993896484375,0.4224405288696289,0.018505334854125977,-0.38304662704467773
1772728906479512000,0.194511962890625,0.6228961944580078,-0.021370410919189453,-0.3112832307815552
1772728906489030100,0.204030029296875,0.7889871597290039,-0.024012088775634766,-0.1918487548828125
1772728906498548200,0.21354833984375,0.9219474792480469,-0.028139829635620117,-0.04488718509674072
1772728906508066300,0.22306640625,1.0514545440673828,-0.0052013397216796875,0.061149001121520996
1772728906517584400,0.23258447265625,1.081618309020996,0.0787360668182373,0.16315758228302002
1772728906527102500,0.2421025390625,0.9370527267456055,0.15242385864257812,0.23023605346679688
1772728906536620500,0.25162060546875,0.6856069564819336,0.20904135704040527,0.4150925874710083
1772728906546138600,0.261138671875,0.4042186737060547,0.19324707984924316,0.711455225944519
1772728906555656700,0.27065673828125,0.17986774444580078,0.09167957305908203,0.95747971534729
1772728906565174800,0.2801748046875,0.059668540954589844,0.11206984519958496,1.1140329837799072
1772728906574692900,0.28969287109375,-0.09622955322265625,0.12322878837585449,1.1800271272659302
1772728906584211000,0.2992109375,-0.3906087875366211,0.2049884796142578,1.1046433448791504
1772728906593729000,0.30872900390625,-0.7053909301757812,0.31182861328125,0.9536051154136658
1772728906603246800,0.318246826171875,-0.9174346923828125,0.35102009773254395,0.8549696803092957
1772728906612765200,0.32776513671875,-1.0179710388183594,0.46013760566711426,0.8144063353538513
1772728906622283000,0.337282958984375,-1.0303220748901367,0.5457115173339844,0.6986896991729736
1772728906631801000,0.346801025390625,-0.9813194274902344,0.6422195434570312,0.5660092830657959
1772728906641319200,0.356319091796875,-0.9428348541259766,0.6626284122467041,0.4545717239379883
1772728906650837200,0.365837158203125,-0.8172664642333984,0.6949284076690674,0.3437836170196533
1772728906660355300,0.375355224609375,-0.5393733978271484,0.7024738788604736,0.2231825590133667
1772728906669873400,0.384873291015625,-0.18873882293701172,0.7114274501800537,0.17456793785095215
1772728906679391500,0.3943916015625,0.171722412109375,0.7029168605804443,0.16028082370758057
1772728906688909600,0.40390966796875,0.4875154495239258,0.6635317802429199,0.17286133766174316
1772728906698427600,0.413427734375,0.7167243957519531,0.6485302448272705,0.2396761178970337
1772728906707945700,0.42294580078125,0.7527484893798828,0.6477653980255127,0.2948436737060547
1772728906717463800,0.4324638671875,0.7287693023681641,0.6541335582733154,0.30644500255584717
1772728906726982000,0.44198193359375,0.7068748474121094,0.6813404560089111,0.31504178047180176
1772728906736500000,0.4515,0.6496429443359375,0.6895604133605957,0.2820359468460083
1772728906746018000,0.46101806640625,0.5931987762451172,0.7067153453826904,0.2304610013961792
1772728906755536000,0.470535888671875,0.6146421432495117,0.720489501953125,0.23523402214050293
1772728906765054200,0.48005419921875,0.5998010635375977,0.7404341697692871,0.2987472414970398
1772728906774572300,0.489572265625,0.4908113479614258,0.7345337867736816,0.28260743618011475
1772728906784090400,0.49909033203125,0.37161731719970703,0.8064656257629395,0.23414981365203857
1772728906793608200,0.508608154296875,0.30699920654296875,0.8600418567657471,0.2944161891937256
1772728906803126500,0.51812646484375,0.2458486557006836,0.895200252532959,0.3229919672012329
1772728906812644400,0.527644287109375,0.1314716339111328,0.9771418571472168,0.2968146800994873
1772728906822162400,0.537162353515625,0.17810821533203125,1.1262836456298828,0.19630134105682373
1772728906831680500,0.546680419921875,0.29091644287109375,1.3153352737426758,0.08630585670471191
1772728906841198600,0.556198486328125,0.4730033874511719,1.3542475700378418,-0.0246049165725708
1772728906850716700,0.565716552734375,0.6393213272094727,1.2684407234191895,-0.13677763938903809
1772728906860234800,0.57523486328125,0.8970413208007812,1.2503492832183838,-0.16430163383483887
1772728906869752800,0.5847529296875,1.2153911590576172,1.2183749675750732,-0.23203837871551514
1772728906879271000,0.59427099609375,1.521097183227539,1.1687719821929932,-0.2210150957107544
1772728906888789000,0.6037890625,1.8071680068969727,0.8765184879302979,-0.047489285469055176
1772728906898307000,0.61330712890625,1.9047279357910156,0.6913270950317383,0.11111927032470703
1772728906907825200,0.6228251953125,1.924941062927246,0.7427496910095215,0.05730104446411133
1772728906917343200,0.63234326171875,1.9393234252929688,0.8482522964477539,0.09131741523742676
1772728906926861300,0.641861328125,1.7708492279052734,0.8583364486694336,0.10903692245483398
1772728906936379400,0.65137939453125,1.5516071319580078,0.7645606994628906,0.25763607025146484
1772728906945897500,0.6608974609375,1.3338937759399414,0.7933518886566162,0.3959704637527466
1772728906955415600,0.67041552734375,1.2659950256347656,0.7569465637207031,0.6032449007034302
1772728906964933600,0.67993359375,1.2349328994750977,0.6590826511383057,0.7228010892868042
1772728906974451700,0.68945166015625,1.1806201934814453,0.5842859745025635,0.7058632969856262
1772728906983969500,0.698969482421875,1.2389898300170898,0.5711648464202881,0.4917745590209961
1772728906993488000,0.70848779296875,1.3799781799316406,0.39246463775634766,0.36769235134124756
1772728907003005700,0.718005615234375,1.5234594345092773,0.1468644142150879,0.30682599544525146
1772728907012524000,0.72752392578125,1.8150453567504883,-0.15483307838439941,0.36469709873199463
1772728907022041900,0.737041748046875,2.0418214797973633,-0.4845125675201416,0.48787128925323486
1772728907031560000,0.746559814453125,2.037607192993164,-0.7720401287078857,0.5972106456756592
1772728907041078000,0.756078125,1.8641777038574219,-0.9755618572235107,0.598061203956604
1772728907050596000,0.76559619140625,1.4949398040771484,-0.9858684539794922,0.5881166458129883
1772728907060114200,0.7751142578125,1.0170669555664062,-0.997157096862793,0.5616491436958313
1772728907069632300,0.78463232421875,0.5968780517578125,-1.01552414894104,0.5483230352401733
1772728907079150300,0.794150390625,0.27315616607666016,-1.1391644477844238,0.6888407468795776
1772728907088668400,0.80366845703125,0.025522232055664062,-1.2793424129486084,0.9259570240974426
1772728907098186500,0.8131865234375,-0.14245319366455078,-1.3879857063293457,1.238512396812439
1772728907107704600,0.82270458984375,-0.4728431701660156,-1.4218063354492188,1.3218930959701538
1772728907117222700,0.83222265625,-0.9262447357177734,-1.4584789276123047,1.3315213918685913
1772728907126740700,0.84174072265625,-1.0880169868469238,-1.4479541778564453,1.1944448947906494
1772728907136258800,0.8512587890625,-1.0896196365356445,-1.285820722579956,1.0900652408599854
1772728907145777000,0.86077685546875,-1.1926326751708984,-1.1312665939331055,0.9731111526489258
1772728907155295000,0.870294921875,-1.1671857833862305,-1.0351371765136719,0.8358294367790222
1772728907164813000,0.87981298828125,-1.0136995315551758,-0.9340724945068359,0.788295328617096
1772728907174331000,0.889330810546875,-0.7530679702758789,-0.8684964179992676,0.7554877996444702
1772728907183849200,0.89884912109375,-0.49833106994628906,-0.8238503932952881,0.7287255525588989
1772728907193367000,0.908366943359375,-0.2838869094848633,-0.8580031394958496,0.7478220462799072
1772728907202885400,0.917885498046875,-0.12104511260986328,-0.8490266799926758,0.7706069946289062
1772728907212403200,0.9274033203125,0.059508323669433594,-0.8120899200439453,0.5706844329833984
1772728907221921500,0.936921630859375,0.43332862854003906,-0.7213649749755859,0.2628036141395569
1772728907231439400,0.946439453125,0.8054819107055664,-0.7014236450195312,-0.019472241401672363
1772728907240957400,0.95595751953125,1.0094375610351562,-0.6505453586578369,-0.12683963775634766
1772728907250475500,0.9654755859375,0.9913864135742188,-0.5923168659210205,-0.03660690784454346
1772728907259993600,0.97499365234375,0.7896003723144531,-0.5581614971160889,0.12584829330444336
1772728907269511700,0.98451171875,0.46756649017333984,-0.45283985137939453,0.20329850912094116
1772728907279029800,0.99402978515625,0.012354850769042969,-0.3238670825958252,0.17451345920562744
1772728907288547800,1.0035478515625,-0.4281291961669922,-0.15150833129882812,0.08603835105895996
1772728907298066000,1.01306591796875,-0.84088134765625,-0.011959314346313477,0.05266004800796509
1772728907307584000,1.022583984375,-1.1538820266723633,0.05707979202270508,0.013203263282775879
1772728907317102000,1.03210205078125,-1.2836942672729492,0.0484468936920166,0.05144035816192627
1772728907326620200,1.0416201171875,-1.3038711547851562,0.018583059310913086,0.0913766622543335
1772728907336138200,1.05113818359375,-1.2042064666748047,0.03475666046142578,0.030597567558288574
1772728907345656300,1.06065625,-1.028787612915039,0.06805992126464844,-0.01687800884246826
1772728907355174400,1.07017431640625,-0.9324626922607422,0.06863880157470703,-0.08038467168807983
1772728907364692500,1.0796923828125,-0.8005266189575195,0.06981182098388672,-0.11386817693710327
1772728907374210600,1.08921044921875,-0.6425724029541016,0.08031487464904785,-0.099678635597229
1772728907383728400,1.098728271484375,-0.4396953582763672,0.0663151741027832,-0.09354519844055176
1772728907393246700,1.108246826171875,-0.27022266387939453,0.06533575057983398,-0.07378792762756348
1772728907402764500,1.1177646484375,-0.07421302795410156,0.06218767166137695,-0.04064023494720459
1772728907412283000,1.127282958984375,0.11997699737548828,0.09399747848510742,-0.013465046882629395
1772728907421800700,1.13680078125,0.19903564453125,0.13820958137512207,0.04208177328109741
1772728907431319000,1.146319091796875,0.1998767852783203,0.2441258430480957,0.17465460300445557
1772728907440836900,1.1558369140625,0.2326374053955078,0.3274247646331787,0.27033114433288574
1772728907450355000,1.16535498046875,0.27105140686035156,0.4402589797973633,0.369912326335907
1772728907459873000,1.174873046875,0.20589447021484375,0.5588803291320801,0.4357202649116516
1772728907469391000,1.18439111328125,0.14231300354003906,0.6695847511291504,0.4787062406539917
1772728907478909200,1.1939091796875,0.12047481536865234,0.7376039028167725,0.4982825815677643
1772728907488427300,1.20342724609375,0.22329044342041016,0.765286922454834,0.5571504831314087
1772728907497945300,1.2129453125,0.40985965728759766,0.7990717887878418,0.5476518273353577
1772728907507463400,1.22246337890625,0.6036205291748047,0.788672924041748,0.499938428401947
1772728907516981500,1.2319814453125,0.6070241928100586,0.797468900680542,0.44233280420303345
1772728907526499600,1.24149951171875,0.5441675186157227,0.8321094512939453,0.38599228858947754
1772728907536017700,1.251017578125,0.4955940246582031,0.8605787754058838,0.26544809341430664
1772728907545535700,1.26053564453125,0.5892362594604492,0.8781590461730957,0.15574580430984497
1772728907555053800,1.2700537109375,0.8504390716552734,0.8481566905975342,0.027145087718963623
1772728907564572000,1.279572021484375,1.0764198303222656,0.8151917457580566,-0.042441606521606445
1772728907574089700,1.28908984375,1.1345453262329102,0.7817158699035645,-0.08634543418884277
1772728907583608000,1.298608154296875,1.164088249206543,0.7378749847412109,-0.10835999250411987
1772728907593126000,1.3081259765625,1.106123924255371,0.7526085376739502,-0.08260059356689453
1772728907602644200,1.317644287109375,1.0040912628173828,0.738140344619751,0.009978830814361572
1772728907612162000,1.327162109375,1.0055885314941406,0.7163534164428711,0.06631994247436523
1772728907621680000,1.33668017578125,1.0048818588256836,0.7192208766937256,0.010331332683563232
1772728907631198200,1.3461982421875,0.9970636367797852,0.7468280792236328,-0.20297110080718994
1772728907640716300,1.35571630859375,1.0557737350463867,0.7895786762237549,-0.42293548583984375
1772728907650234400,1.365234375,1.0396957397460938,0.8321254253387451,-0.6747919917106628
1772728907659752400,1.37475244140625,1.0050268173217773,0.7822420597076416,-0.8870428800582886
1772728907669270500,1.3842705078125,1.0600509643554688,0.6214478015899658,-1.06688392162323
1772728907678788600,1.39378857421875,1.2940397262573242,0.32714319229125977,-1.1669187545776367
1772728907688306700,1.403306640625,1.6587190628051758,0.019661664962768555,-1.1855870485305786
1772728907697824800,1.41282470703125,2.0136518478393555,-0.19846320152282715,-1.3162472248077393
1772728907707342800,1.4223427734375,2.2892837524414062,-0.5508770942687988,-1.4890862703323364
1772728907716861000,1.43186083984375,2.5265769958496094,-0.9236843585968018,-1.5422978401184082
1772728907726379000,1.44137890625,2.436741828918457,-1.1519441604614258,-1.460585117340088
1772728907735897000,1.45089697265625,1.9082012176513672,-1.34560227394104,-1.400299072265625
1772728907745415200,1.460415283203125,1.2795820236206055,-1.542971134185791,-1.2546266317367554
1772728907754933200,1.469933349609375,0.8330059051513672,-1.6696689128875732,-0.9917455911636353
1772728907764451300,1.479451416015625,0.5085363388061523,-1.7015303373336792,-0.7728961110115051
1772728907773969400,1.488969482421875,0.13659095764160156,-1.6650965213775635,-0.6714337468147278
1772728907783487200,1.4984873046875,-0.35025501251220703,-1.552790880203247,-0.6634323000907898
1772728907793005300,1.50800537109375,-0.9559793472290039,-1.370980978012085,-0.7004449367523193
1772728907802523400,1.5175234375,-1.5400118827819824,-1.0921361446380615,-0.9038047790527344
1772728907812041500,1.52704150390625,-1.8594017028808594,-0.8796300888061523,-1.1665551662445068
1772728907821559600,1.5365595703125,-1.9049572944641113,-0.7100188732147217,-1.3234119415283203
1772728907831077600,1.54607763671875,-1.6167593002319336,-0.6596548557281494,-1.40782630443573
1772728907840595700,1.555595703125,-1.1963157653808594,-0.7244391441345215,-1.385157585144043
1772728907850113800,1.56511376953125,-0.7482147216796875,-0.8301153182983398,-1.3295738697052002
1772728907859631900,1.5746318359375,-0.2931985855102539,-0.9288647174835205,-1.2667028903961182
1772728907869150000,1.58414990234375,0.10524177551269531,-1.0087082386016846,-1.1770670413970947
1772728907878668000,1.59366796875,0.5147933959960938,-1.1151244640350342,-0.9807368516921997
1772728907888186000,1.60318603515625,0.7096147537231445,-1.0558693408966064,-0.7034672498703003
1772728907897704200,1.6127041015625,0.6931972503662109,-1.083108901977539,-0.5136452913284302
1772728907907222300,1.62222216796875,0.46190929412841797,-1.1213665008544922,-0.23951172828674316
1772728907916740400,1.631740234375,0.18639564514160156,-1.0778603553771973,-0.01971966028213501
1772728907926258400,1.641258544921875,-0.05609607696533203,-1.0110056400299072,0.2097567319869995
1772728907935776500,1.650776611328125,-0.2504253387451172,-0.877622127532959,0.43315500020980835
1772728907945294300,1.66029443359375,-0.35790157318115234,-0.7255740165710449,0.5909991264343262
1772728907954812700,1.669812744140625,-0.41167449951171875,-0.60225510597229,0.6285311579704285
1772728907964330500,1.67933056640625,-0.5355968475341797,-0.44138169288635254,0.6255748867988586
1772728907973848800,1.688848876953125,-0.7152595520019531,-0.31618380546569824,0.5852178931236267
1772728907983366700,1.69836669921875,-0.9250993728637695,-0.23604750633239746,0.5044148564338684
1772728907992884700,1.707884765625,-1.1639537811279297,-0.17838811874389648,0.4120832085609436
1772728908002402800,1.71740283203125,-1.4212579727172852,-0.14914441108703613,0.29618173837661743
1772728908011921000,1.7269208984375,-1.6170759201049805,-0.09580254554748535,0.11238270998001099
1772728908021439000,1.73643896484375,-1.666536808013916,-0.03197526931762695,-0.0832793116569519
1772728908030957000,1.74595703125,-1.5823698043823242,0.05858159065246582,-0.21176975965499878
1772728908040475100,1.75547509765625,-1.384110450744629,0.1318683624267578,-0.36831098794937134
1772728908049993200,1.7649931640625,-1.1051225662231445,0.16965913772583008,-0.5084414482116699
1772728908059511300,1.77451123046875,-0.8882160186767578,0.12592124938964844,-0.6061018109321594
1772728908069029400,1.784029296875,-0.7160062789916992,0.23322820663452148,-0.6381807923316956
1772728908078547500,1.79354736328125,-0.566319465637207,0.24927973747253418,-0.6470890045166016
1772728908088065500,1.8030654296875,-0.5126171112060547,0.24778366088867188,-0.638062596321106
1772728908097583600,1.81258349609375,-0.5234603881835938,0.33382105827331543,-0.6601050496101379
1772728908107101700,1.822101806640625,-0.5890989303588867,0.42664146423339844,-0.6162825226783752
1772728908116619500,1.83161962890625,-0.5757770538330078,0.47373390197753906,-0.5981656312942505
1772728908126137900,1.841137939453125,-0.3952770233154297,0.5427393913269043,-0.6180229783058167
1772728908135655700,1.85065576171875,-0.2600126266479492,0.5778236389160156,-0.5551945567131042
1772728908145174000,1.860174072265625,-0.2816610336303711,0.634268045425415,-0.504387617111206
1772728908154691800,1.86969189453125,-0.3382139205932617,0.7482619285583496,-0.4272317886352539
1772728908164210200,1.879210205078125,-0.3443126678466797,0.8324015140533447,-0.37056708335876465
1772728908173728000,1.88872802734375,-0.381805419921875,0.9382157325744629,-0.2999057173728943
1772728908183246000,1.89824609375,-0.36291027069091797,1.0595033168792725,-0.1991666555404663
1772728908192764200,1.90776416015625,-0.2976188659667969,1.1300756931304932,-0.1348656415939331
1772728908202282200,1.9172822265625,-0.13847827911376953,1.209611177444458,-0.023110389709472656
1772728908211800300,1.92680029296875,0.04048633575439453,1.197646141052246,0.0794297456741333
1772728908221318400,1.936318359375,0.2942047119140625,1.1892049312591553,0.12520241737365723
1772728908230836500,1.94583642578125,0.5510053634643555,1.1817748546600342,0.09855997562408447
1772728908240354600,1.9553544921875,0.74700927734375,1.1245934963226318,0.04160737991333008
1772728908249872600,1.96487255859375,1.071305274963379,1.0734121799468994,-0.07091414928436279
1772728908259390700,1.974390625,1.4433708190917969,0.9920685291290283,-0.23634189367294312
1772728908268908800,1.98390869140625,1.8020572662353516,0.9614741802215576,-0.35670924186706543
1772728908278427000,1.993427001953125,1.8882026672363281,0.9496793746948242,-0.3798114061355591
1772728908287945000,2.002945068359375,1.7525835037231445,0.9653375148773193,-0.3153819441795349
1772728908297463000,2.012463134765625,1.4238204956054688,1.0563678741455078,-0.23738276958465576
1772728908306981000,2.021981201171875,0.9967098236083984,1.1402623653411865,-0.1531306505203247
1772728908316499200,2.031499267578125,0.6229429244995117,1.246368169784546,-0.10249996185302734
1772728908326017000,2.04101708984375,0.4705820083618164,1.2786588668823242,-0.07160526514053345
1772728908335535400,2.050535400390625,0.5812034606933594,1.1947174072265625,-0.029025793075561523
1772728908345053200,2.06005322265625,0.7848176956176758,1.0511600971221924,0.045722901821136475
1772728908354571300,2.0695712890625,0.9646081924438477,0.8688626289367676,0.10221147537231445
1772728908364089300,2.07908935546875,1.1544380187988281,0.7087588310241699,0.10650086402893066
1772728908373607400,2.088607421875,1.3662796020507812,0.5059216022491455,0.019459962844848633
1772728908383125500,2.09812548828125,1.5405912399291992,0.33637213706970215,-0.1926446557044983
1772728908392643600,2.1076435546875,1.7854347229003906,0.10765457153320312,-0.4173896312713623
1772728908402161700,2.11716162109375,2.1708898544311523,-0.18105411529541016,-0.5811367630958557
1772728908411679700,2.1266796875,2.6289424896240234,-0.5268750190734863,-0.6778371334075928
1772728908421197800,2.13619775390625,2.884889602661133,-0.8770997524261475,-0.6307249665260315
1772728908430716000,2.1457158203125,2.666898727416992,-1.1787571907043457,-0.3638930916786194
1772728908440234000,2.15523388671875,1.9484167098999023,-1.396939754486084,0.021077513694763184
1772728908449752000,2.164751953125,1.006587028503418,-1.455986499786377,0.3537762463092804
1772728908459270100,2.174270263671875,0.16216373443603516,-1.4826993942260742,0.5949605703353882
1772728908468788200,2.183788330078125,-0.48454761505126953,-1.4660131931304932,0.6652187705039978
1772728908478306300,2.193306396484375,-0.9428892135620117,-1.4222204685211182,0.6899481415748596
1772728908487824400,2.202824462890625,-1.169219970703125,-1.3834261894226074,0.6237320899963379
1772728908497342500,2.212342529296875,-1.231959342956543,-1.370100975036621,0.5017181038856506
1772728908506860300,2.2218603515625,-1.206070899963379,-1.3865687847137451,0.3955730199813843
1772728908516378600,2.231378662109375,-1.1090307235717773,-1.3895494937896729,0.2216528058052063
1772728908525896400,2.240896484375,-0.9821939468383789,-1.3715853691101074,0.039020538330078125
1772728908535414500,2.25041455078125,-0.8547391891479492,-1.3134634494781494,-0.08585041761398315
1772728908544932600,2.2599326171875,-0.7839937210083008,-1.2819998264312744,-0.19394361972808838
1772728908554450700,2.26945068359375,-0.7074680328369141,-1.263310432434082,-0.22927576303482056
1772728908563968800,2.27896875,-0.565281867980957,-1.3035104274749756,-0.14957821369171143
1772728908573486800,2.28848681640625,-0.33544158935546875,-1.3184881210327148,-0.06502735614776611
1772728908583005000,2.2980048828125,-0.03580951690673828,-1.3307719230651855,-0.022474467754364014
1772728908592523000,2.30752294921875,0.1654214859008789,-1.3026196956634521,0.0335962176322937
1772728908602041000,2.317041015625,0.14315319061279297,-1.1926190853118896,0.05257153511047363
1772728908611559200,2.32655908203125,-0.1585683822631836,-1.0366766452789307,0.03832370042800903
1772728908621077200,2.3360771484375,-0.5526065826416016,-0.8537416458129883,0.010339736938476562
1772728908630595300,2.34559521484375,-0.84063720703125,-0.6917314529418945,-0.020474612712860107
1772728908640113400,2.355113525390625,-1.1138954162597656,-0.5332579612731934,-0.010863244533538818
1772728908649631500,2.364631591796875,-1.3875837326049805,-0.40732908248901367,-0.01093292236328125
1772728908659149300,2.3741494140625,-1.677152156829834,-0.2758936882019043,-0.006159663200378418
1772728908668667600,2.383667724609375,-1.9837074279785156,-0.11961174011230469,-0.044094860553741455
1772728908678185500,2.393185546875,-2.2320871353149414,0.011574983596801758,-0.08418810367584229
1772728908687703800,2.402703857421875,-2.3184194564819336,0.1050724983215332,-0.11013829708099365
1772728908697221600,2.4122216796875,-2.1766796112060547,0.19635796546936035,-0.12697136402130127
1772728908706740000,2.421739990234375,-1.8386077880859375,0.2346501350402832,-0.1367853879928589
1772728908716257800,2.4312578125,-1.5548639297485352,0.2933237552642822,-0.17066067457199097
1772728908725776000,2.44077587890625,-1.2844514846801758,0.29804205894470215,-0.19244122505187988
1772728908735294000,2.4502939453125,-0.9245443344116211,0.27697110176086426,-0.1551879644393921
1772728908744812000,2.45981201171875,-0.49410057067871094,0.2412874698638916,-0.11613583564758301
1772728908754330000,2.469330078125,-0.07639026641845703,0.17104625701904297,-0.06153231859207153
1772728908763848200,2.47884814453125,0.3770580291748047,0.10264062881469727,0.021871089935302734
1772728908773366300,2.4883662109375,0.7528781890869141,0.024326562881469727,0.08166277408599854
1772728908782884400,2.49788427734375,1.0241813659667969,0.05005669593811035,0.14949917793273926
1772728908792402400,2.50740234375,1.3237533569335938,0.13558626174926758,0.07113271951675415
1772728908801920500,2.51692041015625,1.511885643005371,0.22564125061035156,0.015501439571380615
1772728908811438600,2.5264384765625,1.582392692565918,0.2639341354370117,0.026424288749694824
1772728908820956700,2.535956787109375,1.4426326751708984,0.30786657333374023,0.19359087944030762
1772728908830474800,2.545474853515625,1.114079475402832,0.37608838081359863,0.3686528205871582
1772728908839992800,2.554992919921875,0.6321678161621094,0.4618346691131592,0.4972766041755676
1772728908849511000,2.564510986328125,0.1609201431274414,0.5701580047607422,0.6105383038520813
1772728908859028700,2.57402880859375,-0.1670999526977539,0.6814923286437988,0.7522068023681641
1772728908868546800,2.583546875,-0.3558635711669922,0.7215621471405029,0.8453242182731628
1772728908878065000,2.59306494140625,-0.38767337799072266,0.6423566341400146,1.1411712169647217
1772728908887583000,2.6025830078125,-0.4941673278808594,0.8236145973205566,0.8722781538963318
1772728908897101000,2.61210107421875,-0.5873441696166992,1.0768663883209229,0.5993419885635376
1772728908906619100,2.621619140625,-0.6466121673583984,1.286742925643921,0.40918296575546265
1772728908916137200,2.63113720703125,-0.5599956512451172,1.470073938369751,0.26864808797836304
1772728908925655300,2.6406552734375,-0.30672264099121094,1.4762015342712402,0.13575690984725952
1772728908935173400,2.65017333984375,0.06970596313476562,1.364609956741333,0.2030564546585083
1772728908944691500,2.65969140625,0.5217151641845703,1.179466962814331,0.35219764709472656
1772728908954209500,2.66920947265625,0.9378890991210938,0.9763336181640625,0.5268200039863586
1772728908963727600,2.6787275390625,1.219285011291504,0.8129408359527588,0.7391235828399658
1772728908973245700,2.68824560546875,1.4361896514892578,0.7308712005615234,0.9193257689476013
1772728908982763800,2.697763671875,1.4891881942749023,0.6933319568634033,1.0721334218978882
1772728908992281900,2.70728173828125,1.4291391372680664,0.7385308742523193,1.0699503421783447
1772728909001800000,2.716800048828125,1.2849979400634766,0.8287544250488281,0.9760020971298218
1772728909011317800,2.72631787109375,1.1640138626098633,0.9170792102813721,0.8127422332763672
1772728909020836000,2.735836181640625,1.1328048706054688,0.9773516654968262,0.5493621826171875
1772728909030354000,2.74535400390625,1.2147712707519531,0.9717292785644531,0.29546236991882324
1772728909039872300,2.754872314453125,1.273550033569336,0.9409303665161133,0.023817241191864014
1772728909049390000,2.76439013671875,1.3446998596191406,0.8569400310516357,-0.2812321186065674
1772728909058908200,2.773908203125,1.4134302139282227,0.680077075958252,-0.5600553750991821
1772728909068426200,2.78342626953125,1.4935855865478516,0.4781355857849121,-0.7818390130996704
1772728909077944300,2.7929443359375,1.5062665939331055,0.28954482078552246,-1.0099029541015625
1772728909087462400,2.80246240234375,1.5829095840454102,0.12811565399169922,-1.276432752609253
1772728909096980500,2.81198046875,1.7378454208374023,-0.10015463829040527,-1.527496576309204
1772728909106498600,2.82149853515625,1.8902959823608398,-0.35610151290893555,-1.7683593034744263
1772728909116016600,2.8310166015625,2.133997917175293,-0.6493079662322998,-1.8991239070892334
1772728909125534700,2.84053466796875,2.410170555114746,-0.9881677627563477,-1.8522722721099854
1772728909135052800,2.850052734375,2.3455915451049805,-1.3465161323547363,-1.5882501602172852
1772728909144571000,2.85957080078125,1.9205503463745117,-1.5549893379211426,-1.2432575225830078
1772728909154089000,2.8690888671875,1.2389287948608398,-1.6653525829315186,-0.9194109439849854
1772728909163607000,2.87860693359375,0.4296712875366211,-1.5912740230560303,-0.7466445565223694
1772728909173125000,2.888125,-0.34343624114990234,-1.4796380996704102,-0.7458036541938782
1772728909182643200,2.897643310546875,-0.9482135772705078,-1.3201828002929688,-0.7530367970466614
1772728909192161300,2.907161376953125,-1.308023452758789,-1.160029649734497,-0.8185003399848938
1772728909201679000,2.91667919921875,-1.5233745574951172,-1.0242345333099365,-0.9396299719810486
1772728909211197200,2.926197265625,-1.586195945739746,-0.9685554504394531,-1.0913574695587158
1772728909220715300,2.93571533203125,-1.4520502090454102,-0.9378345012664795,-1.138179063796997
1772728909230233300,2.9452333984375,-1.2649917602539062,-0.9368839263916016,-1.0978126525878906
1772728909239751400,2.95475146484375,-1.0538644790649414,-0.9398193359375,-0.993818461894989
1772728909249269500,2.96426953125,-0.859095573425293,-0.9521667957305908,-0.860717236995697
1772728909258787600,2.97378759765625,-0.6253385543823242,-0.9892351627349854,-0.7414525151252747
1772728909268305700,2.9833056640625,-0.38070011138916016,-1.0072379112243652,-0.5986617207527161
1772728909277823700,2.99282373046875,-0.13622474670410156,-1.0274806022644043,-0.4713764190673828
1772728909287341800,3.002341796875,0.02515411376953125,-1.0248780250549316,-0.3025493025779724
1772728909296860000,3.01185986328125,-0.015064239501953125,-0.9928452968597412,-0.17102962732315063
1772728909306378000,3.0213779296875,-0.22719955444335938,-0.8838860988616943,-0.0011832118034362793
1772728909315896000,3.03089599609375,-0.44791126251220703,-0.7823796272277832,0.1394219994544983
1772728909325414100,3.0404140625,-0.6001129150390625,-0.7301032543182373,0.2708749771118164
1772728909334932200,3.04993212890625,-0.7095022201538086,-0.6163675785064697,0.35952919721603394
1772728909344450000,3.059449951171875,-0.8380641937255859,-0.5370321273803711,0.4072459936141968
1772728909353968400,3.068968505859375,-0.8881559371948242,-0.5156219005584717,0.49166858196258545
1772728909363486200,3.078486328125,-0.9157571792602539,-0.4764559268951416,0.5571042895317078
1772728909373004500,3.088004638671875,-1.038966178894043,-0.5341734886169434,0.6486877799034119
1772728909382522400,3.0975224609375,-1.1555776596069336,-0.5368678569793701,0.724356472492218
1772728909392040700,3.107040771484375,-1.1869850158691406,-0.4631357192993164,0.690456211566925
1772728909401558500,3.11655859375,-1.267176628112793,-0.43447232246398926,0.6406548023223877
1772728909411076600,3.12607666015625,-1.3052988052368164,-0.4485316276550293,0.7367851138114929
1772728909420594700,3.1355947265625,-1.2489380836486816,-0.3188302516937256,0.7137309908866882
1772728909430112800,3.14511279296875,-1.2129058837890625,-0.16278648376464844,0.5683616995811462
1772728909439630800,3.154630859375,-1.1182260513305664,-0.014554023742675781,0.37339991331100464
1772728909449149000,3.16414892578125,-1.0244369506835938,0.10378217697143555,0.21724474430084229
1772728909458667000,3.1736669921875,-0.8356647491455078,0.17679381370544434,0.05122256278991699
1772728909468185000,3.18318505859375,-0.5373153686523438,0.24834942817687988,-0.09713345766067505
1772728909477703200,3.192703125,-0.3774585723876953,0.2865619659423828,-0.22052693367004395
1772728909487221200,3.20222119140625,-0.2675600051879883,0.27272915840148926,-0.24304181337356567
1772728909496739300,3.2117392578125,-0.2699899673461914,0.3201916217803955,-0.23722410202026367
1772728909506257400,3.22125732421875,-0.3130664825439453,0.3290724754333496,-0.22953635454177856
1772728909515775500,3.230775390625,-0.3895282745361328,0.3784828186035156,-0.24270617961883545
1772728909525293300,3.240293212890625,-0.36778926849365234,0.40352916717529297,-0.25351154804229736
1772728909534811400,3.249811279296875,-0.24516773223876953,0.42908596992492676,-0.2450585961341858
1772728909544329500,3.25932958984375,-0.05726337432861328,0.47042226791381836,-0.2732054591178894
1772728909553847600,3.26884765625,0.02647686004638672,0.5342581272125244,-0.25687849521636963
1772728909563365600,3.27836572265625,-0.03472137451171875,0.6670706272125244,-0.21820956468582153
1772728909572883700,3.2878837890625,-0.19118881225585938,0.792090654373169,-0.22887825965881348
1772728909582401800,3.29740185546875,-0.2905550003051758,0.9274489879608154,-0.2200411558151245
1772728909591919900,3.306919921875,-0.24745845794677734,1.0809698104858398,-0.2143610715866089
1772728909601438000,3.31643798828125,-0.12462329864501953,1.2602930068969727,-0.2414557933807373
1772728909610956000,3.3259560546875,-0.010725021362304688,1.4279065132141113,-0.31906598806381226
1772728909620474000,3.33547412109375,0.1278705596923828,1.4954602718353271,-0.3568936586380005
1772728909629992200,3.3449921875,0.4062385559082031,1.5239052772521973,-0.3803635835647583
1772728909639510300,3.35451025390625,0.7842445373535156,1.4780654907226562,-0.42892855405807495
1772728909649028400,3.3640283203125,1.0859451293945312,1.3753070831298828,-0.5121986865997314
1772728909658546400,3.37354638671875,1.3813190460205078,1.254991054534912,-0.6363873481750488
1772728909668064500,3.383064453125,1.6925201416015625,1.1463444232940674,-0.6681923270225525
1772728909677582300,3.392582275390625,1.9746809005737305,1.042771816253662,-0.7130398154258728
1772728909687100700,3.4021005859375,2.1877946853637695,0.9570505619049072,-0.7298423647880554
1772728909696618500,3.411618408203125,2.136262893676758,0.8990895748138428,-0.7381061315536499
1772728909706136600,3.421136474609375,1.8460283279418945,0.9337430000305176,-0.6825864911079407
1772728909715654700,3.430654541015625,1.3640241622924805,0.985830545425415,-0.6731655597686768
1772728909725172700,3.4401728515625,0.882725715637207,0.9967217445373535,-0.5564935207366943
1772728909734690800,3.44969091796875,0.5419492721557617,1.0094718933105469,-0.37305623292922974
1772728909744209000,3.459208984375,0.2927837371826172,0.9783930778503418,-0.19117820262908936
1772728909753727000,3.46872705078125,0.16561126708984375,0.8902876377105713,0.02118736505508423
1772728909763245000,3.4782451171875,0.15517044067382812,0.7981650829315186,0.1688699722290039
1772728909772763100,3.48776318359375,0.28978538513183594,0.6042625904083252,0.17635059356689453
1772728909782281200,3.49728125,0.6058292388916016,0.3804912567138672,0.060863614082336426
1772728909791799300,3.50679931640625,1.1279830932617188,0.1019282341003418,-0.14827823638916016
1772728909801317400,3.5163173828125,1.701629638671875,-0.315521240234375,-0.29171866178512573
1772728909810835500,3.52583544921875,2.25643253326416,-0.6988329887390137,-0.3698260188102722
1772728909820353500,3.535353515625,2.6241941452026367,-1.0109202861785889,-0.28968846797943115
1772728909829871600,3.54487158203125,2.712924003601074,-1.227501392364502,-0.1374284029006958
1772728909839389400,3.554389404296875,2.43994140625,-1.3677899837493896,-0.00034606456756591797
1772728909848907800,3.56390771484375,1.8366527557373047,-1.4368622303009033,0.12277385592460632
1772728909858425600,3.573425537109375,1.0698423385620117,-1.4839539527893066,0.3516124486923218
1772728909867944000,3.58294384765625,0.31047916412353516,-1.471956491470337,0.6107213497161865
1772728909877461800,3.592461669921875,-0.2919769287109375,-1.4654426574707031,0.8074113726615906
1772728909886979800,3.601979736328125,-0.6451005935668945,-1.5021908283233643,1.013386845588684
1772728909896498000,3.611497802734375,-0.8090448379516602,-1.5255439281463623,1.1482744216918945
1772728909906016000,3.62101611328125,-0.81024169921875,-1.536543846130371,1.2417906522750854
1772728909915534000,3.6305341796875,-0.8446636199951172,-1.4447128772735596,1.2146823406219482
1772728909925052200,3.64005224609375,-0.9365787506103516,-1.4521970748901367,0.9776420593261719
1772728909934570200,3.6495703125,-1.1346073150634766,-1.5038607120513916,0.6288408041000366
1772728909944088300,3.65908837890625,-1.2315974235534668,-1.2922236919403076,0.8126354217529297
1772728909953606400,3.6686064453125,-1.3142414093017578,-1.220080852508545,0.776864767074585
1772728909963124200,3.678124267578125,-1.21574068069458,-1.2364249229431152,0.472305029630661
1772728909972642600,3.687642578125,-0.9549751281738281,-1.2209441661834717,0.3164609670639038
1772728909982160600,3.69716064453125,-0.5811519622802734,-1.1768198013305664,0.24610115587711334
1772728909991678700,3.7066787109375,-0.27008819580078125,-1.154444694519043,0.20475903153419495
1772728910001196800,3.71619677734375,-0.066375732421875,-1.1506261825561523,0.18519392609596252
1772728910010714600,3.725714599609375,-0.05074119567871094,-1.101501226425171,-0.07013082504272461
1772728910020232700,3.735232666015625,-0.1775970458984375,-1.002192735671997,-0.19757568836212158
1772728910029750800,3.744750732421875,-0.4375324249267578,-0.8255410194396973,-0.3459320664405823
1772728910039268900,3.754268798828125,-0.8214101791381836,-0.6200532913208008,-0.38306891918182373
1772728910048787000,3.763786865234375,-1.1457977294921875,-0.4581639766693115,-0.3298342227935791
1772728910058305000,3.773304931640625,-1.3684043884277344,-0.3099548816680908,-0.3416587710380554
1772728910067823000,3.782822998046875,-1.5734405517578125,-0.1720566749572754,-0.3491874933242798
1772728910077341200,3.792341064453125,-1.6322259902954102,-0.09425592422485352,-0.2120746374130249
1772728910086859300,3.801859375,-1.5880203247070312,-0.031128406524658203,-0.08080434799194336
1772728910096377300,3.81137744140625,-1.5795183181762695,0.02705073356628418,0.07364922761917114
1772728910105895400,3.8208955078125,-1.5826177597045898,0.04920005798339844,0.13294148445129395
1772728910115413500,3.83041357421875,-1.5398941040039062,0.059345245361328125,0.18216487765312195
1772728910124931600,3.839931640625,-1.3890886306762695,0.03781867027282715,0.31933993101119995
1772728910134449700,3.84944970703125,-1.1418991088867188,0.038567543029785156,0.41347625851631165
1772728910143967700,3.8589677734375,-0.8576192855834961,0.01716780662536621,0.5053146481513977
1772728910153485600,3.868485595703125,-0.5834140777587891,-0.03740358352661133,0.614445686340332
1772728910163004000,3.87800390625,-0.35456371307373047,-0.025978565216064453,0.674560010433197
1772728910172521700,3.887521728515625,-0.19222736358642578,-0.03986501693725586,0.7129206657409668
1772728910182040000,3.8970400390625,-0.022136688232421875,-0.01971888542175293,0.7460124492645264
1772728910191558000,3.906557861328125,0.12948226928710938,0.048363685607910156,0.7801860570907593
1772728910201076000,3.916075927734375,0.3131732940673828,0.14624881744384766,0.840327799320221
1772728910210594000,3.925593994140625,0.43137168884277344,0.24418044090270996,0.7264070510864258
1772728910220112100,3.935112060546875,0.38650035858154297,0.27768921852111816,0.41039353609085083
1772728910229630200,3.944630126953125,0.38440418243408203,0.4160773754119873,0.3070801794528961
1772728910239148300,3.954148193359375,0.43489646911621094,0.533790111541748,0.4034780263900757
1772728910248666400,3.963666259765625,0.47626209259033203,0.6842305660247803,0.7050507068634033
1772728910258184400,3.973184326171875,0.4679241180419922,0.7241194248199463,0.7336249351501465
1772728910267702500,3.98270263671875,0.20379638671875,0.6873326301574707,0.374914288520813
1772728910277220600,3.992220703125,0.02938365936279297,0.846998929977417,0.32101893424987793
1772728910286738700,4.00173876953125,-0.05886268615722656,1.0617191791534424,0.39789703488349915
1772728910296256800,4.0112568359375,-0.05455970764160156,1.112678050994873,0.2513929605484009
1772728910305774800,4.02077490234375,-0.017917633056640625,1.18221116065979,0.1910942792892456
1772728910315292700,4.030292724609375,0.20151042938232422,1.2794029712677002,0.15741848945617676
1772728910324811000,4.03981103515625,0.3190574645996094,1.2613000869750977,-0.017394661903381348
1772728910334328800,4.049328857421875,0.41342926025390625,1.24373197555542,-0.024355292320251465
1772728910343847000,4.058846923828125,0.5754623413085938,1.1549630165100098,0.0648694634437561
1772728910353365000,4.068364990234375,0.9058494567871094,1.1364250183105469,0.48452943563461304
1772728910362883000,4.077883056640625,1.0779314041137695,0.9594955444335938,0.49045222997665405
1772728910372401200,4.087401123046875,1.305363655090332,0.8732795715332031,0.45263567566871643
1772728910381919200,4.096919189453125,1.4143047332763672,0.8167901039123535,0.35372892022132874
1772728910391437300,4.106437255859375,1.5155410766601562,0.7788522243499756,0.44609901309013367
1772728910400955400,4.115955322265625,1.6170101165771484,0.7910351753234863,0.6754376888275146
1772728910410473500,4.125473388671875,1.5712862014770508,0.7115950584411621,0.5297044515609741
1772728910419991600,4.134991455078125,1.2661809921264648,0.6545686721801758,0.2451482117176056
1772728910429509600,4.144509521484375,0.9501113891601562,0.685631513595581,0.34217971563339233
1772728910439027700,4.15402783203125,0.8065090179443359,0.7196059226989746,0.26244208216667175
1772728910448545800,4.1635458984375,0.5786304473876953,0.7373287677764893,-0.10956448316574097
1772728910458064000,4.17306396484375,0.3922920227050781,0.7580463886260986,-0.48577308654785156
1772728910467582000,4.18258203125,0.3730888366699219,0.757394552230835,-0.7240327000617981
1772728910477099800,4.192099853515625,0.4626741409301758,0.7385501861572266,-0.815729022026062
1772728910486617900,4.201617919921875,0.7853660583496094,0.6250779628753662,-0.752204418182373
1772728910496136000,4.211135986328125,0.8886871337890625,0.627678632736206,-0.6058828830718994
1772728910505654000,4.220654052734375,1.051675796508789,0.7286086082458496,-0.09080249071121216
1772728910515172000,4.230172119140625,0.9818706512451172,0.010963678359985352,-1.6100929975509644
1772728910524690200,4.239690185546875,1.1232080459594727,-0.08546781539916992,-1.3776440620422363
1772728910534208300,4.249208251953125,1.475691795349121,-0.14395856857299805,-1.0300730466842651
1772728910543726300,4.258726318359375,1.7174692153930664,-0.5730712413787842,-1.1293692588806152
1772728910553244400,4.268244384765625,2.032437324523926,-0.8785686492919922,-0.9297000169754028
1772728910562762500,4.277762451171875,2.2564563751220703,-1.2348124980926514,-0.9823026061058044
1772728910572280600,4.287280517578125,2.170222282409668,-1.4504477977752686,-0.7630107402801514
1772728910581798700,4.296798583984375,1.550766944885254,-1.7237553596496582,-0.9611092209815979
1772728910591316700,4.306316650390625,0.7325668334960938,-1.7290220260620117,-0.7063087821006775
1772728910600834800,4.315834716796875,-0.16399669647216797,-1.6821014881134033,-0.49112361669540405
1772728910610352600,4.3253525390625,-0.990386962890625,-1.621422529220581,-0.33186572790145874
1772728910619871000,4.33487109375,-1.7348690032958984,-1.4603593349456787,-0.38419145345687866
1772728910629388800,4.344388916015625,-2.2759227752685547,-1.189382791519165,-0.542716383934021
1772728910638907100,4.3539072265625,-2.5084080696105957,-0.9390466213226318,-0.7228171229362488
1772728910648425000,4.363425048828125,-2.4122610092163086,-0.7994861602783203,-0.8219605684280396
1772728910657943000,4.372943115234375,-2.014164447784424,-0.8006725311279297,-0.8114623427391052
1772728910667461000,4.382461181640625,-1.5357904434204102,-0.8136537075042725,-0.7322266101837158
1772728910676979200,4.391979248046875,-1.033247947692871,-0.8772037029266357,-0.6660845279693604
1772728910686497300,4.401497314453125,-0.5434331893920898,-0.9246716499328613,-0.5667186975479126
1772728910696015400,4.411015380859375,-0.02207183837890625,-0.9685158729553223,-0.5160061717033386
1772728910705533400,4.420533447265625,0.5436258316040039,-0.9924459457397461,-0.517393946647644
1772728910715051500,4.430051513671875,1.0490646362304688,-0.9961485862731934,-0.5504964590072632
1772728910724569600,4.439569580078125,1.3563575744628906,-0.9549307823181152,-0.4697551131248474
1772728910734087700,4.449087646484375,1.363443374633789,-0.8761372566223145,-0.31319886445999146
1772728910743605800,4.458605712890625,1.0327510833740234,-0.8159914016723633,-0.031963050365448
1772728910753123600,4.46812353515625,0.5438098907470703,-0.715674877166748,0.27183374762535095
1772728910762642000,4.477641845703125,0.009027481079101562,-0.6430149078369141,0.417594313621521
1772728910772159700,4.48715966796875,-0.40908050537109375,-0.4591813087463379,0.509190559387207
1772728910781678000,4.496677978515625,-0.7368783950805664,-0.3294558525085449,0.5478757619857788
1772728910791196000,4.50619580078125,-1.0103836059570312,-0.19866514205932617,0.5546128153800964
1772728910800714200,4.51571435546875,-1.2564334869384766,-0.07061982154846191,0.6110037565231323
1772728910810232000,4.525232177734375,-1.4663505554199219,0.022822856903076172,0.6251220703125
1772728910819750100,4.534750244140625,-1.5883989334106445,0.05197334289550781,0.6670207977294922
1772728910829268200,4.544268310546875,-1.620790958404541,0.04159355163574219,0.6022047996520996
1772728910838786300,4.553786376953125,-1.578479290008545,0.05931711196899414,0.5129105448722839
1772728910848304400,4.563304443359375,-1.4498167037963867,0.0526583194732666,0.4458276629447937
1772728910857822500,4.572822509765625,-1.2706012725830078,0.09270453453063965,0.3451264500617981
1772728910867340500,4.582340576171875,-0.9350919723510742,0.11782550811767578,0.1586073338985443
1772728910876858600,4.591858642578125,-0.6386337280273438,0.09760880470275879,0.048267483711242676
1772728910886376700,4.601376708984375,-0.3805990219116211,0.09278702735900879,0.005325138568878174
1772728910895894800,4.610894775390625,-0.27771472930908203,0.12211322784423828,-0.00603032112121582
1772728910905412900,4.620412841796875,-0.32978248596191406,0.18137216567993164,-0.06317484378814697
1772728910914930700,4.6299306640625,-0.39821815490722656,0.26627111434936523,-0.07284104824066162
1772728910924449000,4.639448974609375,-0.3850898742675781,0.34558725357055664,-0.12144851684570312
1772728910933966800,4.648966796875,-0.32372093200683594,0.38994765281677246,-0.10889238119125366
1772728910943485200,4.658485107421875,-0.20686054229736328,0.42273402214050293,-0.0691562294960022
1772728910953003000,4.6680029296875,-0.18013286590576172,0.4508171081542969,-0.024060189723968506
1772728910962521000,4.67752099609375,-0.2075214385986328,0.5077297687530518,0.0078544020652771
1772728910972039200,4.6870390625,-0.16693973541259766,0.5738697052001953,0.001140892505645752
1772728910981557200,4.69655712890625,-0.10612297058105469,0.6559405326843262,0.022575676441192627
1772728910991075300,4.706075439453125,-0.16371631622314453,0.706575870513916,0.07000470161437988
1772728911000593400,4.715593505859375,-0.27998828887939453,0.7791335582733154,0.09000363945960999
1772728911010111500,4.725111572265625,-0.3573760986328125,0.85546875,0.14189007878303528
1772728911019629600,4.734629638671875,-0.41340065002441406,0.918025016784668,0.18854153156280518
1772728911029147600,4.744147705078125,-0.4461822509765625,0.967876672744751,0.1556045413017273
1772728911038665700,4.753665771484375,-0.4131193161010742,1.0462701320648193,0.13322916626930237
1772728911048183800,4.763183837890625,-0.326568603515625,1.1250152587890625,0.1633770763874054
1772728911057702000,4.772701904296875,-0.189361572265625,1.140392780303955,0.14277473092079163
1772728911067220000,4.782219970703125,-0.0018405914306640625,1.1504955291748047,0.20586584508419037
1772728911076737800,4.79173779296875,0.24088478088378906,1.0809872150421143,0.26322513818740845
1772728911086255900,4.801255859375,0.6972074508666992,1.0182240009307861,0.27635031938552856
1772728911095774000,4.81077392578125,1.2295160293579102,0.9660735130310059,0.25277653336524963
1772728911105292000,4.8202919921875,1.6789989471435547,0.8784172534942627,0.22221744060516357
1772728911114810000,4.82981005859375,1.996744155883789,0.7839176654815674,0.14056101441383362
1772728911124328200,4.839328125,2.248332977294922,0.7331271171569824,0.03018862009048462
1772728911133846300,4.84884619140625,2.2621631622314453,0.7471537590026855,-0.05695396661758423
1772728911143364400,4.8583642578125,1.9518928527832031,0.8211145401000977,-0.22973060607910156
1772728911152882400,4.86788232421875,1.4312238693237305,0.9016914367675781,-0.39770835638046265
1772728911162400500,4.877400390625,0.9256105422973633,0.9335687160491943,-0.5278815031051636
1772728911171918600,4.886918701171875,0.650909423828125,0.9221580028533936,-0.577438235282898
1772728911181436700,4.896436767578125,0.5484447479248047,0.8261969089508057,-0.5524332523345947
1772728911190954800,4.905954833984375,0.5506935119628906,0.7155401706695557,-0.4333136975765228
1772728911200472800,4.915472900390625,0.6193780899047852,0.5921783447265625,-0.4118807911872864
1772728911209991000,4.924990966796875,0.661747932434082,0.48382019996643066,-0.37839388847351074
1772728911219509000,4.934509033203125,0.8098611831665039,0.36273765563964844,-0.3610968291759491
1772728911229026800,4.94402685546875,1.0715951919555664,0.18612170219421387,-0.22613245248794556
1772728911238545000,4.953544921875,1.445326805114746,-0.06506896018981934,-0.12455525994300842
1772728911248063000,4.96306298828125,1.7672929763793945,-0.25507211685180664,-0.05578973889350891
1772728911257581000,4.9725810546875,1.9478950500488281,-0.488971471786499,0.017016425728797913
1772728911267099100,4.98209912109375,2.0264577865600586,-0.7279517650604248,0.10201338678598404
1772728911276617200,4.9916171875,1.8629236221313477,-0.9588534832000732,0.23351004719734192
1772728911286135300,5.00113525390625,1.4743051528930664,-1.1474714279174805,0.41505134105682373
1772728911295653400,5.0106533203125,0.8818359375,-1.3563175201416016,0.6455028653144836
1772728911305171500,5.02017138671875,0.23771095275878906,-1.5158865451812744,0.8190271854400635
1772728911314689500,5.029689453125,-0.27967262268066406,-1.5791802406311035,0.9732977151870728
1772728911324207600,5.03920751953125,-0.6569795608520508,-1.5806803703308105,1.01246178150177
1772728911333725700,5.0487255859375,-1.019613265991211,-1.5589797496795654,0.956756591796875
1772728911343243800,5.058243896484375,-1.3256759643554688,-1.4784421920776367,0.8040138483047485
1772728911352761600,5.06776171875,-1.5070667266845703,-1.3800771236419678,0.6673346757888794
1772728911362280000,5.077280029296875,-1.627027988433838,-1.2812020778656006,0.5708339810371399
1772728911371797800,5.0867978515625,-1.71490478515625,-1.2164783477783203,0.5724964141845703
1772728911381316000,5.096316162109375,-1.6728992462158203,-1.1214327812194824,0.6179036498069763
1772728911390834000,5.105833984375,-1.3569731712341309,-1.072645664215088,0.5687563419342041
1772728911400352000,5.11535205078125,-0.8641204833984375,-0.9970226287841797,0.529141902923584
1772728911409870000,5.1248701171875,-0.4396858215332031,-0.8704710006713867,0.3735564947128296
1772728911419388200,5.13438818359375,-0.20032596588134766,-0.7721614837646484,0.18281513452529907
1772728911428906200,5.14390625,-0.040879249572753906,-0.684607744216919,-0.04136282205581665
1772728911438424300,5.15342431640625,0.06492328643798828,-0.6622791290283203,-0.18035787343978882
1772728911447942400,5.1629423828125,0.24426746368408203,-0.6538386344909668,-0.2477036863565445
1772728911457460500,5.17246044921875,0.4452056884765625,-0.6205320358276367,-0.2548837661743164
1772728911466978600,5.181978515625,0.5349006652832031,-0.6051187515258789,-0.2380346655845642
1772728911476496600,5.19149658203125,0.4499626159667969,-0.5424849987030029,-0.2145865559577942
1772728911486014700,5.2010146484375,0.23152923583984375,-0.46161770820617676,-0.18762513995170593
1772728911495532500,5.210532470703125,-0.008167266845703125,-0.3593885898590088,-0.19324657320976257
1772728911505051000,5.22005078125,-0.27912235260009766,-0.25850486755371094,-0.1974722445011139
1772728911514568700,5.229568603515625,-0.5818939208984375,-0.16941261291503906,-0.17899039387702942
1772728911524087000,5.239087158203125,-0.8452653884887695,-0.14341163635253906,-0.10822904109954834
1772728911533604900,5.24860498046875,-1.081599235534668,-0.08644676208496094,-0.025672554969787598
1772728911543123000,5.258123046875,-1.219834327697754,-0.07157349586486816,0.06992700695991516
1772728911552641000,5.26764111328125,-1.313279151916504,-0.05936741828918457,0.14124128222465515
1772728911562159000,5.2771591796875,-1.407911777496338,-0.017757892608642578,0.15844440460205078
1772728911571677200,5.28667724609375,-1.4610519409179688,0.058470726013183594,0.15878674387931824
1772728911581195300,5.2961953125,-1.492147445678711,0.11728429794311523,0.1903216689825058
1772728911590713300,5.30571337890625,-1.4579544067382812,0.16045737266540527,0.1848040670156479
1772728911600231400,5.3152314453125,-1.245793342590332,0.19366168975830078,0.24711370468139648
1772728911609749500,5.32474951171875,-1.0945863723754883,0.21636271476745605,0.33319881558418274
1772728911619267600,5.334267578125,-1.0186271667480469,0.21934843063354492,0.3453556299209595
1772728911628785700,5.34378564453125,-1.0348310470581055,0.2300093173980713,0.3591535687446594
1772728911638303500,5.353303466796875,-0.9761323928833008,0.28953003883361816,0.34858083724975586
1772728911647821800,5.36282177734375,-0.776066780090332,0.36704087257385254,0.34292474389076233
1772728911657339600,5.372339599609375,-0.5899887084960938,0.4287707805633545,0.3202236294746399
1772728911666858000,5.38185791015625,-0.37911224365234375,0.46888208389282227,0.300865113735199
1772728911676375800,5.391375732421875,-0.1380138397216797,0.5289242267608643,0.26728102564811707
1772728911685894000,5.400893798828125,0.05519294738769531,0.5666918754577637,0.25671476125717163
1772728911695412000,5.410411865234375,0.1890850067138672,0.5647428035736084,0.24460381269454956
1772728911704930000,5.419929931640625,0.33092784881591797,0.6037893295288086,0.2351350486278534
1772728911714448100,5.4294482421875,0.5001382827758789,0.6184911727905273,0.2122499644756317
1772728911723966200,5.43896630859375,0.6659164428710938,0.6320464611053467,0.22156035900115967
1772728911733484300,5.448484375,0.8096294403076172,0.659998893737793,0.2100793719291687
1772728911743002400,5.45800244140625,0.9508638381958008,0.7010562419891357,0.09282031655311584
1772728911752520400,5.4675205078125,0.9558000564575195,0.7458839416503906,-0.019170045852661133
1772728911762038500,5.47703857421875,0.8266324996948242,0.8075675964355469,-0.06775295734405518
1772728911771556600,5.486556640625,0.6677846908569336,0.8785388469696045,-0.0934680700302124
1772728911781074400,5.496074462890625,0.5071392059326172,0.9676620960235596,-0.15569478273391724
1772728911790592800,5.5055927734375,0.4658203125,1.0567975044250488,-0.22601789236068726
1772728911800110600,5.515110595703125,0.4330739974975586,1.094477653503418,-0.20229023694992065
1772728911809629000,5.52462890625,0.3750753402709961,1.10550856590271,-0.14002400636672974
1772728911819146800,5.534146728515625,0.3135251998901367,1.082700490951538,0.015007078647613525
1772728911828664800,5.543664794921875,0.27287960052490234,1.04194974899292,0.20593571662902832
1772728911838183000,5.553182861328125,0.27284908294677734,0.9605762958526611,0.3920300006866455
1772728911847701000,5.562700927734375,0.2974538803100586,0.9064788818359375,0.5532149076461792
1772728911857219000,5.572218994140625,0.4738922119140625,0.8707449436187744,0.5667568445205688
1772728911866737200,5.581737060546875,0.5728082656860352,0.8599545955657959,0.4847327470779419
1772728911876255200,5.591255126953125,0.4889659881591797,0.8775830268859863,0.3989080488681793
1772728911885773300,5.600773193359375,0.31987762451171875,0.9232726097106934,0.3361474275588989
1772728911895291400,5.61029150390625,0.16742515563964844,0.9301369190216064,0.24643069505691528
1772728911904809500,5.6198095703125,0.08336734771728516,0.9381239414215088,0.09109681844711304
1772728911914327600,5.62932763671875,0.2008523941040039,0.8905582427978516,-0.06429547071456909
1772728911923845400,5.638845458984375,0.4405984878540039,0.7966527938842773,-0.18704044818878174
1772728911933363700,5.64836376953125,0.7832069396972656,0.6058957576751709,-0.3589093089103699
1772728911942881500,5.657881591796875,1.054356575012207,0.4684264659881592,-0.5060656666755676
1772728911952400000,5.66739990234375,1.266310691833496,0.3385193347930908,-0.6016043424606323
1772728911961917700,5.676917724609375,1.5077695846557617,0.13687920570373535,-0.7504475116729736
1772728911971435800,5.686435791015625,1.7530460357666016,-0.15929675102233887,-0.894766092300415
1772728911980953900,5.695953857421875,2.137025833129883,-0.5220022201538086,-0.9785242676734924
1772728911990472000,5.705471923828125,2.5489501953125,-0.8937251567840576,-1.0106537342071533
1772728911999990000,5.714989990234375,2.749380111694336,-1.2713136672973633,-0.9375461339950562
1772728912009508000,5.724508056640625,2.5366668701171875,-1.5772595405578613,-0.7188212275505066
1772728912019026200,5.734026123046875,1.9065446853637695,-1.769437551498413,-0.4322640299797058
1772728912028544300,5.743544189453125,1.0139636993408203,-1.7965483665466309,-0.25092530250549316
1772728912038062300,5.753062255859375,0.08966350555419922,-1.6308238506317139,-0.2580391764640808
1772728912047580400,5.762580322265625,-0.6026153564453125,-1.431617021560669,-0.33833029866218567
1772728912057098500,5.772098388671875,-1.1795754432678223,-1.238326072692871,-0.3198177218437195
1772728912066616300,5.7816162109375,-1.5901708602905273,-1.0746243000030518,-0.30154579877853394
1772728912076134700,5.791134765625,-1.7543630599975586,-0.9725286960601807,-0.30921876430511475
1772728912085652500,5.800652587890625,-1.6610097885131836,-0.9105246067047119,-0.4035468101501465
1772728912095170600,5.810170654296875,-1.3868465423583984,-0.8898837566375732,-0.47428256273269653
1772728912104688600,5.819688720703125,-1.1037788391113281,-0.8784356117248535,-0.557237446308136
1772728912114206700,5.829206787109375,-0.8925714492797852,-0.8342535495758057,-0.5834002494812012
1772728912123724800,5.838724853515625,-0.709228515625,-0.7352297306060791,-0.5102970600128174
1772728912133243000,5.848242919921875,-0.41451549530029297,-0.716933012008667,-0.4937121868133545
1772728912142761000,5.857760986328125,-0.18967437744140625,-0.7066352367401123,-0.3306882977485657
1772728912152279000,5.867279052734375,0.19539165496826172,-0.6756060123443604,-0.3343086838722229
1772728912161797000,5.876797119140625,0.32695960998535156,-0.6496913433074951,-0.30600959062576294
1772728912171315200,5.886315185546875,0.21946048736572266,-0.615769624710083,-0.18886452913284302
1772728912180833300,5.895833251953125,-0.07242679595947266,-0.5502653121948242,0.0034041404724121094
1772728912190351400,5.905351318359375,-0.38206005096435547,-0.4149513244628906,0.16980493068695068
1772728912199869400,5.914869384765625,-0.6808080673217773,-0.3381800651550293,0.3299855589866638
1772728912209387300,5.92438720703125,-0.846461296081543,-0.26551342010498047,0.3558390140533447
1772728912218905600,5.933905517578125,-0.914515495300293,-0.21953392028808594,0.40297064185142517
1772728912228423400,5.94342333984375,-0.9417810440063477,-0.1897749900817871,0.46778857707977295
1772728912237941500,5.95294140625,-0.8898801803588867,-0.17703676223754883,0.4827059805393219
1772728912247459600,5.96245947265625,-0.9091968536376953,-0.1364741325378418,0.48556727170944214
1772728912256977700,5.971977783203125,-0.9519901275634766,-0.09406065940856934,0.4213292598724365
1772728912266495700,5.981495849609375,-1.075911521911621,-0.051061153411865234,0.40826767683029175
1772728912276013800,5.991013916015625,-1.1141090393066406,-0.023159503936767578,0.4322018027305603
1772728912285532000,6.000531982421875,-1.1124181747436523,-0.04322934150695801,0.5086585879325867
1772728912295050000,6.010050048828125,-1.0639324188232422,-0.01540231704711914,0.47660598158836365
1772728912304568000,6.019568115234375,-0.9782505035400391,0.012281417846679688,0.390796422958374
1772728912314086100,6.029086181640625,-0.8598871231079102,0.04367637634277344,0.3436008393764496
1772728912323604200,6.038604248046875,-0.7300930023193359,0.05890011787414551,0.344188928604126
1772728912333122300,6.048122314453125,-0.6050376892089844,0.09007859230041504,0.2807037830352783
1772728912342640400,6.057640380859375,-0.42885875701904297,0.180253267288208,0.19955497980117798
1772728912352158200,6.067158203125,-0.31369781494140625,0.2381434440612793,0.115345299243927
1772728912361676300,6.07667626953125,-0.29772377014160156,0.2592799663543701,0.04180386662483215
1772728912371194400,6.0861943359375,-0.3284492492675781,0.2539050579071045,0.04308995604515076
1772728912380712400,6.09571240234375,-0.358184814453125,0.3274679183959961,0.05660441517829895
1772728912390230500,6.10523046875,-0.39171504974365234,0.3723866939544678,0.041877955198287964
1772728912399748600,6.11474853515625,-0.41724681854248047,0.41779136657714844,0.018396437168121338
1772728912409266700,6.1242666015625,-0.4470224380493164,0.49544501304626465,0.03166094422340393
1772728912418784800,6.13378466796875,-0.46930694580078125,0.5532338619232178,0.02870863676071167
1772728912428302800,6.143302734375,-0.4531707763671875,0.6247754096984863,0.032960087060928345
1772728912437821000,6.152821044921875,-0.49915218353271484,0.7462408542633057,0.012751966714859009
1772728912447339000,6.162339111328125,-0.5671319961547852,0.9142098426818848,0.008317142724990845
1772728912456857000,6.171857177734375,-0.7657346725463867,1.0289716720581055,0.054490089416503906
1772728912466375200,6.181375244140625,-0.878575325012207,1.155470609664917,0.10240760445594788
1772728912475893000,6.19089306640625,-0.7533750534057617,1.2752339839935303,0.10126540064811707
1772728912485411300,6.200411376953125,-0.4018363952636719,1.2838506698608398,0.09293803572654724
1772728912494929200,6.20992919921875,0.09037303924560547,1.220320224761963,0.04721200466156006
1772728912504447200,6.219447265625,0.558863639831543,1.164445400238037,-0.05476310849189758
1772728912513965300,6.22896533203125,0.9018354415893555,1.0619926452636719,-0.15855219960212708
1772728912523483400,6.2384833984375,1.397965431213379,1.0049030780792236,-0.3025713264942169
1772728912533001500,6.24800146484375,1.922149658203125,0.9716184139251709,-0.43829089403152466
1772728912542519600,6.25751953125,2.3540287017822266,0.905515193939209,-0.5373501777648926
1772728912552037600,6.26703759765625,2.476926803588867,0.9416918754577637,-0.6102993488311768
1772728912561555700,6.2765556640625,2.2238025665283203,1.0442206859588623,-0.6579033136367798
1772728912571073800,6.28607373046875,1.662973403930664,1.1437928676605225,-0.6716345548629761
1772728912580591900,6.295591796875,1.0389490127563477,1.2530760765075684,-0.6286507844924927
1772728912590110000,6.30510986328125,0.5124902725219727,1.288097858428955,-0.5512695908546448
1772728912599628000,6.3146279296875,0.21830463409423828,1.2540783882141113,-0.3551241457462311
1772728912609146000,6.32414599609375,0.16498851776123047,1.1616532802581787,-0.15300089120864868
1772728912618664000,6.333663818359375,0.23746681213378906,1.0443334579467773,-0.0367397665977478
1772728912628182000,6.34318212890625,0.4648408889770508,0.9146761894226074,0.07118424773216248
1772728912637700000,6.3527001953125,0.8667535781860352,0.7226693630218506,0.1426214575767517
1772728912647218200,6.36221826171875,1.3772335052490234,0.4388909339904785,0.11841386556625366
1772728912656736300,6.371736328125,1.8586711883544922,0.10596823692321777,0.08716535568237305
1772728912666254300,6.38125439453125,2.2741823196411133,-0.22925806045532227,0.06794503331184387
1772728912675772400,6.3907724609375,2.613327980041504,-0.5036628246307373,0.006148397922515869
1772728912685290500,6.40029052734375,2.7196874618530273,-0.7438228130340576,-0.004375070333480835
1772728912694808600,6.40980859375,2.527146339416504,-0.9073359966278076,0.0590704083442688
1772728912704326700,6.41932666015625,2.02371883392334,-1.0470411777496338,0.18840816617012024
1772728912713844700,6.4288447265625,1.287501335144043,-1.1253910064697266,0.3463088870048523
1772728912723362800,6.43836279296875,0.5013437271118164,-1.1621971130371094,0.5209701061248779
1772728912732881000,6.447880859375,-0.11857128143310547,-1.2071049213409424,0.7300090789794922
1772728912742398700,6.457398681640625,-0.5015487670898438,-1.2612473964691162,0.9014303684234619
1772728912751917000,6.4669169921875,-0.7700681686401367,-1.3480868339538574,1.0976717472076416
1772728912761435000,6.476434814453125,-0.9337129592895508,-1.4133167266845703,1.259398341178894
1772728912770953000,6.485952880859375,-1.069472312927246,-1.4776012897491455,1.3607773780822754
1772728912780471000,6.495470947265625,-1.1947298049926758,-1.5298755168914795,1.430889368057251
1772728912789989000,6.504989013671875,-1.2214136123657227,-1.5459139347076416,1.4419207572937012
1772728912799507200,6.514507080078125,-1.1543798446655273,-1.4522480964660645,1.2935556173324585
1772728912809025300,6.524025390625,-1.0462636947631836,-1.363896369934082,1.1963794231414795
1772728912818543400,6.53354345703125,-0.9736804962158203,-1.2541611194610596,1.1383835077285767
1772728912828061400,6.5430615234375,-0.905613899230957,-1.1633939743041992,1.0511754751205444
1772728912837579500,6.55257958984375,-0.7131729125976562,-1.084381341934204,0.9194616079330444
1772728912847097600,6.56209765625,-0.4654102325439453,-0.9538297653198242,0.6883163452148438
1772728912856615700,6.57161572265625,-0.17591094970703125,-0.8743083477020264,0.4421937167644501
1772728912866133500,6.581133544921875,0.14202594757080078,-0.8509719371795654,0.22442899644374847
1772728912875651800,6.59065185546875,0.44199275970458984,-0.8182244300842285,0.03810954838991165
1772728912885169700,6.600169677734375,0.6920537948608398,-0.7585511207580566,-0.052624866366386414
1772728912894688000,6.60968798828125,0.6325531005859375,-0.6396875381469727,-0.10559490323066711
1772728912904205800,6.619205810546875,0.18709468841552734,-0.521674394607544,-0.16235700249671936
1772728912913724000,6.628723876953125,-0.4226665496826172,-0.420086145401001,-0.15489673614501953
1772728912923242000,6.638241943359375,-0.9514932632446289,-0.32973790168762207,-0.1591103971004486
1772728912932760000,6.647760009765625,-1.3311405181884766,-0.22707080841064453,-0.18695427477359772
1772728912942278100,6.657278076171875,-1.5577845573425293,-0.1440293788909912,-0.20514748990535736
1772728912951796200,6.666796142578125,-1.7182226181030273,-0.05785393714904785,-0.20217950642108917
1772728912961314300,6.676314208984375,-1.8130598068237305,-0.05818629264831543,-0.15983448922634125
1772728912970832400,6.685832275390625,-1.828315258026123,-0.056121826171875,-0.09564617276191711
1772728912980350500,6.6953505859375,-1.8264598846435547,-0.015437602996826172,-0.056416064500808716
1772728912989868300,6.704868408203125,-1.8005790710449219,0.014081239700317383,-0.019137203693389893
1772728912999386600,6.71438671875,-1.7104053497314453,0.040162086486816406,0.019873887300491333
1772728913008904400,6.723904541015625,-1.5154247283935547,0.07925152778625488,0.059903353452682495
1772728913018422800,6.7334228515625,-1.260899543762207,0.10892224311828613,0.09775525331497192
1772728913027940600,6.742940673828125,-1.0039987564086914,0.10234975814819336,0.13592380285263062
1772728913037458700,6.752458740234375,-0.7252273559570312,0.12555193901062012,0.24660634994506836
1772728913046976800,6.761976806640625,-0.41675662994384766,0.13372540473937988,0.3609447777271271
1772728913056494800,6.771494873046875,-0.10887908935546875,0.16304898262023926,0.4606444239616394
1772728913066013000,6.781012939453125,0.13215160369873047,0.20011687278747559,0.5115735530853271
1772728913075531000,6.790531005859375,0.3499574661254883,0.28179383277893066,0.5795051455497742
1772728913085049000,6.800049072265625,0.5355720520019531,0.35876989364624023,0.6249196529388428
1772728913094567200,6.809567138671875,0.6632614135742188,0.4059867858886719,0.6376988887786865
1772728913104085200,6.819085205078125,0.6808815002441406,0.5327212810516357,0.6125199198722839
1772728913113603000,6.82860302734375,0.5812110900878906,0.670480489730835,0.6599419116973877
1772728913123121400,6.838121337890625,0.40450096130371094,0.820929765701294,0.7169854044914246
1772728913132639200,6.84763916015625,0.25058746337890625,0.9426493644714355,0.6888836622238159
1772728913142157600,6.857157470703125,0.2385091781616211,1.0553920269012451,0.5934406518936157
1772728913151675400,6.86667529296875,0.29349422454833984,1.1698448657989502,0.42971208691596985
1772728913161193500,6.876193359375,0.35770511627197266,1.2223618030548096,0.39576148986816406
1772728913170711600,6.885711669921875,0.4163064956665039,1.2595622539520264,0.3437088429927826
1772728913180229600,6.895229736328125,0.46890735626220703,1.229886531829834,0.2695850431919098
1772728913189747700,6.904747802734375,0.6277379989624023,1.1522212028503418,0.31222906708717346
1772728913199265800,6.914265869140625,0.8763513565063477,1.04184889793396,0.3992074429988861
1772728913208784000,6.923783935546875,1.1986684799194336,0.9180896282196045,0.5147556662559509
1772728913218302000,6.933302001953125,1.4660634994506836,0.825211763381958,0.6569768786430359
1772728913227820000,6.942820068359375,1.53570556640625,0.77950119972229,0.7372786402702332
1772728913237337900,6.952337890625,1.4297542572021484,0.6876893043518066,0.6928688883781433
1772728913246856200,6.961856201171875,1.2827272415161133,0.6923236846923828,0.6431639790534973
1772728913256374000,6.9713740234375,1.2001638412475586,0.7635762691497803,0.5751133561134338
1772728913265892000,6.98089208984375,1.0696134567260742,0.8110044002532959,0.5003362894058228
1772728913275410200,6.99041015625,0.8782625198364258,0.8302202224731445,0.3697381913661957
1772728913284928300,6.99992822265625,0.7017250061035156,0.8236744403839111,0.18314820528030396
1772728913294446300,7.0094462890625,0.6826496124267578,0.780794620513916,0.02908468246459961
1772728913303964400,7.01896435546875,0.7509527206420898,0.7862305641174316,-0.11964097619056702
1772728913313482500,7.028482421875,0.805781364440918,0.7476263046264648,-0.3029348850250244
1772728913323000600,7.03800048828125,0.8253030776977539,0.6803345680236816,-0.42368456721305847
1772728913332518700,7.0475185546875,0.8522548675537109,0.5399596691131592,-0.5098470449447632
1772728913342036700,7.05703662109375,1.0154428482055664,0.3029475212097168,-0.5927895903587341
1772728913351554800,7.066554931640625,1.39862060546875,-0.00825190544128418,-0.6908478736877441
1772728913361072600,7.07607275390625,1.8876476287841797,-0.36290907859802246,-0.7776789665222168
1772728913370591000,7.085591064453125,2.4127273559570312,-0.7262024879455566,-0.8193788528442383
1772728913380108800,7.09510888671875,3.007345199584961,-1.0980453491210938,-0.7149313688278198
1772728913389627000,7.104626953125,3.173527717590332,-1.3999371528625488,-0.5837129354476929
1772728913399145000,7.11414501953125,2.7095375061035156,-1.70071542263031,-0.4597598612308502
1772728913408663000,7.1236630859375,1.7424917221069336,-1.8560614585876465,-0.2962383031845093
1772728913418181000,7.13318115234375,0.690455436706543,-1.8035945892333984,-0.15139275789260864
1772728913427699200,7.14269921875,-0.18460655212402344,-1.672621250152588,-0.17175069451332092
1772728913437217300,7.15221728515625,-0.9749155044555664,-1.4746918678283691,-0.379657119512558
1772728913446735400,7.1617353515625,-1.6534795761108398,-1.3016908168792725,-0.5502136945724487
1772728913456253400,7.17125341796875,-2.12442684173584,-1.1875286102294922,-0.6275109052658081
1772728913465771500,7.180771484375,-2.3418197631835938,-1.1267640590667725,-0.6095799207687378
1772728913475289600,7.19028955078125,-2.237257957458496,-1.1024420261383057,-0.569037914276123
1772728913484807700,7.1998076171875,-1.9570817947387695,-1.0934796333312988,-0.5898751020431519
1772728913494325500,7.209325439453125,-1.6972150802612305,-1.0218894481658936,-0.6640877723693848
1772728913503843600,7.218843505859375,-1.3571147918701172,-0.9292986392974854,-0.7745499610900879
1772728913513361700,7.228361572265625,-1.0298194885253906,-0.9479122161865234,-0.8510929942131042
1772728913522879700,7.237879638671875,-0.6815328598022461,-0.9426581859588623,-0.8246443867683411
1772728913532397800,7.247397705078125,-0.3672370910644531,-0.9380507469177246,-0.7609727382659912
1772728913541916000,7.256916015625,-0.06048583984375,-0.8872344493865967,-0.6463434100151062
1772728913551434000,7.26643408203125,0.23931407928466797,-0.9067354202270508,-0.473368763923645
1772728913560952000,7.2759521484375,0.4684305191040039,-0.8883426189422607,-0.3069106936454773
1772728913570470100,7.28547021484375,0.5440835952758789,-0.888197660446167,-0.14333850145339966
1772728913579988200,7.29498828125,0.37882518768310547,-0.8208105564117432,0.030398845672607422
1772728913589506300,7.30450634765625,0.06183338165283203,-0.7146074771881104,0.17978399991989136
1772728913599024400,7.3140244140625,-0.36081409454345703,-0.6007847785949707,0.30333003401756287
1772728913608542500,7.32354248046875,-0.616175651550293,-0.43256163597106934,0.43622538447380066
1772728913618060300,7.333060302734375,-0.8407392501831055,-0.3102288246154785,0.5010313391685486
1772728913627578600,7.34257861328125,-1.0518360137939453,-0.23482275009155273,0.557464063167572
1772728913637096400,7.352096435546875,-1.2766952514648438,-0.20177578926086426,0.5372502207756042
1772728913646614500,7.361614501953125,-1.4613723754882812,-0.16829681396484375,0.4980127513408661
1772728913656132600,7.371132568359375,-1.5205717086791992,-0.15005755424499512,0.43532276153564453
1772728913665650700,7.380650634765625,-1.5024700164794922,-0.09670853614807129,0.34569844603538513
1772728913675168800,7.390168701171875,-1.3951005935668945,-0.09969353675842285,0.2639017701148987
1772728913684686800,7.399686767578125,-1.210254192352295,-0.11205363273620605,0.22282931208610535
1772728913694205000,7.409204833984375,-1.0072145462036133,-0.09216904640197754,0.22727036476135254
1772728913703723000,7.418722900390625,-0.8308916091918945,-0.09862661361694336,0.19798055291175842
1772728913713241000,7.428240966796875,-0.7407655715942383,-0.05528759956359863,0.12078443169593811
1772728913722759000,7.437759033203125,-0.7797937393188477,0.009506940841674805,0.07878386974334717
1772728913732277200,7.44727734375,-0.7903213500976562,0.11040616035461426,0.044929683208465576
1772728913741795000,7.456795166015625,-0.8321075439453125,0.2282886505126953,0.01229095458984375
1772728913751313200,7.466313232421875,-0.8119211196899414,0.28894925117492676,-0.004852294921875
1772728913760831200,7.475831298828125,-0.7154655456542969,0.3446805477142334,0.0124015212059021
1772728913770349300,7.485349365234375,-0.6072483062744141,0.38314342498779297,0.027667760848999023
1772728913779867400,7.494867431640625,-0.503901481628418,0.39681339263916016,-0.038542866706848145
1772728913789385500,7.504385498046875,-0.34542369842529297,0.4589114189147949,-0.12880796194076538
1772728913798903600,7.513903564453125,-0.19598674774169922,0.5563850402832031,-0.19726663827896118
1772728913808421600,7.523421630859375,-0.13416385650634766,0.61720871925354,-0.22661137580871582
1772728913817939700,7.532939697265625,-0.16951465606689453,0.6803045272827148,-0.2475428581237793
1772728913827457500,7.54245751953125,-0.22567176818847656,0.7965548038482666,-0.20930975675582886
1772728913836975900,7.551975830078125,-0.2768392562866211,0.9264986515045166,-0.15776288509368896
1772728913846493700,7.56149365234375,-0.3762788772583008,1.0027265548706055,-0.1266116499900818
1772728913856011800,7.57101171875,-0.40036773681640625,1.1080701351165771,-0.12327712774276733
1772728913865529900,7.58052978515625,-0.39028167724609375,1.2198066711425781,-0.17787772417068481
1772728913875048000,7.5900478515625,-0.2411937713623047,1.3121387958526611,-0.2010475993156433
1772728913884566000,7.59956591796875,-0.024704933166503906,1.3366641998291016,-0.25409388542175293
1772728913894084000,7.609083984375,0.36478710174560547,1.2654376029968262,-0.34149622917175293
1772728913903602200,7.618602294921875,0.7151355743408203,1.189985990524292,-0.4127398729324341
1772728913913120300,7.628120361328125,0.9744958877563477,1.106607437133789,-0.5073305368423462
1772728913922638300,7.637638427734375,1.3160486221313477,1.0458383560180664,-0.5699580311775208
1772728913932156400,7.647156494140625,1.7598752975463867,1.013570785522461,-0.650533139705658
1772728913941674500,7.656674560546875,2.027327537536621,1.014275312423706,-0.6692166328430176
1772728913951192600,7.666192626953125,2.1238889694213867,1.0206265449523926,-0.6445299983024597
1772728913960710400,7.67571044921875,1.8389596939086914,1.05422043800354,-0.5515913963317871
1772728913970228500,7.685228515625,1.3221330642700195,1.1148645877838135,-0.4411444067955017
1772728913979746600,7.69474658203125,0.7321548461914062,1.1905219554901123,-0.32005882263183594
1772728913989264600,7.7042646484375,0.31137752532958984,1.2200798988342285,-0.18105709552764893
1772728913998782700,7.71378271484375,0.03480339050292969,1.2198150157928467,-0.062093138694763184
1772728914008300800,7.72330078125,-0.040676116943359375,1.1876928806304932,0.062433212995529175
1772728914017819000,7.73281884765625,0.07530498504638672,1.1444060802459717,0.17269662022590637
1772728914027337000,7.7423369140625,0.3113832473754883,1.0452940464019775,0.24592413008213043
1772728914036855000,7.75185498046875,0.5650110244750977,0.9158954620361328,0.2858276963233948
1772728914046373000,7.761373046875,0.7815761566162109,0.7602527141571045,0.30012598633766174
1772728914055891200,7.77089111328125,1.0256099700927734,0.5282464027404785,0.22873413562774658
1772728914065409000,7.780408935546875,1.3327054977416992,0.23461031913757324,0.1445695459842682
1772728914074927400,7.78992724609375,1.7722282409667969,-0.10963273048400879,0.06898900866508484
1772728914084445200,7.799445068359375,2.328338623046875,-0.5532453060150146,0.06280091404914856
1772728914093963300,7.80896337890625,2.930868148803711,-0.8906702995300293,0.06423640251159668
1772728914103481300,7.8184814453125,3.2711362838745117,-1.2269024848937988,0.06616991758346558
1772728914112999400,7.82799951171875,3.1719236373901367,-1.5431396961212158,0.17267456650733948
1772728914122517500,7.837517578125,2.531574249267578,-1.7429628372192383,0.33967310190200806
1772728914132035600,7.84703564453125,1.5364036560058594,-1.8060345649719238,0.5919753909111023
1772728914141553700,7.8565537109375,0.5747804641723633,-1.7019445896148682,0.7853272557258606
1772728914151071700,7.86607177734375,-0.2669544219970703,-1.5933854579925537,0.7790992259979248
1772728914160589800,7.87558984375,-1.05303955078125,-1.5522127151489258,0.8309696912765503
1772728914170107600,7.885107666015625,-1.5748677253723145,-1.558593511581421,0.8520651459693909
1772728914179626000,7.8946259765625,-1.781064510345459,-1.5232493877410889,0.9149549007415771
1772728914189143800,7.904143798828125,-1.7248969078063965,-1.5111291408538818,0.8642373085021973
1772728914198662000,7.913661865234375,-1.5237817764282227,-1.4823317527770996,0.7476817965507507
1772728914208180000,7.923179931640625,-1.2877254486083984,-1.4303147792816162,0.5848941802978516
1772728914217698000,7.932697998046875,-1.1098098754882812,-1.3816406726837158,0.4095340371131897
1772728914227216100,7.942216064453125,-0.9298257827758789,-1.3490955829620361,0.27538201212882996
1772728914236734200,7.951734130859375,-0.7186222076416016,-1.3314213752746582,0.194679856300354
1772728914246252300,7.961252197265625,-0.45890331268310547,-1.2943804264068604,0.07134726643562317
1772728914255770400,7.970770263671875,-0.24814605712890625,-1.2416398525238037,-0.016178488731384277
1772728914265288400,7.980288330078125,-0.10947799682617188,-1.200934648513794,-0.05551958084106445
1772728914274806500,7.989806640625,0.046382904052734375,-1.1002321243286133,-0.047317177057266235
1772728914284324600,7.99932470703125,0.1293315887451172,-1.017676591873169,-0.08260324597358704
1772728914293842400,8.008842529296874,0.027772903442382812,-0.8921935558319092,-0.10870197415351868
1772728914303360500,8.018360595703125,-0.23891925811767578,-0.7448627948760986,-0.18208488821983337
1772728914312878600,8.027878662109375,-0.5704355239868164,-0.5675230026245117,-0.20774295926094055
1772728914322396700,8.037396728515626,-0.902552604675293,-0.402113676071167,-0.27067551016807556
1772728914331914800,8.046914794921875,-1.1616134643554688,-0.25487756729125977,-0.31829625368118286
1772728914341432800,8.056432861328124,-1.3936834335327148,-0.11247587203979492,-0.37697508931159973
1772728914350951000,8.065950927734375,-1.5085077285766602,0.0020711421966552734,-0.3953276574611664
1772728914360469000,8.075468994140625,-1.566330909729004,0.05356550216674805,-0.3748340606689453
1772728914369987000,8.084987060546876,-1.632190227508545,0.13145804405212402,-0.39284050464630127
1772728914379505200,8.094505126953125,-1.673144817352295,0.18436956405639648,-0.3299230933189392
1772728914389023000,8.10402294921875,-1.6132946014404297,0.25620460510253906,-0.2444201111793518
1772728914398541300,8.113541259765626,-1.517714023590088,0.27347397804260254,-0.15299516916275024
1772728914408059100,8.12305908203125,-1.3628911972045898,0.2532005310058594,-0.09183549880981445
1772728914417577500,8.132577392578124,-1.1703767776489258,0.24293947219848633,-0.05184638500213623
1772728914427095300,8.14209521484375,-0.9638347625732422,0.2589530944824219,0.08306527137756348
1772728914436613400,8.15161328125,-0.7381458282470703,0.2907724380493164,0.14556801319122314
1772728914446131500,8.16113134765625,-0.4449481964111328,0.28177642822265625,0.13769209384918213
1772728914455649500,8.1706494140625,-0.09045219421386719,0.2842257022857666,0.1266239583492279
1772728914465167600,8.180167724609374,0.20168209075927734,0.3443307876586914,0.15560045838356018
1772728914474685700,8.189685791015625,0.35556507110595703,0.3945901393890381,0.21458673477172852
1772728914484203800,8.199203857421875,0.48666858673095703,0.44113779067993164,0.2775866985321045
1772728914493721600,8.2087216796875,0.6221237182617188,0.4819984436035156,0.36795347929000854
1772728914503240000,8.218239990234375,0.698206901550293,0.5153241157531738,0.46101078391075134
1772728914512757800,8.2277578125,0.6102876663208008,0.5691478252410889,0.5793586373329163
1772728914522275800,8.23727587890625,0.3369712829589844,0.6826307773590088,0.6721581220626831
1772728914531794000,8.2467939453125,0.02605438232421875,0.7860507965087891,0.7583299279212952
1772728914541312000,8.25631201171875,-0.3206901550292969,0.9245593547821045,0.7202533483505249
1772728914550830000,8.265830078125,-0.5511884689331055,1.0619423389434814,0.6387806534767151
1772728914560348200,8.27534814453125,-0.6213483810424805,1.1692211627960205,0.5646111369132996
1772728914569866200,8.2848662109375,-0.6040706634521484,1.2149262428283691,0.4583003520965576
1772728914579384300,8.29438427734375,-0.5265836715698242,1.2221870422363281,0.31462812423706055
1772728914588902400,8.30390234375,-0.3584280014038086,1.1966750621795654,0.22528302669525146
1772728914598420500,8.31342041015625,-0.08783721923828125,1.1403956413269043,0.09312170743942261
1772728914607938300,8.322938232421874,0.2136831283569336,1.0737159252166748,-0.0065898895263671875
1772728914617456600,8.33245654296875,0.5609359741210938,0.9760451316833496,-0.026427030563354492
1772728914626974500,8.341974365234375,0.887542724609375,0.8841762542724609,0.0024794340133666992
1772728914636492500,8.351492431640626,1.2278013229370117,0.769777774810791,0.03543508052825928
1772728914646010600,8.3610107421875,1.5085086822509766,0.6738362312316895,0.056578099727630615
1772728914655528700,8.37052880859375,1.6704597473144531,0.5909585952758789,0.06983399391174316
1772728914665046800,8.380046875,1.6188583374023438,0.6018886566162109,0.08159837126731873
1772728914674564900,8.38956494140625,1.4476537704467773,0.6513576507568359,0.07523864507675171
1772728914684083000,8.3990830078125,1.2694873809814453,0.701068639755249,0.04194897413253784
1772728914693601000,8.40860107421875,1.0818519592285156,0.7517282962799072,-0.10449331998825073
1772728914703119000,8.418119140625,0.9514179229736328,0.782393217086792,-0.2568693161010742
1772728914712637000,8.427636962890626,0.970606803894043,0.7894196510314941,-0.4278503656387329
1772728914722155300,8.4371552734375,0.9904346466064453,0.797888994216919,-0.5783396363258362
1772728914731673000,8.446673095703124,1.0031604766845703,0.796900749206543,-0.6685469150543213
1772728914741191200,8.456191162109375,1.0655603408813477,0.7348024845123291,-0.7516191005706787
1772728914750709200,8.465709228515625,1.0887317657470703,0.6411573886871338,-0.8007110953330994
1772728914760227300,8.475227294921876,1.1201820373535156,0.46905970573425293,-0.8134443163871765
1772728914769745400,8.484745361328125,1.1787681579589844,0.3076190948486328,-0.8775612115859985
1772728914779263500,8.494263427734374,1.4153127670288086,0.04747366905212402,-0.9261245131492615
1772728914788781600,8.503781494140625,1.7616043090820312,-0.3323204517364502,-1.0458177328109741
1772728914798299600,8.513299560546875,2.0783004760742188,-0.7000503540039062,-1.1846556663513184
1772728914807817700,8.522817626953126,2.008329391479492,-1.1288721561431885,-1.1608967781066895
1772728914817335800,8.532335693359375,1.5885858535766602,-1.467667818069458,-0.9528023600578308
1772728914826853600,8.541853515625,0.8812551498413086,-1.6066758632659912,-0.7258416414260864
1772728914836371700,8.551371826171875,-0.03305816650390625,-1.578026533126831,-0.552158772945404
1772728914845889800,8.560889892578125,-0.8134574890136719,-1.419442892074585,-0.5075854063034058
1772728914855407900,8.570407958984376,-1.4924931526184082,-1.2210988998413086,-0.6056918501853943
1772728914864926000,8.579926025390625,-2.0219202041625977,-1.0794801712036133,-0.6448784470558167
1772728914874444000,8.589444091796874,-2.3512439727783203,-0.9431531429290771,-0.5881333947181702
1772728914883962000,8.598962158203125,-2.403301239013672,-0.8603582382202148,-0.5705844163894653
1772728914893480200,8.608480224609375,-2.1046743392944336,-0.8700733184814453,-0.705460250377655
1772728914902998300,8.617998291015626,-1.519597053527832,-0.9033946990966797,-0.7942744493484497
1772728914912516000,8.62751611328125,-0.941065788269043,-0.9848294258117676,-0.7302806973457336
1772728914922034400,8.637034423828124,-0.4155149459838867,-1.0819072723388672,-0.6712398529052734
1772728914931552300,8.64655224609375,0.010178565979003906,-1.1612036228179932,-0.6487765312194824
1772728914941070300,8.6560703125,0.30791187286376953,-1.1645002365112305,-0.5080390572547913
1772728914950588400,8.66558837890625,0.4900350570678711,-1.097541093826294,-0.44937825202941895
1772728914960106500,8.6751064453125,0.5523319244384766,-1.018218994140625,-0.24704688787460327
1772728914969624600,8.68462451171875,0.5428609848022461,-0.979259729385376,0.021562814712524414
1772728914979142700,8.694142578125,0.3900928497314453,-0.9275667667388916,0.17298364639282227
1772728914988660700,8.70366064453125,0.18811416625976562,-0.8711378574371338,0.25114792585372925
1772728914998178800,8.7131787109375,-0.02172374725341797,-0.7822260856628418,0.31915807723999023
1772728915007697000,8.72269677734375,-0.35101318359375,-0.6281335353851318,0.37155312299728394
1772728915017215000,8.732215087890625,-0.6392097473144531,-0.4069559574127197,0.478510320186615
1772728915026732800,8.74173291015625,-1.0178585052490234,-0.2591378688812256,0.4862525165081024
1772728915036251000,8.7512509765625,-1.4251470565795898,-0.1618657112121582,0.5004125833511353
1772728915045769000,8.76076904296875,-1.775825023651123,-0.024892330169677734,0.5088749527931213
1772728915055287000,8.770287109375,-2.1141719818115234,0.09485530853271484,0.5203683376312256
1772728915064805000,8.77980517578125,-2.376950263977051,0.15264892578125,0.4699658453464508
1772728915074323200,8.7893232421875,-2.484179973602295,0.2418193817138672,0.4645603597164154
1772728915083841300,8.79884130859375,-2.4056596755981445,0.29641246795654297,0.444959819316864
1772728915093359400,8.808359375,-2.153740882873535,0.3543834686279297,0.4017940163612366
1772728915102877400,8.81787744140625,-1.761622428894043,0.35672640800476074,0.22655069828033447
1772728915112395300,8.827395263671875,-1.3098859786987305,0.3442225456237793,0.11978191137313843
1772728915121913600,8.83691357421875,-0.8383092880249023,0.3215324878692627,0.04261130094528198
1772728915131431400,8.846431396484375,-0.45848751068115234,0.3179481029510498,0.006650328636169434
1772728915140949500,8.855949462890624,-0.17923355102539062,0.3391885757446289,-0.026170313358306885
1772728915150467600,8.865467529296875,0.17489051818847656,0.3705747127532959,-0.028944849967956543
1772728915159985700,8.874985595703125,0.4994363784790039,0.3929874897003174,-0.05186706781387329
1772728915169503700,8.884503662109376,0.6707382202148438,0.43131542205810547,-0.10715878009796143
1772728915179021800,8.894021728515625,0.7082033157348633,0.48552393913269043,-0.21141523122787476
1772728915188540000,8.903539794921874,0.6096858978271484,0.5366497039794922,-0.26890629529953003
1772728915198058000,8.91305810546875,0.4492788314819336,0.6236560344696045,-0.286277174949646
1772728915207576000,8.922576171875,0.19347572326660156,0.7140867710113525,-0.2618831992149353
1772728915217094100,8.93209423828125,-0.08162117004394531,0.826392412185669,-0.14688724279403687
1772728915226612000,8.941612060546875,-0.2880516052246094,0.9308013916015625,-0.03175520896911621
1772728915236130000,8.951130126953124,-0.4193716049194336,1.081470012664795,-0.042985498905181885
1772728915245648100,8.960648193359376,-0.4740133285522461,1.2202253341674805,-0.12439000606536865
1772728915255166200,8.970166259765625,-0.47928524017333984,1.3324263095855713,-0.16858935356140137
1772728915264684300,8.979684326171874,-0.3499784469604492,1.3717293739318848,-0.17060202360153198
1772728915274202400,8.989202392578125,-0.1367969512939453,1.3651583194732666,-0.15489494800567627
1772728915283720400,8.998720458984375,0.20336437225341797,1.3383262157440186,-0.015105247497558594
1772728915293238500,9.008238525390626,0.6111612319946289,1.2539148330688477,0.12840425968170166
1772728915302756600,9.017756591796875,1.0941638946533203,1.134383201599121,0.1617250144481659
1772728915312274400,9.0272744140625,1.5715646743774414,0.9876949787139893,0.12968552112579346
1772728915321792800,9.036792724609375,2.0034360885620117,0.8264918327331543,-0.03852188587188721
1772728915331310600,9.046310546875,2.2783889770507812,0.7304105758666992,-0.2802743911743164
1772728915340828700,9.05582861328125,2.426144599914551,0.7193641662597656,-0.40546363592147827
1772728915350346800,9.0653466796875,2.4617061614990234,0.7494544982910156,-0.5129472613334656
1772728915359864800,9.07486474609375,2.339705467224121,0.7499790191650391,-0.6099330186843872
1772728915369383000,9.0843828125,2.121823310852051,0.8138725757598877,-0.5953441262245178
1772728915378901000,9.09390087890625,1.943282127380371,0.8172390460968018,-0.5316396355628967
1772728915388418800,9.103418701171876,1.7145442962646484,0.7963671684265137,-0.4981871247291565
1772728915397937200,9.112937255859375,1.5396251678466797,0.7922031879425049,-0.4660450220108032
1772728915407455000,9.122455078125,1.4370136260986328,0.7482330799102783,-0.4944393038749695
1772728915416973300,9.131973388671875,1.4329090118408203,0.6400966644287109,-0.5526812672615051
1772728915426491100,9.1414912109375,1.5035724639892578,0.48579907417297363,-0.5386834144592285
1772728915436009200,9.15100927734375,1.599196434020996,0.3196275234222412,-0.4654315114021301
1772728915445527300,9.16052734375,1.6343708038330078,0.15916776657104492,-0.4113966226577759
1772728915455045400,9.17004541015625,1.6312503814697266,0.015202999114990234,-0.4466548562049866
1772728915464563500,9.1795634765625,1.6216325759887695,-0.11863565444946289,-0.4645799398422241
1772728915474081500,9.18908154296875,1.6327142715454102,-0.3356175422668457,-0.4558084011077881
1772728915483599600,9.198599609375,1.7037134170532227,-0.5812637805938721,-0.3613917827606201
1772728915493117400,9.208117431640625,1.6418695449829102,-0.8739230632781982,-0.15470218658447266
1772728915502635800,9.2176357421875,1.3473434448242188,-1.1393721103668213,0.18340951204299927
1772728915512153600,9.227153564453126,0.8394088745117188,-1.3856925964355469,0.5222846865653992
1772728915521671700,9.236671630859375,0.2013111114501953,-1.5219128131866455,0.7653514742851257
1772728915531189800,9.246189697265624,-0.3404417037963867,-1.5918869972229004,0.9564530253410339
1772728915540707800,9.255707763671875,-0.7985830307006836,-1.6086750030517578,0.9827146530151367
1772728915550226000,9.265225830078125,-1.3006219863891602,-1.5846030712127686,0.9738178849220276
1772728915559744000,9.274743896484376,-1.7947778701782227,-1.5220973491668701,1.020755648612976
1772728915569262000,9.284261962890625,-2.236818790435791,-1.4398541450500488,1.1543574333190918
1772728915578780200,9.2937802734375,-2.57302188873291,-1.4405887126922607,1.3535170555114746
1772728915588298200,9.30329833984375,-2.7448129653930664,-1.3816821575164795,1.4549132585525513
1772728915597816300,9.31281640625,-2.779749870300293,-1.2927649021148682,1.2871615886688232
1772728915607334100,9.322334228515626,-2.6858768463134766,-1.1299607753753662,1.0243338346481323
1772728915616852500,9.3318525390625,-2.465801239013672,-1.0320453643798828,0.8487469553947449
1772728915626370300,9.341370361328124,-2.0808801651000977,-0.9671704769134521,0.6907501220703125
1772728915635888400,9.350888427734375,-1.530625820159912,-0.9397594928741455,0.5540317893028259
1772728915645406500,9.360406494140625,-1.0513887405395508,-0.9912891387939453,0.4271594285964966
1772728915654924500,9.369924560546876,-0.5376358032226562,-1.0559587478637695,0.24961256980895996
1772728915664442600,9.379442626953125,0.02777099609375,-1.1070547103881836,0.07699793577194214
1772728915673960700,9.388960693359374,0.7202959060668945,-1.0703036785125732,-0.12678533792495728
1772728915683478800,9.398478759765625,1.3009700775146484,-1.0403878688812256,-0.20177054405212402
1772728915692996600,9.40799658203125,1.672175407409668,-0.9799809455871582,-0.09098243713378906
1772728915702514700,9.4175146484375,1.5512561798095703,-0.9193985462188721,-0.051127076148986816
1772728915712032800,9.42703271484375,0.9505462646484375,-0.7626833915710449,0.041574299335479736
1772728915721550800,9.43655078125,0.07236480712890625,-0.5861687660217285,0.13751637935638428
1772728915731069000,9.44606884765625,-0.7023420333862305,-0.36389994621276855,0.23136693239212036
1772728915740587000,9.4555869140625,-1.238718032836914,-0.19387435913085938,0.24924123287200928
1772728915750105000,9.46510498046875,-1.5905609130859375,-0.05289959907531738,0.30990052223205566
1772728915759623200,9.474623046875,-1.8735895156860352,0.017786026000976562,0.35557928681373596
1772728915769141000,9.48414111328125,-2.0458192825317383,0.0702965259552002,0.45915573835372925
1772728915778659300,9.493659423828126,-2.115489959716797,0.13978147506713867,0.45628559589385986
1772728915788177200,9.50317724609375,-1.994741439819336,0.1739192008972168,0.4076128900051117
1772728915797695200,9.5126953125,-1.7217960357666016,0.18816375732421875,0.31638774275779724
1772728915807213300,9.52221337890625,-1.3369154930114746,0.23321747779846191,0.24141353368759155
1772728915816731400,9.5317314453125,-0.9731502532958984,0.2542448043823242,0.13473433256149292
1772728915826249500,9.54124951171875,-0.5744419097900391,0.2819523811340332,0.10419780015945435
1772728915835767600,9.550767578125,-0.23078346252441406,0.29293394088745117,0.1959245800971985
1772728915845285600,9.56028564453125,-0.046741485595703125,0.33905506134033203,0.3127974271774292
1772728915854803700,9.5698037109375,0.03552532196044922,0.3459310531616211,0.45806941390037537
1772728915864321800,9.57932177734375,0.11896133422851562,0.4066140651702881,0.5223358869552612
1772728915873839900,9.58883984375,0.108184814453125,0.5064506530761719,0.5397800207138062
1772728915883357700,9.598357666015625,0.0964059829711914,0.6052122116088867,0.5687683820724487
1772728915892875800,9.607875732421874,0.054931640625,0.6339261531829834,0.6577087044715881
1772728915902393900,9.617393798828125,0.03378105163574219,0.7103991508483887,0.7334265112876892
1772728915911912000,9.626911865234375,0.013586997985839844,0.7946667671203613,0.7512076497077942
1772728915921430000,9.636429931640626,0.034865379333496094,0.9298760890960693,0.6539620757102966
1772728915930948000,9.645947998046875,0.09477806091308594,1.033036470413208,0.5097106695175171
1772728915940466200,9.655466064453124,0.21937274932861328,1.0611279010772705,0.36414164304733276
1772728915949984000,9.66498388671875,0.40839481353759766,1.0237269401550293,0.2774695158004761
1772728915959502300,9.67450244140625,0.5373144149780273,0.9952821731567383,0.2645948529243469
1772728915969020200,9.684020263671876,0.5987892150878906,0.9835097789764404,0.27157819271087646
1772728915978538200,9.693538330078125,0.5902318954467773,0.970320463180542,0.2962431311607361
1772728915988056300,9.703056396484374,0.5854902267456055,0.9375240802764893,0.3578518331050873
1772728915997574400,9.712574462890625,0.6970863342285156,0.9224870204925537,0.2991529107093811
1772728916007092500,9.722092529296875,0.8994884490966797,0.8773958683013916,0.25802505016326904
1772728916016610600,9.731610595703126,1.0524282455444336,0.8341856002807617,0.2655843496322632
1772728916026128600,9.741128662109375,1.0967903137207031,0.8255727291107178,0.3476097583770752
1772728916035646700,9.750646728515624,1.0375995635986328,0.8087019920349121,0.33736759424209595
1772728916045164500,9.76016455078125,0.8243045806884766,0.8523452281951904,0.34729665517807007
1772728916054683000,9.769682861328125,0.5929574966430664,0.9527838230133057,0.28237849473953247
1772728916064200700,9.77920068359375,0.41141700744628906,1.0078177452087402,0.21767574548721313
1772728916073718800,9.78871875,0.43972301483154297,0.8619387149810791,0.26074206829071045
1772728916083236900,9.79823681640625,0.2624540328979492,0.8688747882843018,0.14680254459381104
1772728916092755000,9.8077548828125,0.11118698120117188,0.9361898899078369,-0.1326027512550354
1772728916102273000,9.81727294921875,0.4803504943847656,0.9825737476348877,-0.5123514533042908
1772728916111791000,9.826791015625,1.184274673461914,0.8431458473205566,-0.8474169969558716
1772728916121309200,9.83630908203125,1.789764404296875,0.5831215381622314,-0.7907629013061523
1772728916130827300,9.8458271484375,2.076883316040039,0.3690755367279053,-0.5856142044067383
1772728916140345000,9.855344970703126,2.3441286087036133,0.10151052474975586,-0.3459380865097046
