time,seconds_elapsed,z,y,x
1772728906374813400,0.0898134765625,0.09376774728298187,-0.07819069176912308,0.4263836145401001
1772728906384331500,0.09933154296875,0.10965022444725037,0.05925388261675835,0.4459312856197357
1772728906393849600,0.108849609375,0.13164135813713074,0.21807873249053955,0.44898560643196106
1772728906403367700,0.11836767578125,0.14508038759231567,0.3610210716724396,0.4257727563381195
1772728906412885500,0.127885498046875,0.14996729791164398,0.4667007029056549,0.38240134716033936
1772728906422403600,0.137403564453125,0.15668681263923645,0.5204567909240723,0.32620179653167725
1772728906431921700,0.146921630859375,0.16829325258731842,0.5192350745201111,0.25900667905807495
1772728906441439700,0.156439697265625,0.18906265497207642,0.4868592321872711,0.18264856934547424
1772728906450957800,0.165957763671875,0.2159406989812851,0.44837474822998047,0.10384701192378998
1772728906460476000,0.175475830078125,0.24220788478851318,0.4062250852584839,0.0360410213470459
1772728906469994000,0.184993896484375,0.2611446976661682,0.35124725103378296,-0.013439024798572063
1772728906479512000,0.194511962890625,0.2733619809150696,0.2828303873538971,-0.046425722539424896
1772728906489030100,0.204030029296875,0.2788597643375397,0.2101374864578247,-0.06475166976451874
1772728906498548200,0.21354833984375,0.282524973154068,0.12950333952903748,-0.07513637095689774
1772728906508066300,0.22306640625,0.2868010103702545,0.03848448023200035,-0.07574722915887833
1772728906517584400,0.23258447265625,0.29413139820098877,-0.05192350596189499,-0.06719512492418289
1772728906527102500,0.2421025390625,0.3081812858581543,-0.11117739230394363,-0.0513126403093338
1772728906536620500,0.25162060546875,0.32162031531333923,-0.1288924664258957,-0.02260199747979641
1772728906546138600,0.261138671875,0.3087921440601349,-0.11423171311616898,0.006719512399286032
1772728906555656700,0.27065673828125,0.2868010103702545,-0.0824667438864708,0.047036588191986084
1772728906565174800,0.2801748046875,0.26542073488235474,-0.03787361457943916,0.1026252806186676
1772728906574692900,0.28969287109375,0.23732095956802368,0.02260199747979641,0.16004657745361328
1772728906584211000,0.2992109375,0.21410810947418213,0.08979712426662445,0.19792018830776215
1772728906593729000,0.30872900390625,0.19883649051189423,0.14110976457595825,0.19669845700263977
1772728906603246800,0.318246826171875,0.1798996776342392,0.18203771114349365,0.16737695038318634
1772728906612765200,0.32776513671875,0.16157373785972595,0.20830489695072174,0.12034036219120026
1772728906622283000,0.337282958984375,0.14996729791164398,0.21502439677715302,0.05803215503692627
1772728906631801000,0.346801025390625,0.1444695144891739,0.2009745091199875,-0.020769402384757996
1772728906641319200,0.356319091796875,0.1340848207473755,0.16798780858516693,-0.1130099818110466
1772728906650837200,0.365837158203125,0.12675444781780243,0.12156209349632263,-0.20463970303535461
1772728906660355300,0.375355224609375,0.129197895526886,0.0665842592716217,-0.27855435013771057
1772728906669873400,0.384873291015625,0.13164135813713074,0.018325943499803543,-0.32131487131118774
1772728906679391500,0.3943916015625,0.13225223124027252,-0.008552107028663158,-0.33047783374786377
1772728906688909600,0.40390966796875,0.12431098520755768,-0.03176496922969818,-0.3090975880622864
1772728906698427600,0.413427734375,0.10965022444725037,-0.05497783049941063,-0.26939135789871216
1772728906707945700,0.42294580078125,0.0925460159778595,-0.07024945318698883,-0.22785256803035736
1772728906717463800,0.4324638671875,0.0772743970155716,-0.08063415437936783,-0.1905898153781891
1772728906726982000,0.44198193359375,0.0668896958231926,-0.09162971377372742,-0.1533270627260208
1772728906736500000,0.4515,0.05406153202056885,-0.09101885557174683,-0.12034036219120026
1772728906746018000,0.46101806640625,0.04001164436340332,-0.07757982611656189,-0.08063415437936783
1772728906755536000,0.470535888671875,0.03145953640341759,-0.06475166976451874,-0.036651886999607086
1772728906765054200,0.48005419921875,0.022907428443431854,-0.06414080411195755,0.0054977829568088055
1772728906774572300,0.489572265625,0.010690134018659592,-0.05436696484684944,0.037262752652168274
1772728906784090400,0.49909033203125,0.003359756199643016,-0.02871064469218254,0.06597339361906052
1772728906793608200,0.508608154296875,-0.008857538923621178,-0.03481929376721382,0.07757982611656189
1772728906803126500,0.51812646484375,-0.024740023538470268,-0.04214967042207718,0.0665842592716217
1772728906812644400,0.527644287109375,-0.04245510324835777,-0.025045456364750862,0.036651886999607086
1772728906822162400,0.537162353515625,-0.057726722210645676,-0.001832594396546483,0.003665188793092966
1772728906831680500,0.546680419921875,-0.0668896958231926,-0.003665188793092966,-0.026878049597144127
1772728906841198600,0.556198486328125,-0.07360920310020447,-0.01588248461484909,-0.06536252796649933
1772728906850716700,0.565716552734375,-0.05528326332569122,0.007330377586185932,-0.09529490768909454
1772728906860234800,0.57523486328125,-0.0204639695584774,0.05497783049941063,-0.09834922850131989
1772728906869752800,0.5847529296875,0.008246674202382565,0.11484257876873016,-0.06597339361906052
1772728906879271000,0.59427099609375,0.02779434807598591,0.15210533142089844,-0.01282816007733345
1772728906888789000,0.6037890625,0.011300998739898205,0.15271618962287903,0.0409279391169548
1772728906898307000,0.61330712890625,-0.005803215317428112,0.1441640853881836,0.09346231073141098
1772728906907825200,0.6228251953125,-0.019242240116000175,0.10445787757635117,0.14721840620040894
1772728906917343200,0.63234326171875,-0.03695731982588768,0.03848448023200035,0.19853104650974274
1772728906926861300,0.641861328125,-0.0668896958231926,-0.021991131827235222,0.22785256803035736
1772728906936379400,0.65137939453125,-0.09193515032529831,-0.040317077189683914,0.23518294095993042
1772728906945897500,0.6608974609375,-0.0974329337477684,-0.025045456364750862,0.2260199636220932
1772728906955415600,0.67041552734375,-0.10231985151767731,0.0054977829568088055,0.21441353857517242
1772728906964933600,0.67993359375,-0.11392628401517868,0.05864302068948746,0.19914191961288452
1772728906974451700,0.68945166015625,-0.11087195575237274,0.10934479534626007,0.16798780858516693
1772728906983969500,0.698969482421875,-0.09437860548496246,0.12034036219120026,0.11972949653863907
1772728906993488000,0.70848779296875,-0.06872228533029556,0.12461641430854797,0.07086031138896942
1772728907003005700,0.718005615234375,-0.04062250629067421,0.13622283935546875,0.053756099194288254
1772728907012524000,0.72752392578125,-0.02779434807598591,0.13988803327083588,0.08857539296150208
1772728907022041900,0.737041748046875,-0.041844237595796585,0.1337793916463852,0.1649334877729416
1772728907031560000,0.746559814453125,-0.07910698652267456,0.1130099818110466,0.25473061203956604
1772728907041078000,0.756078125,-0.12492185086011887,0.05497783049941063,0.3445277214050293
1772728907050596000,0.76559619140625,-0.17623448371887207,0.01588248461484909,0.41294458508491516
1772728907060114200,0.7751142578125,-0.2208276242017746,0.021380268037319183,0.4575377106666565
1772728907069632300,0.78463232421875,-0.2513708472251892,0.04581485688686371,0.48930269479751587
1772728907079150300,0.794150390625,-0.2782489061355591,0.06230820715427399,0.5106829404830933
1772728907088668400,0.80366845703125,-0.3039052188396454,0.06780599057674408,0.5320632457733154
1772728907098186500,0.8131865234375,-0.3173442482948303,0.09346231073141098,0.5442805290222168
1772728907107704600,0.82270458984375,-0.32039856910705566,0.1637117564678192,0.5412262082099915
1772728907117222700,0.83222265625,-0.33750277757644653,0.24373504519462585,0.5259546041488647
1772728907126740700,0.84174072265625,-0.3631591200828552,0.2009745091199875,0.47952884435653687
1772728907136258800,0.8512587890625,-0.3814850449562073,0.08124501258134842,0.3915643095970154
1772728907145777000,0.86077685546875,-0.39736753702163696,-0.06536252796649933,0.2620609998703003
1772728907155295000,0.870294921875,-0.4150826036930084,-0.22235478460788727,0.11911863088607788
1772728907164813000,0.87981298828125,-0.43340855836868286,-0.337808221578598,-0.010384701192378998
1772728907174331000,0.889330810546875,-0.45478883385658264,-0.4050033390522003,-0.10934479534626007
1772728907183849200,0.89884912109375,-0.47433650493621826,-0.430659681558609,-0.1795942485332489
1772728907193367000,0.908366943359375,-0.49144071340560913,-0.43004879355430603,-0.23396120965480804
1772728907202885400,0.917885498046875,-0.5006036758422852,-0.41416633129119873,-0.2938259541988373
1772728907212403200,0.9274033203125,-0.49021899700164795,-0.40805765986442566,-0.3500255048274994
1772728907221921500,0.936921630859375,-0.45967575907707214,-0.4361574649810791,-0.3811796307563782
1772728907231439400,0.946439453125,-0.41386088728904724,-0.4868592321872711,-0.3744601011276245
1772728907240957400,0.95595751953125,-0.364991694688797,-0.5302306413650513,-0.3298669755458832
1772728907250475500,0.9654755859375,-0.33200499415397644,-0.5418370366096497,-0.26022839546203613
1772728907259993600,0.97499365234375,-0.31673339009284973,-0.535728394985199,-0.18203771114349365
1772728907269511700,0.98451171875,-0.31673339009284973,-0.5112938284873962,-0.10567960888147354
1772728907279029800,0.99402978515625,-0.3173442482948303,-0.4416552484035492,-0.0360410213470459
1772728907288547800,1.0035478515625,-0.30634868144989014,-0.3347539007663727,0.020769402384757996
1772728907298066000,1.01306591796875,-0.28924447298049927,-0.21991132199764252,0.049480047076940536
1772728907307584000,1.022583984375,-0.2721402645111084,-0.12156209349632263,0.05253437161445618
1772728907317102000,1.03210205078125,-0.26419901847839355,-0.04520399495959282,0.03787361457943916
1772728907326620200,1.0416201171875,-0.2666424810886383,0.006108647678047419,0.010384701192378998
1772728907336138200,1.05113818359375,-0.27458372712135315,0.021380268037319183,-0.025045456364750862
1772728907345656300,1.06065625,-0.27947062253952026,0.001832594396546483,-0.06047561392188072
1772728907355174400,1.07017431640625,-0.281914085149765,-0.0256563201546669,-0.09712749719619751
1772728907364692500,1.0796923828125,-0.2770271897315979,-0.039706211537122726,-0.13255766034126282
1772728907374210600,1.08921044921875,-0.26480987668037415,-0.06291907280683517,-0.16004657745361328
1772728907383728400,1.098728271484375,-0.24831652641296387,-0.09346231073141098,-0.18142683804035187
1772728907393246700,1.108246826171875,-0.2306014597415924,-0.12034036219120026,-0.1954767256975174
1772728907402764500,1.1177646484375,-0.2110537886619568,-0.14782927930355072,-0.1997527778148651
1772728907412283000,1.127282958984375,-0.19089524447917938,-0.17837251722812653,-0.19425499439239502
1772728907421800700,1.13680078125,-0.1737910360097885,-0.19730933010578156,-0.17776164412498474
1772728907431319000,1.146319091796875,-0.1585194170475006,-0.1997527778148651,-0.15638138353824615
1772728907440836900,1.1558369140625,-0.1432477980852127,-0.1954767256975174,-0.12583814561367035
1772728907450355000,1.16535498046875,-0.13041962683200836,-0.1905898153781891,-0.0922405794262886
1772728907459873000,1.174873046875,-0.11209368705749512,-0.1802051067352295,-0.0616973415017128
1772728907469391000,1.18439111328125,-0.0925460159778595,-0.15577052533626556,-0.03787361457943916
1772728907478909200,1.1939091796875,-0.07360920310020447,-0.1130099818110466,-0.02260199747979641
1772728907488427300,1.20342724609375,-0.05711585655808449,-0.0616973415017128,-0.002443459117785096
1772728907497945300,1.2129453125,-0.03940077871084213,-0.01649334840476513,0.033597562462091446
1772728907507463400,1.22246337890625,-0.022907428443431854,0.013439024798572063,0.07452550530433655
1772728907516981500,1.2319814453125,-0.008246674202382565,0.037262752652168274,0.10018182545900345
1772728907526499600,1.24149951171875,0.00946840364485979,0.053145237267017365,0.10140355676412582
1772728907536017700,1.251017578125,0.032070402055978775,0.05497783049941063,0.08552107214927673
1772728907545535700,1.26053564453125,0.057726722210645676,0.04153880476951599,0.06963858753442764
1772728907555053800,1.2700537109375,0.08032871782779694,0.013439024798572063,0.06780599057674408
1772728907564572000,1.279572021484375,0.09926552325487137,-0.02260199747979641,0.07635809481143951
1772728907574089700,1.28908984375,0.11759147047996521,-0.05436696484684944,0.08429934084415436
1772728907583608000,1.298608154296875,0.13530655205249786,-0.07269290834665298,0.09651663154363632
1772728907593126000,1.3081259765625,0.15241076052188873,-0.06414080411195755,0.10873392969369888
1772728907602644200,1.317644287109375,0.168904110789299,-0.023212861269712448,0.11484257876873016
1772728907612162000,1.327162109375,0.18112140893936157,0.03848448023200035,0.1178968995809555
1772728907621680000,1.33668017578125,0.19211697578430176,0.09529490768909454,0.10873392969369888
1772728907631198200,1.3461982421875,0.20799945294857025,0.14599667489528656,0.09590577334165573
1772728907640716300,1.35571630859375,0.23182319104671478,0.19853104650974274,0.08124501258134842
1772728907650234400,1.365234375,0.26419901847839355,0.2370155304670334,0.049480047076940536
1772728907659752400,1.37475244140625,0.30085089802742004,0.24984370172023773,-0.015271619893610477
1772728907669270500,1.3842705078125,0.33322674036026,0.235793799161911,-0.10567960888147354
1772728907678788600,1.39378857421875,0.3601047992706299,0.19303326308727264,-0.1997527778148651
1772728907688306700,1.403306640625,0.3753764033317566,0.11484257876873016,-0.2718348205089569
1772728907697824800,1.41282470703125,0.38698282837867737,0.003665188793092966,-0.318871408700943
1772728907707342800,1.4223427734375,0.40286532044410706,-0.13133592903614044,-0.31459537148475647
1772728907716861000,1.43186083984375,0.4150826036930084,-0.2675587832927704,-0.24251331388950348
1772728907726379000,1.44137890625,0.42302384972572327,-0.38301220536231995,-0.15271618962287903
1772728907735897000,1.45089697265625,0.42913252115249634,-0.45509424805641174,-0.06719512492418289
1772728907745415200,1.460415283203125,0.42974337935447693,-0.4508182108402252,0.01893680728971958
1772728907754933200,1.469933349609375,0.4199695289134979,-0.379347026348114,0.12461641430854797
1772728907764451300,1.479451416015625,0.40286532044410706,-0.2706131041049957,0.24740023910999298
1772728907773969400,1.488969482421875,0.3857611119747162,-0.13439024984836578,0.36712974309921265
1772728907783487200,1.4984873046875,0.364991694688797,0.020769402384757996,0.44959646463394165
1772728907793005300,1.50800537109375,0.34666576981544495,0.18081597983837128,0.4630354940891266
1772728907802523400,1.5175234375,0.34666576981544495,0.3170388340950012,0.3995055556297302
1772728907812041500,1.52704150390625,0.36682429909706116,0.4221075773239136,0.2919933497905731
1772728907821559600,1.5365595703125,0.3955349326133728,0.4862483739852905,0.164322629570961
1772728907831077600,1.54607763671875,0.4248564541339874,0.5015199780464172,0.04214967042207718
1772728907840595700,1.555595703125,0.4462367296218872,0.4789179861545563,-0.06352993845939636
1772728907850113800,1.56511376953125,0.4621191918849945,0.42821621894836426,-0.13927717506885529
1772728907859631900,1.5746318359375,0.4725039005279541,0.3555232882499695,-0.18692462146282196
1772728907869150000,1.58414990234375,0.4773908257484436,0.258395791053772,-0.20769402384757996
1772728907878668000,1.59366796875,0.4786125421524048,0.1233946830034256,-0.19792018830776215
1772728907888186000,1.60318603515625,0.47494736313819885,-0.02871064469218254,-0.18081597983837128
1772728907897704200,1.6127041015625,0.45539969205856323,-0.17592905461788177,-0.17226386070251465
1772728907907222300,1.62222216796875,0.4260781705379486,-0.2993237376213074,-0.17653992772102356
1772728907916740400,1.631740234375,0.38881543278694153,-0.37323838472366333,-0.1795942485332489
1772728907926258400,1.641258544921875,0.3393353819847107,-0.3756818473339081,-0.17226386070251465
1772728907935776500,1.650776611328125,0.2831358313560486,-0.31520622968673706,-0.143553227186203
1772728907945294300,1.66029443359375,0.23365578055381775,-0.2254091054201126,-0.08979712426662445
1772728907954812700,1.669812744140625,0.19883649051189423,-0.13500112295150757,-0.013439024798572063
1772728907964330500,1.67933056640625,0.18173226714134216,-0.030543239787220955,0.06719512492418289
1772728907973848800,1.688848876953125,0.17684535682201385,0.08429934084415436,0.1386663019657135
1772728907983366700,1.69836669921875,0.1798996776342392,0.19242240488529205,0.18325942754745483
1772728907992884700,1.707884765625,0.18234314024448395,0.27488914132118225,0.1899789422750473
1772728908002402800,1.71740283203125,0.18234314024448395,0.32681265473365784,0.15699224174022675
1772728908011921000,1.7269208984375,0.18661919236183167,0.36163195967674255,0.09590577334165573
1772728908021439000,1.73643896484375,0.1945604383945465,0.3811796307563782,0.025045456364750862
1772728908030957000,1.74595703125,0.2049451321363449,0.379347026348114,-0.04214967042207718
1772728908040475100,1.75547509765625,0.21716243028640747,0.3543015718460083,-0.0977383628487587
1772728908049993200,1.7649931640625,0.22693626582622528,0.3176496922969818,-0.1337793916463852
1772728908059511300,1.77451123046875,0.23304490745067596,0.27916520833969116,-0.15760311484336853
1772728908069029400,1.784029296875,0.23548837006092072,0.23396120965480804,-0.16859868168830872
1772728908078547500,1.79354736328125,0.22876885533332825,0.19425499439239502,-0.16554436087608337
1772728908088065500,1.8030654296875,0.2214384824037552,0.15027274191379547,-0.15577052533626556
1772728908097583600,1.81258349609375,0.21349723637104034,0.1185077652335167,-0.1490510106086731
1772728908107101700,1.822101806640625,0.2055560052394867,0.10506874322891235,-0.1496618688106537
1772728908116619500,1.83161962890625,0.2000582218170166,0.11117739230394363,-0.1490510106086731
1772728908126137900,1.841137939453125,0.19394956529140472,0.11117739230394363,-0.12950333952903748
1772728908135655700,1.85065576171875,0.1853974610567093,0.09957095980644226,-0.09834922850131989
1772728908145174000,1.860174072265625,0.17867794632911682,0.09957095980644226,-0.07147117704153061
1772728908154691800,1.86969189453125,0.17623448371887207,0.10384701192378998,-0.05192350596189499
1772728908164210200,1.879210205078125,0.17867794632911682,0.09285144507884979,-0.043982263654470444
1772728908173728000,1.88872802734375,0.1798996776342392,0.06597339361906052,-0.05192350596189499
1772728908183246000,1.89824609375,0.18234314024448395,0.033597562462091446,-0.0720820426940918
1772728908192764200,1.90776416015625,0.18417572975158691,0.004276053514331579,-0.09834922850131989
1772728908202282200,1.9172822265625,0.1792888194322586,-0.023212861269712448,-0.12278381735086441
1772728908211800300,1.92680029296875,0.17073670029640198,-0.043982263654470444,-0.14172062277793884
1772728908221318400,1.936318359375,0.16035200655460358,-0.06536252796649933,-0.15271618962287903
1772728908230836500,1.94583642578125,0.15179990231990814,-0.07757982611656189,-0.16249002516269684
1772728908240354600,1.9553544921875,0.14630211889743805,-0.07391463965177536,-0.1637117564678192
1772728908249872600,1.96487255859375,0.14752385020256042,-0.05864302068948746,-0.14660754799842834
1772728908259390700,1.974390625,0.15485422313213348,-0.0409279391169548,-0.0977383628487587
1772728908268908800,1.98390869140625,0.1640172004699707,-0.021380268037319183,-0.01954767294228077
1772728908278427000,1.993427001953125,0.17134757339954376,-0.001832594396546483,0.06719512492418289
1772728908287945000,2.002945068359375,0.1750127524137497,0.01954767294228077,0.13561198115348816
1772728908297463000,2.012463134765625,0.1701258420944214,0.0409279391169548,0.17226386070251465
1772728908306981000,2.021981201171875,0.16218459606170654,0.059864748269319534,0.16798780858516693
1772728908316499200,2.031499267578125,0.15607595443725586,0.08674279600381851,0.12767073512077332
1772728908326017000,2.04101708984375,0.14813470840454102,0.10629047453403473,0.06780599057674408
1772728908335535400,2.050535400390625,0.14202606678009033,0.10323614627122879,0.006719512399286032
1772728908345053200,2.06005322265625,0.1328630894422531,0.08857539296150208,-0.04153880476951599
1772728908354571300,2.0695712890625,0.12247838824987411,0.07024945318698883,-0.08002328872680664
1772728908364089300,2.07908935546875,0.11209368705749512,0.043982263654470444,-0.10506874322891235
1772728908373607400,2.088607421875,0.1078176349401474,0.0054977829568088055,-0.12461641430854797
1772728908383125500,2.09812548828125,0.11331541836261749,-0.03848448023200035,-0.14049890637397766
1772728908392643600,2.1076435546875,0.13225223124027252,-0.07819069176912308,-0.13683371245861053
1772728908402161700,2.11716162109375,0.1597411334514618,-0.11728604137897491,-0.09407317638397217
1772728908411679700,2.1266796875,0.1853974610567093,-0.16615521907806396,0.000610864779446274
1772728908421197800,2.13619775390625,0.19272783398628235,-0.21197007596492767,0.15027274191379547
1772728908430716000,2.1457158203125,0.17195843160152435,-0.2101374864578247,0.3225366175174713
1772728908440234000,2.15523388671875,0.129197895526886,-0.14172062277793884,0.47586366534233093
1772728908449752000,2.164751953125,0.08460476994514465,-0.02871064469218254,0.5772672295570374
1772728908459270100,2.174270263671875,0.04673115536570549,0.09834922850131989,0.6224712133407593
1772728908468788200,2.183788330078125,0.01435532234609127,0.21380266547203064,0.6212494969367981
1772728908478306300,2.193306396484375,-0.010690134018659592,0.3139844834804535,0.5858193039894104
1772728908487824400,2.202824462890625,-0.025350889191031456,0.38728827238082886,0.5338957905769348
1772728908497342500,2.212342529296875,-0.03390299528837204,0.42455101013183594,0.47036588191986084
1772728908506860300,2.2218603515625,-0.0412333719432354,0.43432486057281494,0.40255987644195557
1772728908516378600,2.231378662109375,-0.04001164436340332,0.41783151030540466,0.33047783374786377
1772728908525896400,2.240896484375,-0.0308486707508564,0.36774060130119324,0.2528980076313019
1772728908535414500,2.25041455078125,-0.011911863461136818,0.29077163338661194,0.17104214429855347
1772728908544932600,2.2599326171875,0.013744457624852657,0.21380266547203064,0.0873536616563797
1772728908554450700,2.26945068359375,0.03695731982588768,0.15027274191379547,0.009773836471140385
1772728908563968800,2.27896875,0.054672397673130035,0.08063415437936783,-0.056810423731803894
1772728908573486800,2.28848681640625,0.06383536756038666,0.006108647678047419,-0.10018182545900345
1772728908583005000,2.2980048828125,0.06933315098285675,-0.06047561392188072,-0.10384701192378998
1772728908592523000,2.30752294921875,0.07299833744764328,-0.12156209349632263,-0.07513637095689774
1772728908602041000,2.317041015625,0.08277218043804169,-0.15821397304534912,-0.03176496922969818
1772728908611559200,2.32655908203125,0.09682206809520721,-0.1496618688106537,0.009162971749901772
1772728908621077200,2.3360771484375,0.11942406743764877,-0.10629047453403473,0.04581485688686371
1772728908630595300,2.34559521484375,0.1487455666065216,-0.04459312930703163,0.08368847519159317
1772728908640113400,2.355113525390625,0.1737910360097885,0.01954767294228077,0.11484257876873016
1772728908649631500,2.364631591796875,0.19700388610363007,0.08429934084415436,0.1233946830034256
1772728908659149300,2.3741494140625,0.22266021370887756,0.12461641430854797,0.10629047453403473
1772728908668667600,2.383667724609375,0.24465134739875793,0.1649334877729416,0.05803215503692627
1772728908678185500,2.393185546875,0.2605338394641876,0.2009745091199875,-0.020158538594841957
1772728908687703800,2.402703857421875,0.26908594369888306,0.22907429933547974,-0.11667517572641373
1772728908697221600,2.4122216796875,0.27091851830482483,0.22357651591300964,-0.20769402384757996
1772728908706740000,2.421739990234375,0.27580544352531433,0.1948658674955368,-0.29016077518463135
1772728908716257800,2.4312578125,0.281914085149765,0.16554436087608337,-0.3640754222869873
1772728908725776000,2.44077587890625,0.2929096519947052,0.14172062277793884,-0.43371400237083435
1772728908735294000,2.4502939453125,0.30451610684394836,0.10995566099882126,-0.49541133642196655
1772728908744812000,2.45981201171875,0.31551164388656616,0.08002328872680664,-0.5467239618301392
1772728908754330000,2.469330078125,0.3185659945011139,0.040317077189683914,-0.5858193039894104
1772728908763848200,2.47884814453125,0.3124573230743408,-0.014660755172371864,-0.6017017960548401
1772728908773366300,2.4883662109375,0.3026835024356842,-0.04153880476951599,-0.5913171172142029
1772728908782884400,2.49788427734375,0.3026835024356842,-0.029932374134659767,-0.5485565662384033
1772728908792402400,2.50740234375,0.32528549432754517,-0.001221729558892548,-0.46975502371788025
1772728908801920500,2.51692041015625,0.35766133666038513,0.04886918142437935,-0.36224281787872314
1772728908811438600,2.5264384765625,0.3851502537727356,0.10873392969369888,-0.23823726177215576
1772728908820956700,2.535956787109375,0.39248061180114746,0.1539379209280014,-0.1130099818110466
1772728908830474800,2.545474853515625,0.37843072414398193,0.19181154668331146,-0.009162971749901772
1772728908839992800,2.554992919921875,0.35582873225212097,0.23273947834968567,0.06230820715427399
1772728908849511000,2.564510986328125,0.3289506733417511,0.2712239623069763,0.1026252806186676
1772728908859028700,2.57402880859375,0.30146175622940063,0.29138249158859253,0.12034036219120026
1772728908868546800,2.583546875,0.27519458532333374,0.2779434621334076,0.11484257876873016
1772728908878065000,2.59306494140625,0.23976442217826843,0.24251331388950348,0.08979712426662445
1772728908887583000,2.6025830078125,0.22449280321598053,0.2522871494293213,0.059864748269319534
1772728908897101000,2.61210107421875,0.24953825771808624,0.25900667905807495,0.01649334840476513
1772728908906619100,2.621619140625,0.2971857190132141,0.258395791053772,-0.04886918142437935
1772728908916137200,2.63113720703125,0.34666576981544495,0.26450446248054504,-0.11423171311616898
1772728908925655300,2.6406552734375,0.38270679116249084,0.22296564280986786,-0.17165300250053406
1772728908935173400,2.65017333984375,0.3943132162094116,0.1380554437637329,-0.21746785938739777
1772728908944691500,2.65969140625,0.38270679116249084,0.03481929376721382,-0.24251331388950348
1772728908954209500,2.66920947265625,0.35216355323791504,-0.06230820715427399,-0.24312418699264526
1772728908963727600,2.6787275390625,0.3130682110786438,-0.13072505593299866,-0.2205221801996231
1772728908973245700,2.68824560546875,0.2678641974925995,-0.1795942485332489,-0.18387030065059662
1772728908982763800,2.697763671875,0.22449280321598053,-0.20219624042510986,-0.13927717506885529
1772728908992281900,2.70728173828125,0.189673513174057,-0.18203771114349365,-0.09834922850131989
1772728909001800000,2.716800048828125,0.16707152128219604,-0.12217295914888382,-0.06719512492418289
1772728909011317800,2.72631787109375,0.16157373785972595,-0.04825831577181816,-0.04825831577181816
1772728909020836000,2.735836181640625,0.16768237948417664,0.02932151034474373,-0.031154103577136993
1772728909030354000,2.74535400390625,0.18845178186893463,0.10751219838857651,-0.017715077847242355
1772728909039872300,2.754872314453125,0.22204934060573578,0.1795942485332489,-0.004886918235570192
1772728909049390000,2.76439013671875,0.26419901847839355,0.23884813487529755,0.001221729558892548
1772728909058908200,2.773908203125,0.30024003982543945,0.2675587832927704,0
1772728909068426200,2.78342626953125,0.32528549432754517,0.26389357447624207,-0.008552107028663158
1772728909077944300,2.7929443359375,0.3454440236091614,0.24556763470172882,-0.01893680728971958
1772728909087462400,2.80246240234375,0.36804601550102234,0.21441353857517242,-0.024434590712189674
1772728909096980500,2.81198046875,0.3912588953971863,0.17165300250053406,-0.01954767294228077
1772728909106498600,2.82149853515625,0.41447174549102783,0.12400554865598679,0.003665188793092966
1772728909116016600,2.8310166015625,0.43951719999313354,0.04764745384454727,0.05558869615197182
1772728909125534700,2.84053466796875,0.4535670876502991,-0.07391463965177536,0.15149445831775665
1772728909135052800,2.850052734375,0.448069304227829,-0.1795942485332489,0.27916520833969116
1772728909144571000,2.85957080078125,0.4266890585422516,-0.2315177470445633,0.40866854786872864
1772728909154089000,2.8690888671875,0.4053087830543518,-0.2211330533027649,0.5247328281402588
1772728909163607000,2.87860693359375,0.39858928322792053,-0.13744457066059113,0.6035344004631042
1772728909173125000,2.888125,0.3998109996318817,0.0054977829568088055,0.6365211009979248
1772728909182643200,2.897643310546875,0.4114174246788025,0.16615521907806396,0.6316341757774353
1772728909192161300,2.907161376953125,0.4364628791809082,0.30482152104377747,0.5894845128059387
1772728909201679000,2.91667919921875,0.47433650493621826,0.3946186602115631,0.5045742988586426
1772728909211197200,2.926197265625,0.5122101306915283,0.4416552484035492,0.40255987644195557
1772728909220715300,2.93571533203125,0.5409207344055176,0.4508182108402252,0.29993459582328796
1772728909230233300,2.9452333984375,0.5653553605079651,0.4221075773239136,0.19853104650974274
1772728909239751400,2.95475146484375,0.5836812853813171,0.3689623177051544,0.1026252806186676
1772728909249269500,2.96426953125,0.5934551358222961,0.30054548382759094,0.01649334840476513
1772728909258787600,2.97378759765625,0.5971203446388245,0.22968515753746033,-0.056810423731803894
1772728909268305700,2.9833056640625,0.5965094566345215,0.14660754799842834,-0.11056652665138245
1772728909277823700,2.99282373046875,0.5897899270057678,0.0513126403093338,-0.1380554437637329
1772728909287341800,3.002341796875,0.5757400393486023,-0.050090912729501724,-0.15088360011577606
1772728909296860000,3.01185986328125,0.5555815100669861,-0.12644900381565094,-0.15699224174022675
1772728909306378000,3.0213779296875,0.5305360555648804,-0.1588248461484909,-0.16126830875873566
1772728909315896000,3.03089599609375,0.5067123174667358,-0.14294235408306122,-0.15821397304534912
1772728909325414100,3.0404140625,0.48472121357917786,-0.08796452730894089,-0.14110976457595825
1772728909334932200,3.04993212890625,0.4627300798892975,-0.008552107028663158,-0.10629047453403473
1772728909344450000,3.059449951171875,0.4407389461994171,0.09101885557174683,-0.06902772188186646
1772728909353968400,3.068968505859375,0.41935867071151733,0.17715078592300415,-0.03481929376721382
1772728909363486200,3.078486328125,0.38881543278694153,0.22357651591300964,-0.018325943499803543
1772728909373004500,3.088004638671875,0.35094180703163147,0.2364046722650528,-0.028099779039621353
1772728909382522400,3.0975224609375,0.31062474846839905,0.2315177470445633,-0.053145237267017365
1772728909392040700,3.107040771484375,0.27030766010284424,0.21868959069252014,-0.07941242307424545
1772728909401558500,3.11655859375,0.23487751185894012,0.21135921776294708,-0.11056652665138245
1772728909411076600,3.12607666015625,0.1951712965965271,0.19730933010578156,-0.13927717506885529
1772728909420594700,3.1355947265625,0.15179990231990814,0.2107483446598053,-0.17104214429855347
1772728909430112800,3.14511279296875,0.11575887352228165,0.21441353857517242,-0.20219624042510986
1772728909439630800,3.154630859375,0.08888082206249237,0.20341797173023224,-0.2260199636220932
1772728909449149000,3.16414892578125,0.06505709886550903,0.19364413619041443,-0.24251331388950348
1772728909458667000,3.1736669921875,0.04245510324835777,0.1747073233127594,-0.24495677649974823
1772728909468185000,3.18318505859375,0.022907428443431854,0.1441640853881836,-0.22907429933547974
1772728909477703200,3.192703125,0.00946840364485979,0.1185077652335167,-0.20341797173023224
1772728909487221200,3.20222119140625,-0.006414080038666725,0.08796452730894089,-0.18081597983837128
1772728909496739300,3.2117392578125,-0.022907428443431854,0.049480047076940536,-0.17043127119541168
1772728909506257400,3.22125732421875,-0.035735588520765305,0.010995565913617611,-0.16615521907806396
1772728909515775500,3.230775390625,-0.041844237595796585,-0.011606430634856224,-0.16554436087608337
1772728909525293300,3.240293212890625,-0.041844237595796585,-0.012217295356094837,-0.16126830875873566
1772728909534811400,3.249811279296875,-0.04001164436340332,-0.009773836471140385,-0.14049890637397766
1772728909544329500,3.25932958984375,-0.038789913058280945,-0.018325943499803543,-0.10323614627122879
1772728909553847600,3.26884765625,-0.04245510324835777,-0.030543239787220955,-0.06108647957444191
1772728909563365600,3.27836572265625,-0.0461202897131443,-0.04886918142437935,-0.03298669680953026
1772728909572883700,3.2878837890625,-0.048563748598098755,-0.06719512492418289,-0.029932374134659767
1772728909582401800,3.29740185546875,-0.05528326332569122,-0.09285144507884979,-0.04276053607463837
1772728909591919900,3.306919921875,-0.05528326332569122,-0.1288924664258957,-0.06414080411195755
1772728909601438000,3.31643798828125,-0.047952886670827866,-0.17348559200763702,-0.0922405794262886
1772728909610956000,3.3259560546875,-0.0308486707508564,-0.1997527778148651,-0.12950333952903748
1772728909620474000,3.33547412109375,-0.011300998739898205,-0.20341797173023224,-0.16554436087608337
1772728909629992200,3.3449921875,0.008857538923621178,-0.19608759880065918,-0.18570289015769958
1772728909639510300,3.35451025390625,0.026572618633508682,-0.17653992772102356,-0.18387030065059662
1772728909649028400,3.3640283203125,0.03940077871084213,-0.1331685185432434,-0.1594357043504715
1772728909658546400,3.37354638671875,0.047952886670827866,-0.0818558782339096,-0.11911863088607788
1772728909668064500,3.383064453125,0.05039634555578232,-0.03787361457943916,-0.05742128938436508
1772728909677582300,3.392582275390625,0.04673115536570549,-0.0256563201546669,0.025045456364750862
1772728909687100700,3.4021005859375,0.03756818547844887,-0.037262752652168274,0.12522727251052856
1772728909696618500,3.411618408203125,0.02107483521103859,-0.05558869615197182,0.2211330533027649
1772728909706136600,3.421136474609375,0.0027488914784044027,-0.07024945318698883,0.28405213356018066
1772728909715654700,3.430654541015625,-0.010690134018659592,-0.0824667438864708,0.3029889166355133
1772728909725172700,3.4401728515625,-0.021685699000954628,-0.08796452730894089,0.2822195291519165
1772728909734690800,3.44969091796875,-0.029626941308379173,-0.08796452730894089,0.23396120965480804
1772728909744209000,3.459208984375,-0.041844237595796585,-0.07757982611656189,0.16249002516269684
1772728909753727000,3.46872705078125,-0.05283980444073677,-0.05497783049941063,0.07941242307424545
1772728909763245000,3.4782451171875,-0.06200277432799339,-0.027488915249705315,-0.007941242307424545
1772728909772763100,3.48776318359375,-0.0717766135931015,0.007330377586185932,-0.09590577334165573
1772728909782281200,3.49728125,-0.07055488228797913,0.04825831577181816,-0.15760311484336853
1772728909791799300,3.50679931640625,-0.0565049909055233,0.07086031138896942,-0.1795942485332489
1772728909801317400,3.5163173828125,-0.038789913058280945,0.05864302068948746,-0.16615521907806396
1772728909810835500,3.52583544921875,-0.025350889191031456,0.015271619893610477,-0.10751219838857651
1772728909820353500,3.535353515625,-0.02107483521103859,-0.05864302068948746,-0.009773836471140385
1772728909829871600,3.54487158203125,-0.028405211865901947,-0.16187916696071625,0.10873392969369888
1772728909839389400,3.554389404296875,-0.04367683082818985,-0.25473061203956604,0.2260199636220932
1772728909848907800,3.56390771484375,-0.057726722210645676,-0.3066541254520416,0.3170388340950012
1772728909858425600,3.573425537109375,-0.0766635313630104,-0.3298669755458832,0.3689623177051544
1772728909867944000,3.58294384765625,-0.09804379940032959,-0.3133736252784729,0.37812530994415283
1772728909877461800,3.592461669921875,-0.11942406743764877,-0.26450446248054504,0.3597993552684784
1772728909886979800,3.601979736328125,-0.14508038759231567,-0.21807873249053955,0.33719736337661743
1772728909896498000,3.611497802734375,-0.1750127524137497,-0.19181154668331146,0.3231474757194519
1772728909906016000,3.62101611328125,-0.20738859474658966,-0.18387030065059662,0.32070401310920715
1772728909915534000,3.6305341796875,-0.250149130821228,-0.16004657745361328,0.32070401310920715
1772728909925052200,3.64005224609375,-0.25809037685394287,-0.13683371245861053,0.3078758418560028
1772728909934570200,3.6495703125,-0.250149130821228,-0.10934479534626007,0.2669478952884674
1772728909944088300,3.65908837890625,-0.25381430983543396,-0.06230820715427399,0.20463970303535461
1772728909953606400,3.6686064453125,-0.2464839369058609,0.001221729558892548,0.12767073512077332
1772728909963124200,3.678124267578125,-0.2257145345211029,0.07452550530433655,0.043982263654470444
1772728909972642600,3.687642578125,-0.2055560052394867,0.1380554437637329,-0.020769402384757996
1772728909982160600,3.69716064453125,-0.18845178186893463,0.19120067358016968,-0.049480047076940536
1772728909991678700,3.7066787109375,-0.18173226714134216,0.22418737411499023,-0.04764745384454727
1772728910001196800,3.71619677734375,-0.1744018942117691,0.22968515753746033,-0.026878049597144127
1772728910010714600,3.725714599609375,-0.1597411334514618,0.21380266547203064,0.000610864779446274
1772728910020232700,3.735232666015625,-0.1389717310667038,0.17592905461788177,0.025045456364750862
1772728910029750800,3.744750732421875,-0.1078176349401474,0.13683371245861053,0.036651886999607086
1772728910039268900,3.754268798828125,-0.07299833744764328,0.10873392969369888,0.026878049597144127
1772728910048787000,3.763786865234375,-0.038789913058280945,0.09101885557174683,-0.001832594396546483
1772728910058305000,3.773304931640625,-0.007024944759905338,0.07147117704153061,-0.043982263654470444
1772728910067823000,3.782822998046875,0.02412915788590908,0.0513126403093338,-0.09712749719619751
1772728910077341200,3.792341064453125,0.047952886670827866,0.02260199747979641,-0.1533270627260208
1772728910086859300,3.801859375,0.05955931544303894,-0.008552107028663158,-0.20769402384757996
1772728910096377300,3.81137744140625,0.05833758786320686,-0.0409279391169548,-0.2626718580722809
1772728910105895400,3.8208955078125,0.05283980444073677,-0.06291907280683517,-0.31642794609069824
1772728910115413500,3.83041357421875,0.04734202101826668,-0.06963858753442764,-0.3707949221134186
1772728910124931600,3.839931640625,0.03940077871084213,-0.07574722915887833,-0.41783151030540466
1772728910134449700,3.84944970703125,0.029016077518463135,-0.0769689604640007,-0.4526508152484894
1772728910143967700,3.8589677734375,0.016798781231045723,-0.07819069176912308,-0.47097674012184143
1772728910153485600,3.868485595703125,0.003970621153712273,-0.07391463965177536,-0.471587598323822
1772728910163004000,3.87800390625,-0.010079269297420979,-0.06352993845939636,-0.45875945687294006
1772728910172521700,3.887521728515625,-0.022296564653515816,-0.04214967042207718,-0.4410443603992462
1772728910182040000,3.8970400390625,-0.032681263983249664,-0.023212861269712448,-0.41905322670936584
1772728910191558000,3.906557861328125,-0.04245510324835777,-0.013439024798572063,-0.39339691400527954
1772728910201076000,3.916075927734375,-0.04978547990322113,-0.018325943499803543,-0.3530798554420471
1772728910210594000,3.925593994140625,-0.04550942778587341,-0.01282816007733345,-0.3017672002315521
1772728910220112100,3.935112060546875,-0.019242240116000175,0.029932374134659767,-0.2516762912273407
1772728910229630200,3.944630126953125,0.005192350596189499,0.0873536616563797,-0.19792018830776215
1772728910239148300,3.954148193359375,0.016187917441129684,0.1337793916463852,-0.13011419773101807
1772728910248666400,3.963666259765625,-0.005803215317428112,0.1545487940311432,-0.04276053607463837
1772728910258184400,3.973184326171875,-0.0204639695584774,0.1747073233127594,0.043982263654470444
1772728910267702500,3.98270263671875,-0.01435532234609127,0.19792018830776215,0.10018182545900345
1772728910277220600,3.992220703125,-0.01740964688360691,0.205861434340477,0.12034036219120026
1772728910286738700,4.00173876953125,-0.02779434807598591,0.1948658674955368,0.11484257876873016
1772728910296256800,4.0112568359375,-0.02107483521103859,0.15638138353824615,0.0977383628487587
1772728910305774800,4.02077490234375,-0.005192350596189499,0.10690133273601532,0.07391463965177536
1772728910315292700,4.030292724609375,0.016187917441129684,0.06291907280683517,0.05436696484684944
1772728910324811000,4.03981103515625,0.044898562133312225,0.014660755172371864,0.030543239787220955
1772728910334328800,4.049328857421875,0.07238747924566269,-0.0256563201546669,-0.004276053514331579
1772728910343847000,4.058846923828125,0.07910698652267456,-0.06963858753442764,-0.0360410213470459
1772728910353365000,4.068364990234375,0.06566796451807022,-0.14172062277793884,-0.043982263654470444
1772728910362883000,4.077883056640625,0.05833758786320686,-0.19608759880065918,-0.03298669680953026
1772728910372401200,4.087401123046875,0.05589412897825241,-0.23273947834968567,-0.000610864779446274
1772728910381919200,4.096919189453125,0.05589412897825241,-0.24984370172023773,0.043982263654470444
1772728910391437300,4.106437255859375,0.044898562133312225,-0.2528980076313019,0.10690133273601532
1772728910400955400,4.115955322265625,0.01802051067352295,-0.24984370172023773,0.19120067358016968
1772728910410473500,4.125473388671875,0.00946840364485979,-0.19608759880065918,0.2834412455558777
1772728910419991600,4.134991455078125,0.011300998739898205,-0.09529490768909454,0.35674503445625305
1772728910429509600,4.144509521484375,0.006414080038666725,0,0.4159989058971405
1772728910439027700,4.15402783203125,0.016187917441129684,0.08674279600381851,0.46364638209342957
1772728910448545800,4.1635458984375,0.0461202897131443,0.16615521907806396,0.4838049113750458
1772728910458064000,4.17306396484375,0.09865466505289078,0.2657261788845062,0.4740310609340668
1772728910467582000,4.18258203125,0.1597411334514618,0.35735589265823364,0.4416552484035492
1772728910477099800,4.192099853515625,0.21288637816905975,0.3848448097705841,0.4007273018360138
1772728910486617900,4.201617919921875,0.250149130821228,0.3176496922969818,0.389120876789093
1772728910496136000,4.211135986328125,0.2409861534833908,0.3084867000579834,0.3481929302215576
1772728910505654000,4.220654052734375,0.2464839369058609,0.3023780584335327,0.287106454372406
1772728910515172000,4.230172119140625,0.3491092324256897,0.32559093832969666,0.19242240488529205
1772728910524690200,4.239690185546875,0.383928507566452,0.29504770040512085,0.0922405794262886
1772728910534208300,4.249208251953125,0.38331764936447144,0.2254091054201126,0.014660755172371864
1772728910543726300,4.258726318359375,0.3808741867542267,0.1178968995809555,-0.031154103577136993
1772728910553244400,4.268244384765625,0.36682429909706116,-0.021991131827235222,-0.011606430634856224
1772728910562762500,4.277762451171875,0.3656025826931,-0.14599667489528656,0.08796452730894089
1772728910572280600,4.287280517578125,0.36804601550102234,-0.20341797173023224,0.23945899307727814
1772728910581798700,4.296798583984375,0.3808741867542267,-0.1594357043504715,0.38850998878479004
1772728910591316700,4.306316650390625,0.36804601550102234,-0.06597339361906052,0.5009090900421143
1772728910600834800,4.315834716796875,0.3448331654071808,0.026878049597144127,0.5632173418998718
1772728910610352600,4.3253525390625,0.3173442482948303,0.12156209349632263,0.5717694163322449
1772728910619871000,4.33487109375,0.29596397280693054,0.23945899307727814,0.5155698657035828
1772728910629388800,4.344388916015625,0.29413139820098877,0.3646862804889679,0.39889469742774963
1772728910638907100,4.3539072265625,0.3130682110786438,0.481361448764801,0.24006985127925873
1772728910648425000,4.363425048828125,0.34238970279693604,0.544891357421875,0.07330377399921417
1772728910657943000,4.372943115234375,0.36804601550102234,0.5528326034545898,-0.07513637095689774
1772728910667461000,4.382461181640625,0.3863719701766968,0.5277871489524841,-0.19181154668331146
1772728910676979200,4.391979248046875,0.39675667881965637,0.4923570156097412,-0.2724456787109375
1772728910686497300,4.401497314453125,0.4016436040401459,0.46486809849739075,-0.32070401310920715
1772728910696015400,4.411015380859375,0.40347617864608765,0.42821621894836426,-0.3347539007663727
1772728910705533400,4.420533447265625,0.4059196412563324,0.3500255048274994,-0.31581708788871765
1772728910715051500,4.430051513671875,0.4108065664768219,0.2309068888425827,-0.2730565667152405
1772728910724569600,4.439569580078125,0.41325002908706665,0.0818558782339096,-0.21197007596492767
1772728910734087700,4.449087646484375,0.40958482027053833,-0.06414080411195755,-0.1490510106086731
1772728910743605800,4.458605712890625,0.3955349326133728,-0.17104214429855347,-0.09834922850131989
1772728910753123600,4.46812353515625,0.3802633285522461,-0.2406807243824005,-0.06475166976451874
1772728910762642000,4.477641845703125,0.36132651567459106,-0.2461785078048706,-0.04825831577181816
1772728910772159700,4.48715966796875,0.33750277757644653,-0.2162461280822754,-0.03543015569448471
1772728910781678000,4.496677978515625,0.3173442482948303,-0.17165300250053406,-0.01954767294228077
1772728910791196000,4.50619580078125,0.3039052188396454,-0.10384701192378998,-0.006108647678047419
1772728910800714200,4.51571435546875,0.291687935590744,-0.031154103577136993,-0.004276053514331579
1772728910810232000,4.525232177734375,0.27947062253952026,0.02871064469218254,-0.020769402384757996
1772728910819750100,4.534750244140625,0.26542073488235474,0.06841685622930527,-0.05192350596189499
1772728910829268200,4.544268310546875,0.24953825771808624,0.09834922850131989,-0.09162971377372742
1772728910838786300,4.553786376953125,0.23793183267116547,0.11178825795650482,-0.13988803327083588
1772728910848304400,4.563304443359375,0.22815799713134766,0.1130099818110466,-0.1893680840730667
1772728910857822500,4.572822509765625,0.21960589289665222,0.10445787757635117,-0.23212862014770508
1772728910867340500,4.582340576171875,0.21349723637104034,0.09957095980644226,-0.25350889563560486
1772728910876858600,4.591858642578125,0.20311254262924194,0.08674279600381851,-0.25350889563560486
1772728910886376700,4.601376708984375,0.18723005056381226,0.05497783049941063,-0.2364046722650528
1772728910895894800,4.610894775390625,0.1695149689912796,0.024434590712189674,-0.2156352698802948
1772728910905412900,4.620412841796875,0.1487455666065216,0.009773836471140385,-0.20219624042510986
1772728910914930700,4.6299306640625,0.13164135813713074,-0.002443459117785096,-0.1954767256975174
1772728910924449000,4.639448974609375,0.11881320178508759,-0.017104214057326317,-0.18753549456596375
1772728910933966800,4.648966796875,0.10659590363502502,-0.034208428114652634,-0.17104214429855347
1772728910943485200,4.658485107421875,0.0925460159778595,-0.056810423731803894,-0.14782927930355072
1772728910953003000,4.6680029296875,0.07849612087011337,-0.0824667438864708,-0.12095122784376144
1772728910962521000,4.67752099609375,0.06322450190782547,-0.10201441496610641,-0.09529490768909454
1772728910972039200,4.6870390625,0.04978547990322113,-0.11178825795650482,-0.06475166976451874
1772728910981557200,4.69655712890625,0.03756818547844887,-0.12278381735086441,-0.02932151034474373
1772728910991075300,4.706075439453125,0.02718348242342472,-0.12950333952903748,0.001221729558892548
1772728911000593400,4.715593505859375,0.02107483521103859,-0.11667517572641373,0.02260199747979641
1772728911010111500,4.725111572265625,0.014966187067329884,-0.10873392969369888,0.03237583488225937
1772728911019629600,4.734629638671875,0.005192350596189499,-0.11667517572641373,0.024434590712189674
1772728911029147600,4.744147705078125,-0.0015271619195118546,-0.12767073512077332,0.004276053514331579
1772728911038665700,4.753665771484375,-0.00946840364485979,-0.14782927930355072,-0.023212861269712448
1772728911048183800,4.763183837890625,-0.016798781231045723,-0.17898337543010712,-0.056810423731803894
1772728911057702000,4.772701904296875,-0.0204639695584774,-0.21441353857517242,-0.09896009415388107
1772728911067220000,4.782219970703125,-0.02779434807598591,-0.24373504519462585,-0.1484401375055313
1772728911076737800,4.79173779296875,-0.03695731982588768,-0.2565632164478302,-0.19364413619041443
1772728911086255900,4.801255859375,-0.04917461425065994,-0.2467893660068512,-0.21380266547203064
1772728911095774000,4.81077392578125,-0.06444623321294785,-0.23518294095993042,-0.19608759880065918
1772728911105292000,4.8202919921875,-0.08338304609060287,-0.21380266547203064,-0.14233149588108063
1772728911114810000,4.82981005859375,-0.10354158282279968,-0.17898337543010712,-0.06047561392188072
1772728911124328200,4.839328125,-0.12553271651268005,-0.13622283935546875,0.043982263654470444
1772728911133846300,4.84884619140625,-0.14996729791164398,-0.10201441496610641,0.15149445831775665
1772728911143364400,4.8583642578125,-0.168904110789299,-0.0818558782339096,0.2309068888425827
1772728911152882400,4.86788232421875,-0.17256930470466614,-0.06108647957444191,0.2626718580722809
1772728911162400500,4.877400390625,-0.15790854394435883,-0.037262752652168274,0.24373504519462585
1772728911171918600,4.886918701171875,-0.13775001466274261,-0.03909534588456154,0.19120067358016968
1772728911181436700,4.896436767578125,-0.12186752259731293,-0.0824667438864708,0.12034036219120026
1772728911190954800,4.905954833984375,-0.11087195575237274,-0.14782927930355072,0.04459312930703163
1772728911200472800,4.915472900390625,-0.09926552325487137,-0.21991132199764252,-0.02626718580722809
1772728911209991000,4.924990966796875,-0.08277218043804169,-0.2657261788845062,-0.08613193035125732
1772728911219509000,4.934509033203125,-0.060781046748161316,-0.2767217457294464,-0.12950333952903748
1772728911229026800,4.94402685546875,-0.04306596517562866,-0.2877173125743866,-0.14660754799842834
1772728911238545000,4.953544921875,-0.035124726593494415,-0.3072649836540222,-0.13500112295150757
1772728911248063000,4.96306298828125,-0.03634645417332649,-0.3249800503253937,-0.09040798991918564
1772728911257581000,4.9725810546875,-0.04062250629067421,-0.3329212963581085,-0.01954767294228077
1772728911267099100,4.98209912109375,-0.051618073135614395,-0.33231043815612793,0.07269290834665298
1772728911276617200,4.9916171875,-0.06994401663541794,-0.3243691921234131,0.17837251722812653
1772728911286135300,5.00113525390625,-0.10354158282279968,-0.3084867000579834,0.27488914132118225
1772728911295653400,5.0106533203125,-0.15057817101478577,-0.2828303873538971,0.3481929302215576
1772728911305171500,5.02017138671875,-0.2006690800189972,-0.23945899307727814,0.3915643095970154
1772728911314689500,5.029689453125,-0.2464839369058609,-0.1747073233127594,0.4147771894931793
1772728911324207600,5.03920751953125,-0.2861901521682739,-0.11239911615848541,0.4202749729156494
1772728911333725700,5.0487255859375,-0.31612253189086914,-0.06352993845939636,0.4013381600379944
1772728911343243800,5.058243896484375,-0.3344484567642212,-0.037262752652168274,0.35613417625427246
1772728911352761600,5.06776171875,-0.3430005609989166,-0.02626718580722809,0.2864955961704254
1772728911362280000,5.077280029296875,-0.34727662801742554,-0.009773836471140385,0.1954767256975174
1772728911371797800,5.0867978515625,-0.3539961278438568,0.015271619893610477,0.09101885557174683
1772728911381316000,5.096316162109375,-0.36804601550102234,0.04581485688686371,-0.01282816007733345
1772728911390834000,5.105833984375,-0.3851502537727356,0.07819069176912308,-0.0873536616563797
1772728911400352000,5.11535205078125,-0.4010327160358429,0.0977383628487587,-0.12217295914888382
1772728911409870000,5.1248701171875,-0.40897396206855774,0.10506874322891235,-0.13255766034126282
1772728911419388200,5.13438818359375,-0.3992001414299011,0.1130099818110466,-0.13988803327083588
1772728911428906200,5.14390625,-0.37232208251953125,0.11972949653863907,-0.15577052533626556
1772728911438424300,5.15342431640625,-0.3393353819847107,0.11972949653863907,-0.17653992772102356
1772728911447942400,5.1629423828125,-0.30573782324790955,0.10384701192378998,-0.18203771114349365
1772728911457460500,5.17246044921875,-0.2770271897315979,0.06536252796649933,-0.16615521907806396
1772728911466978600,5.181978515625,-0.25442516803741455,0.021991131827235222,-0.12583814561367035
1772728911476496600,5.19149658203125,-0.23243404924869537,-0.001832594396546483,-0.06536252796649933
1772728911486014700,5.2010146484375,-0.210442915558815,-0.006108647678047419,-0.002443459117785096
1772728911495532500,5.210532470703125,-0.18784092366695404,0.014049889519810677,0.0513126403093338
1772728911505051000,5.22005078125,-0.16523891687393188,0.039706211537122726,0.09101885557174683
1772728911514568700,5.229568603515625,-0.1438586562871933,0.06291907280683517,0.11362084746360779
1772728911524087000,5.239087158203125,-0.129197895526886,0.09468404203653336,0.12278381735086441
1772728911533604900,5.24860498046875,-0.12064579129219055,0.12644900381565094,0.12278381735086441
1772728911543123000,5.258123046875,-0.11636973917484283,0.143553227186203,0.11117739230394363
1772728911552641000,5.26764111328125,-0.12003492563962936,0.13988803327083588,0.08674279600381851
1772728911562159000,5.2771591796875,-0.12003492563962936,0.1233946830034256,0.050090912729501724
1772728911571677200,5.28667724609375,-0.11942406743764877,0.09468404203653336,0.007330377586185932
1772728911581195300,5.2961953125,-0.11636973917484283,0.07024945318698883,-0.04214967042207718
1772728911590713300,5.30571337890625,-0.1078176349401474,0.06047561392188072,-0.08429934084415436
1772728911600231400,5.3152314453125,-0.09865466505289078,0.04825831577181816,-0.10873392969369888
1772728911609749500,5.32474951171875,-0.09437860548496246,0.023212861269712448,-0.12644900381565094
1772728911619267600,5.334267578125,-0.08888082206249237,0.001221729558892548,-0.14782927930355072
1772728911628785700,5.34378564453125,-0.07849612087011337,-0.002443459117785096,-0.18203771114349365
1772728911638303500,5.353303466796875,-0.06627883017063141,-0.002443459117785096,-0.22357651591300964
1772728911647821800,5.36282177734375,-0.0565049909055233,-0.024434590712189674,-0.268169641494751
1772728911657339600,5.372339599609375,-0.04550942778587341,-0.0513126403093338,-0.3090975880622864
1772728911666858000,5.38185791015625,-0.032681263983249664,-0.06291907280683517,-0.33719736337661743
1772728911676375800,5.391375732421875,-0.019853105768561363,-0.056810423731803894,-0.3481929302215576
1772728911685894000,5.400893798828125,-0.007635809946805239,-0.03481929376721382,-0.34086254239082336
1772728911695412000,5.410411865234375,0.003359756199643016,0.006719512399286032,-0.3243691921234131
1772728911704930000,5.419929931640625,0.014966187067329884,0.06902772188186646,-0.3017672002315521
1772728911714448100,5.4294482421875,0.023518294095993042,0.13744457066059113,-0.27000224590301514
1772728911723966200,5.43896630859375,0.025961752980947495,0.205861434340477,-0.22968515753746033
1772728911733484300,5.448484375,0.024740023538470268,0.268169641494751,-0.17592905461788177
1772728911743002400,5.45800244140625,0.028405211865901947,0.31520622968673706,-0.1081230640411377
1772728911752520400,5.4675205078125,0.03390299528837204,0.34697118401527405,-0.043371398001909256
1772728911762038500,5.47703857421875,0.04001164436340332,0.36163195967674255,0.007941242307424545
1772728911771556600,5.486556640625,0.0461202897131443,0.35124725103378296,0.0360410213470459
1772728911781074400,5.496074462890625,0.05711585655808449,0.3194822669029236,0.043982263654470444
1772728911790592800,5.5055927734375,0.06933315098285675,0.2571740746498108,0.040317077189683914
1772728911800110600,5.515110595703125,0.08521563559770584,0.16310089826583862,0.024434590712189674
1772728911809629000,5.52462890625,0.09987638890743256,0.06414080411195755,-0.000610864779446274
1772728911819146800,5.534146728515625,0.10537417232990265,-0.017715077847242355,-0.023823726922273636
1772728911828664800,5.543664794921875,0.10170898586511612,-0.06841685622930527,-0.0360410213470459
1772728911838183000,5.553182861328125,0.0925460159778595,-0.09468404203653336,-0.033597562462091446
1772728911847701000,5.562700927734375,0.08032871782779694,-0.07880155742168427,-0.014660755172371864
1772728911857219000,5.572218994140625,0.07299833744764328,-0.04581485688686371,0.023212861269712448
1772728911866737200,5.581737060546875,0.07483093440532684,-0.018325943499803543,0.0665842592716217
1772728911876255200,5.591255126953125,0.08032871782779694,0.020158538594841957,0.09651663154363632
1772728911885773300,5.600773193359375,0.09132428467273712,0.06780599057674408,0.10201441496610641
1772728911895291400,5.61029150390625,0.10965022444725037,0.12034036219120026,0.07941242307424545
1772728911904809500,5.6198095703125,0.1340848207473755,0.1692095398902893,0.037262752652168274
1772728911914327600,5.62932763671875,0.16157373785972595,0.20280711352825165,-0.012217295356094837
1772728911923845400,5.638845458984375,0.18661919236183167,0.1997527778148651,-0.056199558079242706
1772728911933363700,5.64836376953125,0.20738859474658966,0.16126830875873566,-0.09407317638397217
1772728911942881500,5.657881591796875,0.22876885533332825,0.11972949653863907,-0.12644900381565094
1772728911952400000,5.66739990234375,0.24831652641296387,0.08552107214927673,-0.15577052533626556
1772728911961917700,5.676917724609375,0.27519458532333374,0.056810423731803894,-0.1795942485332489
1772728911971435800,5.686435791015625,0.30573782324790955,0.034208428114652634,-0.18631376326084137
1772728911980953900,5.695953857421875,0.3381136655807495,-0.001832594396546483,-0.15577052533626556
1772728911990472000,5.705471923828125,0.3643808364868164,-0.05864302068948746,-0.07086031138896942
1772728911999990000,5.714989990234375,0.3759872615337372,-0.10690133273601532,0.06108647957444191
1772728912009508000,5.724508056640625,0.36682429909706116,-0.13500112295150757,0.20891575515270233
1772728912019026200,5.734026123046875,0.33689191937446594,-0.15577052533626556,0.3384190797805786
1772728912028544300,5.743544189453125,0.30085089802742004,-0.13622283935546875,0.42455101013183594
1772728912038062300,5.753062255859375,0.2813032269477844,-0.05497783049941063,0.46059203147888184
1772728912047580400,5.762580322265625,0.2788597643375397,0.06352993845939636,0.4563159942626953
1772728912057098500,5.772098388671875,0.2770271897315979,0.18203771114349365,0.4098902642726898
1772728912066616300,5.7816162109375,0.27397283911705017,0.28954991698265076,0.3335321843624115
1772728912076134700,5.791134765625,0.2715294063091278,0.37629270553588867,0.2412915825843811
1772728912085652500,5.800652587890625,0.2733619809150696,0.42455101013183594,0.1496618688106537
1772728912095170600,5.810170654296875,0.2782489061355591,0.4214966893196106,0.07330377399921417
1772728912104688600,5.819688720703125,0.28557929396629333,0.39217519760131836,0.012217295356094837
1772728912114206700,5.829206787109375,0.2929096519947052,0.3597993552684784,-0.036651886999607086
1772728912123724800,5.838724853515625,0.3069595396518707,0.3536907136440277,-0.0665842592716217
1772728912133243000,5.848242919921875,0.3246746361255646,0.3445277214050293,-0.07635809481143951
1772728912142761000,5.857760986328125,0.3246746361255646,0.2993237376213074,-0.06780599057674408
1772728912152279000,5.867279052734375,0.3344484567642212,0.23029601573944092,-0.03298669680953026
1772728912161797000,5.876797119140625,0.34177884459495544,0.1331685185432434,-0.0030543238390237093
1772728912171315200,5.886315185546875,0.3436114490032196,0.030543239787220955,0.014049889519810677
1772728912180833300,5.895833251953125,0.34177884459495544,-0.06414080411195755,0.007330377586185932
1772728912190351400,5.905351318359375,0.33200499415397644,-0.14110976457595825,-0.027488915249705315
1772728912199869400,5.914869384765625,0.32039856910705566,-0.18570289015769958,-0.07024945318698883
1772728912209387300,5.92438720703125,0.3136790692806244,-0.19181154668331146,-0.10629047453403473
1772728912218905600,5.933905517578125,0.30634868144989014,-0.1692095398902893,-0.12950333952903748
1772728912228423400,5.94342333984375,0.2971857190132141,-0.1331685185432434,-0.13500112295150757
1772728912237941500,5.95294140625,0.28435754776000977,-0.10690133273601532,-0.13072505593299866
1772728912247459600,5.96245947265625,0.272751122713089,-0.08552107214927673,-0.12034036219120026
1772728912256977700,5.971977783203125,0.2629773020744324,-0.06536252796649933,-0.11423171311616898
1772728912266495700,5.981495849609375,0.24770566821098328,-0.034208428114652634,-0.12095122784376144
1772728912276013800,5.991013916015625,0.22510367631912231,-0.0030543238390237093,-0.13927717506885529
1772728912285532000,6.000531982421875,0.1945604383945465,0.012217295356094837,-0.16310089826583862
1772728912295050000,6.010050048828125,0.16035200655460358,0.014660755172371864,-0.1899789422750473
1772728912304568000,6.019568115234375,0.13164135813713074,0.014660755172371864,-0.21502439677715302
1772728912314086100,6.029086181640625,0.10720676928758621,0.006719512399286032,-0.22968515753746033
1772728912323604200,6.038604248046875,0.07849612087011337,-0.006108647678047419,-0.23518294095993042
1772728912333122300,6.048122314453125,0.05039634555578232,-0.013439024798572063,-0.2254091054201126
1772728912342640400,6.057640380859375,0.029626941308379173,-0.007330377586185932,-0.1899789422750473
1772728912352158200,6.067158203125,0.00946840364485979,0.001832594396546483,-0.1496618688106537
1772728912361676300,6.07667626953125,-0.014966187067329884,0.002443459117785096,-0.11178825795650482
1772728912371194400,6.0861943359375,-0.04428769648075104,-0.001832594396546483,-0.08063415437936783
1772728912380712400,6.09571240234375,-0.07116574794054031,-0.009162971749901772,-0.053756099194288254
1772728912390230500,6.10523046875,-0.09132428467273712,-0.012217295356094837,-0.027488915249705315
1772728912399748600,6.11474853515625,-0.10842850059270859,-0.010384701192378998,-0.006108647678047419
1772728912409266700,6.1242666015625,-0.1230892539024353,-0.006108647678047419,0.006719512399286032
1772728912418784800,6.13378466796875,-0.13652828335762024,-0.0054977829568088055,0.014049889519810677
1772728912428302800,6.143302734375,-0.14813470840454102,-0.009773836471140385,0.01954767294228077
1772728912437821000,6.152821044921875,-0.1542433500289917,-0.01893680728971958,0.020158538594841957
1772728912447339000,6.162339111328125,-0.15790854394435883,-0.03176496922969818,0.003665188793092966
1772728912456857000,6.171857177734375,-0.1640172004699707,-0.056199558079242706,-0.04764745384454727
1772728912466375200,6.181375244140625,-0.16768237948417664,-0.09101885557174683,-0.13072505593299866
1772728912475893000,6.19089306640625,-0.16157373785972595,-0.12950333952903748,-0.22174391150474548
1772728912485411300,6.200411376953125,-0.15607595443725586,-0.1545487940311432,-0.2919933497905731
1772728912494929200,6.20992919921875,-0.1493564397096634,-0.1698204129934311,-0.34086254239082336
1772728912504447200,6.219447265625,-0.14263692498207092,-0.18325942754745483,-0.37201663851737976
1772728912513965300,6.22896533203125,-0.1334739476442337,-0.17531819641590118,-0.3836230933666229
1772728912523483400,6.2384833984375,-0.12125665694475174,-0.14172062277793884,-0.3536907136440277
1772728912533001500,6.24800146484375,-0.10659590363502502,-0.09957095980644226,-0.27000224590301514
1772728912542519600,6.25751953125,-0.09132428467273712,-0.06047561392188072,-0.14049890637397766
1772728912552037600,6.26703759765625,-0.08032871782779694,-0.033597562462091446,0.000610864779446274
1772728912561555700,6.2765556640625,-0.07055488228797913,-0.015271619893610477,0.1130099818110466
1772728912571073800,6.28607373046875,-0.06261363625526428,-0.008552107028663158,0.17043127119541168
1772728912580591900,6.295591796875,-0.05711585655808449,-0.013439024798572063,0.16554436087608337
1772728912590110000,6.30510986328125,-0.05345066636800766,-0.026878049597144127,0.11117739230394363
1772728912599628000,6.3146279296875,-0.05406153202056885,-0.05864302068948746,0.026878049597144127
1772728912609146000,6.32414599609375,-0.05528326332569122,-0.09407317638397217,-0.06780599057674408
1772728912618664000,6.333663818359375,-0.05589412897825241,-0.11484257876873016,-0.16187916696071625
1772728912628182000,6.34318212890625,-0.05406153202056885,-0.12400554865598679,-0.23518294095993042
1772728912637700000,6.3527001953125,-0.05039634555578232,-0.12705987691879272,-0.2822195291519165
1772728912647218200,6.36221826171875,-0.04978547990322113,-0.12644900381565094,-0.29138249158859253
1772728912656736300,6.371736328125,-0.05406153202056885,-0.12705987691879272,-0.2669478952884674
1772728912666254300,6.38125439453125,-0.06200277432799339,-0.12950333952903748,-0.20402882993221283
1772728912675772400,6.3907724609375,-0.06811141967773438,-0.12767073512077332,-0.09957095980644226
1772728912685290500,6.40029052734375,-0.07910698652267456,-0.12034036219120026,0.033597562462091446
1772728912694808600,6.40980859375,-0.09926552325487137,-0.1282816082239151,0.17226386070251465
1772728912704326700,6.41932666015625,-0.1279761642217636,-0.14782927930355072,0.28588470816612244
1772728912713844700,6.4288447265625,-0.15729768574237823,-0.15638138353824615,0.35246896743774414
1772728912723362800,6.43836279296875,-0.17562362551689148,-0.1588248461484909,0.37140578031539917
1772728912732881000,6.447880859375,-0.18784092366695404,-0.17531819641590118,0.35674503445625305
1772728912742398700,6.457398681640625,-0.19883649051189423,-0.1948658674955368,0.3280344009399414
1772728912751917000,6.4669169921875,-0.21655155718326569,-0.21380266547203064,0.29504770040512085
1772728912761435000,6.476434814453125,-0.22999058663845062,-0.22663083672523499,0.26939135789871216
1772728912770953000,6.485952880859375,-0.25320345163345337,-0.23945899307727814,0.23396120965480804
1772728912780471000,6.495470947265625,-0.2910770773887634,-0.25473061203956604,0.18142683804035187
1772728912789989000,6.504989013671875,-0.3191768527030945,-0.28466299176216125,0.12400554865598679
1772728912799507200,6.514507080078125,-0.3289506733417511,-0.30970844626426697,0.07086031138896942
1772728912809025300,6.524025390625,-0.33628106117248535,-0.30482152104377747,0.01954767294228077
1772728912818543400,6.53354345703125,-0.34177884459495544,-0.2712239623069763,-0.036651886999607086
1772728912828061400,6.5430615234375,-0.34666576981544495,-0.22663083672523499,-0.09590577334165573
1772728912837579500,6.55257958984375,-0.3436114490032196,-0.1905898153781891,-0.15515965223312378
1772728912847097600,6.56209765625,-0.32589635252952576,-0.15027274191379547,-0.2009745091199875
1772728912856615700,6.57161572265625,-0.30085089802742004,-0.09957095980644226,-0.22174391150474548
1772728912866133500,6.581133544921875,-0.27091851830482483,-0.043371398001909256,-0.20952661335468292
1772728912875651800,6.59065185546875,-0.24342961609363556,-0.006719512399286032,-0.1545487940311432
1772728912885169700,6.600169677734375,-0.2159406989812851,0,-0.05497783049941063
1772728912894688000,6.60968798828125,-0.19333870708942413,0.001221729558892548,0.056810423731803894
1772728912904205800,6.619205810546875,-0.17806708812713623,0.01649334840476513,0.1441640853881836
1772728912913724000,6.628723876953125,-0.16707152128219604,0.043371398001909256,0.19181154668331146
1772728912923242000,6.638241943359375,-0.15607595443725586,0.07757982611656189,0.20830489695072174
1772728912932760000,6.647760009765625,-0.1438586562871933,0.11178825795650482,0.20158538222312927
1772728912942278100,6.657278076171875,-0.13103049993515015,0.1441640853881836,0.17776164412498474
1772728912951796200,6.666796142578125,-0.11942406743764877,0.17165300250053406,0.13988803327083588
1772728912961314300,6.676314208984375,-0.10903936624526978,0.1893680840730667,0.08979712426662445
1772728912970832400,6.685832275390625,-0.10415244847536087,0.19669845700263977,0.03543015569448471
1772728912980350500,6.6953505859375,-0.10231985151767731,0.18692462146282196,-0.023823726922273636
1772728912989868300,6.704868408203125,-0.10476330667734146,0.1649334877729416,-0.08796452730894089
1772728912999386600,6.71438671875,-0.10965022444725037,0.12950333952903748,-0.15821397304534912
1772728913008904400,6.723904541015625,-0.1127045527100563,0.08674279600381851,-0.2254091054201126
1772728913018422800,6.7334228515625,-0.1127045527100563,0.0360410213470459,-0.2822195291519165
1772728913027940600,6.742940673828125,-0.10965022444725037,-0.012217295356094837,-0.33231043815612793
1772728913037458700,6.752458740234375,-0.10537417232990265,-0.053145237267017365,-0.37201663851737976
1772728913046976800,6.761976806640625,-0.09987638890743256,-0.0873536616563797,-0.3915643095970154
1772728913056494800,6.771494873046875,-0.09132428467273712,-0.11117739230394363,-0.38789913058280945
1772728913066013000,6.781012939453125,-0.0766635313630104,-0.11423171311616898,-0.36835145950317383
1772728913075531000,6.790531005859375,-0.05894844979047775,-0.1026252806186676,-0.3341430425643921
1772728913085049000,6.800049072265625,-0.04306596517562866,-0.07941242307424545,-0.2834412455558777
1772728913094567200,6.809567138671875,-0.025961752980947495,-0.0360410213470459,-0.21930044889450073
1772728913104085200,6.819085205078125,-0.01435532234609127,0.025045456364750862,-0.1484401375055313
1772728913113603000,6.82860302734375,-0.008246674202382565,0.09162971377372742,-0.08796452730894089
1772728913123121400,6.838121337890625,-0.00946840364485979,0.14721840620040894,-0.046425722539424896
1772728913132639200,6.84763916015625,-0.013133592903614044,0.18325942754745483,-0.02260199747979641
1772728913142157600,6.857157470703125,-0.013744457624852657,0.20341797173023224,-0.0054977829568088055
1772728913151675400,6.86667529296875,-0.008246674202382565,0.21319180727005005,-0.001221729558892548
1772728913161193500,6.876193359375,-0.0009162971982732415,0.19425499439239502,-0.006108647678047419
1772728913170711600,6.885711669921875,0.011911863461136818,0.15515965223312378,-0.023823726922273636
1772728913180229600,6.895229736328125,0.026572618633508682,0.09834922850131989,-0.05192350596189499
1772728913189747700,6.904747802734375,0.04062250629067421,0.018325943499803543,-0.07574722915887833
1772728913199265800,6.914265869140625,0.04917461425065994,-0.06963858753442764,-0.0818558782339096
1772728913208784000,6.923783935546875,0.04978547990322113,-0.1484401375055313,-0.06230820715427399
1772728913218302000,6.933302001953125,0.04428769648075104,-0.22296564280986786,-0.029932374134659767
1772728913227820000,6.942820068359375,0.04367683082818985,-0.2712239623069763,0.006108647678047419
1772728913237337900,6.952337890625,0.04550942778587341,-0.27488914132118225,0.04276053607463837
1772728913246856200,6.961856201171875,0.05345066636800766,-0.2254091054201126,0.08796452730894089
1772728913256374000,6.9713740234375,0.06994401663541794,-0.13194678723812103,0.143553227186203
1772728913265892000,6.98089208984375,0.0925460159778595,-0.013439024798572063,0.19425499439239502
1772728913275410200,6.99041015625,0.11514800786972046,0.08979712426662445,0.21441353857517242
1772728913284928300,6.99992822265625,0.1383608728647232,0.16310089826583862,0.20769402384757996
1772728913294446300,7.0094462890625,0.1591302752494812,0.20952661335468292,0.18631376326084137
1772728913303964400,7.01896435546875,0.1792888194322586,0.21930044889450073,0.1533270627260208
1772728913313482500,7.028482421875,0.20189081132411957,0.2107483446598053,0.11056652665138245
1772728913323000600,7.03800048828125,0.22204934060573578,0.19181154668331146,0.05742128938436508
1772728913332518700,7.0475185546875,0.2367101013660431,0.1802051067352295,-0.0054977829568088055
1772728913342036700,7.05703662109375,0.24465134739875793,0.16310089826583862,-0.06963858753442764
1772728913351554800,7.066554931640625,0.24953825771808624,0.12644900381565094,-0.11484257876873016
1772728913361072600,7.07607275390625,0.25809037685394287,0.06475166976451874,-0.12767073512077332
1772728913370591000,7.085591064453125,0.2721402645111084,-0.01588248461484909,-0.07452550530433655
1772728913380108800,7.09510888671875,0.2831358313560486,-0.11423171311616898,0.05864302068948746
1772728913389627000,7.104626953125,0.28435754776000977,-0.21197007596492767,0.22235478460788727
1772728913399145000,7.11414501953125,0.27030766010284424,-0.2675587832927704,0.3805687427520752
1772728913408663000,7.1236630859375,0.2367101013660431,-0.26022839546203613,0.500298261642456
1772728913418181000,7.13318115234375,0.19700388610363007,-0.1844811588525772,0.5858193039894104
1772728913427699200,7.14269921875,0.1701258420944214,-0.06108647957444191,0.6432406306266785
1772728913437217300,7.15221728515625,0.15729768574237823,0.08063415437936783,0.667064368724823
1772728913446735400,7.1617353515625,0.15485422313213348,0.22785256803035736,0.648127555847168
1772728913456253400,7.17125341796875,0.15485422313213348,0.36224281787872314,0.5809323787689209
1772728913465771500,7.180771484375,0.14752385020256042,0.46486809849739075,0.48013970255851746
1772728913475289600,7.19028955078125,0.1340848207473755,0.5290089249610901,0.37751442193984985
1772728913484807700,7.1998076171875,0.12553271651268005,0.5632173418998718,0.27977606654167175
1772728913494325500,7.209325439453125,0.12614357471466064,0.5815432667732239,0.1905898153781891
1772728913503843600,7.218843505859375,0.14263692498207092,0.5821541547775269,0.11056652665138245
1772728913513361700,7.228361572265625,0.1695149689912796,0.5693259835243225,0.039706211537122726
1772728913522879700,7.237879638671875,0.18723005056381226,0.5241219997406006,-0.01649334840476513
1772728913532397800,7.247397705078125,0.20433427393436432,0.43860089778900146,-0.06597339361906052
1772728913541916000,7.256916015625,0.21960589289665222,0.318871408700943,-0.10506874322891235
1772728913551434000,7.26643408203125,0.22693626582622528,0.17226386070251465,-0.12217295914888382
1772728913560952000,7.2759521484375,0.22266021370887756,0.017715077847242355,-0.1178968995809555
1772728913570470100,7.28547021484375,0.210442915558815,-0.12583814561367035,-0.09957095980644226
1772728913579988200,7.29498828125,0.19211697578430176,-0.2315177470445633,-0.07513637095689774
1772728913589506300,7.30450634765625,0.17134757339954376,-0.268169641494751,-0.05497783049941063
1772728913599024400,7.3140244140625,0.15118902921676636,-0.24006985127925873,-0.034208428114652634
1772728913608542500,7.32354248046875,0.1340848207473755,-0.1637117564678192,-0.0030543238390237093
1772728913618060300,7.333060302734375,0.11636973917484283,-0.0720820426940918,0.026878049597144127
1772728913627578600,7.34257861328125,0.09315688163042068,0.01588248461484909,0.04276053607463837
1772728913637096400,7.352096435546875,0.07055488228797913,0.0873536616563797,0.03481929376721382
1772728913646614500,7.361614501953125,0.05100720748305321,0.13439024984836578,0.002443459117785096
1772728913656132600,7.371132568359375,0.03634645417332649,0.1594357043504715,-0.04214967042207718
1772728913675168800,7.390168701171875,0.022296564653515816,0.17653992772102356,-0.1288924664258957
1772728913684686800,7.399686767578125,0.010690134018659592,0.17104214429855347,-0.15760311484336853
1772728913694205000,7.409204833984375,-0.0027488914784044027,0.16615521907806396,-0.17043127119541168
1772728913703723000,7.418722900390625,-0.014966187067329884,0.15760311484336853,-0.1692095398902893
1772728913713241000,7.428240966796875,-0.029016077518463135,0.1490510106086731,-0.164322629570961
1772728913722759000,7.437759033203125,-0.04245510324835777,0.13439024984836578,-0.164322629570961
1772728913732277200,7.44727734375,-0.05711585655808449,0.11117739230394363,-0.16859868168830872
1772728913741795000,7.456795166015625,-0.07299833744764328,0.09040798991918564,-0.17348559200763702
1772728913751313200,7.466313232421875,-0.08643736690282822,0.07024945318698883,-0.17653992772102356
1772728913760831200,7.475831298828125,-0.10170898586511612,0.04764745384454727,-0.17531819641590118
1772728913770349300,7.485349365234375,-0.1182023361325264,0.01893680728971958,-0.1692095398902893
1772728913779867400,7.494867431640625,-0.129197895526886,-0.01588248461484909,-0.1588248461484909
1772728913789385500,7.504385498046875,-0.13530655205249786,-0.049480047076940536,-0.13927717506885529
1772728913798903600,7.513903564453125,-0.13591741025447845,-0.07574722915887833,-0.10873392969369888
1772728913808421600,7.523421630859375,-0.13530655205249786,-0.09407317638397217,-0.07452550530433655
1772728913817939700,7.532939697265625,-0.12675444781780243,-0.10445787757635117,-0.04825831577181816
1772728913827457500,7.54245751953125,-0.11209368705749512,-0.10506874322891235,-0.031154103577136993
1772728913836975900,7.551975830078125,-0.10109812021255493,-0.11117739230394363,-0.028099779039621353
1772728913846493700,7.56149365234375,-0.09498947113752365,-0.12217295914888382,-0.04581485688686371
1772728913856011800,7.57101171875,-0.08765909820795059,-0.13622283935546875,-0.08124501258134842
1772728913865529900,7.58052978515625,-0.07849612087011337,-0.13988803327083588,-0.13072505593299866
1772728913875048000,7.5900478515625,-0.06627883017063141,-0.13194678723812103,-0.18570289015769958
1772728913884566000,7.59956591796875,-0.048563748598098755,-0.11239911615848541,-0.23273947834968567
1772728913894084000,7.609083984375,-0.0308486707508564,-0.09040798991918564,-0.258395791053772
1772728913903602200,7.618602294921875,-0.015577051788568497,-0.06597339361906052,-0.2632827162742615
1772728913913120300,7.628120361328125,-0.0027488914784044027,-0.029932374134659767,-0.2528980076313019
1772728913922638300,7.637638427734375,0.00946840364485979,0.009773836471140385,-0.20952661335468292
1772728913932156400,7.647156494140625,0.018631376326084137,0.024434590712189674,-0.12522727251052856
1772728913941674500,7.656674560546875,0.021685699000954628,0.021380268037319183,-0.010995565913617611
1772728913951192600,7.666192626953125,0.016187917441129684,-0.003665188793092966,0.11484257876873016
1772728913960710400,7.67571044921875,0.003359756199643016,-0.04581485688686371,0.21258094906806946
1772728913970228500,7.685228515625,-0.011911863461136818,-0.09407317638397217,0.2577849328517914
1772728913979746600,7.69474658203125,-0.02718348242342472,-0.1386663019657135,0.24923282861709595
1772728913989264600,7.7042646484375,-0.04001164436340332,-0.18081597983837128,0.20219624042510986
1772728913998782700,7.71378271484375,-0.04673115536570549,-0.21746785938739777,0.1337793916463852
1772728914008300800,7.72330078125,-0.0461202897131443,-0.23212862014770508,0.0616973415017128
1772728914017819000,7.73281884765625,-0.04428769648075104,-0.22724169492721558,-0.000610864779446274
1772728914027337000,7.7423369140625,-0.04062250629067421,-0.20952661335468292,-0.043371398001909256
1772728914036855000,7.75185498046875,-0.03695731982588768,-0.17776164412498474,-0.07635809481143951
1772728914046373000,7.761373046875,-0.03145953640341759,-0.13988803327083588,-0.10018182545900345
1772728914055891200,7.77089111328125,-0.022907428443431854,-0.10629047453403473,-0.1233946830034256
1772728914065409000,7.780408935546875,-0.01435532234609127,-0.0873536616563797,-0.1490510106086731
1772728914074927400,7.78992724609375,-0.007024944759905338,-0.0977383628487587,-0.16249002516269684
1772728914084445200,7.799445068359375,-0.004581485874950886,-0.15088360011577606,-0.13561198115348816
1772728914093963300,7.80896337890625,-0.00946840364485979,-0.22846342623233795,-0.05497783049941063
1772728914103481300,7.8184814453125,-0.02107483521103859,-0.3078758418560028,0.07635809481143951
1772728914112999400,7.82799951171875,-0.047952886670827866,-0.37690356373786926,0.23823726177215576
1772728914122517500,7.837517578125,-0.08582650125026703,-0.4062250852584839,0.389120876789093
1772728914132035600,7.84703564453125,-0.129197895526886,-0.37201663851737976,0.49602219462394714
1772728914141553700,7.8565537109375,-0.16646064817905426,-0.29138249158859253,0.5522217750549316
1772728914151071700,7.86607177734375,-0.19211697578430176,-0.205861434340477,0.5540543794631958
1772728914160589800,7.87558984375,-0.21777328848838806,-0.12705987691879272,0.5045742988586426
1772728914170107600,7.885107666015625,-0.24892739951610565,-0.05497783049941063,0.4214966893196106
1772728914179626000,7.8946259765625,-0.2837466895580292,-0.001221729558892548,0.328645259141922
1772728914189143800,7.904143798828125,-0.31551164388656616,0.025045456364750862,0.24006985127925873
1772728914198662000,7.913661865234375,-0.33689191937446594,0.0256563201546669,0.1594357043504715
1772728914208180000,7.923179931640625,-0.34666576981544495,0.007941242307424545,0.08491020649671555
1772728914217698000,7.932697998046875,-0.34727662801742554,-0.004276053514331579,0.01282816007733345
1772728914227216100,7.942216064453125,-0.34727662801742554,-0.001832594396546483,-0.049480047076940536
1772728914236734200,7.951734130859375,-0.34727662801742554,0.0054977829568088055,-0.09834922850131989
1772728914246252300,7.961252197265625,-0.3448331654071808,0.008552107028663158,-0.1288924664258957
1772728914255770400,7.970770263671875,-0.3393353819847107,0.007941242307424545,-0.14538581669330597
1772728914265288400,7.980288330078125,-0.3338375985622406,0.013439024798572063,-0.14538581669330597
1772728914274806500,7.989806640625,-0.324063777923584,0.014660755172371864,-0.12278381735086441
1772728914284324600,7.99932470703125,-0.3124573230743408,0.014049889519810677,-0.0818558782339096
1772728914293842400,8.008842529296874,-0.29901832342147827,0.014660755172371864,-0.02932151034474373
1772728914303360500,8.018360595703125,-0.28008151054382324,0.026878049597144127,0.017104214057326317
1772728914312878600,8.027878662109375,-0.2574795186519623,0.06108647957444191,0.0513126403093338
1772728914322396700,8.037396728515626,-0.22815799713134766,0.10995566099882126,0.07269290834665298
1772728914331914800,8.046914794921875,-0.19394956529140472,0.16065743565559387,0.08368847519159317
1772728914341432800,8.056432861328124,-0.15485422313213348,0.21258094906806946,0.07880155742168427
1772728914350951000,8.065950927734375,-0.11514800786972046,0.2516762912273407,0.06414080411195755
1772728914360469000,8.075468994140625,-0.08032871782779694,0.2730565667152405,0.043371398001909256
1772728914369987000,8.084987060546876,-0.05406153202056885,0.2809978127479553,0.011606430634856224
1772728914379505200,8.094505126953125,-0.03634645417332649,0.28527384996414185,-0.033597562462091446
1772728914389023000,8.10402294921875,-0.025961752980947495,0.2767217457294464,-0.08857539296150208
1772728914398541300,8.113541259765626,-0.019853105768561363,0.24006985127925873,-0.1496618688106537
1772728914408059100,8.12305908203125,-0.016798781231045723,0.17043127119541168,-0.21258094906806946
1772728914417577500,8.132577392578124,-0.019853105768561363,0.0922405794262886,-0.2718348205089569
1772728914427095300,8.14209521484375,-0.03023780696094036,0.028099779039621353,-0.32559093832969666
1772728914436613400,8.15161328125,-0.03756818547844887,-0.03481929376721382,-0.3695732057094574
1772728914446131500,8.16113134765625,-0.03756818547844887,-0.10079269111156464,-0.3946186602115631
1772728914455649500,8.1706494140625,-0.03390299528837204,-0.16310089826583862,-0.38850998878479004
1772728914465167600,8.180167724609374,-0.02107483521103859,-0.21868959069252014,-0.3659079968929291
1772728914474685700,8.189685791015625,-0.0009162971982732415,-0.24862197041511536,-0.337808221578598
1772728914484203800,8.199203857421875,0.024740023538470268,-0.24556763470172882,-0.2981020212173462
1772728914493721600,8.2087216796875,0.04917461425065994,-0.22174391150474548,-0.235793799161911
1772728914503240000,8.218239990234375,0.06811141967773438,-0.18142683804035187,-0.15210533142089844
1772728914512757800,8.2277578125,0.08093958348035812,-0.13072505593299866,-0.06108647957444191
1772728914522275800,8.23727587890625,0.08032871782779694,-0.06536252796649933,0.01893680728971958
1772728914531794000,8.2467939453125,0.06994401663541794,0.020769402384757996,0.07635809481143951
1772728914541312000,8.25631201171875,0.06811141967773438,0.12950333952903748,0.10873392969369888
1772728914550830000,8.265830078125,0.07299833744764328,0.23396120965480804,0.11728604137897491
1772728914560348200,8.27534814453125,0.07605266571044922,0.2889390289783478,0.1026252806186676
1772728914569866200,8.2848662109375,0.07971785217523575,0.3029889166355133,0.0665842592716217
1772728914579384300,8.29438427734375,0.08399390429258347,0.28405213356018066,0.013439024798572063
1772728914588902400,8.30390234375,0.08826996386051178,0.24801109731197357,-0.04886918142437935
1772728914598420500,8.31342041015625,0.09865466505289078,0.19669845700263977,-0.10629047453403473
1772728914607938300,8.322938232421874,0.11209368705749512,0.13255766034126282,-0.15027274191379547
1772728914617456600,8.33245654296875,0.12125665694475174,0.06414080411195755,-0.17653992772102356
1772728914626974500,8.341974365234375,0.12736530601978302,-0.004276053514331579,-0.18570289015769958
1772728914636492500,8.351492431640626,0.129197895526886,-0.06536252796649933,-0.17104214429855347
1772728914646010600,8.3610107421875,0.129197895526886,-0.11728604137897491,-0.1331685185432434
1772728914655528700,8.37052880859375,0.12553271651268005,-0.1533270627260208,-0.08857539296150208
1772728914665046800,8.380046875,0.12003492563962936,-0.14477495849132538,-0.039706211537122726
1772728914674564900,8.38956494140625,0.1182023361325264,-0.08002328872680664,0.010384701192378998
1772728914684083000,8.3990830078125,0.12614357471466064,0.023212861269712448,0.059864748269319534
1772728914693601000,8.40860107421875,0.14141519367694855,0.15210533142089844,0.10079269111156464
1772728914703119000,8.418119140625,0.1640172004699707,0.27855435013771057,0.13500112295150757
1772728914712637000,8.427636962890626,0.19272783398628235,0.37201663851737976,0.15638138353824615
1772728914722155300,8.4371552734375,0.22327107191085815,0.4221075773239136,0.164322629570961
1772728914731673000,8.446673095703124,0.24831652641296387,0.43493571877479553,0.16065743565559387
1772728914741191200,8.456191162109375,0.2672533392906189,0.41294458508491516,0.14782927930355072
1772728914750709200,8.465709228515625,0.27519458532333374,0.36651885509490967,0.12705987691879272
1772728914760227300,8.475227294921876,0.2764163017272949,0.3182605504989624,0.09834922850131989
1772728914769745400,8.484745361328125,0.26969680190086365,0.27427828311920166,0.06352993845939636
1772728914779263500,8.494263427734374,0.27091851830482483,0.205861434340477,0.050090912729501724
1772728914788781600,8.503781494140625,0.28435754776000977,0.10690133273601532,0.08674279600381851
1772728914798299600,8.513299560546875,0.31001389026641846,0.004886918235570192,0.17531819641590118
1772728914807817700,8.522817626953126,0.33505934476852417,-0.0665842592716217,0.2816086709499359
1772728914817335800,8.532335693359375,0.3503309488296509,-0.10690133273601532,0.38240134716033936
1772728914826853600,8.541853515625,0.35643959045410156,-0.12705987691879272,0.45509424805641174
1772728914836371700,8.551371826171875,0.3533852696418762,-0.10201441496610641,0.481361448764801
1772728914845889800,8.560889892578125,0.3503309488296509,-0.017715077847242355,0.47036588191986084
1772728914855407900,8.570407958984376,0.3546070158481598,0.10201441496610641,0.4214966893196106
1772728914864926000,8.579926025390625,0.3552178740501404,0.22907429933547974,0.3280344009399414
1772728914874444000,8.589444091796874,0.34605491161346436,0.3402516841888428,0.19364413619041443
1772728914883962000,8.598962158203125,0.33322674036026,0.40805765986442566,0.037262752652168274
1772728914893480200,8.608480224609375,0.3326158821582794,0.43982264399528503,-0.10995566099882126
1772728914902998300,8.617998291015626,0.3393353819847107,0.4465421438217163,-0.22418737411499023
1772728914912516000,8.62751611328125,0.34055712819099426,0.44409868121147156,-0.3023780584335327
1772728914922034400,8.637034423828124,0.3442223072052002,0.4166097939014435,-0.34086254239082336
1772728914931552300,8.64655224609375,0.34727662801742554,0.3543015718460083,-0.35124725103378296
1772728914941070300,8.6560703125,0.3503309488296509,0.26022839546203613,-0.3451386094093323
1772728914950588400,8.66558837890625,0.3552178740501404,0.14477495849132538,-0.3298669755458832
1772728914960106500,8.6751064453125,0.35155269503593445,0.039706211537122726,-0.3084867000579834
1772728914969624600,8.68462451171875,0.34116798639297485,-0.07513637095689774,-0.28405213356018066
1772728914979142700,8.694142578125,0.32650721073150635,-0.18570289015769958,-0.26450446248054504
1772728914988660700,8.70366064453125,0.3136790692806244,-0.26022839546203613,-0.235793799161911
1772728914998178800,8.7131787109375,0.3039052188396454,-0.29626941680908203,-0.19730933010578156
1772728915007697000,8.72269677734375,0.2910770773887634,-0.287106454372406,-0.15149445831775665
1772728915017215000,8.732215087890625,0.281914085149765,-0.23884813487529755,-0.1026252806186676
1772728915026732800,8.74173291015625,0.27580544352531433,-0.17226386070251465,-0.06047561392188072
1772728915036251000,8.7512509765625,0.2715294063091278,-0.10079269111156464,-0.03176496922969818
1772728915045769000,8.76076904296875,0.2672533392906189,-0.031154103577136993,-0.023823726922273636
1772728915055287000,8.770287109375,0.2605338394641876,0.028099779039621353,-0.04825831577181816
1772728915064805000,8.77980517578125,0.24892739951610565,0.08002328872680664,-0.10629047453403473
1772728915074323200,8.7893232421875,0.23365578055381775,0.12278381735086441,-0.19242240488529205
1772728915083841300,8.79884130859375,0.21960589289665222,0.14538581669330597,-0.28954991698265076
1772728915093359400,8.808359375,0.20738859474658966,0.14294235408306122,-0.38301220536231995
1772728915102877400,8.81787744140625,0.19822561740875244,0.1282816082239151,-0.4569268524646759
1772728915112395300,8.827395263671875,0.18600831925868988,0.10934479534626007,-0.5039634704589844
1772728915121913600,8.83691357421875,0.1695149689912796,0.08307760953903198,-0.5216785073280334
1772728915131431400,8.846431396484375,0.1432477980852127,0.05070177838206291,-0.5186241865158081
1772728915140949500,8.855949462890624,0.11575887352228165,0.020769402384757996,-0.49968740344047546
1772728915150467600,8.865467529296875,0.08338304609060287,-0.0030543238390237093,-0.45020735263824463
1772728915159985700,8.874985595703125,0.047952886670827866,-0.027488915249705315,-0.3738492429256439
1772728915169503700,8.884503662109376,0.013744457624852657,-0.05497783049941063,-0.2822195291519165
1772728915179021800,8.894021728515625,-0.016798781231045723,-0.08063415437936783,-0.19120067358016968
1772728915188540000,8.903539794921874,-0.04306596517562866,-0.10323614627122879,-0.1026252806186676
1772728915198058000,8.91305810546875,-0.06322450190782547,-0.11667517572641373,-0.023212861269712448
1772728915207576000,8.922576171875,-0.07788526266813278,-0.10873392969369888,0.043982263654470444
1772728915217094100,8.93209423828125,-0.09437860548496246,-0.08796452730894089,0.09162971377372742
1772728915226612000,8.941612060546875,-0.11148282140493393,-0.06230820715427399,0.12461641430854797
1772728915236130000,8.951130126953124,-0.12675444781780243,-0.0360410213470459,0.13927717506885529
1772728915245648100,8.960648193359376,-0.1383608728647232,-0.024434590712189674,0.13561198115348816
1772728915255166200,8.970166259765625,-0.14508038759231567,-0.040317077189683914,0.10873392969369888
1772728915264684300,8.979684326171874,-0.14752385020256042,-0.07819069176912308,0.0665842592716217
1772728915274202400,8.989202392578125,-0.14996729791164398,-0.12156209349632263,0.017715077847242355
1772728915283720400,8.998720458984375,-0.1536324918270111,-0.1496618688106537,-0.02260199747979641
1772728915293238500,9.008238525390626,-0.1591302752494812,-0.1594357043504715,-0.04520399495959282
1772728915302756600,9.017756591796875,-0.168904110789299,-0.16310089826583862,-0.050090912729501724
1772728915312274400,9.0272744140625,-0.18112140893936157,-0.17653992772102356,-0.0360410213470459
1772728915321792800,9.036792724609375,-0.19272783398628235,-0.18264856934547424,-0.002443459117785096
1772728915331310600,9.046310546875,-0.19883649051189423,-0.15760311484336853,0.04825831577181816
1772728915340828700,9.05582861328125,-0.20616686344146729,-0.09101885557174683,0.11484257876873016
1772728915350346800,9.0653466796875,-0.20738859474658966,-0.003665188793092966,0.1893680840730667
1772728915359864800,9.07486474609375,-0.2098320573568344,0.08307760953903198,0.2528980076313019
1772728915369383000,9.0843828125,-0.2153298407793045,0.15149445831775665,0.2926042377948761
1772728915378901000,9.09390087890625,-0.2257145345211029,0.1899789422750473,0.3017672002315521
1772728915388418800,9.103418701171876,-0.23487751185894012,0.19669845700263977,0.28038692474365234
1772728915397937200,9.112937255859375,-0.2409861534833908,0.1802051067352295,0.22846342623233795
1772728915407455000,9.122455078125,-0.23915356397628784,0.14477495849132538,0.16676609218120575
1772728915416973300,9.131973388671875,-0.23243404924869537,0.10567960888147354,0.11117739230394363
1772728915426491100,9.1414912109375,-0.22693626582622528,0.05925388261675835,0.06963858753442764
1772728915436009200,9.15100927734375,-0.22327107191085815,0.002443459117785096,0.046425722539424896
1772728915445527300,9.16052734375,-0.21838416159152985,-0.04886918142437935,0.040317077189683914
1772728915455045400,9.17004541015625,-0.20738859474658966,-0.08124501258134842,0.046425722539424896
1772728915464563500,9.1795634765625,-0.19211697578430176,-0.09651663154363632,0.06963858753442764
1772728915474081500,9.18908154296875,-0.17073670029640198,-0.11117739230394363,0.12095122784376144
1772728915483599600,9.198599609375,-0.14569124579429626,-0.13194678723812103,0.205861434340477
1772728915493117400,9.208117431640625,-0.13164135813713074,-0.15027274191379547,0.31093016266822815
1772728915502635800,9.2176357421875,-0.13225223124027252,-0.17043127119541168,0.4159989058971405
1772728915512153600,9.227153564453126,-0.14752385020256042,-0.18570289015769958,0.5051851868629456
1772728915521671700,9.236671630859375,-0.1744018942117691,-0.19120067358016968,0.565049946308136
1772728915531189800,9.246189697265624,-0.20311254262924194,-0.1905898153781891,0.6053670048713684
1772728915540707800,9.255707763671875,-0.22266021370887756,-0.19608759880065918,0.6291907429695129
1772728915550226000,9.265225830078125,-0.23548837006092072,-0.1948658674955368,0.62857985496521
1772728915559744000,9.274743896484376,-0.24404047429561615,-0.16249002516269684,0.5998691916465759
1772728915569262000,9.284261962890625,-0.2611446976661682,-0.10690133273601532,0.5387827157974243
1772728915578780200,9.2937802734375,-0.2922987937927246,-0.050090912729501724,0.4514290690422058
1772728915588298200,9.30329833984375,-0.3271180987358093,-0.004276053514331579,0.34574946761131287
1772728915597816300,9.31281640625,-0.3503309488296509,0.021991131827235222,0.2211330533027649
1772728915607334100,9.322334228515626,-0.35766133666038513,0.04581485688686371,0.08368847519159317
1772728915616852500,9.3318525390625,-0.35155269503593445,0.08368847519159317,-0.053145237267017365
1772728915626370300,9.341370361328124,-0.33200499415397644,0.12522727251052856,-0.17104214429855347
1772728915635888400,9.350888427734375,-0.3032943606376648,0.1588248461484909,-0.26511532068252563
1772728915645406500,9.360406494140625,-0.27519458532333374,0.17104214429855347,-0.347582072019577
1772728915654924500,9.369924560546876,-0.24465134739875793,0.14721840620040894,-0.4159989058971405
1772728915664442600,9.379442626953125,-0.21410810947418213,0.07513637095689774,-0.4618137776851654
1772728915673960700,9.388960693359374,-0.17867794632911682,-0.0256563201546669,-0.4569268524646759
1772728915683478800,9.398478759765625,-0.1438586562871933,-0.12705987691879272,-0.38179048895835876
1772728915692996600,9.40799658203125,-0.11636973917484283,-0.20402882993221283,-0.2419024556875229
1772728915702514700,9.4175146484375,-0.08888082206249237,-0.2364046722650528,-0.08429934084415436
1772728915712032800,9.42703271484375,-0.06933315098285675,-0.22357651591300964,0.0409279391169548
1772728915721550800,9.43655078125,-0.05345066636800766,-0.17776164412498474,0.10873392969369888
1772728915731069000,9.44606884765625,-0.03940077871084213,-0.11178825795650482,0.12522727251052856
1772728915740587000,9.4555869140625,-0.025350889191031456,-0.04459312930703163,0.11484257876873016
1772728915750105000,9.46510498046875,-0.015577051788568497,0.012217295356094837,0.08674279600381851
1772728915759623200,9.474623046875,-0.013744457624852657,0.0616973415017128,0.040317077189683914
1772728915769141000,9.48414111328125,-0.0204639695584774,0.09468404203653336,-0.02626718580722809
1772728915778659300,9.493659423828126,-0.032681263983249664,0.10384701192378998,-0.11178825795650482
1772728915788177200,9.50317724609375,-0.04734202101826668,0.09285144507884979,-0.1997527778148651
1772728915797695200,9.5126953125,-0.05955931544303894,0.06414080411195755,-0.2724456787109375
1772728915807213300,9.52221337890625,-0.06383536756038666,0.027488915249705315,-0.3243691921234131
1772728915816731400,9.5317314453125,-0.05833758786320686,-0.007330377586185932,-0.35124725103378296
1772728915826249500,9.54124951171875,-0.0461202897131443,-0.03543015569448471,-0.34697118401527405
1772728915835767600,9.550767578125,-0.03695731982588768,-0.053756099194288254,-0.32070401310920715
1772728915845285600,9.56028564453125,-0.03023780696094036,-0.06108647957444191,-0.2864955961704254
1772728915854803700,9.5698037109375,-0.02718348242342472,-0.05925388261675835,-0.24862197041511536
1772728915864321800,9.57932177734375,-0.021685699000954628,-0.0513126403093338,-0.20952661335468292
1772728915873839900,9.58883984375,-0.011911863461136818,-0.03543015569448471,-0.16859868168830872
1772728915883357700,9.598357666015625,-0.005192350596189499,-0.009773836471140385,-0.13255766034126282
1772728915892875800,9.607875732421874,-0.003359756199643016,0.021991131827235222,-0.09896009415388107
1772728915902393900,9.617393798828125,-0.006414080038666725,0.06291907280683517,-0.07269290834665298
1772728915911912000,9.626911865234375,-0.006414080038666725,0.11178825795650482,-0.05497783049941063
1772728915921430000,9.636429931640626,-0.004581485874950886,0.16187916696071625,-0.039706211537122726
1772728915930948000,9.645947998046875,0.008246674202382565,0.19914191961288452,-0.03298669680953026
1772728915940466200,9.655466064453124,0.024740023538470268,0.21319180727005005,-0.025045456364750862
1772728915949984000,9.66498388671875,0.04001164436340332,0.205861434340477,-0.015271619893610477
1772728915959502300,9.67450244140625,0.051618073135614395,0.17837251722812653,-0.008552107028663158
1772728915969020200,9.684020263671876,0.06505709886550903,0.13744457066059113,-0.008552107028663158
1772728915978538200,9.693538330078125,0.07544180005788803,0.09834922850131989,-0.020158538594841957
1772728915988056300,9.703056396484374,0.08093958348035812,0.059864748269319534,-0.04153880476951599
1772728915997574400,9.712574462890625,0.08826996386051178,0.02626718580722809,-0.053145237267017365
1772728916007092500,9.722092529296875,0.09498947113752365,0.009773836471140385,-0.037262752652168274
1772728916016610600,9.731610595703126,0.10048725455999374,0.021380268037319183,-0.003665188793092966
1772728916026128600,9.741128662109375,0.10476330667734146,0.05558869615197182,0.03787361457943916
1772728916035646700,9.750646728515624,0.10415244847536087,0.09407317638397217,0.07757982611656189
1772728916045164500,9.76016455078125,0.09926552325487137,0.13133592903614044,0.09590577334165573
1772728916054683000,9.769682861328125,0.09865466505289078,0.17592905461788177,0.10018182545900345
1772728916064200700,9.77920068359375,0.10170898586511612,0.25900667905807495,0.12461641430854797
1772728916073718800,9.78871875,0.08338304609060287,0.33597561717033386,0.15638138353824615
1772728916083236900,9.79823681640625,0.07360920310020447,0.3127627670764923,0.07941242307424545
1772728916092755000,9.8077548828125,0.07116574794054031,0.21868959069252014,-0.06414080411195755
1772728916102273000,9.81727294921875,0.08521563559770584,0.07941242307424545,-0.18203771114349365
1772728916111791000,9.826791015625,0.1029307171702385,-0.06780599057674408,-0.24312418699264526
1772728916121309200,9.83630908203125,0.11698060482740402,-0.17715078592300415,-0.2528980076313019
1772728916130827300,9.8458271484375,0.12736530601978302,-0.21991132199764252,-0.2260199636220932
