time,seconds_elapsed,z,y,x
1772728906374813400,0.0898134765625,0.10079269111156464,-0.08307760953903198,0.4166097939014435
1772728906384331500,0.09933154296875,0.11667517572641373,0.05436696484684944,0.4361574649810791
1772728906393849600,0.108849609375,0.1386663019657135,0.21319180727005005,0.43921178579330444
1772728906403367700,0.11836767578125,0.15210533142089844,0.35613417625427246,0.4159989058971405
1772728906412885500,0.127885498046875,0.15699224174022675,0.4618137776851654,0.37262752652168274
1772728906422403600,0.137403564453125,0.1637117564678192,0.5155698657035828,0.31642794609069824
1772728906431921700,0.146921630859375,0.17531819641590118,0.5143481492996216,0.24923282861709595
1772728906441439700,0.156439697265625,0.19608759880065918,0.4819723069667816,0.17287473380565643
1772728906450957800,0.165957763671875,0.22296564280986786,0.44348782300949097,0.09407317638397217
1772728906460476000,0.175475830078125,0.24923282861709595,0.4013381600379944,0.02626718580722809
1772728906469994000,0.184993896484375,0.268169641494751,0.34636032581329346,-0.023212861269712448
1772728906479512000,0.194511962890625,0.28038692474365234,0.2779434621334076,-0.056199558079242706
1772728906489030100,0.204030029296875,0.28588470816612244,0.2052505612373352,-0.07452550530433655
1772728906498548200,0.21354833984375,0.28954991698265076,0.12461641430854797,-0.08491020649671555
1772728906508066300,0.22306640625,0.2938259541988373,0.033597562462091446,-0.08552107214927673
1772728906517584400,0.23258447265625,0.30115634202957153,-0.056810423731803894,-0.0769689604640007
1772728906527102500,0.2421025390625,0.31520622968673706,-0.11606431007385254,-0.06108647957444191
1772728906536620500,0.25162060546875,0.328645259141922,-0.1337793916463852,-0.03237583488225937
1772728906546138600,0.261138671875,0.31581708788871765,-0.11911863088607788,-0.0030543238390237093
1772728906555656700,0.27065673828125,0.2938259541988373,-0.0873536616563797,0.037262752652168274
1772728906565174800,0.2801748046875,0.2724456787109375,-0.04276053607463837,0.09285144507884979
1772728906574692900,0.28969287109375,0.24434591829776764,0.017715077847242355,0.15027274191379547
1772728906584211000,0.2992109375,0.2211330533027649,0.08491020649671555,0.18814635276794434
1772728906593729000,0.30872900390625,0.205861434340477,0.13622283935546875,0.18692462146282196
1772728906603246800,0.318246826171875,0.18692462146282196,0.17715078592300415,0.15760311484336853
1772728906612765200,0.32776513671875,0.16859868168830872,0.20341797173023224,0.11056652665138245
1772728906622283000,0.337282958984375,0.15699224174022675,0.2101374864578247,0.04825831577181816
1772728906631801000,0.346801025390625,0.15149445831775665,0.19608759880065918,-0.030543239787220955
1772728906641319200,0.356319091796875,0.14110976457595825,0.16310089826583862,-0.12278381735086441
1772728906650837200,0.365837158203125,0.1337793916463852,0.11667517572641373,-0.21441353857517242
1772728906660355300,0.375355224609375,0.13622283935546875,0.0616973415017128,-0.2883281707763672
1772728906669873400,0.384873291015625,0.1386663019657135,0.013439024798572063,-0.33108872175216675
1772728906679391500,0.3943916015625,0.13927717506885529,-0.013439024798572063,-0.3402516841888428
1772728906688909600,0.40390966796875,0.13133592903614044,-0.036651886999607086,-0.318871408700943
1772728906698427600,0.413427734375,0.11667517572641373,-0.059864748269319534,-0.27916520833969116
1772728906707945700,0.42294580078125,0.09957095980644226,-0.07513637095689774,-0.23762640357017517
1772728906717463800,0.4324638671875,0.08429934084415436,-0.08552107214927673,-0.2003636509180069
1772728906726982000,0.44198193359375,0.07391463965177536,-0.09651663154363632,-0.16310089826583862
1772728906736500000,0.4515,0.06108647957444191,-0.09590577334165573,-0.13011419773101807
1772728906746018000,0.46101806640625,0.047036588191986084,-0.0824667438864708,-0.09040798991918564
1772728906755536000,0.470535888671875,0.03848448023200035,-0.06963858753442764,-0.046425722539424896
1772728906765054200,0.48005419921875,0.029932374134659767,-0.06902772188186646,-0.004276053514331579
1772728906774572300,0.489572265625,0.017715077847242355,-0.05925388261675835,0.027488915249705315
1772728906784090400,0.49909033203125,0.010384701192378998,-0.033597562462091446,0.056199558079242706
1772728906793608200,0.508608154296875,-0.001832594396546483,-0.039706211537122726,0.06780599057674408
1772728906803126500,0.51812646484375,-0.017715077847242355,-0.047036588191986084,0.056810423731803894
1772728906812644400,0.527644287109375,-0.03543015569448471,-0.029932374134659767,0.026878049597144127
1772728906822162400,0.537162353515625,-0.05070177838206291,-0.006719512399286032,-0.006108647678047419
1772728906831680500,0.546680419921875,-0.059864748269319534,-0.008552107028663158,-0.036651886999607086
1772728906841198600,0.556198486328125,-0.0665842592716217,-0.020769402384757996,-0.07513637095689774
1772728906850716700,0.565716552734375,-0.04825831577181816,0.002443459117785096,-0.10506874322891235
1772728906860234800,0.57523486328125,-0.013439024798572063,0.050090912729501724,-0.1081230640411377
1772728906869752800,0.5847529296875,0.015271619893610477,0.10995566099882126,-0.07574722915887833
1772728906879271000,0.59427099609375,0.03481929376721382,0.14721840620040894,-0.02260199747979641
1772728906888789000,0.6037890625,0.018325943499803543,0.14782927930355072,0.031154103577136993
1772728906898307000,0.61330712890625,0.001221729558892548,0.13927717506885529,0.08368847519159317
1772728906907825200,0.6228251953125,-0.012217295356094837,0.09957095980644226,0.13744457066059113
1772728906917343200,0.63234326171875,-0.029932374134659767,0.033597562462091446,0.18875721096992493
1772728906926861300,0.641861328125,-0.059864748269319534,-0.026878049597144127,0.21807873249053955
1772728906936379400,0.65137939453125,-0.08491020649671555,-0.04520399495959282,0.2254091054201126
1772728906945897500,0.6608974609375,-0.09040798991918564,-0.029932374134659767,0.2162461280822754
1772728906955415600,0.67041552734375,-0.09529490768909454,0.000610864779446274,0.20463970303535461
1772728906964933600,0.67993359375,-0.10690133273601532,0.053756099194288254,0.1893680840730667
1772728906974451700,0.68945166015625,-0.10384701192378998,0.10445787757635117,0.15821397304534912
1772728906983969500,0.698969482421875,-0.0873536616563797,0.11545344442129135,0.10995566099882126
1772728906993488000,0.70848779296875,-0.0616973415017128,0.11972949653863907,0.06108647957444191
1772728907003005700,0.718005615234375,-0.033597562462091446,0.13133592903614044,0.043982263654470444
1772728907012524000,0.72752392578125,-0.020769402384757996,0.13500112295150757,0.07880155742168427
1772728907022041900,0.737041748046875,-0.03481929376721382,0.1288924664258957,0.15515965223312378
1772728907031560000,0.746559814453125,-0.0720820426940918,0.1081230640411377,0.24495677649974823
1772728907041078000,0.756078125,-0.1178968995809555,0.050090912729501724,0.3347539007663727
1772728907050596000,0.76559619140625,-0.1692095398902893,0.010995565913617611,0.40317076444625854
1772728907060114200,0.7751142578125,-0.21380266547203064,0.01649334840476513,0.4477638900279999
1772728907069632300,0.78463232421875,-0.24434591829776764,0.0409279391169548,0.47952884435653687
1772728907079150300,0.794150390625,-0.2712239623069763,0.05742128938436508,0.5009090900421143
1772728907088668400,0.80366845703125,-0.2968802750110626,0.06291907280683517,0.5222893953323364
1772728907098186500,0.8131865234375,-0.31031930446624756,0.08857539296150208,0.5345066785812378
1772728907107704600,0.82270458984375,-0.3133736252784729,0.1588248461484909,0.5314523577690125
1772728907117222700,0.83222265625,-0.33047783374786377,0.23884813487529755,0.5161807537078857
1772728907126740700,0.84174072265625,-0.35613417625427246,0.19608759880065918,0.46975502371788025
1772728907136258800,0.8512587890625,-0.3744601011276245,0.07635809481143951,0.38179048895835876
1772728907145777000,0.86077685546875,-0.3903425931930542,-0.07024945318698883,0.2522871494293213
1772728907155295000,0.870294921875,-0.40805765986442566,-0.22724169492721558,0.10934479534626007
1772728907164813000,0.87981298828125,-0.4263836145401001,-0.3426951467990875,-0.020158538594841957
1772728907174331000,0.889330810546875,-0.4477638900279999,-0.4098902642726898,-0.11911863088607788
1772728907183849200,0.89884912109375,-0.4673115611076355,-0.4355465769767761,-0.1893680840730667
1772728907193367000,0.908366943359375,-0.48441576957702637,-0.43493571877479553,-0.24373504519462585
1772728907202885400,0.917885498046875,-0.4935787320137024,-0.41905322670936584,-0.3035998046398163
1772728907212403200,0.9274033203125,-0.4831940531730652,-0.41294458508491516,-0.3597993552684784
1772728907221921500,0.936921630859375,-0.4526508152484894,-0.4410443603992462,-0.3909534513950348
1772728907231439400,0.946439453125,-0.4068359434604645,-0.4917461574077606,-0.3842339515686035
1772728907240957400,0.95595751953125,-0.35796675086021423,-0.5351175665855408,-0.3396408259868622
1772728907250475500,0.9654755859375,-0.3249800503253937,-0.5467239618301392,-0.27000224590301514
1772728907259993600,0.97499365234375,-0.30970844626426697,-0.5406153202056885,-0.19181154668331146
1772728907269511700,0.98451171875,-0.30970844626426697,-0.5161807537078857,-0.11545344442129135
1772728907279029800,0.99402978515625,-0.31031930446624756,-0.4465421438217163,-0.04581485688686371
1772728907288547800,1.0035478515625,-0.2993237376213074,-0.3396408259868622,0.010995565913617611
1772728907298066000,1.01306591796875,-0.2822195291519165,-0.22479823231697083,0.039706211537122726
1772728907307584000,1.022583984375,-0.26511532068252563,-0.12644900381565094,0.04276053607463837
1772728907317102000,1.03210205078125,-0.2571740746498108,-0.050090912729501724,0.028099779039621353
1772728907326620200,1.0416201171875,-0.25961753726005554,0.001221729558892548,0.000610864779446274
1772728907336138200,1.05113818359375,-0.2675587832927704,0.01649334840476513,-0.03481929376721382
1772728907345656300,1.06065625,-0.2724456787109375,-0.0030543238390237093,-0.07024945318698883
1772728907355174400,1.07017431640625,-0.27488914132118225,-0.030543239787220955,-0.10690133273601532
1772728907364692500,1.0796923828125,-0.27000224590301514,-0.04459312930703163,-0.14233149588108063
1772728907374210600,1.08921044921875,-0.2577849328517914,-0.06780599057674408,-0.1698204129934311
1772728907383728400,1.098728271484375,-0.2412915825843811,-0.09834922850131989,-0.19120067358016968
1772728907393246700,1.108246826171875,-0.22357651591300964,-0.12522727251052856,-0.2052505612373352
1772728907402764500,1.1177646484375,-0.20402882993221283,-0.15271618962287903,-0.20952661335468292
1772728907412283000,1.127282958984375,-0.18387030065059662,-0.18325942754745483,-0.20402882993221283
1772728907421800700,1.13680078125,-0.16676609218120575,-0.20219624042510986,-0.18753549456596375
1772728907431319000,1.146319091796875,-0.15149445831775665,-0.20463970303535461,-0.16615521907806396
1772728907440836900,1.1558369140625,-0.13622283935546875,-0.2003636509180069,-0.13561198115348816
1772728907450355000,1.16535498046875,-0.1233946830034256,-0.1954767256975174,-0.10201441496610641
1772728907459873000,1.174873046875,-0.10506874322891235,-0.185092031955719,-0.07147117704153061
1772728907469391000,1.18439111328125,-0.08552107214927673,-0.16065743565559387,-0.04764745384454727
1772728907478909200,1.1939091796875,-0.0665842592716217,-0.1178968995809555,-0.03237583488225937
1772728907488427300,1.20342724609375,-0.050090912729501724,-0.0665842592716217,-0.012217295356094837
1772728907497945300,1.2129453125,-0.03237583488225937,-0.021380268037319183,0.023823726922273636
1772728907507463400,1.22246337890625,-0.01588248461484909,0.008552107028663158,0.06475166976451874
1772728907516981500,1.2319814453125,-0.001221729558892548,0.03237583488225937,0.09040798991918564
1772728907526499600,1.24149951171875,0.01649334840476513,0.04825831577181816,0.09162971377372742
1772728907536017700,1.251017578125,0.03909534588456154,0.050090912729501724,0.07574722915887833
1772728907545535700,1.26053564453125,0.06475166976451874,0.036651886999607086,0.059864748269319534
1772728907555053800,1.2700537109375,0.0873536616563797,0.008552107028663158,0.05803215503692627
1772728907564572000,1.279572021484375,0.10629047453403473,-0.027488915249705315,0.0665842592716217
1772728907574089700,1.28908984375,0.12461641430854797,-0.05925388261675835,0.07452550530433655
1772728907583608000,1.298608154296875,0.14233149588108063,-0.07757982611656189,0.08674279600381851
1772728907593126000,1.3081259765625,0.1594357043504715,-0.06902772188186646,0.09896009415388107
1772728907602644200,1.317644287109375,0.17592905461788177,-0.028099779039621353,0.10506874322891235
1772728907612162000,1.327162109375,0.18814635276794434,0.033597562462091446,0.1081230640411377
1772728907621680000,1.33668017578125,0.19914191961288452,0.09040798991918564,0.09896009415388107
1772728907631198200,1.3461982421875,0.21502439677715302,0.14110976457595825,0.08613193035125732
1772728907640716300,1.35571630859375,0.23884813487529755,0.19364413619041443,0.07147117704153061
1772728907650234400,1.365234375,0.2712239623069763,0.23212862014770508,0.039706211537122726
1772728907659752400,1.37475244140625,0.3078758418560028,0.24495677649974823,-0.025045456364750862
1772728907669270500,1.3842705078125,0.3402516841888428,0.2309068888425827,-0.11545344442129135
1772728907678788600,1.39378857421875,0.36712974309921265,0.18814635276794434,-0.20952661335468292
1772728907688306700,1.403306640625,0.38240134716033936,0.10995566099882126,-0.2816086709499359
1772728907697824800,1.41282470703125,0.39400777220726013,-0.001221729558892548,-0.328645259141922
1772728907707342800,1.4223427734375,0.4098902642726898,-0.13622283935546875,-0.3243691921234131
1772728907716861000,1.43186083984375,0.4221075773239136,-0.2724456787109375,-0.2522871494293213
1772728907726379000,1.44137890625,0.43004879355430603,-0.38789913058280945,-0.16249002516269684
1772728907735897000,1.45089697265625,0.4361574649810791,-0.45998117327690125,-0.0769689604640007
1772728907745415200,1.460415283203125,0.4367683231830597,-0.4557051360607147,0.009162971749901772
1772728907754933200,1.469933349609375,0.4269944727420807,-0.3842339515686035,0.11484257876873016
1772728907764451300,1.479451416015625,0.4098902642726898,-0.27550002932548523,0.23762640357017517
1772728907773969400,1.488969482421875,0.39278605580329895,-0.13927717506885529,0.35735589265823364
1772728907783487200,1.4984873046875,0.37201663851737976,0.01588248461484909,0.43982264399528503
1772728907793005300,1.50800537109375,0.3536907136440277,0.17592905461788177,0.45326167345046997
1772728907802523400,1.5175234375,0.3536907136440277,0.3121519088745117,0.3897317349910736
1772728907812041500,1.52704150390625,0.3738492429256439,0.4172206521034241,0.2822195291519165
1772728907821559600,1.5365595703125,0.40255987644195557,0.481361448764801,0.1545487940311432
1772728907831077600,1.54607763671875,0.4318813979625702,0.49663305282592773,0.03237583488225937
1772728907840595700,1.555595703125,0.45326167345046997,0.4740310609340668,-0.07330377399921417
1772728907850113800,1.56511376953125,0.46914416551589966,0.42332929372787476,-0.1490510106086731
1772728907859631900,1.5746318359375,0.47952884435653687,0.35063639283180237,-0.19669845700263977
1772728907869150000,1.58414990234375,0.48441576957702637,0.25350889563560486,-0.21746785938739777
1772728907878668000,1.59366796875,0.48563748598098755,0.1185077652335167,-0.20769402384757996
1772728907888186000,1.60318603515625,0.4819723069667816,-0.033597562462091446,-0.1905898153781891
1772728907897704200,1.6127041015625,0.462424635887146,-0.18081597983837128,-0.18203771114349365
1772728907907222300,1.62222216796875,0.43310311436653137,-0.3042106628417969,-0.18631376326084137
1772728907916740400,1.631740234375,0.3958403766155243,-0.37812530994415283,-0.1893680840730667
1772728907926258400,1.641258544921875,0.34636032581329346,-0.3805687427520752,-0.18203771114349365
1772728907935776500,1.650776611328125,0.29016077518463135,-0.32009315490722656,-0.1533270627260208
1772728907945294300,1.66029443359375,0.2406807243824005,-0.23029601573944092,-0.09957095980644226
1772728907954812700,1.669812744140625,0.205861434340477,-0.13988803327083588,-0.023212861269712448
1772728907964330500,1.67933056640625,0.18875721096992493,-0.03543015569448471,0.05742128938436508
1772728907973848800,1.688848876953125,0.18387030065059662,0.07941242307424545,0.1288924664258957
1772728907983366700,1.69836669921875,0.18692462146282196,0.18753549456596375,0.17348559200763702
1772728907992884700,1.707884765625,0.1893680840730667,0.27000224590301514,0.1802051067352295
1772728908002402800,1.71740283203125,0.1893680840730667,0.32192572951316833,0.14721840620040894
1772728908011921000,1.7269208984375,0.19364413619041443,0.35674503445625305,0.08613193035125732
1772728908021439000,1.73643896484375,0.20158538222312927,0.37629270553588867,0.015271619893610477
1772728908030957000,1.74595703125,0.21197007596492767,0.3744601011276245,-0.05192350596189499
1772728908040475100,1.75547509765625,0.22418737411499023,0.3494146466255188,-0.10751219838857651
1772728908049993200,1.7649931640625,0.23396120965480804,0.3127627670764923,-0.143553227186203
1772728908059511300,1.77451123046875,0.24006985127925873,0.27427828311920166,-0.16737695038318634
1772728908069029400,1.784029296875,0.24251331388950348,0.22907429933547974,-0.17837251722812653
1772728908078547500,1.79354736328125,0.235793799161911,0.1893680840730667,-0.17531819641590118
1772728908088065500,1.8030654296875,0.22846342623233795,0.14538581669330597,-0.16554436087608337
1772728908097583600,1.81258349609375,0.2205221801996231,0.11362084746360779,-0.1588248461484909
1772728908107101700,1.822101806640625,0.21258094906806946,0.10018182545900345,-0.1594357043504715
1772728908116619500,1.83161962890625,0.20708316564559937,0.10629047453403473,-0.1588248461484909
1772728908126137900,1.841137939453125,0.2009745091199875,0.10629047453403473,-0.13927717506885529
1772728908135655700,1.85065576171875,0.19242240488529205,0.09468404203653336,-0.1081230640411377
1772728908145174000,1.860174072265625,0.18570289015769958,0.09468404203653336,-0.08124501258134842
1772728908154691800,1.86969189453125,0.18325942754745483,0.09896009415388107,-0.0616973415017128
1772728908164210200,1.879210205078125,0.18570289015769958,0.08796452730894089,-0.053756099194288254
1772728908173728000,1.88872802734375,0.18692462146282196,0.06108647957444191,-0.0616973415017128
1772728908183246000,1.89824609375,0.1893680840730667,0.02871064469218254,-0.0818558782339096
1772728908192764200,1.90776416015625,0.19120067358016968,-0.000610864779446274,-0.1081230640411377
1772728908202282200,1.9172822265625,0.18631376326084137,-0.028099779039621353,-0.13255766034126282
1772728908211800300,1.92680029296875,0.17776164412498474,-0.04886918142437935,-0.15149445831775665
1772728908221318400,1.936318359375,0.16737695038318634,-0.07024945318698883,-0.16249002516269684
1772728908230836500,1.94583642578125,0.1588248461484909,-0.0824667438864708,-0.17226386070251465
1772728908240354600,1.9553544921875,0.1533270627260208,-0.07880155742168427,-0.17348559200763702
1772728908249872600,1.96487255859375,0.1545487940311432,-0.06352993845939636,-0.15638138353824615
1772728908259390700,1.974390625,0.16187916696071625,-0.04581485688686371,-0.10751219838857651
1772728908268908800,1.98390869140625,0.17104214429855347,-0.02626718580722809,-0.02932151034474373
1772728908278427000,1.993427001953125,0.17837251722812653,-0.006719512399286032,0.05742128938436508
1772728908287945000,2.002945068359375,0.18203771114349365,0.014660755172371864,0.12583814561367035
1772728908297463000,2.012463134765625,0.17715078592300415,0.0360410213470459,0.16249002516269684
1772728908306981000,2.021981201171875,0.1692095398902893,0.05497783049941063,0.15821397304534912
1772728908316499200,2.031499267578125,0.16310089826583862,0.0818558782339096,0.1178968995809555
1772728908326017000,2.04101708984375,0.15515965223312378,0.10140355676412582,0.05803215503692627
1772728908335535400,2.050535400390625,0.1490510106086731,0.09834922850131989,-0.0030543238390237093
1772728908345053200,2.06005322265625,0.13988803327083588,0.08368847519159317,-0.0513126403093338
1772728908354571300,2.0695712890625,0.12950333952903748,0.06536252796649933,-0.08979712426662445
1772728908364089300,2.07908935546875,0.11911863088607788,0.03909534588456154,-0.11484257876873016
1772728908373607400,2.088607421875,0.11484257876873016,0.000610864779446274,-0.13439024984836578
1772728908383125500,2.09812548828125,0.12034036219120026,-0.043371398001909256,-0.15027274191379547
1772728908392643600,2.1076435546875,0.13927717506885529,-0.08307760953903198,-0.14660754799842834
1772728908402161700,2.11716162109375,0.16676609218120575,-0.12217295914888382,-0.10384701192378998
1772728908411679700,2.1266796875,0.19242240488529205,-0.17104214429855347,-0.009162971749901772
1772728908421197800,2.13619775390625,0.1997527778148651,-0.21685700118541718,0.14049890637397766
1772728908430716000,2.1457158203125,0.17898337543010712,-0.21502439677715302,0.3127627670764923
1772728908440234000,2.15523388671875,0.13622283935546875,-0.14660754799842834,0.46608981490135193
1772728908449752000,2.164751953125,0.09162971377372742,-0.033597562462091446,0.5674933791160583
1772728908459270100,2.174270263671875,0.053756099194288254,0.09346231073141098,0.6126973628997803
1772728908468788200,2.183788330078125,0.021380268037319183,0.20891575515270233,0.6114756464958191
1772728908478306300,2.193306396484375,-0.003665188793092966,0.3090975880622864,0.5760455131530762
1772728908487824400,2.202824462890625,-0.018325943499803543,0.38240134716033936,0.5241219997406006
1772728908497342500,2.212342529296875,-0.026878049597144127,0.4196641147136688,0.46059203147888184
1772728908506860300,2.2218603515625,-0.034208428114652634,0.42943793535232544,0.39278605580329895
1772728908516378600,2.231378662109375,-0.03298669680953026,0.41294458508491516,0.32070401310920715
1772728908525896400,2.240896484375,-0.023823726922273636,0.36285367608070374,0.24312418699264526
1772728908535414500,2.25041455078125,-0.004886918235570192,0.28588470816612244,0.16126830875873566
1772728908544932600,2.2599326171875,0.020769402384757996,0.20891575515270233,0.07757982611656189
1772728908554450700,2.26945068359375,0.043982263654470444,0.14538581669330597,0
1772728908563968800,2.27896875,0.0616973415017128,0.07574722915887833,-0.0665842592716217
1772728908573486800,2.28848681640625,0.07086031138896942,0.001221729558892548,-0.10995566099882126
1772728908583005000,2.2980048828125,0.07635809481143951,-0.06536252796649933,-0.11362084746360779
1772728908592523000,2.30752294921875,0.08002328872680664,-0.12644900381565094,-0.08491020649671555
1772728908602041000,2.317041015625,0.08979712426662445,-0.16310089826583862,-0.04153880476951599
1772728908611559200,2.32655908203125,0.10384701192378998,-0.1545487940311432,-0.000610864779446274
1772728908621077200,2.3360771484375,0.12644900381565094,-0.11117739230394363,0.0360410213470459
1772728908630595300,2.34559521484375,0.15577052533626556,-0.049480047076940536,0.07391463965177536
1772728908640113400,2.355113525390625,0.18081597983837128,0.014660755172371864,0.10506874322891235
1772728908649631500,2.364631591796875,0.20402882993221283,0.07941242307424545,0.11362084746360779
1772728908659149300,2.3741494140625,0.22968515753746033,0.11972949653863907,0.09651663154363632
1772728908668667600,2.383667724609375,0.2516762912273407,0.16004657745361328,0.04825831577181816
1772728908678185500,2.393185546875,0.2675587832927704,0.19608759880065918,-0.029932374134659767
1772728908687703800,2.402703857421875,0.2761108875274658,0.22418737411499023,-0.12644900381565094
1772728908697221600,2.4122216796875,0.2779434621334076,0.21868959069252014,-0.21746785938739777
1772728908706740000,2.421739990234375,0.2828303873538971,0.1899789422750473,-0.29993459582328796
1772728908716257800,2.4312578125,0.2889390289783478,0.16065743565559387,-0.3738492429256439
1772728908725776000,2.44077587890625,0.29993459582328796,0.13683371245861053,-0.44348782300949097
1772728908735294000,2.4502939453125,0.31154105067253113,0.10506874322891235,-0.5051851868629456
1772728908744812000,2.45981201171875,0.3225366175174713,0.07513637095689774,-0.5564978122711182
1772728908754330000,2.469330078125,0.32559093832969666,0.03543015569448471,-0.5955931544303894
1772728908763848200,2.47884814453125,0.3194822669029236,-0.01954767294228077,-0.6114756464958191
1772728908773366300,2.4883662109375,0.30970844626426697,-0.046425722539424896,-0.6010909676551819
1772728908782884400,2.49788427734375,0.30970844626426697,-0.03481929376721382,-0.5583304166793823
1772728908792402400,2.50740234375,0.33231043815612793,-0.006108647678047419,-0.47952884435653687
1772728908801920500,2.51692041015625,0.3646862804889679,0.043982263654470444,-0.37201663851737976
1772728908811438600,2.5264384765625,0.39217519760131836,0.10384701192378998,-0.24801109731197357
1772728908820956700,2.535956787109375,0.3995055556297302,0.1490510106086731,-0.12278381735086441
1772728908830474800,2.545474853515625,0.3854556679725647,0.18692462146282196,-0.01893680728971958
1772728908839992800,2.554992919921875,0.36285367608070374,0.22785256803035736,0.05253437161445618
1772728908849511000,2.564510986328125,0.33597561717033386,0.2663370370864868,0.09285144507884979
1772728908859028700,2.57402880859375,0.3084867000579834,0.2864955961704254,0.11056652665138245
1772728908868546800,2.583546875,0.2822195291519165,0.2730565667152405,0.10506874322891235
1772728908878065000,2.59306494140625,0.2467893660068512,0.23762640357017517,0.08002328872680664
1772728908887583000,2.6025830078125,0.2315177470445633,0.24740023910999298,0.050090912729501724
1772728908897101000,2.61210107421875,0.2565632164478302,0.25411975383758545,0.006719512399286032
1772728908906619100,2.621619140625,0.3042106628417969,0.25350889563560486,-0.05864302068948746
1772728908916137200,2.63113720703125,0.3536907136440277,0.25961753726005554,-0.12400554865598679
1772728908925655300,2.6406552734375,0.3897317349910736,0.21807873249053955,-0.18142683804035187
1772728908935173400,2.65017333984375,0.4013381600379944,0.1331685185432434,-0.22724169492721558
1772728908944691500,2.65969140625,0.3897317349910736,0.029932374134659767,-0.2522871494293213
1772728908954209500,2.66920947265625,0.3591884970664978,-0.06719512492418289,-0.2528980076313019
1772728908963727600,2.6787275390625,0.32009315490722656,-0.13561198115348816,-0.23029601573944092
1772728908973245700,2.68824560546875,0.27488914132118225,-0.1844811588525772,-0.19364413619041443
1772728908982763800,2.697763671875,0.2315177470445633,-0.20708316564559937,-0.1490510106086731
1772728908992281900,2.70728173828125,0.19669845700263977,-0.18692462146282196,-0.1081230640411377
1772728909001800000,2.716800048828125,0.1740964651107788,-0.12705987691879272,-0.0769689604640007
1772728909011317800,2.72631787109375,0.16859868168830872,-0.053145237267017365,-0.05803215503692627
1772728909020836000,2.735836181640625,0.1747073233127594,0.024434590712189674,-0.0409279391169548
1772728909030354000,2.74535400390625,0.1954767256975174,0.1026252806186676,-0.027488915249705315
1772728909039872300,2.754872314453125,0.22907429933547974,0.1747073233127594,-0.014660755172371864
1772728909049390000,2.76439013671875,0.2712239623069763,0.23396120965480804,-0.008552107028663158
1772728909058908200,2.773908203125,0.3072649836540222,0.2626718580722809,-0.009773836471140385
1772728909068426200,2.78342626953125,0.33231043815612793,0.25900667905807495,-0.018325943499803543
1772728909077944300,2.7929443359375,0.35246896743774414,0.2406807243824005,-0.02871064469218254
1772728909087462400,2.80246240234375,0.3750709891319275,0.20952661335468292,-0.034208428114652634
1772728909096980500,2.81198046875,0.39828383922576904,0.16676609218120575,-0.02932151034474373
1772728909106498600,2.82149853515625,0.4214966893196106,0.11911863088607788,-0.006108647678047419
1772728909116016600,2.8310166015625,0.4465421438217163,0.04276053607463837,0.04581485688686371
1772728909125534700,2.84053466796875,0.46059203147888184,-0.07880155742168427,0.14172062277793884
1772728909135052800,2.850052734375,0.45509424805641174,-0.1844811588525772,0.26939135789871216
1772728909144571000,2.85957080078125,0.43371400237083435,-0.2364046722650528,0.39889469742774963
1772728909154089000,2.8690888671875,0.41233372688293457,-0.2260199636220932,0.5149590373039246
1772728909163607000,2.87860693359375,0.4056142270565033,-0.14233149588108063,0.5937605500221252
1772728909173125000,2.888125,0.4068359434604645,0.000610864779446274,0.6267472505569458
1772728909182643200,2.897643310546875,0.41844236850738525,0.16126830875873566,0.6218603253364563
1772728909192161300,2.907161376953125,0.44348782300949097,0.29993459582328796,0.5797106623649597
1772728909201679000,2.91667919921875,0.481361448764801,0.3897317349910736,0.49480047821998596
1772728909211197200,2.926197265625,0.5192350745201111,0.4367683231830597,0.39278605580329895
1772728909220715300,2.93571533203125,0.5479456782341003,0.4459312856197357,0.29016077518463135
1772728909230233300,2.9452333984375,0.5723803043365479,0.4172206521034241,0.18875721096992493
1772728909239751400,2.95475146484375,0.5907062292098999,0.3640754222869873,0.09285144507884979
1772728909249269500,2.96426953125,0.6004800796508789,0.29565855860710144,0.006719512399286032
1772728909258787600,2.97378759765625,0.6041452884674072,0.22479823231697083,-0.0665842592716217
1772728909268305700,2.9833056640625,0.6035344004631042,0.14172062277793884,-0.12034036219120026
1772728909277823700,2.99282373046875,0.5968148708343506,0.046425722539424896,-0.14782927930355072
1772728909287341800,3.002341796875,0.5827649831771851,-0.05497783049941063,-0.16065743565559387
1772728909296860000,3.01185986328125,0.5626064538955688,-0.13133592903614044,-0.16676609218120575
1772728909306378000,3.0213779296875,0.5375609993934631,-0.1637117564678192,-0.17104214429855347
1772728909315896000,3.03089599609375,0.5137372612953186,-0.14782927930355072,-0.16798780858516693
1772728909325414100,3.0404140625,0.4917461574077606,-0.09285144507884979,-0.15088360011577606
1772728909334932200,3.04993212890625,0.46975502371788025,-0.013439024798572063,-0.11606431007385254
1772728909344450000,3.059449951171875,0.4477638900279999,0.08613193035125732,-0.07880155742168427
1772728909353968400,3.068968505859375,0.4263836145401001,0.17226386070251465,-0.04459312930703163
1772728909363486200,3.078486328125,0.3958403766155243,0.21868959069252014,-0.028099779039621353
1772728909373004500,3.088004638671875,0.35796675086021423,0.2315177470445633,-0.03787361457943916
1772728909382522400,3.0975224609375,0.3176496922969818,0.22663083672523499,-0.06291907280683517
1772728909392040700,3.107040771484375,0.277332603931427,0.21380266547203064,-0.08918625861406326
1772728909401558500,3.11655859375,0.2419024556875229,0.20647229254245758,-0.12034036219120026
1772728909411076600,3.12607666015625,0.20219624042510986,0.19242240488529205,-0.1490510106086731
1772728909420594700,3.1355947265625,0.1588248461484909,0.205861434340477,-0.18081597983837128
1772728909430112800,3.14511279296875,0.12278381735086441,0.20952661335468292,-0.21197007596492767
1772728909439630800,3.154630859375,0.09590577334165573,0.19853104650974274,-0.235793799161911
1772728909449149000,3.16414892578125,0.0720820426940918,0.18875721096992493,-0.2522871494293213
1772728909458667000,3.1736669921875,0.049480047076940536,0.1698204129934311,-0.25473061203956604
1772728909468185000,3.18318505859375,0.029932374134659767,0.13927717506885529,-0.23884813487529755
1772728909477703200,3.192703125,0.01649334840476513,0.11362084746360779,-0.21319180727005005
1772728909487221200,3.20222119140625,0.000610864779446274,0.08307760953903198,-0.1905898153781891
1772728909496739300,3.2117392578125,-0.01588248461484909,0.04459312930703163,-0.1802051067352295
1772728909506257400,3.22125732421875,-0.02871064469218254,0.006108647678047419,-0.17592905461788177
1772728909515775500,3.230775390625,-0.03481929376721382,-0.01649334840476513,-0.17531819641590118
1772728909525293300,3.240293212890625,-0.03481929376721382,-0.017104214057326317,-0.17104214429855347
1772728909534811400,3.249811279296875,-0.03298669680953026,-0.014660755172371864,-0.15027274191379547
1772728909544329500,3.25932958984375,-0.03176496922969818,-0.023212861269712448,-0.1130099818110466
1772728909553847600,3.26884765625,-0.03543015569448471,-0.03543015569448471,-0.07086031138896942
1772728909563365600,3.27836572265625,-0.03909534588456154,-0.053756099194288254,-0.04276053607463837
1772728909572883700,3.2878837890625,-0.04153880476951599,-0.0720820426940918,-0.039706211537122726
1772728909582401800,3.29740185546875,-0.04825831577181816,-0.0977383628487587,-0.05253437161445618
1772728909591919900,3.306919921875,-0.04825831577181816,-0.1337793916463852,-0.07391463965177536
1772728909601438000,3.31643798828125,-0.0409279391169548,-0.17837251722812653,-0.10201441496610641
1772728909610956000,3.3259560546875,-0.023823726922273636,-0.20463970303535461,-0.13927717506885529
1772728909620474000,3.33547412109375,-0.004276053514331579,-0.20830489695072174,-0.17531819641590118
1772728909629992200,3.3449921875,0.01588248461484909,-0.2009745091199875,-0.1954767256975174
1772728909639510300,3.35451025390625,0.033597562462091446,-0.18142683804035187,-0.19364413619041443
1772728909649028400,3.3640283203125,0.046425722539424896,-0.1380554437637329,-0.1692095398902893
1772728909658546400,3.37354638671875,0.05497783049941063,-0.08674279600381851,-0.1288924664258957
1772728909668064500,3.383064453125,0.05742128938436508,-0.04276053607463837,-0.06719512492418289
1772728909677582300,3.392582275390625,0.053756099194288254,-0.030543239787220955,0.015271619893610477
1772728909687100700,3.4021005859375,0.04459312930703163,-0.04214967042207718,0.11545344442129135
1772728909696618500,3.411618408203125,0.028099779039621353,-0.06047561392188072,0.21135921776294708
1772728909706136600,3.421136474609375,0.009773836471140385,-0.07513637095689774,0.27427828311920166
1772728909715654700,3.430654541015625,-0.003665188793092966,-0.0873536616563797,0.2932150959968567
1772728909725172700,3.4401728515625,-0.014660755172371864,-0.09285144507884979,0.2724456787109375
1772728909734690800,3.44969091796875,-0.02260199747979641,-0.09285144507884979,0.22418737411499023
1772728909744209000,3.459208984375,-0.03481929376721382,-0.0824667438864708,0.15271618962287903
1772728909753727000,3.46872705078125,-0.04581485688686371,-0.059864748269319534,0.06963858753442764
1772728909763245000,3.4782451171875,-0.05497783049941063,-0.03237583488225937,-0.017715077847242355
1772728909772763100,3.48776318359375,-0.06475166976451874,0.002443459117785096,-0.10567960888147354
1772728909782281200,3.49728125,-0.06352993845939636,0.043371398001909256,-0.16737695038318634
1772728909791799300,3.50679931640625,-0.049480047076940536,0.06597339361906052,-0.1893680840730667
1772728909801317400,3.5163173828125,-0.03176496922969818,0.053756099194288254,-0.17592905461788177
1772728909810835500,3.52583544921875,-0.018325943499803543,0.010384701192378998,-0.11728604137897491
1772728909820353500,3.535353515625,-0.014049889519810677,-0.06352993845939636,-0.01954767294228077
1772728909829871600,3.54487158203125,-0.021380268037319183,-0.16676609218120575,0.09896009415388107
1772728909839389400,3.554389404296875,-0.036651886999607086,-0.25961753726005554,0.2162461280822754
1772728909848907800,3.56390771484375,-0.05070177838206291,-0.31154105067253113,0.3072649836540222
1772728909858425600,3.573425537109375,-0.06963858753442764,-0.3347539007663727,0.3591884970664978
1772728909867944000,3.58294384765625,-0.09101885557174683,-0.3182605504989624,0.36835145950317383
1772728909877461800,3.592461669921875,-0.11239911615848541,-0.26939135789871216,0.3500255048274994
1772728909886979800,3.601979736328125,-0.1380554437637329,-0.22296564280986786,0.3274235129356384
1772728909896498000,3.611497802734375,-0.16798780858516693,-0.19669845700263977,0.3133736252784729
1772728909906016000,3.62101611328125,-0.2003636509180069,-0.18875721096992493,0.31093016266822815
1772728909915534000,3.6305341796875,-0.24312418699264526,-0.1649334877729416,0.31093016266822815
1772728909925052200,3.64005224609375,-0.2510654330253601,-0.14172062277793884,0.2981020212173462
1772728909934570200,3.6495703125,-0.24312418699264526,-0.11423171311616898,0.2571740746498108
1772728909944088300,3.65908837890625,-0.2467893660068512,-0.06719512492418289,0.1948658674955368
1772728909953606400,3.6686064453125,-0.23945899307727814,-0.003665188793092966,0.1178968995809555
1772728909963124200,3.678124267578125,-0.21868959069252014,0.06963858753442764,0.034208428114652634
1772728909972642600,3.687642578125,-0.19853104650974274,0.1331685185432434,-0.030543239787220955
1772728909982160600,3.69716064453125,-0.18142683804035187,0.18631376326084137,-0.05925388261675835
1772728909991678700,3.7066787109375,-0.1747073233127594,0.21930044889450073,-0.05742128938436508
1772728910001196800,3.71619677734375,-0.16737695038318634,0.22479823231697083,-0.036651886999607086
1772728910010714600,3.725714599609375,-0.15271618962287903,0.20891575515270233,-0.009162971749901772
1772728910020232700,3.735232666015625,-0.13194678723812103,0.17104214429855347,0.015271619893610477
1772728910029750800,3.744750732421875,-0.10079269111156464,0.13194678723812103,0.026878049597144127
1772728910039268900,3.754268798828125,-0.06597339361906052,0.10384701192378998,0.017104214057326317
1772728910048787000,3.763786865234375,-0.03176496922969818,0.08613193035125732,-0.011606430634856224
1772728910058305000,3.773304931640625,0,0.0665842592716217,-0.053756099194288254
1772728910067823000,3.782822998046875,0.031154103577136993,0.046425722539424896,-0.10690133273601532
1772728910077341200,3.792341064453125,0.05497783049941063,0.017715077847242355,-0.16310089826583862
1772728910086859300,3.801859375,0.0665842592716217,-0.013439024798572063,-0.21746785938739777
1772728910096377300,3.81137744140625,0.06536252796649933,-0.04581485688686371,-0.2724456787109375
1772728910105895400,3.8208955078125,0.059864748269319534,-0.06780599057674408,-0.32620179653167725
1772728910115413500,3.83041357421875,0.05436696484684944,-0.07452550530433655,-0.3805687427520752
1772728910124931600,3.839931640625,0.046425722539424896,-0.08063415437936783,-0.4276053309440613
1772728910134449700,3.84944970703125,0.0360410213470459,-0.0818558782339096,-0.462424635887146
1772728910143967700,3.8589677734375,0.023823726922273636,-0.08307760953903198,-0.48075059056282043
1772728910153485600,3.868485595703125,0.010995565913617611,-0.07880155742168427,-0.481361448764801
1772728910163004000,3.87800390625,-0.0030543238390237093,-0.06841685622930527,-0.4685332775115967
1772728910172521700,3.887521728515625,-0.015271619893610477,-0.047036588191986084,-0.4508182108402252
1772728910182040000,3.8970400390625,-0.0256563201546669,-0.028099779039621353,-0.42882707715034485
1772728910191558000,3.906557861328125,-0.03543015569448471,-0.018325943499803543,-0.40317076444625854
1772728910201076000,3.916075927734375,-0.04276053607463837,-0.023212861269712448,-0.36285367608070374
1772728910210594000,3.925593994140625,-0.03848448023200035,-0.017715077847242355,-0.31154105067253113
1772728910220112100,3.935112060546875,-0.012217295356094837,0.025045456364750862,-0.2614501118659973
1772728910229630200,3.944630126953125,0.012217295356094837,0.0824667438864708,-0.20769402384757996
1772728910239148300,3.954148193359375,0.023212861269712448,0.1288924664258957,-0.13988803327083588
1772728910248666400,3.963666259765625,0.001221729558892548,0.1496618688106537,-0.05253437161445618
1772728910258184400,3.973184326171875,-0.013439024798572063,0.1698204129934311,0.034208428114652634
1772728910267702500,3.98270263671875,-0.007330377586185932,0.19303326308727264,0.09040798991918564
1772728910277220600,3.992220703125,-0.010384701192378998,0.2009745091199875,0.11056652665138245
1772728910286738700,4.00173876953125,-0.020769402384757996,0.1899789422750473,0.10506874322891235
1772728910296256800,4.0112568359375,-0.014049889519810677,0.15149445831775665,0.08796452730894089
1772728910305774800,4.02077490234375,0.001832594396546483,0.10201441496610641,0.06414080411195755
1772728910315292700,4.030292724609375,0.023212861269712448,0.05803215503692627,0.04459312930703163
1772728910324811000,4.03981103515625,0.05192350596189499,0.009773836471140385,0.020769402384757996
1772728910334328800,4.049328857421875,0.07941242307424545,-0.030543239787220955,-0.014049889519810677
1772728910343847000,4.058846923828125,0.08613193035125732,-0.07452550530433655,-0.04581485688686371
1772728910353365000,4.068364990234375,0.07269290834665298,-0.14660754799842834,-0.053756099194288254
1772728910362883000,4.077883056640625,0.06536252796649933,-0.2009745091199875,-0.04276053607463837
1772728910372401200,4.087401123046875,0.06291907280683517,-0.23762640357017517,-0.010384701192378998
1772728910381919200,4.096919189453125,0.06291907280683517,-0.25473061203956604,0.034208428114652634
1772728910391437300,4.106437255859375,0.05192350596189499,-0.2577849328517914,0.09712749719619751
1772728910400955400,4.115955322265625,0.025045456364750862,-0.25473061203956604,0.18142683804035187
1772728910410473500,4.125473388671875,0.01649334840476513,-0.2009745091199875,0.27366742491722107
1772728910419991600,4.134991455078125,0.018325943499803543,-0.10018182545900345,0.34697118401527405
1772728910429509600,4.144509521484375,0.013439024798572063,-0.004886918235570192,0.4062250852584839
1772728910439027700,4.15402783203125,0.023212861269712448,0.0818558782339096,0.45387253165245056
1772728910448545800,4.1635458984375,0.053145237267017365,0.16126830875873566,0.4740310609340668
1772728910458064000,4.17306396484375,0.10567960888147354,0.2608392536640167,0.46425724029541016
1772728910467582000,4.18258203125,0.16676609218120575,0.35246896743774414,0.4318813979625702
1772728910477099800,4.192099853515625,0.21991132199764252,0.3799578845500946,0.3909534513950348
1772728910486617900,4.201617919921875,0.2571740746498108,0.3127627670764923,0.379347026348114
1772728910505654000,4.220654052734375,0.25350889563560486,0.2974911332130432,0.277332603931427
1772728910515172000,4.230172119140625,0.35613417625427246,0.32070401310920715,0.18264856934547424
1772728910524690200,4.239690185546875,0.3909534513950348,0.29016077518463135,0.0824667438864708
1772728910534208300,4.249208251953125,0.3903425931930542,0.2205221801996231,0.004886918235570192
1772728910543726300,4.258726318359375,0.38789913058280945,0.1130099818110466,-0.0409279391169548
1772728910553244400,4.268244384765625,0.3738492429256439,-0.026878049597144127,-0.021380268037319183
1772728910562762500,4.277762451171875,0.37262752652168274,-0.15088360011577606,0.07819069176912308
1772728910572280600,4.287280517578125,0.3750709891319275,-0.20830489695072174,0.22968515753746033
1772728910581798700,4.296798583984375,0.38789913058280945,-0.164322629570961,0.3787361681461334
1772728910591316700,4.306316650390625,0.3750709891319275,-0.07086031138896942,0.49113526940345764
1772728910600834800,4.315834716796875,0.35185810923576355,0.021991131827235222,0.5534434914588928
1772728910610352600,4.3253525390625,0.3243691921234131,0.11667517572641373,0.5619956254959106
1772728910619871000,4.33487109375,0.3029889166355133,0.23457208275794983,0.5057960152626038
1772728910629388800,4.344388916015625,0.30115634202957153,0.3597993552684784,0.389120876789093
1772728910638907100,4.3539072265625,0.32009315490722656,0.4764745235443115,0.23029601573944092
1772728910648425000,4.363425048828125,0.3494146466255188,0.5400044918060303,0.06352993845939636
1772728910657943000,4.372943115234375,0.3750709891319275,0.5479456782341003,-0.08491020649671555
1772728910667461000,4.382461181640625,0.39339691400527954,0.5229002237319946,-0.20158538222312927
1772728910676979200,4.391979248046875,0.40378162264823914,0.4874700903892517,-0.2822195291519165
1772728910686497300,4.401497314453125,0.40866854786872864,0.45998117327690125,-0.33047783374786377
1772728910696015400,4.411015380859375,0.4105011224746704,0.42332929372787476,-0.3445277214050293
1772728910705533400,4.420533447265625,0.41294458508491516,0.3451386094093323,-0.32559093832969666
1772728910715051500,4.430051513671875,0.41783151030540466,0.2260199636220932,-0.2828303873538971
1772728910724569600,4.439569580078125,0.4202749729156494,0.0769689604640007,-0.22174391150474548
1772728910734087700,4.449087646484375,0.4166097939014435,-0.06902772188186646,-0.1588248461484909
1772728910743605800,4.458605712890625,0.40255987644195557,-0.17592905461788177,-0.1081230640411377
1772728910753123600,4.46812353515625,0.38728827238082886,-0.24556763470172882,-0.07452550530433655
1772728910762642000,4.477641845703125,0.36835145950317383,-0.2510654330253601,-0.05803215503692627
1772728910772159700,4.48715966796875,0.3445277214050293,-0.2211330533027649,-0.04520399495959282
1772728910781678000,4.496677978515625,0.3243691921234131,-0.17653992772102356,-0.02932151034474373
1772728910791196000,4.50619580078125,0.31093016266822815,-0.10873392969369888,-0.01588248461484909
1772728910800714200,4.51571435546875,0.2987128794193268,-0.0360410213470459,-0.014049889519810677
1772728910810232000,4.525232177734375,0.2864955961704254,0.023823726922273636,-0.030543239787220955
1772728910819750100,4.534750244140625,0.2724456787109375,0.06352993845939636,-0.0616973415017128
1772728910829268200,4.544268310546875,0.2565632164478302,0.09346231073141098,-0.10140355676412582
1772728910838786300,4.553786376953125,0.24495677649974823,0.10690133273601532,-0.1496618688106537
1772728910848304400,4.563304443359375,0.23518294095993042,0.1081230640411377,-0.19914191961288452
1772728910857822500,4.572822509765625,0.22663083672523499,0.09957095980644226,-0.2419024556875229
1772728910867340500,4.582340576171875,0.2205221801996231,0.09468404203653336,-0.2632827162742615
1772728910876858600,4.591858642578125,0.2101374864578247,0.0818558782339096,-0.2632827162742615
1772728910886376700,4.601376708984375,0.19425499439239502,0.050090912729501724,-0.2461785078048706
1772728910895894800,4.610894775390625,0.17653992772102356,0.01954767294228077,-0.2254091054201126
1772728910905412900,4.620412841796875,0.15577052533626556,0.004886918235570192,-0.21197007596492767
1772728910914930700,4.6299306640625,0.1386663019657135,-0.007330377586185932,-0.2052505612373352
1772728910924449000,4.639448974609375,0.12583814561367035,-0.021991131827235222,-0.19730933010578156
1772728910933966800,4.648966796875,0.11362084746360779,-0.03909534588456154,-0.18081597983837128
1772728910943485200,4.658485107421875,0.09957095980644226,-0.0616973415017128,-0.15760311484336853
1772728910953003000,4.6680029296875,0.08552107214927673,-0.0873536616563797,-0.13072505593299866
1772728910962521000,4.67752099609375,0.07024945318698883,-0.10690133273601532,-0.10506874322891235
1772728910972039200,4.6870390625,0.056810423731803894,-0.11667517572641373,-0.07452550530433655
1772728910981557200,4.69655712890625,0.04459312930703163,-0.12767073512077332,-0.03909534588456154
1772728910991075300,4.706075439453125,0.034208428114652634,-0.13439024984836578,-0.008552107028663158
1772728911000593400,4.715593505859375,0.028099779039621353,-0.12156209349632263,0.01282816007733345
1772728911010111500,4.725111572265625,0.021991131827235222,-0.11362084746360779,0.02260199747979641
1772728911019629600,4.734629638671875,0.012217295356094837,-0.12156209349632263,0.014660755172371864
1772728911029147600,4.744147705078125,0.0054977829568088055,-0.13255766034126282,-0.0054977829568088055
1772728911038665700,4.753665771484375,-0.002443459117785096,-0.15271618962287903,-0.03298669680953026
1772728911048183800,4.763183837890625,-0.009773836471140385,-0.18387030065059662,-0.0665842592716217
1772728911057702000,4.772701904296875,-0.013439024798572063,-0.21930044889450073,-0.10873392969369888
1772728911067220000,4.782219970703125,-0.020769402384757996,-0.24862197041511536,-0.15821397304534912
1772728911076737800,4.79173779296875,-0.029932374134659767,-0.2614501118659973,-0.20341797173023224
1772728911086255900,4.801255859375,-0.04214967042207718,-0.2516762912273407,-0.22357651591300964
1772728911095774000,4.81077392578125,-0.05742128938436508,-0.24006985127925873,-0.205861434340477
1772728911105292000,4.8202919921875,-0.07635809481143951,-0.21868959069252014,-0.15210533142089844
1772728911114810000,4.82981005859375,-0.09651663154363632,-0.18387030065059662,-0.07024945318698883
1772728911124328200,4.839328125,-0.1185077652335167,-0.14110976457595825,0.034208428114652634
1772728911133846300,4.84884619140625,-0.14294235408306122,-0.10690133273601532,0.14172062277793884
1772728911143364400,4.8583642578125,-0.16187916696071625,-0.08674279600381851,0.2211330533027649
1772728911152882400,4.86788232421875,-0.16554436087608337,-0.06597339361906052,0.2528980076313019
1772728911162400500,4.877400390625,-0.15088360011577606,-0.04214967042207718,0.23396120965480804
1772728911171918600,4.886918701171875,-0.13072505593299866,-0.043982263654470444,0.18142683804035187
1772728911181436700,4.896436767578125,-0.11484257876873016,-0.0873536616563797,0.11056652665138245
1772728911190954800,4.905954833984375,-0.10384701192378998,-0.15271618962287903,0.03481929376721382
1772728911200472800,4.915472900390625,-0.0922405794262886,-0.22479823231697083,-0.0360410213470459
1772728911209991000,4.924990966796875,-0.07574722915887833,-0.2706131041049957,-0.09590577334165573
1772728911219509000,4.934509033203125,-0.053756099194288254,-0.2816086709499359,-0.13927717506885529
1772728911229026800,4.94402685546875,-0.0360410213470459,-0.2926042377948761,-0.15638138353824615
1772728911238545000,4.953544921875,-0.028099779039621353,-0.3121519088745117,-0.14477495849132538
1772728911248063000,4.96306298828125,-0.02932151034474373,-0.3298669755458832,-0.10018182545900345
1772728911257581000,4.9725810546875,-0.033597562462091446,-0.337808221578598,-0.02932151034474373
1772728911267099100,4.98209912109375,-0.04459312930703163,-0.33719736337661743,0.06291907280683517
1772728911276617200,4.9916171875,-0.06291907280683517,-0.3292561173439026,0.16859868168830872
1772728911286135300,5.00113525390625,-0.09651663154363632,-0.3133736252784729,0.26511532068252563
1772728911295653400,5.0106533203125,-0.143553227186203,-0.2877173125743866,0.3384190797805786
1772728911305171500,5.02017138671875,-0.19364413619041443,-0.24434591829776764,0.38179048895835876
1772728911314689500,5.029689453125,-0.23945899307727814,-0.1795942485332489,0.4050033390522003
1772728911324207600,5.03920751953125,-0.27916520833969116,-0.11728604137897491,0.4105011224746704
1772728911333725700,5.0487255859375,-0.3090975880622864,-0.06841685622930527,0.3915643095970154
1772728911343243800,5.058243896484375,-0.3274235129356384,-0.04214967042207718,0.34636032581329346
1772728911352761600,5.06776171875,-0.33597561717033386,-0.031154103577136993,0.2767217457294464
1772728911362280000,5.077280029296875,-0.3402516841888428,-0.014660755172371864,0.18570289015769958
1772728911371797800,5.0867978515625,-0.34697118401527405,0.010384701192378998,0.08124501258134842
1772728911381316000,5.096316162109375,-0.3610210716724396,0.0409279391169548,-0.02260199747979641
1772728911390834000,5.105833984375,-0.37812530994415283,0.07330377399921417,-0.09712749719619751
1772728911400352000,5.11535205078125,-0.39400777220726013,0.09285144507884979,-0.13194678723812103
1772728911409870000,5.1248701171875,-0.401949018239975,0.10018182545900345,-0.14233149588108063
1772728911419388200,5.13438818359375,-0.39217519760131836,0.1081230640411377,-0.1496618688106537
1772728911428906200,5.14390625,-0.3652971386909485,0.11484257876873016,-0.16554436087608337
1772728911438424300,5.15342431640625,-0.33231043815612793,0.11484257876873016,-0.18631376326084137
1772728911447942400,5.1629423828125,-0.2987128794193268,0.09896009415388107,-0.19181154668331146
1772728911457460500,5.17246044921875,-0.27000224590301514,0.06047561392188072,-0.17592905461788177
1772728911466978600,5.181978515625,-0.24740023910999298,0.017104214057326317,-0.13561198115348816
1772728911476496600,5.19149658203125,-0.2254091054201126,-0.006719512399286032,-0.07513637095689774
1772728911486014700,5.2010146484375,-0.20341797173023224,-0.010995565913617611,-0.012217295356094837
1772728911495532500,5.210532470703125,-0.18081597983837128,0.009162971749901772,0.04153880476951599
1772728911505051000,5.22005078125,-0.15821397304534912,0.03481929376721382,0.08124501258134842
1772728911514568700,5.229568603515625,-0.13683371245861053,0.05803215503692627,0.10384701192378998
1772728911524087000,5.239087158203125,-0.12217295914888382,0.08979712426662445,0.1130099818110466
1772728911533604900,5.24860498046875,-0.11362084746360779,0.12156209349632263,0.1130099818110466
1772728911543123000,5.258123046875,-0.10934479534626007,0.1386663019657135,0.10140355676412582
1772728911552641000,5.26764111328125,-0.1130099818110466,0.13500112295150757,0.0769689604640007
1772728911562159000,5.2771591796875,-0.1130099818110466,0.1185077652335167,0.040317077189683914
1772728911571677200,5.28667724609375,-0.11239911615848541,0.08979712426662445,-0.002443459117785096
1772728911581195300,5.2961953125,-0.10934479534626007,0.06536252796649933,-0.05192350596189499
1772728911590713300,5.30571337890625,-0.10079269111156464,0.05558869615197182,-0.09407317638397217
1772728911600231400,5.3152314453125,-0.09162971377372742,0.043371398001909256,-0.1185077652335167
1772728911609749500,5.32474951171875,-0.0873536616563797,0.018325943499803543,-0.13622283935546875
1772728911619267600,5.334267578125,-0.0818558782339096,-0.003665188793092966,-0.15760311484336853
1772728911628785700,5.34378564453125,-0.07147117704153061,-0.007330377586185932,-0.19181154668331146
1772728911638303500,5.353303466796875,-0.05925388261675835,-0.007330377586185932,-0.23335035145282745
1772728911647821800,5.36282177734375,-0.049480047076940536,-0.02932151034474373,-0.2779434621334076
1772728911657339600,5.372339599609375,-0.03848448023200035,-0.056199558079242706,-0.318871408700943
1772728911666858000,5.38185791015625,-0.0256563201546669,-0.06780599057674408,-0.34697118401527405
1772728911676375800,5.391375732421875,-0.01282816007733345,-0.0616973415017128,-0.35796675086021423
1772728911685894000,5.400893798828125,-0.000610864779446274,-0.039706211537122726,-0.35063639283180237
1772728911695412000,5.410411865234375,0.010384701192378998,0.001832594396546483,-0.3341430425643921
1772728911704930000,5.419929931640625,0.021991131827235222,0.06414080411195755,-0.31154105067253113
1772728911714448100,5.4294482421875,0.030543239787220955,0.13255766034126282,-0.27977606654167175
1772728911723966200,5.43896630859375,0.03298669680953026,0.2009745091199875,-0.23945899307727814
1772728911733484300,5.448484375,0.03176496922969818,0.2632827162742615,-0.18570289015769958
1772728911743002400,5.45800244140625,0.03543015569448471,0.31031930446624756,-0.1178968995809555
1772728911752520400,5.4675205078125,0.0409279391169548,0.34208428859710693,-0.053145237267017365
1772728911762038500,5.47703857421875,0.047036588191986084,0.35674503445625305,-0.001832594396546483
1772728911771556600,5.486556640625,0.053145237267017365,0.34636032581329346,0.02626718580722809
1772728911781074400,5.496074462890625,0.06414080411195755,0.31459537148475647,0.034208428114652634
1772728911790592800,5.5055927734375,0.07635809481143951,0.2522871494293213,0.030543239787220955
1772728911800110600,5.515110595703125,0.0922405794262886,0.15821397304534912,0.014660755172371864
1772728911809629000,5.52462890625,0.10690133273601532,0.05925388261675835,-0.010384701192378998
1772728911819146800,5.534146728515625,0.11239911615848541,-0.02260199747979641,-0.033597562462091446
1772728911828664800,5.543664794921875,0.10873392969369888,-0.07330377399921417,-0.04581485688686371
1772728911838183000,5.553182861328125,0.09957095980644226,-0.09957095980644226,-0.043371398001909256
1772728911847701000,5.562700927734375,0.0873536616563797,-0.08368847519159317,-0.024434590712189674
1772728911857219000,5.572218994140625,0.08002328872680664,-0.05070177838206291,0.013439024798572063
1772728911866737200,5.581737060546875,0.0818558782339096,-0.023212861269712448,0.056810423731803894
1772728911876255200,5.591255126953125,0.0873536616563797,0.015271619893610477,0.08674279600381851
1772728911885773300,5.600773193359375,0.09834922850131989,0.06291907280683517,0.0922405794262886
1772728911895291400,5.61029150390625,0.11667517572641373,0.11545344442129135,0.06963858753442764
1772728911904809500,5.6198095703125,0.14110976457595825,0.164322629570961,0.027488915249705315
1772728911914327600,5.62932763671875,0.16859868168830872,0.19792018830776215,-0.021991131827235222
1772728911923845400,5.638845458984375,0.19364413619041443,0.1948658674955368,-0.06597339361906052
1772728911933363700,5.64836376953125,0.21441353857517242,0.15638138353824615,-0.10384701192378998
1772728911942881500,5.657881591796875,0.235793799161911,0.11484257876873016,-0.13622283935546875
1772728911952400000,5.66739990234375,0.25534147024154663,0.08063415437936783,-0.16554436087608337
1772728911961917700,5.676917724609375,0.2822195291519165,0.05192350596189499,-0.1893680840730667
1772728911971435800,5.686435791015625,0.3127627670764923,0.02932151034474373,-0.19608759880065918
1772728911980953900,5.695953857421875,0.3451386094093323,-0.006719512399286032,-0.16554436087608337
1772728911990472000,5.705471923828125,0.37140578031539917,-0.06352993845939636,-0.08063415437936783
1772728911999990000,5.714989990234375,0.38301220536231995,-0.11178825795650482,0.0513126403093338
1772728912009508000,5.724508056640625,0.3738492429256439,-0.13988803327083588,0.19914191961288452
1772728912019026200,5.734026123046875,0.3439168632030487,-0.16065743565559387,0.328645259141922
1772728912028544300,5.743544189453125,0.3078758418560028,-0.14110976457595825,0.4147771894931793
1772728912038062300,5.753062255859375,0.2883281707763672,-0.059864748269319534,0.4508182108402252
1772728912047580400,5.762580322265625,0.28588470816612244,0.05864302068948746,0.4465421438217163
1772728912057098500,5.772098388671875,0.28405213356018066,0.17715078592300415,0.4001164436340332
1772728912066616300,5.7816162109375,0.2809978127479553,0.28466299176216125,0.3237583339214325
1772728912076134700,5.791134765625,0.27855435013771057,0.37140578031539917,0.2315177470445633
1772728912085652500,5.800652587890625,0.28038692474365234,0.4196641147136688,0.13988803327083588
1772728912095170600,5.810170654296875,0.28527384996414185,0.4166097939014435,0.06352993845939636
1772728912104688600,5.819688720703125,0.2926042377948761,0.38728827238082886,0.002443459117785096
1772728912114206700,5.829206787109375,0.29993459582328796,0.3549124300479889,-0.046425722539424896
1772728912123724800,5.838724853515625,0.3139844834804535,0.3488037884235382,-0.07635809481143951
1772728912133243000,5.848242919921875,0.33169957995414734,0.3396408259868622,-0.08613193035125732
1772728912142761000,5.857760986328125,0.33169957995414734,0.29443681240081787,-0.07757982611656189
1772728912152279000,5.867279052734375,0.34147340059280396,0.2254091054201126,-0.04276053607463837
1772728912161797000,5.876797119140625,0.3488037884235382,0.1282816082239151,-0.01282816007733345
1772728912171315200,5.886315185546875,0.35063639283180237,0.0256563201546669,0.004276053514331579
1772728912180833300,5.895833251953125,0.3488037884235382,-0.06902772188186646,-0.002443459117785096
1772728912190351400,5.905351318359375,0.3390299379825592,-0.14599667489528656,-0.037262752652168274
1772728912199869400,5.914869384765625,0.3274235129356384,-0.1905898153781891,-0.08002328872680664
1772728912209387300,5.92438720703125,0.32070401310920715,-0.19669845700263977,-0.11606431007385254
1772728912218905600,5.933905517578125,0.3133736252784729,-0.1740964651107788,-0.13927717506885529
1772728912228423400,5.94342333984375,0.3042106628417969,-0.1380554437637329,-0.14477495849132538
1772728912237941500,5.95294140625,0.29138249158859253,-0.11178825795650482,-0.14049890637397766
1772728912247459600,5.96245947265625,0.27977606654167175,-0.09040798991918564,-0.13011419773101807
1772728912256977700,5.971977783203125,0.27000224590301514,-0.07024945318698883,-0.12400554865598679
1772728912266495700,5.981495849609375,0.25473061203956604,-0.03909534588456154,-0.13072505593299866
1772728912276013800,5.991013916015625,0.23212862014770508,-0.007941242307424545,-0.1490510106086731
1772728912285532000,6.000531982421875,0.20158538222312927,0.007330377586185932,-0.17287473380565643
1772728912295050000,6.010050048828125,0.16737695038318634,0.009773836471140385,-0.1997527778148651
1772728912304568000,6.019568115234375,0.1386663019657135,0.009773836471140385,-0.22479823231697083
1772728912314086100,6.029086181640625,0.11423171311616898,0.001832594396546483,-0.23945899307727814
1772728912323604200,6.038604248046875,0.08552107214927673,-0.010995565913617611,-0.24495677649974823
1772728912333122300,6.048122314453125,0.05742128938436508,-0.018325943499803543,-0.23518294095993042
1772728912342640400,6.057640380859375,0.036651886999607086,-0.012217295356094837,-0.1997527778148651
1772728912352158200,6.067158203125,0.01649334840476513,-0.0030543238390237093,-0.1594357043504715
1772728912361676300,6.07667626953125,-0.007941242307424545,-0.002443459117785096,-0.12156209349632263
1772728912371194400,6.0861943359375,-0.037262752652168274,-0.006719512399286032,-0.09040798991918564
1772728912380712400,6.09571240234375,-0.06414080411195755,-0.014049889519810677,-0.06352993845939636
1772728912390230500,6.10523046875,-0.08429934084415436,-0.017104214057326317,-0.037262752652168274
1772728912399748600,6.11474853515625,-0.10140355676412582,-0.015271619893610477,-0.01588248461484909
1772728912409266700,6.1242666015625,-0.11606431007385254,-0.010995565913617611,-0.0030543238390237093
1772728912418784800,6.13378466796875,-0.12950333952903748,-0.010384701192378998,0.004276053514331579
1772728912428302800,6.143302734375,-0.14110976457595825,-0.014660755172371864,0.009773836471140385
1772728912437821000,6.152821044921875,-0.14721840620040894,-0.023823726922273636,0.010384701192378998
1772728912447339000,6.162339111328125,-0.15088360011577606,-0.036651886999607086,-0.006108647678047419
1772728912456857000,6.171857177734375,-0.15699224174022675,-0.06108647957444191,-0.05742128938436508
1772728912466375200,6.181375244140625,-0.16065743565559387,-0.09590577334165573,-0.14049890637397766
1772728912475893000,6.19089306640625,-0.1545487940311432,-0.13439024984836578,-0.2315177470445633
1772728912485411300,6.200411376953125,-0.1490510106086731,-0.1594357043504715,-0.3017672002315521
1772728912494929200,6.20992919921875,-0.14233149588108063,-0.1747073233127594,-0.35063639283180237
1772728912504447200,6.219447265625,-0.13561198115348816,-0.18814635276794434,-0.38179048895835876
1772728912513965300,6.22896533203125,-0.12644900381565094,-0.1802051067352295,-0.39339691400527954
1772728912523483400,6.2384833984375,-0.11423171311616898,-0.14660754799842834,-0.3634645342826843
1772728912533001500,6.24800146484375,-0.09957095980644226,-0.10445787757635117,-0.27977606654167175
1772728912542519600,6.25751953125,-0.08429934084415436,-0.06536252796649933,-0.15027274191379547
1772728912552037600,6.26703759765625,-0.07330377399921417,-0.03848448023200035,-0.009162971749901772
1772728912561555700,6.2765556640625,-0.06352993845939636,-0.020158538594841957,0.10323614627122879
1772728912571073800,6.28607373046875,-0.05558869615197182,-0.013439024798572063,0.16065743565559387
1772728912580591900,6.295591796875,-0.050090912729501724,-0.018325943499803543,0.15577052533626556
1772728912590110000,6.30510986328125,-0.046425722539424896,-0.03176496922969818,0.10140355676412582
1772728912599628000,6.3146279296875,-0.047036588191986084,-0.06352993845939636,0.017104214057326317
1772728912609146000,6.32414599609375,-0.04825831577181816,-0.09896009415388107,-0.07757982611656189
1772728912618664000,6.333663818359375,-0.04886918142437935,-0.11972949653863907,-0.17165300250053406
1772728912628182000,6.34318212890625,-0.047036588191986084,-0.1288924664258957,-0.24495677649974823
1772728912637700000,6.3527001953125,-0.043371398001909256,-0.13194678723812103,-0.2919933497905731
1772728912647218200,6.36221826171875,-0.04276053607463837,-0.13133592903614044,-0.30115634202957153
1772728912656736300,6.371736328125,-0.047036588191986084,-0.13194678723812103,-0.2767217457294464
1772728912666254300,6.38125439453125,-0.05497783049941063,-0.13439024984836578,-0.21380266547203064
1772728912675772400,6.3907724609375,-0.06108647957444191,-0.13255766034126282,-0.10934479534626007
1772728912685290500,6.40029052734375,-0.0720820426940918,-0.12522727251052856,0.023823726922273636
1772728912694808600,6.40980859375,-0.0922405794262886,-0.1331685185432434,0.16249002516269684
1772728912704326700,6.41932666015625,-0.12095122784376144,-0.15271618962287903,0.2761108875274658
1772728912713844700,6.4288447265625,-0.15027274191379547,-0.16126830875873566,0.3426951467990875
1772728912723362800,6.43836279296875,-0.16859868168830872,-0.1637117564678192,0.36163195967674255
1772728912732881000,6.447880859375,-0.18081597983837128,-0.1802051067352295,0.34697118401527405
1772728912742398700,6.457398681640625,-0.19181154668331146,-0.1997527778148651,0.3182605504989624
1772728912751917000,6.4669169921875,-0.20952661335468292,-0.21868959069252014,0.28527384996414185
1772728912761435000,6.476434814453125,-0.22296564280986786,-0.2315177470445633,0.25961753726005554
1772728912770953000,6.485952880859375,-0.2461785078048706,-0.24434591829776764,0.22418737411499023
1772728912780471000,6.495470947265625,-0.28405213356018066,-0.25961753726005554,0.17165300250053406
1772728912789989000,6.504989013671875,-0.3121519088745117,-0.28954991698265076,0.11423171311616898
1772728912799507200,6.514507080078125,-0.32192572951316833,-0.31459537148475647,0.06108647957444191
1772728912809025300,6.524025390625,-0.3292561173439026,-0.30970844626426697,0.009773836471140385
1772728912818543400,6.53354345703125,-0.3347539007663727,-0.2761108875274658,-0.046425722539424896
1772728912828061400,6.5430615234375,-0.3396408259868622,-0.2315177470445633,-0.10567960888147354
1772728912837579500,6.55257958984375,-0.33658650517463684,-0.1954767256975174,-0.1649334877729416
1772728912847097600,6.56209765625,-0.318871408700943,-0.15515965223312378,-0.2107483446598053
1772728912856615700,6.57161572265625,-0.2938259541988373,-0.10445787757635117,-0.2315177470445633
1772728912866133500,6.581133544921875,-0.26389357447624207,-0.04825831577181816,-0.21930044889450073
1772728912875651800,6.59065185546875,-0.2364046722650528,-0.011606430634856224,-0.164322629570961
1772728912885169700,6.600169677734375,-0.20891575515270233,-0.004886918235570192,-0.06475166976451874
1772728912894688000,6.60968798828125,-0.18631376326084137,-0.003665188793092966,0.047036588191986084
1772728912904205800,6.619205810546875,-0.17104214429855347,0.011606430634856224,0.13439024984836578
1772728912913724000,6.628723876953125,-0.16004657745361328,0.03848448023200035,0.18203771114349365
1772728912923242000,6.638241943359375,-0.1490510106086731,0.07269290834665298,0.19853104650974274
1772728912932760000,6.647760009765625,-0.13683371245861053,0.10690133273601532,0.19181154668331146
1772728912942278100,6.657278076171875,-0.12400554865598679,0.13927717506885529,0.16798780858516693
1772728912951796200,6.666796142578125,-0.11239911615848541,0.16676609218120575,0.13011419773101807
1772728912961314300,6.676314208984375,-0.10201441496610641,0.1844811588525772,0.08002328872680664
1772728912970832400,6.685832275390625,-0.09712749719619751,0.19181154668331146,0.0256563201546669
1772728912980350500,6.6953505859375,-0.09529490768909454,0.18203771114349365,-0.033597562462091446
1772728912989868300,6.704868408203125,-0.0977383628487587,0.16004657745361328,-0.0977383628487587
1772728912999386600,6.71438671875,-0.1026252806186676,0.12461641430854797,-0.16798780858516693
1772728913008904400,6.723904541015625,-0.10567960888147354,0.0818558782339096,-0.23518294095993042
1772728913018422800,6.7334228515625,-0.10567960888147354,0.031154103577136993,-0.2919933497905731
1772728913027940600,6.742940673828125,-0.1026252806186676,-0.017104214057326317,-0.34208428859710693
1772728913037458700,6.752458740234375,-0.09834922850131989,-0.05803215503692627,-0.38179048895835876
1772728913046976800,6.761976806640625,-0.09285144507884979,-0.0922405794262886,-0.4013381600379944
1772728913056494800,6.771494873046875,-0.08429934084415436,-0.11606431007385254,-0.39767298102378845
1772728913066013000,6.781012939453125,-0.06963858753442764,-0.11911863088607788,-0.37812530994415283
1772728913075531000,6.790531005859375,-0.05192350596189499,-0.10751219838857651,-0.3439168632030487
1772728913085049000,6.800049072265625,-0.0360410213470459,-0.08429934084415436,-0.2932150959968567
1772728913094567200,6.809567138671875,-0.01893680728971958,-0.0409279391169548,-0.22907429933547974
1772728913104085200,6.819085205078125,-0.007330377586185932,0.020158538594841957,-0.15821397304534912
1772728913113603000,6.82860302734375,-0.001221729558892548,0.08674279600381851,-0.0977383628487587
1772728913123121400,6.838121337890625,-0.002443459117785096,0.14233149588108063,-0.056199558079242706
1772728913132639200,6.84763916015625,-0.006108647678047419,0.17837251722812653,-0.03237583488225937
1772728913142157600,6.857157470703125,-0.006719512399286032,0.19853104650974274,-0.015271619893610477
1772728913151675400,6.86667529296875,-0.001221729558892548,0.20830489695072174,-0.010995565913617611
1772728913161193500,6.876193359375,0.006108647678047419,0.1893680840730667,-0.01588248461484909
1772728913170711600,6.885711669921875,0.01893680728971958,0.15027274191379547,-0.033597562462091446
1772728913180229600,6.895229736328125,0.033597562462091446,0.09346231073141098,-0.0616973415017128
1772728913189747700,6.904747802734375,0.04764745384454727,0.013439024798572063,-0.08552107214927673
1772728913199265800,6.914265869140625,0.056199558079242706,-0.07452550530433655,-0.09162971377372742
1772728913208784000,6.923783935546875,0.056810423731803894,-0.1533270627260208,-0.0720820426940918
1772728913218302000,6.933302001953125,0.0513126403093338,-0.22785256803035736,-0.039706211537122726
1772728913227820000,6.942820068359375,0.05070177838206291,-0.2761108875274658,-0.003665188793092966
1772728913237337900,6.952337890625,0.05253437161445618,-0.27977606654167175,0.03298669680953026
1772728913246856200,6.961856201171875,0.06047561392188072,-0.23029601573944092,0.07819069176912308
1772728913256374000,6.9713740234375,0.0769689604640007,-0.13683371245861053,0.1337793916463852
1772728913265892000,6.98089208984375,0.09957095980644226,-0.018325943499803543,0.1844811588525772
1772728913275410200,6.99041015625,0.12217295914888382,0.08491020649671555,0.20463970303535461
1772728913284928300,6.99992822265625,0.14538581669330597,0.15821397304534912,0.19792018830776215
1772728913294446300,7.0094462890625,0.16615521907806396,0.20463970303535461,0.17653992772102356
1772728913303964400,7.01896435546875,0.18631376326084137,0.21441353857517242,0.143553227186203
1772728913313482500,7.028482421875,0.20891575515270233,0.205861434340477,0.10079269111156464
1772728913323000600,7.03800048828125,0.22907429933547974,0.18692462146282196,0.04764745384454727
1772728913332518700,7.0475185546875,0.24373504519462585,0.17531819641590118,-0.015271619893610477
1772728913342036700,7.05703662109375,0.2516762912273407,0.15821397304534912,-0.07941242307424545
1772728913351554800,7.066554931640625,0.2565632164478302,0.12156209349632263,-0.12461641430854797
1772728913361072600,7.07607275390625,0.26511532068252563,0.059864748269319534,-0.13744457066059113
1772728913370591000,7.085591064453125,0.27916520833969116,-0.020769402384757996,-0.08429934084415436
1772728913380108800,7.09510888671875,0.29016077518463135,-0.11911863088607788,0.04886918142437935
1772728913389627000,7.104626953125,0.29138249158859253,-0.21685700118541718,0.21258094906806946
1772728913399145000,7.11414501953125,0.277332603931427,-0.2724456787109375,0.3707949221134186
1772728913408663000,7.1236630859375,0.24373504519462585,-0.26511532068252563,0.49052441120147705
1772728913418181000,7.13318115234375,0.20402882993221283,-0.1893680840730667,0.5760455131530762
1772728913427699200,7.14269921875,0.17715078592300415,-0.06597339361906052,0.6334667801856995
1772728913437217300,7.15221728515625,0.164322629570961,0.07574722915887833,0.657290518283844
1772728913446735400,7.1617353515625,0.16187916696071625,0.22296564280986786,0.638353705406189
1772728913456253400,7.17125341796875,0.16187916696071625,0.35735589265823364,0.5711585879325867
1772728913465771500,7.180771484375,0.1545487940311432,0.45998117327690125,0.47036588191986084
1772728913475289600,7.19028955078125,0.14110976457595825,0.5241219997406006,0.36774060130119324
1772728913484807700,7.1998076171875,0.13255766034126282,0.5583304166793823,0.27000224590301514
1772728913494325500,7.209325439453125,0.1331685185432434,0.5766563415527344,0.18081597983837128
1772728913503843600,7.218843505859375,0.1496618688106537,0.5772672295570374,0.10079269111156464
1772728913513361700,7.228361572265625,0.17653992772102356,0.564439058303833,0.029932374134659767
1772728913522879700,7.237879638671875,0.19425499439239502,0.5192350745201111,-0.02626718580722809
1772728913532397800,7.247397705078125,0.21135921776294708,0.43371400237083435,-0.07574722915887833
1772728913541916000,7.256916015625,0.22663083672523499,0.3139844834804535,-0.11484257876873016
1772728913551434000,7.26643408203125,0.23396120965480804,0.16737695038318634,-0.13194678723812103
1772728913560952000,7.2759521484375,0.22968515753746033,0.01282816007733345,-0.12767073512077332
1772728913570470100,7.28547021484375,0.21746785938739777,-0.13072505593299866,-0.10934479534626007
1772728913579988200,7.29498828125,0.19914191961288452,-0.2364046722650528,-0.08491020649671555
1772728913589506300,7.30450634765625,0.17837251722812653,-0.2730565667152405,-0.06475166976451874
1772728913599024400,7.3140244140625,0.15821397304534912,-0.24495677649974823,-0.043982263654470444
1772728913608542500,7.32354248046875,0.14110976457595825,-0.16859868168830872,-0.01282816007733345
1772728913618060300,7.333060302734375,0.1233946830034256,-0.0769689604640007,0.017104214057326317
1772728913627578600,7.34257861328125,0.10018182545900345,0.010995565913617611,0.03298669680953026
1772728913637096400,7.352096435546875,0.07757982611656189,0.0824667438864708,0.025045456364750862
1772728913646614500,7.361614501953125,0.05803215503692627,0.12950333952903748,-0.007330377586185932
1772728913656132600,7.371132568359375,0.043371398001909256,0.1545487940311432,-0.05192350596189499
1772728913665650700,7.380650634765625,0.034208428114652634,0.16859868168830872,-0.09896009415388107
1772728913675168800,7.390168701171875,0.02932151034474373,0.17165300250053406,-0.1386663019657135
1772728913684686800,7.399686767578125,0.017715077847242355,0.16615521907806396,-0.16737695038318634
1772728913694205000,7.409204833984375,0.004276053514331579,0.16126830875873566,-0.1802051067352295
1772728913703723000,7.418722900390625,-0.007941242307424545,0.15271618962287903,-0.17898337543010712
1772728913713241000,7.428240966796875,-0.021991131827235222,0.1441640853881836,-0.1740964651107788
1772728913722759000,7.437759033203125,-0.03543015569448471,0.12950333952903748,-0.1740964651107788
1772728913732277200,7.44727734375,-0.050090912729501724,0.10629047453403473,-0.17837251722812653
1772728913741795000,7.456795166015625,-0.06597339361906052,0.08552107214927673,-0.18325942754745483
1772728913751313200,7.466313232421875,-0.07941242307424545,0.06536252796649933,-0.18631376326084137
1772728913760831200,7.475831298828125,-0.09468404203653336,0.04276053607463837,-0.185092031955719
1772728913770349300,7.485349365234375,-0.11117739230394363,0.014049889519810677,-0.17898337543010712
1772728913779867400,7.494867431640625,-0.12217295914888382,-0.020769402384757996,-0.16859868168830872
1772728913789385500,7.504385498046875,-0.1282816082239151,-0.05436696484684944,-0.1490510106086731
1772728913798903600,7.513903564453125,-0.1288924664258957,-0.08063415437936783,-0.1185077652335167
1772728913808421600,7.523421630859375,-0.1282816082239151,-0.09896009415388107,-0.08429934084415436
1772728913817939700,7.532939697265625,-0.11972949653863907,-0.10934479534626007,-0.05803215503692627
1772728913827457500,7.54245751953125,-0.10506874322891235,-0.10995566099882126,-0.0409279391169548
1772728913836975900,7.551975830078125,-0.09407317638397217,-0.11606431007385254,-0.03787361457943916
1772728913846493700,7.56149365234375,-0.08796452730894089,-0.12705987691879272,-0.05558869615197182
1772728913856011800,7.57101171875,-0.08063415437936783,-0.14110976457595825,-0.09101885557174683
1772728913865529900,7.58052978515625,-0.07147117704153061,-0.14477495849132538,-0.14049890637397766
1772728913875048000,7.5900478515625,-0.05925388261675835,-0.13683371245861053,-0.1954767256975174
1772728913884566000,7.59956591796875,-0.04153880476951599,-0.11728604137897491,-0.24251331388950348
1772728913894084000,7.609083984375,-0.023823726922273636,-0.09529490768909454,-0.268169641494751
1772728913903602200,7.618602294921875,-0.008552107028663158,-0.07086031138896942,-0.2730565667152405
1772728913913120300,7.628120361328125,0.004276053514331579,-0.03481929376721382,-0.2626718580722809
1772728913922638300,7.637638427734375,0.01649334840476513,0.004886918235570192,-0.21930044889450073
1772728913932156400,7.647156494140625,0.0256563201546669,0.01954767294228077,-0.13500112295150757
1772728913941674500,7.656674560546875,0.02871064469218254,0.01649334840476513,-0.020769402384757996
1772728913951192600,7.666192626953125,0.023212861269712448,-0.008552107028663158,0.10506874322891235
1772728913960710400,7.67571044921875,0.010384701192378998,-0.05070177838206291,0.20280711352825165
1772728913970228500,7.685228515625,-0.004886918235570192,-0.09896009415388107,0.24801109731197357
1772728913979746600,7.69474658203125,-0.020158538594841957,-0.143553227186203,0.23945899307727814
1772728913989264600,7.7042646484375,-0.03298669680953026,-0.18570289015769958,0.19242240488529205
1772728913998782700,7.71378271484375,-0.039706211537122726,-0.22235478460788727,0.12400554865598679
1772728914008300800,7.72330078125,-0.03909534588456154,-0.2370155304670334,0.05192350596189499
1772728914017819000,7.73281884765625,-0.037262752652168274,-0.23212862014770508,-0.010384701192378998
1772728914027337000,7.7423369140625,-0.033597562462091446,-0.21441353857517242,-0.053145237267017365
1772728914036855000,7.75185498046875,-0.029932374134659767,-0.18264856934547424,-0.08613193035125732
1772728914046373000,7.761373046875,-0.024434590712189674,-0.14477495849132538,-0.10995566099882126
1772728914055891200,7.77089111328125,-0.01588248461484909,-0.11117739230394363,-0.1331685185432434
1772728914065409000,7.780408935546875,-0.007330377586185932,-0.0922405794262886,-0.1588248461484909
1772728914074927400,7.78992724609375,0,-0.1026252806186676,-0.17226386070251465
1772728914084445200,7.799445068359375,0.002443459117785096,-0.15577052533626556,-0.14538581669330597
1772728914093963300,7.80896337890625,-0.002443459117785096,-0.23335035145282745,-0.06475166976451874
1772728914103481300,7.8184814453125,-0.014049889519810677,-0.3127627670764923,0.0665842592716217
1772728914112999400,7.82799951171875,-0.0409279391169548,-0.38179048895835876,0.22846342623233795
1772728914122517500,7.837517578125,-0.07880155742168427,-0.4111120104789734,0.379347026348114
1772728914132035600,7.84703564453125,-0.12217295914888382,-0.37690356373786926,0.4862483739852905
1772728914141553700,7.8565537109375,-0.1594357043504715,-0.29626941680908203,0.5424479246139526
1772728914151071700,7.86607177734375,-0.185092031955719,-0.2107483446598053,0.5442805290222168
1772728914160589800,7.87558984375,-0.2107483446598053,-0.13194678723812103,0.49480047821998596
1772728914170107600,7.885107666015625,-0.2419024556875229,-0.059864748269319534,0.411722868680954
1772728914179626000,7.8946259765625,-0.2767217457294464,-0.006108647678047419,0.318871408700943
1772728914189143800,7.904143798828125,-0.3084867000579834,0.020158538594841957,0.23029601573944092
1772728914198662000,7.913661865234375,-0.3298669755458832,0.020769402384757996,0.1496618688106537
1772728914208180000,7.923179931640625,-0.3396408259868622,0.0030543238390237093,0.07513637095689774
1772728914217698000,7.932697998046875,-0.3402516841888428,-0.009162971749901772,0.0030543238390237093
1772728914227216100,7.942216064453125,-0.3402516841888428,-0.006719512399286032,-0.05925388261675835
1772728914236734200,7.951734130859375,-0.3402516841888428,0.000610864779446274,-0.1081230640411377
1772728914246252300,7.961252197265625,-0.337808221578598,0.003665188793092966,-0.1386663019657135
1772728914255770400,7.970770263671875,-0.33231043815612793,0.0030543238390237093,-0.15515965223312378
1772728914265288400,7.980288330078125,-0.32681265473365784,0.008552107028663158,-0.15515965223312378
1772728914274806500,7.989806640625,-0.3170388340950012,0.009773836471140385,-0.13255766034126282
1772728914284324600,7.99932470703125,-0.30543237924575806,0.009162971749901772,-0.09162971377372742
1772728914293842400,8.008842529296874,-0.2919933497905731,0.009773836471140385,-0.03909534588456154
1772728914303360500,8.018360595703125,-0.2730565667152405,0.021991131827235222,0.007330377586185932
1772728914312878600,8.027878662109375,-0.25045454502105713,0.056199558079242706,0.04153880476951599
1772728914322396700,8.037396728515626,-0.2211330533027649,0.10506874322891235,0.06291907280683517
1772728914331914800,8.046914794921875,-0.18692462146282196,0.15577052533626556,0.07391463965177536
1772728914341432800,8.056432861328124,-0.14782927930355072,0.20769402384757996,0.06902772188186646
1772728914350951000,8.065950927734375,-0.1081230640411377,0.2467893660068512,0.05436696484684944
1772728914360469000,8.075468994140625,-0.07330377399921417,0.268169641494751,0.033597562462091446
1772728914369987000,8.084987060546876,-0.047036588191986084,0.2761108875274658,0.001832594396546483
1772728914379505200,8.094505126953125,-0.02932151034474373,0.28038692474365234,-0.043371398001909256
1772728914389023000,8.10402294921875,-0.01893680728971958,0.2718348205089569,-0.09834922850131989
1772728914398541300,8.113541259765626,-0.01282816007733345,0.23518294095993042,-0.1594357043504715
1772728914408059100,8.12305908203125,-0.009773836471140385,0.16554436087608337,-0.22235478460788727
1772728914417577500,8.132577392578124,-0.01282816007733345,0.0873536616563797,-0.2816086709499359
1772728914427095300,8.14209521484375,-0.023212861269712448,0.023212861269712448,-0.33536475896835327
1772728914436613400,8.15161328125,-0.030543239787220955,-0.039706211537122726,-0.379347026348114
1772728914446131500,8.16113134765625,-0.030543239787220955,-0.10567960888147354,-0.4043924808502197
1772728914455649500,8.1706494140625,-0.026878049597144127,-0.16798780858516693,-0.39828383922576904
1772728914465167600,8.180167724609374,-0.014049889519810677,-0.22357651591300964,-0.3756818473339081
1772728914474685700,8.189685791015625,0.006108647678047419,-0.25350889563560486,-0.347582072019577
1772728914484203800,8.199203857421875,0.03176496922969818,-0.25045454502105713,-0.3078758418560028
1772728914493721600,8.2087216796875,0.056199558079242706,-0.22663083672523499,-0.24556763470172882
1772728914503240000,8.218239990234375,0.07513637095689774,-0.18631376326084137,-0.16187916696071625
1772728914512757800,8.2277578125,0.08796452730894089,-0.13561198115348816,-0.07086031138896942
1772728914522275800,8.23727587890625,0.0873536616563797,-0.07024945318698883,0.009162971749901772
1772728914531794000,8.2467939453125,0.0769689604640007,0.01588248461484909,0.0665842592716217
1772728914541312000,8.25631201171875,0.07513637095689774,0.12461641430854797,0.09896009415388107
1772728914550830000,8.265830078125,0.08002328872680664,0.22907429933547974,0.10751219838857651
1772728914560348200,8.27534814453125,0.08307760953903198,0.28405213356018066,0.09285144507884979
1772728914569866200,8.2848662109375,0.08674279600381851,0.2981020212173462,0.056810423731803894
1772728914579384300,8.29438427734375,0.09101885557174683,0.27916520833969116,0.003665188793092966
1772728914588902400,8.30390234375,0.09529490768909454,0.24312418699264526,-0.05864302068948746
1772728914598420500,8.31342041015625,0.10567960888147354,0.19181154668331146,-0.11606431007385254
1772728914607938300,8.322938232421874,0.11911863088607788,0.12767073512077332,-0.16004657745361328
1772728914617456600,8.33245654296875,0.1282816082239151,0.05925388261675835,-0.18631376326084137
1772728914626974500,8.341974365234375,0.13439024984836578,-0.009162971749901772,-0.1954767256975174
1772728914636492500,8.351492431640626,0.13622283935546875,-0.07024945318698883,-0.18081597983837128
1772728914646010600,8.3610107421875,0.13622283935546875,-0.12217295914888382,-0.14294235408306122
1772728914655528700,8.37052880859375,0.13255766034126282,-0.15821397304534912,-0.09834922850131989
1772728914665046800,8.380046875,0.12705987691879272,-0.1496618688106537,-0.049480047076940536
1772728914674564900,8.38956494140625,0.12522727251052856,-0.08491020649671555,0.000610864779446274
1772728914684083000,8.3990830078125,0.1331685185432434,0.018325943499803543,0.050090912729501724
1772728914693601000,8.40860107421875,0.1484401375055313,0.14721840620040894,0.09101885557174683
1772728914703119000,8.418119140625,0.17104214429855347,0.27366742491722107,0.12522727251052856
1772728914712637000,8.427636962890626,0.1997527778148651,0.36712974309921265,0.14660754799842834
1772728914722155300,8.4371552734375,0.23029601573944092,0.4172206521034241,0.1545487940311432
1772728914731673000,8.446673095703124,0.25534147024154663,0.43004879355430603,0.15088360011577606
1772728914741191200,8.456191162109375,0.27427828311920166,0.40805765986442566,0.1380554437637329
1772728914750709200,8.465709228515625,0.2822195291519165,0.36163195967674255,0.11728604137897491
1772728914760227300,8.475227294921876,0.2834412455558777,0.3133736252784729,0.08857539296150208
1772728914769745400,8.484745361328125,0.2767217457294464,0.26939135789871216,0.053756099194288254
1772728914779263500,8.494263427734374,0.2779434621334076,0.2009745091199875,0.040317077189683914
1772728914788781600,8.503781494140625,0.29138249158859253,0.10201441496610641,0.0769689604640007
1772728914798299600,8.513299560546875,0.3170388340950012,0,0.16554436087608337
1772728914807817700,8.522817626953126,0.34208428859710693,-0.07147117704153061,0.2718348205089569
1772728914817335800,8.532335693359375,0.35735589265823364,-0.11178825795650482,0.37262752652168274
1772728914826853600,8.541853515625,0.3634645342826843,-0.13194678723812103,0.4453204274177551
1772728914836371700,8.551371826171875,0.360410213470459,-0.10690133273601532,0.471587598323822
1772728914845889800,8.560889892578125,0.35735589265823364,-0.02260199747979641,0.46059203147888184
1772728914855407900,8.570407958984376,0.36163195967674255,0.09712749719619751,0.411722868680954
1772728914864926000,8.579926025390625,0.36224281787872314,0.22418737411499023,0.3182605504989624
1772728914874444000,8.589444091796874,0.3530798554420471,0.33536475896835327,0.18387030065059662
1772728914883962000,8.598962158203125,0.3402516841888428,0.40317076444625854,0.027488915249705315
1772728914893480200,8.608480224609375,0.3396408259868622,0.43493571877479553,-0.11972949653863907
1772728914902998300,8.617998291015626,0.34636032581329346,0.4416552484035492,-0.23396120965480804
1772728914912516000,8.62751611328125,0.347582072019577,0.43921178579330444,-0.3121519088745117
1772728914922034400,8.637034423828124,0.35124725103378296,0.411722868680954,-0.35063639283180237
1772728914931552300,8.64655224609375,0.3543015718460083,0.3494146466255188,-0.3610210716724396
1772728914941070300,8.6560703125,0.35735589265823364,0.25534147024154663,-0.3549124300479889
1772728914950588400,8.66558837890625,0.36224281787872314,0.13988803327083588,-0.3396408259868622
1772728914960106500,8.6751064453125,0.3585776388645172,0.03481929376721382,-0.3182605504989624
1772728914969624600,8.68462451171875,0.3481929302215576,-0.08002328872680664,-0.2938259541988373
1772728914979142700,8.694142578125,0.3335321843624115,-0.1905898153781891,-0.27427828311920166
1772728914988660700,8.70366064453125,0.32070401310920715,-0.26511532068252563,-0.24556763470172882
1772728914998178800,8.7131787109375,0.31093016266822815,-0.30115634202957153,-0.20708316564559937
1772728915007697000,8.72269677734375,0.2981020212173462,-0.2919933497905731,-0.16126830875873566
1772728915017215000,8.732215087890625,0.2889390289783478,-0.24373504519462585,-0.11239911615848541
1772728915026732800,8.74173291015625,0.2828303873538971,-0.17715078592300415,-0.07024945318698883
1772728915036251000,8.7512509765625,0.27855435013771057,-0.10567960888147354,-0.04153880476951599
1772728915045769000,8.76076904296875,0.27427828311920166,-0.0360410213470459,-0.033597562462091446
1772728915055287000,8.770287109375,0.2675587832927704,0.023212861269712448,-0.05803215503692627
1772728915064805000,8.77980517578125,0.2559523284435272,0.07513637095689774,-0.11606431007385254
1772728915074323200,8.7893232421875,0.2406807243824005,0.1178968995809555,-0.20219624042510986
1772728915083841300,8.79884130859375,0.22663083672523499,0.14049890637397766,-0.2993237376213074
1772728915093359400,8.808359375,0.21441353857517242,0.1380554437637329,-0.39278605580329895
1772728915102877400,8.81787744140625,0.2052505612373352,0.1233946830034256,-0.4667007029056549
1772728915112395300,8.827395263671875,0.19303326308727264,0.10445787757635117,-0.5137372612953186
1772728915121913600,8.83691357421875,0.17653992772102356,0.07819069176912308,-0.5314523577690125
1772728915131431400,8.846431396484375,0.15027274191379547,0.04581485688686371,-0.5283980369567871
1772728915140949500,8.855949462890624,0.12278381735086441,0.01588248461484909,-0.5094612240791321
1772728915150467600,8.865467529296875,0.09040798991918564,-0.007941242307424545,-0.45998117327690125
1772728915159985700,8.874985595703125,0.05497783049941063,-0.03237583488225937,-0.3836230933666229
1772728915169503700,8.884503662109376,0.020769402384757996,-0.059864748269319534,-0.2919933497905731
1772728915179021800,8.894021728515625,-0.009773836471140385,-0.08552107214927673,-0.2009745091199875
1772728915188540000,8.903539794921874,-0.0360410213470459,-0.1081230640411377,-0.11239911615848541
1772728915198058000,8.91305810546875,-0.056199558079242706,-0.12156209349632263,-0.03298669680953026
1772728915207576000,8.922576171875,-0.07086031138896942,-0.11362084746360779,0.034208428114652634
1772728915217094100,8.93209423828125,-0.0873536616563797,-0.09285144507884979,0.0818558782339096
1772728915226612000,8.941612060546875,-0.10445787757635117,-0.06719512492418289,0.11484257876873016
1772728915236130000,8.951130126953124,-0.11972949653863907,-0.0409279391169548,0.12950333952903748
1772728915245648100,8.960648193359376,-0.13133592903614044,-0.02932151034474373,0.12583814561367035
1772728915255166200,8.970166259765625,-0.1380554437637329,-0.04520399495959282,0.09896009415388107
1772728915264684300,8.979684326171874,-0.14049890637397766,-0.08307760953903198,0.056810423731803894
1772728915274202400,8.989202392578125,-0.14294235408306122,-0.12644900381565094,0.007941242307424545
1772728915283720400,8.998720458984375,-0.14660754799842834,-0.1545487940311432,-0.03237583488225937
1772728915293238500,9.008238525390626,-0.15210533142089844,-0.164322629570961,-0.05497783049941063
1772728915302756600,9.017756591796875,-0.16187916696071625,-0.16798780858516693,-0.059864748269319534
1772728915312274400,9.0272744140625,-0.1740964651107788,-0.18142683804035187,-0.04581485688686371
1772728915321792800,9.036792724609375,-0.18570289015769958,-0.18753549456596375,-0.012217295356094837
1772728915331310600,9.046310546875,-0.19181154668331146,-0.16249002516269684,0.03848448023200035
1772728915340828700,9.05582861328125,-0.19914191961288452,-0.09590577334165573,0.10506874322891235
1772728915350346800,9.0653466796875,-0.2003636509180069,-0.008552107028663158,0.1795942485332489
1772728915359864800,9.07486474609375,-0.20280711352825165,0.07819069176912308,0.24312418699264526
1772728915369383000,9.0843828125,-0.20830489695072174,0.14660754799842834,0.2828303873538971
1772728915378901000,9.09390087890625,-0.21868959069252014,0.185092031955719,0.2919933497905731
1772728915388418800,9.103418701171876,-0.22785256803035736,0.19181154668331146,0.2706131041049957
1772728915397937200,9.112937255859375,-0.23396120965480804,0.17531819641590118,0.21868959069252014
1772728915407455000,9.122455078125,-0.23212862014770508,0.13988803327083588,0.15699224174022675
1772728915416973300,9.131973388671875,-0.2254091054201126,0.10079269111156464,0.10140355676412582
1772728915426491100,9.1414912109375,-0.21991132199764252,0.05436696484684944,0.059864748269319534
1772728915436009200,9.15100927734375,-0.2162461280822754,-0.002443459117785096,0.036651886999607086
1772728915445527300,9.16052734375,-0.21135921776294708,-0.053756099194288254,0.030543239787220955
1772728915455045400,9.17004541015625,-0.2003636509180069,-0.08613193035125732,0.036651886999607086
1772728915464563500,9.1795634765625,-0.185092031955719,-0.10140355676412582,0.059864748269319534
1772728915474081500,9.18908154296875,-0.1637117564678192,-0.11606431007385254,0.11117739230394363
1772728915483599600,9.198599609375,-0.1386663019657135,-0.13683371245861053,0.19608759880065918
1772728915493117400,9.208117431640625,-0.12461641430854797,-0.15515965223312378,0.30115634202957153
1772728915502635800,9.2176357421875,-0.12522727251052856,-0.17531819641590118,0.4062250852584839
1772728915512153600,9.227153564453126,-0.14049890637397766,-0.1905898153781891,0.49541133642196655
1772728915521671700,9.236671630859375,-0.16737695038318634,-0.19608759880065918,0.555276095867157
1772728915531189800,9.246189697265624,-0.19608759880065918,-0.1954767256975174,0.5955931544303894
1772728915540707800,9.255707763671875,-0.2156352698802948,-0.2009745091199875,0.6194168925285339
1772728915550226000,9.265225830078125,-0.22846342623233795,-0.1997527778148651,0.618806004524231
1772728915559744000,9.274743896484376,-0.2370155304670334,-0.16737695038318634,0.5900954008102417
1772728915569262000,9.284261962890625,-0.25411975383758545,-0.11178825795650482,0.5290089249610901
1772728915578780200,9.2937802734375,-0.28527384996414185,-0.05497783049941063,0.4416552484035492
1772728915588298200,9.30329833984375,-0.32009315490722656,-0.009162971749901772,0.33597561717033386
1772728915597816300,9.31281640625,-0.3433060050010681,0.017104214057326317,0.21135921776294708
1772728915607334100,9.322334228515626,-0.35063639283180237,0.0409279391169548,0.07391463965177536
1772728915616852500,9.3318525390625,-0.3445277214050293,0.07880155742168427,-0.06291907280683517
1772728915626370300,9.341370361328124,-0.3249800503253937,0.12034036219120026,-0.18081597983837128
1772728915635888400,9.350888427734375,-0.29626941680908203,0.1539379209280014,-0.27488914132118225
1772728915645406500,9.360406494140625,-0.268169641494751,0.16615521907806396,-0.35735589265823364
1772728915654924500,9.369924560546876,-0.23762640357017517,0.14233149588108063,-0.4257727563381195
1772728915664442600,9.379442626953125,-0.20708316564559937,0.07024945318698883,-0.471587598323822
1772728915673960700,9.388960693359374,-0.17165300250053406,-0.030543239787220955,-0.4667007029056549
1772728915683478800,9.398478759765625,-0.13683371245861053,-0.13194678723812103,-0.3915643095970154
1772728915692996600,9.40799658203125,-0.10934479534626007,-0.20891575515270233,-0.2516762912273407
1772728915702514700,9.4175146484375,-0.0818558782339096,-0.2412915825843811,-0.09407317638397217
1772728915712032800,9.42703271484375,-0.06230820715427399,-0.22846342623233795,0.031154103577136993
1772728915721550800,9.43655078125,-0.046425722539424896,-0.18264856934547424,0.09896009415388107
1772728915731069000,9.44606884765625,-0.03237583488225937,-0.11667517572641373,0.11545344442129135
1772728915740587000,9.4555869140625,-0.018325943499803543,-0.049480047076940536,0.10506874322891235
1772728915750105000,9.46510498046875,-0.008552107028663158,0.007330377586185932,0.0769689604640007
1772728915759623200,9.474623046875,-0.006719512399286032,0.056810423731803894,0.030543239787220955
1772728915769141000,9.48414111328125,-0.013439024798572063,0.08979712426662445,-0.0360410213470459
1772728915778659300,9.493659423828126,-0.0256563201546669,0.09896009415388107,-0.12156209349632263
1772728915788177200,9.50317724609375,-0.040317077189683914,0.08796452730894089,-0.20952661335468292
1772728915797695200,9.5126953125,-0.05253437161445618,0.05925388261675835,-0.2822195291519165
1772728915807213300,9.52221337890625,-0.056810423731803894,0.02260199747979641,-0.3341430425643921
1772728915816731400,9.5317314453125,-0.0513126403093338,-0.012217295356094837,-0.3610210716724396
1772728915826249500,9.54124951171875,-0.03909534588456154,-0.040317077189683914,-0.35674503445625305
1772728915835767600,9.550767578125,-0.029932374134659767,-0.05864302068948746,-0.33047783374786377
1772728915845285600,9.56028564453125,-0.023212861269712448,-0.06597339361906052,-0.29626941680908203
1772728915854803700,9.5698037109375,-0.020158538594841957,-0.06414080411195755,-0.258395791053772
1772728915864321800,9.57932177734375,-0.014660755172371864,-0.056199558079242706,-0.21930044889450073
1772728915873839900,9.58883984375,-0.004886918235570192,-0.040317077189683914,-0.17837251722812653
1772728915883357700,9.598357666015625,0.001832594396546483,-0.014660755172371864,-0.14233149588108063
1772728915892875800,9.607875732421874,0.003665188793092966,0.017104214057326317,-0.10873392969369888
1772728915902393900,9.617393798828125,0.000610864779446274,0.05803215503692627,-0.0824667438864708
1772728915911912000,9.626911865234375,0.000610864779446274,0.10690133273601532,-0.06475166976451874
1772728915921430000,9.636429931640626,0.002443459117785096,0.15699224174022675,-0.049480047076940536
1772728915930948000,9.645947998046875,0.015271619893610477,0.19425499439239502,-0.04276053607463837
1772728915940466200,9.655466064453124,0.03176496922969818,0.20830489695072174,-0.03481929376721382
1772728915949984000,9.66498388671875,0.047036588191986084,0.2009745091199875,-0.025045456364750862
1772728915959502300,9.67450244140625,0.05864302068948746,0.17348559200763702,-0.018325943499803543
1772728915969020200,9.684020263671876,0.0720820426940918,0.13255766034126282,-0.018325943499803543
1772728915978538200,9.693538330078125,0.0824667438864708,0.09346231073141098,-0.029932374134659767
1772728915988056300,9.703056396484374,0.08796452730894089,0.05497783049941063,-0.0513126403093338
1772728915997574400,9.712574462890625,0.09529490768909454,0.021380268037319183,-0.06291907280683517
1772728916007092500,9.722092529296875,0.10201441496610641,0.004886918235570192,-0.047036588191986084
1772728916016610600,9.731610595703126,0.10751219838857651,0.01649334840476513,-0.013439024798572063
1772728916026128600,9.741128662109375,0.11178825795650482,0.05070177838206291,0.028099779039621353
1772728916035646700,9.750646728515624,0.11117739230394363,0.08918625861406326,0.06780599057674408
1772728916045164500,9.76016455078125,0.10629047453403473,0.12644900381565094,0.08613193035125732
1772728916054683000,9.769682861328125,0.10567960888147354,0.17104214429855347,0.09040798991918564
1772728916064200700,9.77920068359375,0.10873392969369888,0.25411975383758545,0.11484257876873016
1772728916073718800,9.78871875,0.09040798991918564,0.33108872175216675,0.14660754799842834
1772728916083236900,9.79823681640625,0.08063415437936783,0.3078758418560028,0.06963858753442764
1772728916092755000,9.8077548828125,0.07819069176912308,0.21380266547203064,-0.07391463965177536
1772728916102273000,9.81727294921875,0.0922405794262886,0.07452550530433655,-0.19181154668331146
1772728916111791000,9.826791015625,0.10995566099882126,-0.07269290834665298,-0.2528980076313019
1772728916121309200,9.83630908203125,0.12400554865598679,-0.18203771114349365,-0.2626718580722809
1772728916130827300,9.8458271484375,0.13439024984836578,-0.22479823231697083,-0.235793799161911
