time,seconds_elapsed,z,y,x
1772709363677092900,0.0510927734375,0.0026466494891792536,0.006629673298448324,-0.00119602563790977
1772709363687117800,0.061117919921875,0.0044410875998437405,0.0028072381392121315,-0.0009614011505618691
1772709363697142800,0.071142822265625,0.004977714270353317,0.008519718423485756,-0.0054485611617565155
1772709363707167700,0.081167724609375,0.0038661109283566475,0.012223909609019756,-0.0073114424012601376
1772709363717193000,0.09119287109375,0.0029790119733661413,0.011439608410000801,-0.007554056588560343
1772709363727216600,0.101216552734375,0.004198207054287195,0.005820871330797672,-0.007412109989672899
1772709363737241900,0.111241943359375,0.002368881832808256,0.006359362509101629,-0.0032661007717251778
1772709363747266800,0.121266845703125,0.005140966270118952,0.009968744590878487,-0.002566488226875663
1772709363757291800,0.131291748046875,0.0024735440965741873,0.011552526615560055,-0.0041468082927167416
1772709363767316700,0.141316650390625,0.004354801028966904,0.009695503860712051,-0.005225654691457748
1772709363777342000,0.151342041015625,0.0049614692106842995,0.008260859176516533,-0.004027764778584242
1772709363787367000,0.161366943359375,0.0046935551799833775,0.007745005190372467,-0.0031185615807771683
1772709363797392000,0.171391845703125,0.005356948357075453,0.008188420906662941,-0.00036485306918621063
1772709363807416600,0.18141650390625,0.0050687943585217,0.007225155830383301,0.0006032059900462627
1772709363817441800,0.19144189453125,0.005084773525595665,0.006984938867390156,-0.0012876383261755109
1772709363827466800,0.201466796875,0.005832056514918804,0.008670187555253506,-0.0033563817851245403
1772709363837490700,0.21149072265625,0.0036815537605434656,0.007820905186235905,-0.00541314110159874
1772709363847516000,0.221515869140625,0.0024652881547808647,0.007167898118495941,-0.0025092302821576595
1772709363857540900,0.231540771484375,0.00407383730635047,0.00815246906131506,-0.002294047037139535
1772709363867565800,0.24156591796875,0.003463707398623228,0.008098406717181206,-0.005072789266705513
1772709363877590800,0.2515908203125,0.005893042776733637,0.007998538203537464,-0.005509813781827688
1772709363887615700,0.26161572265625,0.0034882084000855684,0.008782838471233845,-0.005250688176602125
1772709363897640700,0.271640625,0.003546265186741948,0.008328770287334919,-0.004225105047225952
1772709363907665700,0.281665771484375,0.0029342707712203264,0.007611047942191362,-0.003858121344819665
1772709363917691000,0.29169091796875,0.002487925114110112,0.008207595907151699,-0.0033542513847351074
1772709363927715800,0.3017158203125,0.002873817225918174,0.007908256724476814,-0.0036549223586916924
1772709363937740800,0.31174072265625,0.0033776871860027313,0.008858739398419857,-0.005125253461301327
1772709363947765800,0.321765869140625,0.003942543640732765,0.006672017276287079,-0.0032498554792255163
1772709363957791000,0.331791015625,0.0034013893455266953,0.005400358233600855,-0.0013630058383569121
1772709363967814700,0.341814697265625,0.0023331954143941402,0.006029130425304174,-0.001927595934830606
1772709363977839600,0.351839599609375,0.004102866165339947,0.00708640506491065,-0.004096740856766701
1772709363987864800,0.36186474609375,0.003612311789765954,0.008384696207940578,-0.003088467987254262
1772709363997889800,0.371889892578125,0.001541171339340508,0.007986553944647312,-0.00130920996889472
1772709364007914800,0.381914794921875,0.00421285443007946,0.006943926215171814,-0.00162399560213089
1772709364017939700,0.391939697265625,0.00449727987870574,0.009118663147091866,-0.002176867797970772
1772709364027965000,0.40196484375,0.0038655782118439674,0.009088835678994656,-0.00552366254851222
1772709364037990000,0.411989990234375,0.003087668912485242,0.006125004030764103,-0.0033430662006139755
1772709364048014800,0.422014892578125,0.004505802411586046,0.00954024214297533,-0.003920173272490501
1772709364058039600,0.43203955078125,0.003585680155083537,0.00993225909769535,-0.002588059986010194
1772709364068064800,0.442064697265625,0.005151618737727404,0.007178816944360733,-0.0020237360149621964
1772709364078089700,0.45208984375,0.0025595640763640404,0.007056844420731068,-0.002124669961631298
1772709364088113700,0.46211376953125,0.006015548016875982,0.007275755982846022,-0.0050687943585217
1772709364098139000,0.472138916015625,0.0020061591640114784,0.005736182443797588,-0.0046453517861664295
1772709364108163800,0.482163818359375,0.002909769769757986,0.006310626398772001,-0.0012082761386409402
1772709364118188800,0.492188720703125,0.004507666453719139,0.00815033819526434,-0.0013542174128815532
1772709364128213800,0.5022138671875,0.004260791465640068,0.009600695222616196,-0.0009723200928419828
1772709364138238700,0.51223876953125,0.0027209515683352947,0.008464857004582882,-0.0036099147982895374
1772709364148263700,0.522263671875,0.0036362800747156143,0.00749147217720747,-0.007282680366188288
1772709364158288600,0.53228857421875,0.0014942996203899384,0.007934622466564178,-0.005624596029520035
1772709364168313900,0.54231396484375,0.0036093820817768574,0.009465141221880913,-0.003878894029185176
1772709364178338800,0.5523388671875,0.004101534374058247,0.009180448949337006,-0.003567570587620139
1772709364188363800,0.56236376953125,0.004014182835817337,0.007793474476784468,-0.0036456012167036533
1772709364198388700,0.572388671875,0.0031790153589099646,0.006761766038835049,-0.00324852392077446
1772709364208413000,0.582412841796875,0.0027861990965902805,0.006296511739492416,-0.0005067995516583323
1772709364218437600,0.592437744140625,0.004515389446169138,0.008521316573023796,-0.00166633992921561
1772709364228462600,0.602462646484375,0.004929244983941317,0.009246761910617352,-0.0036698358599096537
1772709364238487800,0.61248779296875,0.0022303974255919456,0.006363356951624155,-0.0029758161399513483
1772709364248512800,0.6225126953125,0.0038128476589918137,0.006649380549788475,-0.002159823663532734
1772709364258538200,0.632538330078125,0.0032256206031888723,0.006649646908044815,-0.0012420982820913196
1772709364268563200,0.642563232421875,0.0032618397381156683,0.007648332044482231,-0.0017102820565924048
1772709364278588400,0.65258837890625,0.0012319782981649041,0.005014732480049133,-0.0036818201187998056
1772709364288613400,0.66261328125,0.0022567627020180225,0.007514375261962414,-0.0029108349699527025
1772709364298638300,0.672638427734375,0.0028101676143705845,0.0070861391723155975,-0.002171275205910206
1772709364308663300,0.682663330078125,0.005113269202411175,0.008140484802424908,-0.0038274950347840786
1772709364318688500,0.6926884765625,0.0035201662685722113,0.007214769721031189,-0.004602475091814995
1772709364328712200,0.702712158203125,0.003457848448306322,0.00758015550673008,-0.004552141297608614
1772709364338737200,0.712737060546875,0.0032554480712860823,0.005931125953793526,-0.006399309728294611
1772709364348762400,0.722762451171875,0.0017480988753959537,0.008382033556699753,-0.004540423396974802
1772709364358787300,0.732787353515625,0.002029062481597066,0.007306648883968592,-0.003573962254449725
1772709364368812300,0.742812255859375,0.003733751829713583,0.005330583080649376,-0.0035981968976557255
1772709364378837200,0.752837158203125,0.0038666436448693275,0.007315703667700291,-0.0013856426812708378
1772709364388862500,0.762862548828125,0.0029060414526611567,0.006836866959929466,0.001047687605023384
1772709364398887400,0.772887451171875,0.003495931625366211,0.006903712637722492,-0.0019744676537811756
1772709364408912100,0.782912109375,0.004268514458090067,0.006517554167658091,-0.0029411951545625925
1772709364418937000,0.79293701171875,0.003485811408609152,0.004941495135426521,-0.0033095101825892925
1772709364428962300,0.80296240234375,0.005667739547789097,0.006986802909523249,-0.0009840379934757948
1772709364438987300,0.8129873046875,0.005566805601119995,0.006203301250934601,-0.0006817692192271352
1772709364449011200,0.82301123046875,0.004513259045779705,0.005387841258198023,0.00010333064710721374
1772709364459036400,0.833036376953125,0.0030245520174503326,0.005774531979113817,-0.0009765811264514923
1772709364469061400,0.843061279296875,0.0019156117923557758,0.007414773106575012,-0.00424268189817667
1772709364479086000,0.853086181640625,0.002570749493315816,0.009242500178515911,-0.00452684098854661
1772709364489111300,0.863111328125,0.0025180187076330185,0.010519752278923988,-0.004381965380162001
1772709364499136300,0.87313623046875,0.0024021712597459555,0.009133310988545418,-0.007214769721031189
1772709364509161200,0.8831611328125,0.0018612833227962255,0.00869202520698309,-0.009009473957121372
1772709364519186200,0.893186279296875,0.0031766186002641916,0.007642473094165325,-0.008465123362839222
1772709364529211400,0.90321142578125,0.004108192399144173,0.008548480458557606,-0.0054967645555734634
1772709364539236400,0.913236328125,0.004088218789547682,0.011236675083637238,-0.0031611721497029066
1772709364549261300,0.92326123046875,0.002867958042770624,0.009433981962502003,-0.002429601736366749
1772709364559286300,0.933286376953125,0.006113818846642971,0.00814900640398264,-0.0018168084789067507
1772709364569310200,0.943310302734375,0.004421379882842302,0.008806540630757809,-0.0008559399866499007
1772709364579335200,0.953335205078125,0.0049026133492589,0.008388690650463104,0.0011821772204712033
1772709364589360000,0.963360107421875,0.004433364141732454,0.009476060047745705,-0.0016016251174733043
1772709364599385300,0.97338525390625,0.004011253360658884,0.007095726206898689,-0.0022186795249581337
1772709364609410300,0.983410400390625,0.004492486361414194,0.005941246170550585,-0.002557699801400304
1772709364619435300,0.993435302734375,0.004821386653929949,0.008322911337018013,-0.001719869440421462
1772709364629460200,1.003460205078125,0.004059722647070885,0.008077100850641727,-0.00379021093249321
1772709364639485400,1.0134853515625,0.0049100699834525585,0.007597998715937138,-0.003082609036937356
1772709364649510400,1.023510498046875,0.004929511342197657,0.005190767347812653,-0.00392896169796586
1772709364659535000,1.03353515625,0.0030336068011820316,0.004043477587401867,-0.0068182251416146755
1772709364669560300,1.043560302734375,0.003044259501621127,0.005738845560699701,-0.006029130425304174
1772709364679584300,1.053584228515625,0.0032722260802984238,0.006530071143060923,-0.003254915354773402
1772709364689609200,1.063609130859375,0.004397411365061998,0.00785659160465002,-0.0025190841406583786
1772709364699634400,1.073634521484375,0.004590224474668503,0.008929313160479069,-0.004820055328309536
1772709364709659400,1.083659423828125,0.003992078360170126,0.009735718369483948,-0.0054967645555734634
1772709364719684400,1.093684326171875,0.004743888974189758,0.008734369650483131,-0.003971838392317295
1772709364729709300,1.103709228515625,0.004475708585232496,0.008117315359413624,0.0007584682898595929
1772709364739734300,1.113734375,0.00407623453065753,0.0076179723255336285,0.0024642229545861483
1772709364749759200,1.12375927734375,0.003403786104172468,0.008341286331415176,-0.0010319749126210809
1772709364759784200,1.1337841796875,0.003826696192845702,0.006357498001307249,-0.0029736857395619154
1772709364769809200,1.14380908203125,0.0036722328513860703,0.005973736755549908,-0.0027798074297606945
1772709364779834400,1.15383447265625,0.003832288784906268,0.006337524391710758,-0.0011952266795560718
1772709364789859300,1.163859375,0.0038362834602594376,0.006582535337656736,-0.002447977662086487
1772709364799883300,1.17388330078125,0.0041159153915941715,0.006264820229262114,-0.004218447022140026
1772709364809908500,1.183908447265625,0.0036847495939582586,0.0041215079836547375,-0.0027153589762747288
1772709364819933200,1.19393310546875,0.0023489079903811216,0.004787032026797533,-0.0015249260468408465
1772709364829958100,1.203958251953125,0.002951581496745348,0.005181978922337294,-0.000589091214351356
1772709364839983000,1.213983154296875,0.003629089565947652,0.005771336145699024,-0.0025004418566823006
1772709364850008300,1.22400830078125,0.004285026341676712,0.0047849016264081,-0.0054754591546952724
1772709364860033300,1.234033203125,0.0028700886759907007,0.005855492316186428,-0.006060821935534477
1772709364870058200,1.244058349609375,0.0026016421616077423,0.008253402076661587,-0.004995291121304035
1772709364880083200,1.254083251953125,0.0029856697656214237,0.007734618615359068,-0.007861651480197906
1772709364890108400,1.2641083984375,0.002284725895151496,0.009440373629331589,-0.00749014038592577
1772709364900133400,1.27413330078125,0.0035004590172320604,0.007050452753901482,-0.005591839086264372
1772709364910157300,1.2841572265625,0.003317499766126275,0.0073170349933207035,-0.003687146585434675
1772709364920182300,1.294182373046875,0.004089550115168095,0.008298942819237709,-0.003906590864062309
1772709364930207200,1.304207275390625,0.0019038938917219639,0.007296795025467873,-0.00546294217929244
1772709364940232200,1.314232177734375,0.0020873856265097857,0.007334079127758741,-0.0046570696868002415
1772709364950257400,1.32425732421875,0.0035212314687669277,0.0074017234146595,-0.0040946099907159805
1772709364960282400,1.334282470703125,0.003489806316792965,0.007936752401292324,-0.0023576964158564806
1772709364970307300,1.344307373046875,0.0023390543647110462,0.005847236607223749,-0.00321922916918993
1772709364980332300,1.354332275390625,0.004024568945169449,0.007160174660384655,-0.003964914008975029
1772709364990357200,1.364357177734375,0.004054662771522999,0.005532184615731239,-0.002528405049815774
1772709365000382200,1.37438232421875,0.002877012826502323,0.005654956214129925,-0.0029888655990362167
1772709365010407200,1.3844072265625,0.0028511802665889263,0.005152950529009104,-0.0013949638232588768
1772709365020431400,1.394431396484375,0.003983023576438427,0.005299157928675413,-0.002855441300198436
1772709365030456300,1.404456298828125,0.004277036525309086,0.00307621737010777,-0.002046639332547784
1772709365040481300,1.414481201171875,0.0040916805155575275,0.0044112601317465305,-0.0011757856700569391
1772709365050506200,1.42450634765625,0.0035574506036937237,0.00436119269579649,-0.0013494236627593637
1772709365060531500,1.434531494140625,0.0030511836521327496,0.004165716469287872,-0.0010804444318637252
1772709365070556200,1.44455615234375,0.0022021678742021322,0.005101284943521023,-0.003197923768311739
1772709365080581000,1.4545810546875,0.002359027974307537,0.005273591727018356,-0.005364405456930399
1772709365090606300,1.4646064453125,0.002755306428298354,0.006328203249722719,-0.005136971361935139
1772709365100631300,1.47463134765625,0.0024343954864889383,0.007111172657459974,-0.004938299767673016
1772709365110656300,1.48465625,0.003622964257374406,0.00743181724101305,-0.003307912265881896
1772709365120681200,1.49468115234375,0.002356098499149084,0.007917843759059906,-0.003032275242730975
1772709365130705400,1.504705322265625,0.0032887374982237816,0.007183876819908619,-0.00436145905405283
1772709365140730400,1.51473046875,0.0019406455103307962,0.00791438203305006,-0.004364122170954943
1772709365150755000,1.524755126953125,0.0031071100383996964,0.008803611621260643,-0.0033164345659315586
1772709365160780300,1.5347802734375,0.004456267226487398,0.006050968077033758,-0.0037851508241146803
1772709365170805200,1.54480517578125,0.004288488067686558,0.007648066151887178,-0.003491936717182398
1772709365180830200,1.554830322265625,0.004457865376025438,0.005915679503232241,-0.0017907095607370138
1772709365190855200,1.564855224609375,0.00395772373303771,0.0060325926169753075,-0.0033366745337843895
1772709365200880400,1.57488037109375,0.0031963258516043425,0.006109823938459158,-0.001032241270877421
1772709365210905300,1.5849052734375,0.0036583843175321817,0.006057892460376024,-0.005143096670508385
1772709365220930300,1.594930419921875,0.0015451660146936774,0.003114833263680339,-0.007041397970169783
1772709365230955300,1.604955322265625,0.0029923277907073498,0.0070589748211205006,-0.006668289192020893
1772709365240979200,1.614979248046875,0.0025917883031070232,0.00845740083605051,-0.00464641721919179
1772709365251003600,1.625003662109375,0.0030477214604616165,0.010605240240693092,-0.004524444229900837
1772709365261028900,1.63502880859375,0.0031521173659712076,0.010273942723870277,-0.004231230355799198
1772709365271053800,1.6450537109375,0.0017899106023833156,0.006372944451868534,-0.00515747768804431
1772709365281078800,1.655078857421875,0.0025843314360827208,0.0062855929136276245,-0.004560663364827633
1772709365291103700,1.665103759765625,0.00458596320822835,0.007510913070291281,-0.003311374457553029
1772709365301129000,1.67512890625,0.0036727653350681067,0.005655222572386265,-0.0024234766606241465
1772709365311154000,1.68515380859375,0.003793140407651663,0.0059963734820485115,-0.002776611829176545
1772709365321179000,1.695178955078125,0.004613660275936127,0.0065436530858278275,-0.0026644926983863115
1772709365331203800,1.705203857421875,0.0029169602785259485,0.006306099239736795,-0.0018402442801743746
1772709365341227800,1.715227783203125,0.004918325692415237,0.006203034892678261,-0.0006351639167405665
1772709365351252700,1.725252685546875,0.0034171019215136766,0.006871754303574562,-0.00344533147290349
1772709365361277700,1.735277587890625,0.002213619416579604,0.004535363521426916,-0.004583300091326237
1772709365371303000,1.745302978515625,0.0033723609521985054,0.006839530076831579,-0.0032202943693846464
1772709365381328000,1.755327880859375,0.0034823494497686625,0.00469515286386013,-0.0031121699139475822
1772709365391352800,1.765352783203125,0.004091148264706135,0.0041643851436674595,-0.00344586418941617
1772709365401377800,1.775377685546875,0.0028575719334185123,0.004244545940309763,-0.002898051869124174
1772709365411402800,1.78540283203125,0.0021813951898366213,0.005947105120867491,-0.005232844967395067
1772709365421427700,1.795427734375,0.0020032296888530254,0.005584915168583393,-0.004511128645390272
1772709365431452700,1.80545263671875,0.0029614351224154234,0.007048321887850761,-0.004664793144911528
1772709365441476900,1.815476806640625,0.0012159993639215827,0.006220611743628979,-0.003935619257390499
1772709365451501800,1.825501708984375,0.00370179396122694,0.007181746419519186,-0.004099137615412474
1772709365461526800,1.83552685546875,0.003043726785108447,0.006460029631853104,-0.0019201391842216253
1772709365471552000,1.845552001953125,0.002234125742688775,0.005813414230942726,-0.0038836877793073654
1772709365481577000,1.855576904296875,0.0036812876351177692,0.0060091568157076836,-0.002682868391275406
1772709365491601700,1.8656015625,0.0014740596525371075,0.005558017175644636,-0.0030277478508651257
1772709365501626600,1.875626708984375,0.004826713353395462,0.006219279952347279,0.000523577444255352
1772709365511651800,1.88565185546875,0.003787015099078417,0.005652559455484152,0.00018349179299548268
1772709365521676800,1.8956767578125,0.0035987296141684055,0.006622482556849718,-0.003480218816548586
1772709365531701800,1.90570166015625,0.0037590519059449434,0.008617988787591457,-0.005173190496861935
1772709365541726700,1.915726806640625,0.00276116537861526,0.006389455869793892,-0.00446825148537755
1772709365551751000,1.9257509765625,0.004303934518247843,0.007439274340867996,-0.004710066597908735
1772709365561775900,1.93577587890625,0.0017590179340913892,0.006200638134032488,-0.0035340148024260998
1772709365571800800,1.94580078125,0.004347078036516905,0.005908222869038582,-0.005108475685119629
1772709365581825800,1.95582568359375,0.004332430195063353,0.007873635739088058,-0.0043992758728563786
1772709365591850800,1.965850830078125,0.002412291243672371,0.005780657287687063,-0.003992611076682806
1772709365601875700,1.975875732421875,0.002159290947020054,0.009031311608850956,-0.0041002025827765465
1772709365611901000,1.98590087890625,0.002832271857187152,0.008843825198709965,-0.004989698529243469
1772709365621926000,1.99592578125,0.003933488857001066,0.005747634451836348,-0.007897071540355682
1772709365631950800,2.005950927734375,0.0025989788118749857,0.007782555650919676,-0.006318349856883287
1772709365641975800,2.015975830078125,0.003964115399867296,0.008052067831158638,-0.005655222572386265
1772709365651999700,2.025999755859375,0.004089550115168095,0.010988469235599041,-0.004668521229177713
1772709365662024700,2.036024658203125,0.004039749037474394,0.008829178288578987,-0.0035276231355965137
1772709365672049700,2.046049560546875,0.004634432960301638,0.007493868935853243,-0.004456001333892345
1772709365682075000,2.056074951171875,0.0033129723742604256,0.00872238539159298,-0.0031672974582761526
1772709365692099800,2.066099853515625,0.003495132550597191,0.006262423470616341,-0.003498594742268324
1772709365702124800,2.076124755859375,0.00503949960693717,0.005787315312772989,-0.003513242118060589
1772709365712149800,2.086149658203125,0.004496214911341667,0.006882939953356981,-0.0036607813090085983
1772709365722175000,2.096175048828125,0.004375573713332415,0.008824383839964867,-0.0014397049089893699
1772709365732200000,2.106199951171875,0.003875698195770383,0.00866352953016758,-0.00044368262751959264
1772709365742225000,2.116224853515625,0.0036421390250325203,0.0073260897770524025,-0.0019180085510015488
1772709365752249600,2.12624951171875,0.0028855351265519857,0.005930326879024506,-0.004572913981974125
1772709365762273800,2.136273681640625,0.002838397165760398,0.007156978826969862,-0.0059753344394266605
1772709365772298800,2.146298828125,0.004513525404036045,0.009706157259643078,-0.005077316425740719
1772709365782323700,2.15632373046875,0.004069842863827944,0.009336243383586407,-0.0006652576266787946
1772709365792349000,2.166348876953125,0.0036975329276174307,0.012026302516460419,-0.0005731122801080346
1772709365802374000,2.176373779296875,0.006975884083658457,0.010785535909235477,-0.0028700886759907007
1772709365812398800,2.18639892578125,0.0057372478768229485,0.009796970523893833,-0.0049678608775138855
1772709365822423800,2.196423828125,0.006465356331318617,0.008370582014322281,-0.0030541131272912025
1772709365832448800,2.20644873046875,0.003990480676293373,0.009075254201889038,0.00005912217602599412
1772709365842473700,2.2164736328125,0.004539357963949442,0.009158344939351082,-0.0006000102148391306
1772709365852498700,2.226498779296875,0.005615008994936943,0.006597182713449001,-0.0002511360798962414
1772709365862523000,2.23652294921875,0.004107926040887833,0.005657619331032038,-0.002198705682530999
1772709365872547800,2.2465478515625,0.005061604082584381,0.0067633637227118015,-0.0026583673898130655
1772709365882572800,2.25657275390625,0.004521514754742384,0.00956793874502182,-0.0018580874893814325
1772709365892598000,2.266597900390625,0.004258926957845688,0.008080030791461468,-0.003725229762494564
1772709365902622700,2.276622802734375,0.0018184063956141472,0.007573497481644154,-0.0046693203039467335
1772709365912647700,2.286647705078125,0.0019377160351723433,0.009063003584742546,-0.002314020646736026
1772709365922672600,2.296672607421875,0.003257844829931855,0.00891067087650299,-0.002103630919009447
1772709365932697900,2.30669775390625,0.004257595632225275,0.007195861078798771,-0.0007062703371047974
1772709365942722800,2.316722900390625,0.005303685087710619,0.00869255792349577,-0.0021853898651897907
1772709365952747800,2.326747802734375,0.004319913685321808,0.007421431131660938,-0.003203516360372305
1772709365962772000,2.33677197265625,0.004756671842187643,0.008129033260047436,-0.002650910522788763
1772709365972797000,2.346796875,0.004826180636882782,0.007897604256868362,-0.0036581179592758417
1772709365982821600,2.356821533203125,0.0041031320579349995,0.008673116564750671,-0.0023917849175632
1772709365992846800,2.366846923828125,0.0035388083197176456,0.008803345263004303,-0.0029467877466231585
1772709366002871800,2.376871826171875,0.00392762990668416,0.006409962195903063,-0.0017504957504570484
1772709366012896800,2.386896728515625,0.0035214978270232677,0.004817924462258816,-0.0031150993891060352
1772709366022921700,2.396921630859375,0.0038480013608932495,0.008433698676526546,-0.0015060176374390721
1772709366032947000,2.406947021484375,0.004791559185832739,0.00791544746607542,0.0009653958841226995
1772709366042972000,2.416971923828125,0.0037494644057005644,0.006678675301373005,-0.00000958738019107841
1772709366052996900,2.426996826171875,0.003905259305611253,0.008117049001157284,-0.0014032195322215557
1772709366063020800,2.437020751953125,0.004347078036516905,0.008076834492385387,-0.0035582494456321
1772709366073045800,2.447045654296875,0.004205397795885801,0.009532785043120384,-0.0038216360844671726
1772709366083070700,2.45707080078125,0.003945739474147558,0.008244347758591175,-0.004728176165372133
1772709366093095700,2.467095703125,0.005446697119623423,0.0076003954745829105,-0.0034732946660369635
1772709366103121000,2.477120849609375,0.003203782718628645,0.009710684418678284,-0.004599545616656542
1772709366113145900,2.487145751953125,0.0026903252582997084,0.00908750481903553,-0.00618093041703105
1772709366123170800,2.4971708984375,0.0031182952225208282,0.007994011044502258,-0.0032764871139079332
1772709366133195800,2.50719580078125,0.0022354573011398315,0.008314921520650387,-0.0031675638165324926
1772709366143221000,2.517220947265625,0.0037172401789575815,0.009614543989300728,-0.00355931487865746
1772709366153246000,2.527245849609375,0.005314071662724018,0.010274209082126617,-0.003451456781476736
1772709366163269600,2.53726953125,0.005095958709716797,0.008263522759079933,-0.005513009615242481
1772709366173294800,2.547294921875,0.003689543344080448,0.009249158203601837,-0.003733751829713583
1772709366183319800,2.55731982421875,0.0033153691329061985,0.009618538431823254,-0.0037356161046773195
1772709366193344800,2.5673447265625,0.003233876544982195,0.008275507017970085,-0.00364719913341105
1772709366203369700,2.57736962890625,0.004760933108627796,0.0098038949072361,-0.0016940367640927434
1772709366213395000,2.58739501953125,0.004126834217458963,0.00965395849198103,-0.001618403010070324
1772709366223420000,2.597419921875,0.0041670482605695724,0.008233961649239063,-0.0025688852183520794
1772709366233444900,2.60744482421875,0.004785700235515833,0.007011037785559893,-0.003471164032816887
1772709366243469800,2.6174697265625,0.004461061209440231,0.006944991648197174,-0.002554770326241851
1772709366253494800,2.627494873046875,0.0047028763219714165,0.008477640338242054,-0.001826662220992148
1772709366263518500,2.6375185546875,0.004462925251573324,0.006223008502274752,-0.001341434195637703
1772709366273543700,2.647543701171875,0.004391286056488752,0.008920524269342422,-0.0005685848882421851
1772709366283568600,2.657568603515625,0.004078897647559643,0.006711165886372328,-0.00344479875639081
1772709366293593600,2.667593505859375,0.0027164241764694452,0.006903978530317545,-0.00458596320822835
1772709366303618600,2.67761865234375,0.002718554809689522,0.006223541218787432,-0.003972104750573635
1772709366313643800,2.687643798828125,0.0030282805673778057,0.006351639050990343,-0.0028567728586494923
1772709366323668700,2.697668701171875,0.0027425233274698257,0.01022627204656601,-0.0018013621447607875
1772709366333693700,2.707693603515625,0.003132410114631057,0.011318701319396496,-0.0038125813007354736
1772709366343718700,2.71771875,0.004004062619060278,0.010378338396549225,-0.005624329671263695
1772709366353743600,2.72774365234375,0.00413482403382659,0.008285094052553177,-0.004173972178250551
1772709366363767600,2.737767578125,0.00418382603675127,0.007970042526721954,-0.0029880667570978403
1772709366373792800,2.747792724609375,0.005482915788888931,0.009350092150270939,-0.003291400847956538
1772709366383817700,2.757817626953125,0.0034826158080250025,0.008627843111753464,-0.000538491178303957
1772709366393842700,2.7678427734375,0.0028309402987360954,0.00717642018571496,-0.00180855265352875
1772709366403867600,2.77786767578125,0.004954811185598373,0.007381483446806669,-0.0020634171087294817
1772709366413892900,2.787892822265625,0.001731587341055274,0.007862716913223267,-0.0025747441686689854
1772709366423917800,2.797917724609375,0.0026522420812398195,0.008189486339688301,-0.0028328043408691883
1772709366433942500,2.807942626953125,0.0034610440488904715,0.00902571901679039,-0.004464523401111364
1772709366443967500,2.817967529296875,0.0032538501545786858,0.0070730894804000854,-0.002532133599743247
1772709366453991700,2.82799169921875,0.002659698948264122,0.009049154818058014,-0.0017467673169448972
1772709366464016600,2.8380166015625,0.003224555402994156,0.007089867256581783,-0.002865028567612171
1772709366474041600,2.84804150390625,0.0029294772539287806,0.007683219853788614,-0.004233893472701311
1772709366484066800,2.85806689453125,0.003570766421034932,0.007517038378864527,-0.0035483958199620247
1772709366494091800,2.868091796875,0.002338521648198366,0.006872819736599922,-0.0018429075134918094
1772709366504116500,2.878116455078125,0.0035065840929746628,0.007400924805551767,-0.0036482643336057663
1772709366514141400,2.888141357421875,0.003683950752019882,0.007288539316505194,-0.002061553066596389
1772709366524166700,2.898166748046875,0.0043806335888803005,0.007926899008452892,-0.00034700988908298314
1772709366534191600,2.908191650390625,0.0032751555554568768,0.006940464023500681,-0.001657285145483911
1772709366544216600,2.918216552734375,0.003257312346249819,0.005505819339305162,-0.0025691515766084194
1772709366554241500,2.928241455078125,0.002098038326948881,0.002898051869124174,-0.005579855293035507
1772709366564265700,2.938265625,0.002673813607543707,0.005530586466193199,-0.0070405988954007626
1772709366574290700,2.948290771484375,0.003081809962168336,0.00926460511982441,-0.0019768644124269485
1772709366584315600,2.958315673828125,0.003044259501621127,0.008349009789526463,0.002037584548816085
1772709366594340600,2.968340576171875,0.003546797903254628,0.0033933997619897127,0.004189951345324516
1772709366604365600,2.978365478515625,0.004009655211120844,0.002570749493315816,0.0035867453552782536
1772709366614390500,2.988390625,0.0028181569650769234,0.0034059167373925447,0.005292499903589487
1772709366624415700,2.998415771484375,0.005346562247723341,0.006895989179611206,0.006960703991353512
1772709366634440700,3.008440673828125,0.006274673622101545,0.009982593357563019,0.007969509810209274
1772709366644465700,3.018465576171875,0.00845393817871809,0.011581555008888245,0.010499246418476105
1772709366654489900,3.02848974609375,0.006411027628928423,0.008688030764460564,0.007989482954144478
1772709366664514600,3.0385146484375,0.006058957893401384,0.00851385947316885,0.004064516630023718
1772709366674539500,3.04853955078125,0.006730074528604746,0.00669412175193429,0.0005960154230706394
1772709366684564500,3.058564453125,0.004402738064527512,0.009832390584051609,0.00025752768851816654
1772709366694589700,3.068589599609375,0.0028162929229438305,0.011611648835241795,-0.002183792181313038
1772709366704614700,3.07861474609375,0.0013022858183830976,0.011241469532251358,-0.008465656079351902
1772709366714639600,3.0886396484375,0.0019491675775498152,0.010816162452101707,-0.018427209928631783
1772709366724664600,3.09866455078125,-0.0016578177455812693,0.007227818947285414,-0.020970262587070465
1772709366734689800,3.108689697265625,-0.0015880429418757558,0.011305385269224644,-0.01601145789027214
1772709366744714800,3.11871484375,0.003451723139733076,0.018979283049702644,-0.008519452065229416
1772709366754738700,3.12873876953125,0.0023672839161008596,0.01925811730325222,-0.01025902945548296
1772709366764763600,3.138763671875,0.0034269557800143957,0.009940248914062977,-0.00938897393643856
1772709366774788600,3.14878857421875,0.0034349451307207346,0.005662412848323584,-0.0059537626802921295
1772709366784813600,3.1588134765625,0.006344715133309364,0.010493121109902859,0.0018218684708699584
1772709366794838800,3.1688388671875,0.007644603960216045,0.011873703449964523,0.008643289096653461
1772709366804863700,3.17886376953125,0.007217965554445982,0.008582303300499916,0.010673416778445244
1772709366814888700,3.188888671875,0.007794806268066168,0.002100435085594654,0.01008166279643774
1772709366824913700,3.19891357421875,0.00887951161712408,0.002159024588763714,0.006772951222956181
1772709366834939000,3.20893896484375,0.008607069961726665,0.0023638217244297266,0.0046631949953734875
1772709366844963600,3.218963623046875,0.008066448383033276,0.014881211332976818,0.007476558443158865
1772709366854987500,3.228987548828125,0.010675547644495964,0.007547664921730757,0.01835477165877819
1772709366865012700,3.2390126953125,0.008613994345068932,0.01489079836755991,0.01920165680348873
1772709366875037700,3.24903759765625,0.004600876942276955,0.009936253540217876,0.009825732558965683
1772709366885062700,3.259062744140625,0.01396029070019722,-0.006674680393189192,0.006268016062676907
1772709366895087600,3.269087646484375,0.017112940549850464,0.01061962079256773,0.012019111774861813
1772709366905112800,3.27911279296875,0.0073713636957108974,0.020495155826210976,0.007143396884202957
1772709366915137800,3.2891376953125,0.007751929108053446,0.008271511644124985,0.0023723437916487455
1772709366925162500,3.29916259765625,0.012986638583242893,0.00032330775866284966,0.004211256746202707
1772709366935187500,3.3091875,0.010036388412117958,0.0015704660909250379,0.018975289538502693
1772709366945212700,3.319212646484375,0.011610317043960094,0.003972903825342655,0.013941115699708462
1772709366955236600,3.329236572265625,0.014332599937915802,0.014766962267458439,0.00768721429631114
1772709366965261800,3.33926171875,0.014415424317121506,0.02172287181019783,0.005404086317867041
1772709366975286800,3.349286865234375,0.009080580435693264,0.01512941811233759,0.003230147995054722
1772709366985311700,3.359311767578125,0.006354035809636116,0.0022972426377236843,-0.004147340543568134
1772709366995336700,3.369336669921875,0.0032141690608114004,-0.0075974659994244576,-0.00726403808221221
1772709367005361700,3.379361572265625,0.0030274814926087856,-0.0019949739798903465,-0.011542140506207943
1772709367015386600,3.38938671875,0.0018032263033092022,0.010936803184449673,-0.012439358979463577
1772709367025411600,3.39941162109375,-0.0008753810543566942,0.007656588219106197,-0.01522902026772499
1772709367035436500,3.4094365234375,0.000598145998083055,-0.0004993426846340299,-0.011755459010601044
1772709367045461800,3.419461669921875,0.0013512879377231002,-0.001794171635992825,-0.009135707281529903
1772709367055485700,3.429485595703125,-0.000036751622246811166,0.0057074204087257385,-0.0068358019925653934
1772709367065510700,3.4395107421875,0.002430933527648449,0.012852948158979416,-0.002776079112663865
1772709367075535600,3.44953564453125,0.0044317664578557014,0.010631605051457882,-0.0010753844399005175
1772709367085560600,3.459560546875,0.0024980450980365276,0.007023022044450045,-0.0016948357224464417
1772709367095585500,3.46958544921875,0.003085005795583129,0.003945206757634878,-0.004238953348249197
1772709367105610500,3.479610595703125,0.0033188313245773315,0.005933522712439299,-0.007162571884691715
1772709367115635700,3.4896357421875,0.004156928043812513,0.010121876373887062,-0.000922252656891942
1772709367125660700,3.49966064453125,0.003427221905440092,0.011684086173772812,-0.0001661812566453591
1772709367135685600,3.509685546875,0.003736414946615696,0.012768259271979332,-0.0006506102508865297
1772709367145710600,3.519710693359375,0.002502572489902377,0.014879879541695118,0.002701244316995144
1772709367155734500,3.529734619140625,0.004542553797364235,0.013561614789068699,0.0012290488230064511
1772709367165759500,3.539759521484375,0.00040293627534992993,0.008783104829490185,-0.0033420007675886154
1772709367175784700,3.54978466796875,0.0011041465913876891,0.0028871328104287386,-0.00890827365219593
1772709367185809700,3.5598095703125,0.0024887239560484886,0.002400573343038559,-0.012921124696731567
1772709367195834600,3.569834716796875,0.00013741910515818745,0.009720005095005035,-0.011917379684746265
1772709367205859600,3.579859619140625,0.0009483516332693398,0.014874020591378212,-0.007845672778785229
1772709367215884800,3.589884765625,0.0001304948964389041,0.006484797224402428,-0.006813164800405502
1772709367225909800,3.59990966796875,-0.001014131703414023,0.0016532903537154198,-0.006085323169827461
1772709367235934700,3.609934814453125,0.002112952060997486,0.007322361227124929,-0.01113227941095829
1772709367245959700,3.619959716796875,0.0007850998663343489,0.012193549424409866,-0.016138223931193352
1772709367255984400,3.629984375,0.0010660634143278003,0.01008059736341238,-0.01569800265133381
1772709367266009300,3.64000927734375,0.0027885958552360535,0.004108192399144173,-0.010182863101363182
1772709367276034300,3.650034423828125,0.0049007488414645195,0.003013632958754897,0.0020471718162298203
1772709367286059300,3.660059326171875,0.004551342222839594,0.007780158892273903,0.003226952161639929
1772709367296084500,3.67008447265625,0.004591289907693863,0.007468302734196186,-0.004120708908885717
1772709367306109400,3.680109375,0.005916744936257601,0.0012719257501885295,-0.008787100203335285
1772709367316134100,3.690134033203125,0.003955060616135597,0.003961718175560236,-0.010496316477656364
1772709367326159400,3.700159423828125,0.004686098080128431,0.0070680296048521996,-0.009882990270853043
1772709367336184300,3.710184326171875,0.004978779703378677,0.007982824929058552,-0.0026226809713989496
1772709367346209300,3.720209228515625,0.0038874163292348385,0.005888515617698431,-0.0020298613235354424
1772709367356233500,3.7302333984375,0.0034176346380263567,0.0035483958199620247,-0.008644354529678822
1772709367366258400,3.740258544921875,-0.0017390442080795765,0.003547064261510968,-0.011573298834264278
1772709367376283400,3.750283447265625,-0.0032871398143470287,0.0002247707889182493,-0.012823387049138546
1772709367386308400,3.760308349609375,0.00006684534309897572,0.000627973407972604,-0.013016466051340103
1772709367396333300,3.770333251953125,0.0003587277897167951,0.010056096129119396,-0.012946158647537231
1772709367406358300,3.780358154296875,0.0012594088912010193,0.01375229749828577,-0.017041567713022232
1772709367416383200,3.79038330078125,0.0027838023379445076,-0.002074069809168577,-0.01782320626080036
1772709367426408200,3.800408203125,0.003946272190660238,-0.008569786325097084,-0.010872088372707367
1772709367436433400,3.810433349609375,0.004514058120548725,0.006776946131139994,0.001680454588495195
1772709367446458400,3.820458251953125,0.004609931726008654,0.019148927181959152,0.010848918929696083
1772709367456482300,3.830482421875,0.002788329729810357,0.003938016481697559,0.0054914383217692375
1772709367466507500,3.840507568359375,0.0019022959750145674,-0.012280900962650776,-0.010391388088464737
1772709367476532200,3.8505322265625,-0.0013353090034797788,-0.005672799423336983,-0.017523866146802902
1772709367486557200,3.86055712890625,-0.0038392129354178905,0.013230051845312119,-0.02274978719651699
1772709367496582100,3.87058203125,0.0006761765689589083,0.009920008480548859,-0.020746290683746338
1772709367506607400,3.880607421875,0.002567287301644683,-0.0015009575290605426,-0.012172243557870388
1772709367516632300,3.89063232421875,0.0018727348651736975,0.004859203472733498,-0.005498894955962896
1772709367526657300,3.9006572265625,0.003634415799751878,0.00509782275184989,0.00026072346372529864
1772709367536682200,3.91068212890625,0.005357214715331793,0.008506136015057564,-0.0026101642288267612
1772709367546707500,3.92070751953125,0.002097505610436201,0.009751963429152966,-0.009551960043609142
1772709367556732400,3.930732421875,0.003704457078129053,0.0037055222783237696,-0.010928281582891941
1772709367566756400,3.94075634765625,0.0032120386604219675,0.005249623209238052,-0.012946425005793571
1772709367576781300,3.95078125,0.004796885885298252,0.01031628716737032,-0.009491506032645702
1772709367586806300,3.96080615234375,0.0031140341889113188,0.007859520614147186,-0.009372462518513203
1772709367596831200,3.970831298828125,0.004114584065973759,0.005621400196105242,-0.005415804218500853
1772709367606856400,3.9808564453125,0.002898584585636854,0.007682420779019594,-0.004825115203857422
1772709367616881400,3.99088134765625,0.0017566210590302944,0.007331416010856628,-0.006373477168381214
1772709367626906400,4.00090625,0.003571032779291272,0.006457632873207331,-0.004376106429845095
1772709367636931300,4.010931396484375,0.00427357479929924,0.00820866134017706,-0.003433347214013338
1772709367646956300,4.020956298828125,0.003602457931265235,0.007180415093898773,-0.0017558221006765962
1772709367656981200,4.030981201171875,0.005072522908449173,0.009353820234537125,-0.001359543763101101
1772709367667006200,4.041006103515625,0.004349208436906338,0.007823036052286625,-0.002243446884676814
1772709367677030400,4.051030517578125,0.00333241350017488,0.007123423274606466,-0.004559331573545933
1772709367687055400,4.061055419921875,0.002189384773373604,0.006991596892476082,-0.00592606607824564
1772709367697080300,4.071080322265625,0.0024855281226336956,0.005687713157385588,-0.00637773796916008
1772709367707105300,4.081105224609375,0.004811000544577837,0.008253934793174267,-0.004833637271076441
1772709367717130500,4.091130615234375,0.004030161537230015,0.00965369213372469,-0.002222407842054963
1772709367727155200,4.1011552734375,0.004087952431291342,0.008754342794418335,-0.0036165728233754635
1772709367737180200,4.11118017578125,0.0046506780199706554,0.007409446872770786,-0.0052472264505922794
1772709367747205400,4.121205322265625,0.003308178624138236,0.00782729685306549,-0.005071990191936493
1772709367757230300,4.131230224609375,0.0054240599274635315,0.009398029185831547,-0.0005954828229732811
1772709367767255300,4.14125537109375,0.005628058221191168,0.011769840493798256,0.0013222594279795885
1772709367777279500,4.151279541015625,0.004679440520703793,0.008053665049374104,0.00267807487398386
1772709367787304400,4.161304443359375,0.005402222275733948,0.00854448601603508,0.0020876519847661257
1772709367797329400,4.171329345703125,0.006730873137712479,0.011403921991586685,0.0010836402652785182
1772709367807354000,4.18135400390625,0.005391037091612816,0.0133863789960742,0.0015531554818153381
1772709367817379300,4.19137939453125,0.006055229343473911,0.008725847117602825,0.004196076653897762
1772709367827404300,4.201404296875,0.004156128969043493,0.003454386256635189,0.003640807466581464
1772709367837429200,4.21142919921875,0.004065048880875111,0.004548412747681141,0.0001584580895723775
1772709367847454200,4.2214541015625,0.0034708979073911905,0.007926899008452892,-0.002198439557105303
1772709367857479400,4.2314794921875,0.0030360035598278046,0.005966812372207642,-0.0009930927772074938
1772709367867504400,4.24150439453125,0.004748948849737644,0.004869057331234217,0.0016684704460203648
1772709367877528300,4.2515283203125,0.003531617810949683,0.0065015750005841255,0.0050701261498034
1772709367887553300,4.26155322265625,0.005570534151047468,0.007419033907353878,0.0032027175184339285
1772709367897578200,4.271578125,0.00621182331815362,0.00771837355569005,0.0014365090755745769
1772709367907603200,4.281603271484375,0.008048605173826218,0.010667025111615658,-0.0007065366371534765
1772709367917628400,4.29162841796875,0.010239055380225182,0.010031861253082752,0.005723399575799704
1772709367927653400,4.3016533203125,0.010192450135946274,0.014286793768405914,0.01119246706366539
1772709367937678300,4.31167822265625,0.00492098880931735,0.018499914556741714,0.006678675301373005
1772709367947703300,4.321703369140625,0.006953513715416193,-0.003716441337019205,0.0024687503464519978
1772709367957728500,4.331728515625,0.0028389296494424343,-0.010126137174665928,-0.002225337317213416
1772709367967753500,4.34175341796875,0.0049034119583666325,0.012958941981196404,-0.008464591577649117
1772709367977777200,4.351777099609375,0.00045327001134864986,0.014747254550457,-0.007603857666254044
1772709367987802400,4.36180224609375,0.005577458068728447,0.019039737060666084,-0.011936288326978683
1772709367997827300,4.371827392578125,0.0012751214671880007,0.004757737275213003,-0.0051566786132752895
1772709368007852300,4.381852294921875,0.004747350700199604,0.006200371775776148,0.0003347593592479825
1772709368017877200,4.391877197265625,0.0026615632232278585,0.007984955795109272,-0.002514024032279849
1772709368027902500,4.40190234375,0.00046312372433021665,0.00833569373935461,-0.009999104775488377
1772709368037927400,4.411927490234375,-0.0005408879951573908,0.008780442178249359,-0.017771540209650993
1772709368047952400,4.421952392578125,0.001073786523193121,0.008356200531125069,-0.015576296485960484
1772709368057977000,4.43197705078125,-0.0003105245705228299,0.009357815608382225,-0.011285411193966866
1772709368068002300,4.442002197265625,-0.00039867521263659,0.009029979817569256,-0.007095726206898689
1772709368078026200,4.452026123046875,0.0003712446487043053,0.008136223070323467,-0.0067881313152611256
1772709368088051200,4.46205126953125,-0.0006628608098253608,0.008246478624641895,-0.012887036427855492
1772709368098076400,4.472076416015625,-0.000978978001512587,0.009155148640275002,-0.01455737091600895
1772709368108101400,4.482101318359375,-0.00041864890954457223,0.009371397085487843,-0.012596485204994678
1772709368118126300,4.492126220703125,-0.0008964200387708843,0.008954878896474838,-0.011905395425856113
1772709368128151300,4.5021513671875,-0.0005219795857556164,0.006505303550511599,-0.008494950830936432
1772709368138176300,4.51217626953125,-0.0005251753609627485,0.009708020836114883,-0.006821686867624521
1772709368148201200,4.522201171875,-0.0009347695158794522,0.006397179327905178,-0.008579373359680176
1772709368158226200,4.53222607421875,-0.0013174657942727208,0.0043899547308683395,-0.011712316423654556
1772709368168251400,4.54225146484375,-0.0009155947482213378,0.004891161806881428,-0.010421481914818287
1772709368178276400,4.5522763671875,-0.0010183927370235324,0.007603857666254044,-0.00990243162959814
1772709368188300300,4.56230029296875,-0.002030926523730159,0.008076568134129047,-0.009586314670741558
1772709368198325500,4.572325439453125,-0.0025936525780707598,0.00737349409610033,-0.012660135515034199
1772709368208350500,4.5823505859375,-0.0038184402510523796,0.00803209375590086,-0.015416506677865982
1772709368218375200,4.592375244140625,-0.0030301446095108986,0.00675377668812871,-0.015077752992510796
1772709368228400000,4.602400146484375,-0.0010934938909485936,0.007661115378141403,-0.011943744495511055
1772709368238425300,4.61242529296875,-0.000984570593573153,0.009494701400399208,-0.008570052683353424
1772709368248450300,4.6224501953125,0.0026325348298996687,0.012324577197432518,-0.006493052933365107
1772709368258474500,4.632474609375,0.0022596921771764755,0.012795690447092056,-0.004081827122718096
1772709368268499700,4.642499755859375,0.0044288369826972485,0.0080323601141572,-0.0044109937734901905
1772709368278524700,4.652524658203125,0.002968625631183386,0.008329036645591259,-0.004965996369719505
1772709368288548400,4.66254833984375,0.004200071096420288,0.008769789710640907,-0.0014671353856101632
1772709368298573600,4.672573486328125,0.0031305458396673203,0.005298625212162733,-0.00037204360705800354
1772709368308598500,4.6825986328125,0.003826962551102042,0.00666402792558074,-0.0014066817238926888
1772709368318623500,4.69262353515625,0.00509968725964427,0.006937001831829548,-0.0012026835465803742
1772709368328648400,4.7026484375,0.005314071662724018,0.009304818697273731,-0.0006415555253624916
1772709368338673700,4.712673583984375,0.006803577765822411,0.00929443258792162,0.002659698948264122
1772709368348698600,4.72269873046875,0.0051718587055802345,0.008986038155853748,0.004447478801012039
1772709368358723600,4.7327236328125,0.005342034623026848,0.006896788254380226,0.003876497270539403
1772709368368748500,4.74274853515625,0.00606375141069293,0.00469595193862915,0.0017478326335549355
1772709368378773500,4.7527734375,0.006327404174953699,0.004453337751328945,0.0028791434597223997
1772709368388797400,4.76279736328125,0.006286657880991697,0.005200354848057032,0.002603239845484495
1772709368398822700,4.77282275390625,0.0046485476195812225,0.005030977539718151,0.00373055599629879
1772709368408847600,4.78284765625,0.005681055132299662,0.004378236830234528,0.004739094991236925
1772709368418872600,4.79287255859375,0.004605937283486128,0.0039009982720017433,0.0017606157343834639
1772709368428897500,4.8028974609375,0.006165483966469765,0.003063966752961278,-0.0017512947088107467
1772709368438922800,4.8129228515625,0.0064837317913770676,0.004098072182387114,-0.0022453111596405506
1772709368448947500,4.822947509765625,0.004462126176804304,0.003966778516769409,0.0003304982965346426
1772709368458972400,4.832972412109375,0.00566907087340951,0.008077633567154408,0.00264744833111763
1772709368468997400,4.842997314453125,0.004009122494608164,0.007634217385202646,-0.0006854976527392864
1772709368479022600,4.853022705078125,0.0033459956757724285,0.006361226551234722,-0.00427171029150486
1772709368489047600,4.863047607421875,0.003602191573008895,0.0041121868416666985,-0.0064893243834376335
1772709368499071500,4.873071533203125,0.004022438544780016,0.004962267819792032,-0.004334028344601393
1772709368509096700,4.8830966796875,0.004442152567207813,0.006420881487429142,-0.00515774404630065
1772709368519121400,4.893121337890625,0.0017417073249816895,0.005291967187076807,-0.006430734880268574
1772709368529146400,4.903146484375,0.0017925737192854285,0.004856806714087725,-0.00752050057053566
1772709368539171600,4.913171630859375,0.0014655375853180885,0.004735632799565792,-0.006326605565845966
1772709368549196500,4.923196533203125,0.0018777948571369052,0.006347644608467817,-0.005553489550948143
1772709368559221500,4.933221435546875,0.002737463219091296,0.008903480134904385,-0.005131911486387253
1772709368569246500,4.94324658203125,0.001279382617212832,0.00806378573179245,-0.0070397998206317425
1772709368579271700,4.953271728515625,0.0027302727103233337,0.007361243478953838,-0.007048321887850761
1772709368589296600,4.963296630859375,0.0041587925516068935,0.005664277356117964,-0.004897020757198334
1772709368599321600,4.973321533203125,0.004511927254498005,0.008463526144623756,-0.0025188177824020386
1772709368609345500,4.983345458984375,0.004727110732346773,0.008101602084934711,-0.0012514194240793586
1772709368619370500,4.99337060546875,0.004731371998786926,0.006880809087306261,-0.0015853798249736428
1772709368629395500,5.0033955078125,0.0065164887346327305,0.005853095557540655,-0.0021824603900313377
1772709368639420400,5.01342041015625,0.004260525107383728,0.006695719435811043,-0.00205276464112103
1772709368649445600,5.023445556640625,0.0030988543294370174,0.007118895649909973,-0.0008713863207958639
1772709368659470600,5.033470703125,0.0022895196452736855,0.007512511219829321,0.0006197175825946033
1772709368669495600,5.04349560546875,0.004568919073790312,0.005899434443563223,-0.00037976677413098514
1772709368679520500,5.0535205078125,0.004510595928877592,0.006098106037825346,-0.0031366711482405663
1772709368689545700,5.063545654296875,0.006043777801096439,0.005431250669062138,-0.0036221654154360294
1772709368699570400,5.0735703125,0.0027973842807114124,0.008916263468563557,-0.001076715998351574
1772709368709594400,5.083594482421875,0.004396612755954266,0.008051535114645958,-0.00108284130692482
1772709368719619600,5.09361962890625,0.0036583843175321817,0.009866745211184025,-0.00213585514575243
1772709368729644500,5.10364453125,0.004281564150005579,0.010298976674675941,-0.00541447289288044
1772709368739669500,5.11366943359375,0.002398442942649126,0.011139736510813236,-0.0062821307219564915
1772709368749694500,5.123694580078125,0.00421258807182312,0.010749583132565022,-0.007605188991874456
1772709368759719700,5.1337197265625,0.0036155073903501034,0.01050483901053667,-0.0036645096261054277
1772709368769744600,5.14374462890625,0.0030682277865707874,0.010426009073853493,-0.004577174782752991
1772709368779769300,5.153769287109375,0.0029198897536844015,0.009838515892624855,-0.006090383045375347
1772709368789794600,5.163794677734375,0.002377936616539955,0.00869415607303381,-0.007937285117805004
1772709368799819500,5.173819580078125,0.0034767568577080965,0.008748217485845089,-0.0038421424105763435
1772709368809844500,5.183844482421875,0.0032711606472730637,0.00830799713730812,-0.0029196233954280615
1772709368819868700,5.19386865234375,0.002552107209339738,0.00951014831662178,-0.003772367723286152
1772709368829893600,5.2038935546875,0.003343332326039672,0.007565774489194155,-0.008253402076661587
1772709368839918600,5.213918701171875,0.002912432886660099,0.0070525831542909145,-0.007967378944158554
1772709368849943600,5.223943603515625,0.003757453989237547,0.009529856033623219,-0.004756671842187643
1772709368859968500,5.233968505859375,0.0020184097811579704,0.008541024290025234,-0.0033369408920407295
1772709368869993500,5.243993408203125,0.0031411985401064157,0.007151652593165636,-0.0019449065439403057
1772709368880018400,5.254018310546875,0.00044581317342817783,0.007181213703006506,-0.0021550299134105444
1772709368890043400,5.26404345703125,0.004032824654132128,0.00688986387103796,-0.004510595928877592
1772709368900068600,5.274068603515625,0.002740126335993409,0.005057875532656908,-0.0018559569725766778
1772709368910093600,5.284093505859375,0.00253479671664536,0.005255215801298618,0.0006354302167892456
1772709368920118500,5.294118408203125,0.00301736150868237,0.0057739997282624245,0.0005222458858042955
1772709368930142700,5.304142822265625,0.00430180411785841,0.005160140804946423,-0.001865011639893055
1772709368940167400,5.31416748046875,0.003067961661145091,0.005530053749680519,-0.0002788329729810357
1772709368950818600,5.324818603515625,0.0038860845379531384,0.006071474403142929,-0.0006407565670087934
1772709368960843500,5.334843505859375,0.0028751487843692303,0.0028360001742839813,-0.0030280142091214657
1772709368970868500,5.344868408203125,0.002700977958738804,0.002288188086822629,-0.003847468877211213
1772709368980893700,5.354893798828125,0.005281847435981035,0.004904743749648333,-0.002239984693005681
1772709368990918700,5.364918701171875,0.003563842037692666,0.007006776984781027,-0.0012964267516508698
1772709369000942600,5.374942626953125,0.004059189930558205,0.01275947131216526,-0.0038029940333217382
1772709369010967600,5.384967529296875,0.005901831202208996,0.010343184694647789,-0.004741491749882698
1772709369020992500,5.394992431640625,0.005981726106256247,0.008027033880352974,-0.004048537462949753
1772709369031017500,5.405017578125,0.003937750123441219,0.007540740538388491,-0.00002956108801299706
1772709369041042700,5.415042724609375,0.003897269954904914,0.009312807582318783,-0.0011627360945567489
1772709369051067600,5.425067626953125,0.004102067090570927,0.007414506748318672,-0.001353152096271515
1772709369061092600,5.435092529296875,0.0054909056052565575,0.006847786251455545,-0.0012753878254443407
1772709369071117600,5.44511767578125,0.005667473189532757,0.008471781387925148,-0.0018761969404295087
1772709369081142500,5.455142578125,0.004061853047460318,0.008088020607829094,-0.000743820914067328
1772709369091167500,5.46516748046875,0.004165450111031532,0.00768934516236186,-0.0017243968322873116
1772709369101192400,5.4751923828125,0.003992611076682806,0.006565757095813751,-0.004491687286645174
1772709369111216600,5.485216552734375,0.000404534162953496,0.006568686570972204,-0.004862132947891951
1772709369121241600,5.49524169921875,0.0031308121979236603,0.00947792362421751,-0.0044168527238070965
1772709369131266600,5.5052666015625,0.002581934677436948,0.007317834068089724,-0.005318332463502884
1772709369141291500,5.51529150390625,0.0033963292371481657,0.0062432484701275826,-0.0041068606078624725
1772709369151316700,5.525316650390625,0.004223507363349199,0.00686136819422245,-0.004887699615210295
1772709369161341400,5.535341552734375,0.0018082864116877317,0.007453921716660261,-0.0048948898911476135
1772709369171366400,5.545366455078125,0.004567853640764952,0.009059540927410126,-0.002487658755853772
1772709369181391400,5.555391357421875,0.0020623519085347652,0.008874185383319855,-0.002938798163086176
1772709369191416600,5.56541650390625,0.002528671408072114,0.007961253635585308,-0.004072239622473717
1772709369201441500,5.575441650390625,0.004676776938140392,0.007714645005762577,-0.0025121597573161125
1772709369211465500,5.585465576171875,0.003439738880842924,0.007189203519374132,-0.0033507891930639744
1772709369221490700,5.59549072265625,0.0038434739690274,0.006849916651844978,-0.0036783581599593163
1772709369231515600,5.605515625,0.003425091505050659,0.008714661933481693,-0.0030064424499869347
1772709369241540400,5.615540283203125,0.004003796260803938,0.007191866636276245,-0.0021931130904704332
1772709369251565600,5.625565673828125,0.003382480936124921,0.005742574110627174,-0.0015550197567790747
1772709369261591600,5.635591552734375,0.0038978024385869503,0.007773234508931637,-0.0040884846821427345
1772709369271616500,5.645616455078125,0.0045585329644382,0.006817159708589315,-0.00301736150868237
1772709369281641500,5.655641357421875,0.0036642432678490877,0.005783320404589176,-0.004513525404036045
1772709369301065500,5.6750654296875,0.003742806613445282,0.006061088293790817,-0.0030562435276806355
1772709369311090400,5.68509033203125,0.00361683894880116,0.007188138086348772,-0.003742273896932602
1772709369321115400,5.695115478515625,0.003427488263696432,0.005795038305222988,-0.004315652418881655
1772709369331140600,5.705140625,0.004610730800777674,0.005261873826384544,-0.003308977698907256
1772709369341165300,5.715165283203125,0.003887682454660535,0.008627310395240784,-0.003948668949306011
1772709369351189200,5.725189208984375,0.0033566481433808804,0.007985488511621952,-0.0037997981999069452
1772709369361214500,5.73521435546875,0.002829342382028699,0.005809952039271593,-0.0058094197884202
1772709369371239400,5.745239501953125,0.0021382521372288465,0.006023005116730928,-0.0048980857245624065
1772709369381264400,5.755264404296875,0.002686863299459219,0.007963917218148708,-0.004997155629098415
1772709369391289600,5.76528955078125,0.0022509037517011166,0.006070942152291536,-0.0024735440965741873
1772709369401314600,5.775314453125,0.003328951308503747,0.007700796704739332,-0.00007243797881528735
1772709369411339300,5.78533935546875,0.0032501218374818563,0.006940197665244341,-0.002118278294801712
1772709369421364200,5.7953642578125,0.002186455298215151,0.006650179624557495,-0.0017933726776391268
1772709369431389400,5.805389404296875,0.002907373011112213,0.0060048955492675304,-0.0010357033461332321
1772709369441414400,5.815414306640625,0.0028812738601118326,0.005919141694903374,-0.0019688750617206097
1772709369451439400,5.825439453125,0.003984089009463787,0.005428054835647345,-0.002038117265328765
1772709369461464300,5.83546435546875,0.0041462755762040615,0.00558012118563056,-0.0018136126454919577
1772709369471488500,5.845488525390625,0.00440966198220849,0.00390339526347816,-0.000012783173588104546
1772709369481513500,5.855513427734375,0.0031678301747888327,0.005083441734313965,0.0004218447138555348
1772709369491538200,5.8655380859375,0.003775563556700945,0.005613410845398903,-0.003052248852327466
1772709369501563400,5.8755634765625,0.0036253612488508224,0.0037377465050667524,-0.005562810692936182
1772709369511588400,5.88558837890625,0.0027896612882614136,0.00452790642157197,-0.0038008634001016617
1772709369521613300,5.89561328125,0.0028940571937710047,0.006370014976710081,-0.0021664814557880163
1772709369531638300,5.90563818359375,0.003141731023788452,0.011261176317930222,-0.0017206683987751603
1772709369541663500,5.91566357421875,0.0046237800270318985,0.013954698108136654,-0.004573978949338198
1772709369551688400,5.9256884765625,0.0038163098506629467,0.010599381290376186,-0.005674663465470076
1772709369561713400,5.93571337890625,0.0009808422764763236,0.008495483547449112,-0.004878378473222256
1772709369571738400,5.94573828125,0.0040823593735694885,0.010160758160054684,-0.0005094627267681062
1772709369581763600,5.955763671875,0.004028563853353262,0.010033992119133472,-0.0009382316493429244
1772709369591787300,5.965787353515625,0.00407463638111949,0.0068022459745407104,-0.0025419872254133224
1772709369601812500,5.9758125,0.0030128341168165207,0.005078914575278759,-0.002442385070025921
1772709369611837400,5.98583740234375,0.004924184642732143,0.00732449209317565,-0.0007637945818714797
1772709369621862400,5.9958623046875,0.004215783905237913,0.009308546781539917,-0.0022975089959800243
1772709369631887400,6.005887451171875,0.002694586291909218,0.007197192870080471,-0.0031012510880827904
1772709369641912600,6.01591259765625,0.0029587720055133104,0.007021158002316952,-0.007066165097057819
1772709369651937500,6.0259375,0.0024642229545861483,0.007476824801415205,-0.005784119479358196
1772709369661962500,6.03596240234375,0.003052515210583806,0.007623032201081514,-0.004535629414021969
1772709369671987200,6.0459873046875,0.003993143793195486,0.0051958272233605385,-0.0025425199419260025
1772709369682012400,6.056012451171875,0.0013012205017730594,0.007001450285315514,-0.0022708773612976074
1772709369692037400,6.066037353515625,0.0033451966010034084,0.006286657880991697,-0.00493217445909977
1772709369702062300,6.076062255859375,0.003736947663128376,0.007475226651877165,-0.004944957327097654
1772709369712086500,6.08608642578125,0.0018855180824175477,0.008497081696987152,-0.003913781605660915
1772709369722111500,6.096111572265625,0.004130030050873756,0.008549013175070286,-0.0031824775505810976
1772709369732136400,6.106136474609375,0.0038128476589918137,0.008322378620505333,-0.0035353463608771563
1772709369742161400,6.116161376953125,0.0023869911674410105,0.007585748098790646,-0.00023941817926242948
1772709369752186400,6.126186279296875,0.0023398532066494226,0.0065567027777433395,-0.0036671727430075407
1772709369762211300,6.13621142578125,0.005134574603289366,0.006997189484536648,-0.00310577847994864
1772709369772236300,6.146236328125,0.0027949875220656395,0.008228901773691177,-0.0013369068037718534
1772709369782261200,6.15626123046875,0.004062119405716658,0.007888282649219036,0.0012596751330420375
1772709369792286500,6.166286376953125,0.004455202259123325,0.008095210418105125,-0.0015883093001320958
1772709369802311400,6.1763115234375,0.004290086217224598,0.008434764109551907,-0.003600327530875802
1772709369812336400,6.18633642578125,0.003640541108325124,0.007862184196710587,-0.00330258603207767
1772709369822361300,6.196361328125,0.00307595101185143,0.007980961352586746,-0.0038314899429678917
1772709369832385300,6.20638525390625,0.0037055222783237696,0.00857138354331255,-0.0015038870042189956
1772709369842410200,6.21641015625,0.004093811381608248,0.008382565341889858,-0.0015614113071933389
1772709369852435500,6.226435546875,0.0010410296963527799,0.007873103022575378,-0.0038192393258213997
1772709369862460400,6.23646044921875,0.005012867972254753,0.006548180244863033,-0.003862382611259818
1772709369872485400,6.2464853515625,0.005046423990279436,0.006915962789207697,-0.0028762139845639467
1772709369882510300,6.25651025390625,0.002959304489195347,0.007495200727134943,-0.001877262257039547
1772709369892535600,6.26653564453125,0.004502872936427593,0.00732395937666297,-0.001668736687861383
1772709369902560500,6.276560546875,0.0018644790397956967,0.006183593533933163,-0.0019033611752092838
1772709369912585500,6.28658544921875,0.0025094966404139996,0.006052033510059118,-0.00481233187019825
1772709369922610200,6.296610107421875,0.0029443909879773855,0.005844040773808956,-0.004525776021182537
1772709369932635400,6.306635498046875,0.0035603800788521767,0.008700813166797161,-0.0026253440883010626
1772709369942660400,6.316660400390625,0.004432831425219774,0.006012884899973869,-0.0015153386630117893
1772709369952684300,6.326684326171875,0.0028458540327847004,0.007808121852576733,-0.0005374259199015796
1772709369962709500,6.33670947265625,0.0047055394388735294,0.006188653875142336,-0.0010221211705356836
1772709369972734500,6.346734375,0.003433347214013338,0.0070222229696810246,-0.002814961364492774
1772709369982759400,6.356759521484375,0.002429601736366749,0.006631537340581417,-0.0017387778498232365
1772709369992784400,6.366784423828125,0.004305799026042223,0.00475347600877285,-0.0035148400347679853
1772709370002809300,6.376809326171875,0.004246144089847803,0.005840578582137823,-0.002491120947524905
1772709370012834300,6.386834228515625,0.004494883120059967,0.006223541218787432,-0.00029055087361484766
1772709370022859300,6.396859375,0.004032558295875788,0.005783853121101856,-0.0008066715090535581
1772709370032884500,6.406884521484375,0.0026495789643377066,0.006411027628928423,-0.0005507417372427881
1772709370042909400,6.416909423828125,0.002671150490641594,0.007834221236407757,-0.0012724583502858877
1772709370052934400,6.426934326171875,0.0028461201582103968,0.006251237820833921,-0.007225954905152321
1772709370062959400,6.43695947265625,0.0028306739404797554,0.005303685087710619,-0.007679757662117481
1772709370072983600,6.446983642578125,0.003802194958552718,0.007219563238322735,-0.004048271104693413
1772709370083008300,6.45700830078125,0.005002748221158981,0.009609750472009182,-0.0010399643797427416
1772709370093033200,6.467033203125,0.00490234699100256,0.012782640755176544,-0.0026754115242511034
1772709370103058400,6.477058349609375,0.0029640982393175364,0.010398845188319683,-0.00618066405877471
1772709370113083400,6.48708349609375,0.0027539748698472977,0.00899722333997488,-0.006657103542238474
1772709370123108400,6.4971083984375,0.005403287708759308,0.008674714714288712,-0.001508680754341185
1772709370133133300,6.50713330078125,0.004890895448625088,0.010852647945284843,0.00018668759730644524
1772709370143158500,6.517158447265625,0.004591023549437523,0.006867493502795696,-0.0017235978739336133
1772709370153183500,6.52718359375,0.0049188584089279175,0.0043808999471366405,-0.0031731564085930586
1772709370163208400,6.53720849609375,0.003300189273431897,0.004968925844877958,-0.0016263924771919847
1772709370173233400,6.5472333984375,0.004209392238408327,0.007036071736365557,-0.00021305288828443736
1772709370183257300,6.55725732421875,0.0033902039285749197,0.009016398340463638,-0.0027233485598117113
1772709370193282300,6.5672822265625,0.004530303180217743,0.005244562868028879,-0.004533499013632536
1772709370203307300,6.577307373046875,0.0035808864049613476,0.008293882943689823,-0.006611297372728586
1772709370213332500,6.58733251953125,0.003055711043998599,0.009073922410607338,-0.0034290861804038286
1772709370223357400,6.597357421875,0.002832005498930812,0.008291485719382763,-0.0028487835079431534
1772709370233382400,6.60738232421875,0.001976065570488572,0.006164418999105692,-0.002752909669652581
1772709370243407400,6.617407470703125,0.0033723609521985054,0.006192648317664862,-0.004524976946413517
1772709370253432600,6.6274326171875,0.0022509037517011166,0.008108792826533318,-0.003906857222318649
1772709370263456800,6.637456787109375,0.003859186777845025,0.007051517721265554,-0.005110872443765402
1772709370273481700,6.647481689453125,0.0033750240691006184,0.006442452780902386,-0.0025896579027175903
1772709370283507000,6.6575068359375,0.003313771216198802,0.007150321267545223,-0.0047090016305446625
1772709370293532000,6.667531982421875,0.0032322786282747984,0.008540491573512554,-0.003940679598599672
1772709370303555800,6.677555908203125,0.005591839086264372,0.005876531358808279,-0.0025244103744626045
1772709370313580800,6.687580810546875,0.005033640656620264,0.00606428412720561,-0.00242161238566041
1772709370323605800,6.697605712890625,0.005360144190490246,0.006453638430684805,-0.0018040252616629004
1772709370333630700,6.707630615234375,0.003784085623919964,0.006549245677888393,-0.0008492820779792964
1772709370343656000,6.717656005859375,0.004966529086232185,0.0052144695073366165,-0.0008037420338951051
1772709370353681000,6.727680908203125,0.004839762579649687,0.006609699688851833,-0.001416002749465406
1772709370363705900,6.737705810546875,0.004131628200411797,0.00734313391149044,-0.003999269101768732
1772709370373730600,6.74773046875,0.00392816262319684,0.00634977500885725,-0.004973187111318111
1772709370383755800,6.757755859375,0.003766508772969246,0.007510113995522261,-0.004114584065973759
1772709370393780700,6.76778076171875,0.003997670952230692,0.00729413190856576,-0.0028509139083325863
1772709370403805700,6.7778056640625,0.00276116537861526,0.012544553726911545,0.01386921014636755
1772709370413830000,6.787829833984375,0.006090915761888027,0.023129820823669434,0.03172117844223976
1772709370423854800,6.797854736328125,0.0033449302427470684,0.03808000683784485,0.051531899720430374
1772709370433879800,6.8078798828125,0.0057375142350792885,0.04369208589196205,0.06096455082297325
1772709370443904800,6.81790478515625,0.005126052536070347,0.042933352291584015,0.05705529823899269
1772709370453929700,6.8279296875,0.004508465528488159,0.039196137338876724,0.04784421995282173
1772709370463954700,6.83795458984375,0.0008218514849431813,0.0264771468937397,0.03320242837071419
1772709370473979600,6.847979736328125,0.000025832661776803434,0.009900301694869995,0.013651097193360329
1772709370484004600,6.858004638671875,0.0013038836186751723,-0.016762202605605125,-0.02166055515408516
1772709370494029800,6.86802978515625,0.0021672805305570364,-0.0318378247320652,-0.056833721697330475
1772709370504054800,6.8780546875,0.0014381069922819734,-0.019343070685863495,-0.07287687063217163
1772709370514079700,6.888079833984375,0.006159092765301466,0.0034413367975503206,-0.06892340630292892
1772709370524104000,6.89810400390625,0.0070608388632535934,0.013624466024339199,-0.05691388249397278
1772709370534128600,6.908128662109375,0.001999767730012536,0.00996421743184328,-0.023309849202632904
1772709370544153600,6.918153564453125,0.005834186915308237,-0.0019507654942572117,0.018429873511195183
