time,seconds_elapsed,z,y,x
1772709363688370700,0.06237060546875,0.0006822661962360144,-0.004800544120371342,0.002535909414291382
1772709363698395600,0.072395751953125,0.0012831899803131819,0.0008805477991700172,-0.002012335229665041
1772709363708420900,0.0824208984375,0.0010269938502460718,0.0061591994017362595,-0.004653126001358032
1772709363718445800,0.09244580078125,-0.00011718948371708393,0.0035833995789289474,-0.004058251157402992
1772709363728469800,0.1024697265625,0.0007073250599205494,-0.0008518286049365997,-0.00225262762978673
1772709363738495000,0.112494873046875,-0.0008843939285725355,-0.0006531733088195324,0.00009356485679745674
1772709363748519700,0.122519775390625,-0.0001333826221525669,0.0026709837839007378,0.0005223338957875967
1772709363758544600,0.132544677734375,-0.0014161037979647517,0.004527697339653969,-0.0011344472877681255
1772709363768569600,0.142569580078125,-0.00041582039557397366,0.0029865261167287827,-0.0016244687139987946
1772709363778594800,0.1525947265625,0.0006241742521524429,0.0011601266451179981,-0.0008194588590413332
1772709363788619800,0.162619873046875,0.002145105507224798,-0.0006894385442137718,0.0007299683056771755
1772709363798644700,0.172644775390625,0.0024614231660962105,-0.00013357121497392654,0.0017203394090756774
1772709363808669700,0.182669677734375,0.0010621985420584679,0.0006331531330943108,0.0030481915455311537
1772709363818695000,0.19269482421875,0.001374559011310339,0.0003558923490345478,-0.0005012464243918657
1772709363828719900,0.202719970703125,0.0017737667076289654,0.002684293780475855,0.0008447151631116867
1772709363838743800,0.212743896484375,0.0010375273413956165,0.0007388577796518803,-0.002410669345408678
1772709363848768800,0.222768798828125,0.0002457697410136461,0.0006147543899714947,0.00009430013597011566
1772709363858793700,0.232793701171875,0.0004841000773012638,0.0007655383087694645,0.0006262902170419693
1772709363868818700,0.242818603515625,0.0006305738352239132,0.0015080277808010578,-0.0015159568283706903
1772709363878844000,0.252843994140625,0.0009498670697212219,0.0010771183297038078,-0.0024309437721967697
1772709363888868900,0.262868896484375,-0.0012640187051147223,0.0010888362303376198,-0.002377680502831936
1772709363898893800,0.272893798828125,0.00012068124487996101,0.0006394889205694199,-0.00004934798926115036
1772709363908918800,0.282918701171875,-0.0006388523615896702,0.0001776963472366333,-0.0015042328741401434
1772709363918944000,0.292944091796875,-0.00015176343731582165,0.0004584137350320816,-0.001147520262748003
1772709363928968700,0.30296875,-0.001119822496548295,0.0019053095020353794,-0.00027799815870821476
1772709363938993700,0.31299365234375,0.0003423183225095272,0.0018714996986091137,-0.0022617983631789684
1772709363949018600,0.3230185546875,0.0008999842684715986,-0.000310427974909544,0.0003536918666213751
1772709363959043800,0.3330439453125,0.0008817012421786785,-0.0009213471785187721,0.0006217972841113806
1772709363969067800,0.34306787109375,-0.00047065201215445995,-0.000718947034329176,0.0010649473406374454
1772709363979092700,0.3530927734375,0.000406772131100297,-0.0000025564804673194885,-0.0007169737946242094
1772709363989118000,0.363117919921875,-0.00067313970066607,0.00033912668004631996,0.0007048880215734243
1772709363999143000,0.373142822265625,-0.0005902191624045372,0.0009088166989386082,0.0017216482665389776
1772709364009167600,0.383167724609375,-0.00016624387353658676,0.00022651487961411476,0.0011051264591515064
1772709364019192600,0.393192626953125,0.0008003348484635353,0.0021857894025743008,-0.0009662688244134188
1772709364029217800,0.4032177734375,0.0001782202161848545,0.0014920360408723354,-0.001248564338311553
1772709364039242800,0.41324267578125,0.000762667041271925,-0.0008316184394061565,0.0003630886785686016
1772709364049267700,0.423267822265625,0.0005117973778396845,0.002744208090007305,0.0006238122005015612
1772709364059292700,0.433292724609375,0.0010447264648973942,0.0017644274048507214,0.0007505144458264112
1772709364069318000,0.44331787109375,0.0010982556268572807,-0.00014106370508670807,0.0019215064821764827
1772709364079342800,0.4533427734375,0.000004017725586891174,-0.0002095503732562065,0.000901487423107028
1772709364089366800,0.46336669921875,0.001556640723720193,0.00026049744337797165,-0.0014093371573835611
1772709364099391700,0.473391845703125,-0.0008147645276039839,-0.0017341175116598606,-0.0007561456877738237
1772709364109416700,0.483416748046875,0.0008787396363914013,-0.0000011986121535301208,0.00046171783469617367
1772709364119441700,0.493441650390625,0.0014124575536698103,0.00011913338676095009,0.00129232881590724
1772709364129467000,0.503466796875,0.0005288205575197935,0.002814785111695528,0.002051596064120531
1772709364139491800,0.513491943359375,-0.0005661449395120144,0.0023833857849240303,-0.0007914900779724121
1772709364149516800,0.523516845703125,0.0019319001585245132,0.00041770702227950096,-0.00425546383485198
1772709364159541800,0.533541748046875,-0.0012035302352160215,0.0007244991138577461,-0.002385455882176757
1772709364169567000,0.54356689453125,0.00033417902886867523,0.002970609813928604,-0.00021737650968134403
1772709364179592000,0.553592041015625,0.0012389628682285547,0.002114377450197935,-0.0007630351465195417
1772709364189616600,0.56361669921875,-0.0008545478340238333,0.0007122228853404522,-0.000002169981598854065
1772709364199641600,0.5736416015625,0.000741258729249239,-0.001679388340562582,-0.000960102304816246
1772709364209665800,0.583665771484375,-9.641516953706741e-7,-0.0003832275979220867,0.001838879776187241
1772709364219690800,0.593690673828125,0.0005532277282327414,0.00034212879836559296,0.00032244622707366943
1772709364229715700,0.6037158203125,0.0019641707185655832,0.0015485403127968311,0.0003530725371092558
1772709364239741000,0.613740966796875,-0.0019562505185604095,0.0001830700784921646,-0.000026117078959941864
1772709364249766000,0.623765869140625,0.0007761525921523571,-0.00006939750164747238,0.0003994561266154051
1772709364259791400,0.633791259765625,-0.0006917945574969053,-0.000283604022115469,0.00225467118434608
1772709364269816000,0.643816162109375,-0.0004795405548065901,-0.00023140572011470795,0.0002847309224307537
1772709364279841300,0.65384130859375,-0.0002538261469453573,-0.0010017710737884045,0.00015338510274887085
1772709364289866200,0.6638662109375,0.00033553154207766056,-0.00030828407034277916,-0.00007058680057525635
1772709364299891200,0.67389111328125,-0.0012564777862280607,-0.0003805323503911495,0.00047355378046631813
1772709364309916200,0.683916259765625,0.0006420898716896772,-0.00009024748578667641,-0.0008593583479523659
1772709364319941400,0.69394140625,-0.00011661602184176445,0.00017877109348773956,-0.0020645654294639826
1772709364329965300,0.70396533203125,0.00000881892628967762,-0.0002870159223675728,-0.0023109077010303736
1772709364339990300,0.713990234375,0.0013235430233180523,-0.0011369269341230392,-0.0027639425825327635
1772709364350015200,0.72401513671875,-0.001483162515796721,0.002641300205141306,-0.0013215744402259588
1772709364360040200,0.734040283203125,0.00014584185555577278,-0.0007710359059274197,-0.0009443014860153198
1772709364370065200,0.744065185546875,0.00012373761273920536,-0.002202484756708145,-0.0001472176518291235
1772709364380090000,0.754090087890625,0.0012048135977238417,-0.0006246841512620449,0.0028207830619066954
1772709364390115300,0.764115234375,-0.0004410198889672756,-0.0006356029771268368,0.0034759207628667355
1772709364400140300,0.774140380859375,0.0008560712449252605,-0.00039648404344916344,0.002983177313581109
1772709364410165200,0.784165283203125,0.00176900252699852,-0.0016785296611487865,-0.00007120217196643353
1772709364420190200,0.794190185546875,0.00033230497501790524,-0.0018996428698301315,-0.0011969867628067732
1772709364430215400,0.80421533203125,0.0015110198874026537,-0.00017391471192240715,0.002239023335278034
1772709364440240400,0.814240478515625,0.002530534751713276,-0.0011772159487009048,0.003127880161628127
1772709364450264300,0.824264404296875,0.0007936209440231323,-0.0018448703922331333,0.0024295994080603123
1772709364460289300,0.834289306640625,0.0003017149865627289,-0.0017277603037655354,0.0010041475761681795
1772709364470314200,0.844314208984375,-0.00019017094746232033,-0.00034211762249469757,-0.0003431455697864294
1772709364480339200,0.854339111328125,-0.0005854160990566015,0.0015837326645851135,-0.0015822404529899359
1772709364490364400,0.864364501953125,-0.0014978150138631463,0.0013176826760172844,-0.0021484282333403826
1772709364500389400,0.874389404296875,-0.0016921729547902942,0.0017125513404607773,-0.00503687234595418
1772709364510414300,0.884414306640625,-0.0007400927133858204,0.0008251862600445747,-0.006143414881080389
1772709364520439300,0.894439208984375,0.0006089010275900364,0.000940544530749321,-0.003606527578085661
1772709364530464300,0.90446435546875,0.0017695063725113869,0.002144293859601021,-0.0027979915030300617
1772709364540489200,0.9144892578125,-0.0006215516477823257,0.004097525496035814,-0.0005747799295932055
1772709364550514200,0.92451416015625,-0.0006947885267436504,0.002488176804035902,0.001014594454318285
1772709364560539100,0.9345390625,0.001925356686115265,0.0010017184540629387,0.0013602448161691427
1772709364570563300,0.944563232421875,0.0015226867981255054,0.000993463210761547,0.0028300434350967407
1772709364580588300,0.95458837890625,0.0012393626384437084,0.002864937763661146,0.005146483890712261
1772709364590613200,0.96461328125,0.0006734407506883144,0.0025589405559003353,0.0018526860512793064
1772709364600638500,0.974638427734375,0.0014279198367148638,-0.001059576403349638,0.001107128569856286
1772709364610663200,0.9846630859375,0.00013175932690501213,-0.0009674313478171825,0.0007739670109003782
1772709364620688100,0.994688232421875,0.000633798073977232,0.0006203474476933479,0.0014484140556305647
1772709364630713300,1.00471337890625,0.0007674884982407093,0.0009798742830753326,-0.0007968968711793423
1772709364640738300,1.01473828125,0.0010029366239905357,0.0003975951112806797,0.0006585540249943733
1772709364650763300,1.02476318359375,0.00047909305430948734,-0.0019598351791501045,-0.0026573475915938616
1772709364660788200,1.034788330078125,-0.0001950906589627266,-0.0036341859959065914,-0.0038700010627508163
1772709364670813400,1.0448134765625,-0.00042279111221432686,-0.001071692444384098,-0.0018089809454977512
1772709364680837400,1.05483740234375,-0.00018686708062887192,-0.0009264517575502396,0.0012031816877424717
1772709364690862000,1.064862060546875,0.0013266073074191809,0.00014387303963303566,0.001498792553320527
1772709364700887300,1.07488720703125,0.0004084769170731306,0.001010596752166748,-0.000833041500300169
1772709364710912300,1.084912353515625,-0.0003643722739070654,0.002285451628267765,-0.0026338710449635983
1772709364720937200,1.094937255859375,0.0010425779037177563,0.0017461227253079414,-0.00034708925522863865
1772709364730962200,1.104962158203125,0.0015134247951209545,0.0012989779934287071,0.003971759229898453
1772709364740987400,1.1149873046875,0.0005002326797693968,0.0007722284644842148,0.0050798701122403145
1772709364751012400,1.125012451171875,0.00041900621727108955,0.0003376007080078125,0.0010606276337057352
1772709364761037300,1.135037353515625,-0.0008055032230913639,-0.0007675206288695335,-0.0013399571180343628
1772709364771062300,1.145062255859375,0.00005709473043680191,-0.0013640685938298702,0.0003876355476677418
1772709364781087200,1.155087158203125,0.0000990226399153471,-0.00016107084229588509,0.0009615353774279356
1772709364791112200,1.1651123046875,0.00017731962725520134,-0.0005363100208342075,0.0009570079855620861
1772709364801136000,1.17513623046875,0.00045981653966009617,-0.0015652691945433617,-0.0007778569124639034
1772709364811161300,1.185161376953125,0.00021507195197045803,-0.0035330788232386112,-0.00004096026532351971
1772709364821186300,1.195186279296875,0.00005221506580710411,-0.0018870863132178783,0.002907027257606387
1772709364831211300,1.205211181640625,0.00023091305047273636,-0.0004889266565442085,0.0013307023327797651
1772709364841236500,1.215236572265625,0.0006115802098065615,-0.0016461224295198917,0.0020254794508218765
1772709364851261400,1.225261474609375,0.00012555299326777458,-0.00160697428509593,-0.002039036713540554
1772709364861286100,1.2352861328125,0.00013505108654499054,-0.0021219002082943916,-0.00307070417329669
1772709364871311000,1.24531103515625,-0.0004140925593674183,0.0003921240568161011,-0.002691735979169607
1772709364881336300,1.25533642578125,-0.0002857283689081669,0.0016111396253108978,-0.0036163111217319965
1772709364891361300,1.265361328125,0.0010719513520598412,0.001631912775337696,-0.004341223742812872
1772709364901386200,1.27538623046875,0.00016968115232884884,0.0005669146776199341,-0.0020005821716040373
1772709364911410400,1.285410400390625,0.00038965814746916294,0.00038928166031837463,-0.0008303893264383078
1772709364921435400,1.295435302734375,0.000988079933449626,0.0006509516388177872,-0.0015050617512315512
1772709364931460400,1.30546044921875,-0.0007943739183247089,-0.00047849444672465324,-0.001278160372748971
1772709364941485000,1.315485107421875,-0.001865013618953526,0.0016122953966259956,-0.0025405215565115213
1772709364951510300,1.32551025390625,0.0003747048322111368,-0.0006695007905364037,-0.00048216432332992554
1772709364961535200,1.33553515625,-0.0004951870068907738,0.0006805397570133209,0.0010363701730966568
1772709364971560200,1.345560302734375,-0.00032128277234733105,-0.001430015079677105,-0.00034394627436995506
1772709364981585200,1.355585205078125,0.001153314020484686,-0.000312738586217165,-0.0013599307276308537
1772709364991610400,1.3656103515625,0.0010148296132683754,-0.002737280447036028,0.00037831440567970276
1772709365001635300,1.37563525390625,0.000490417005494237,-0.0012848633341491222,0.0007732724770903587
1772709365011660300,1.385660400390625,0.0016219939570873976,-0.0021959305740892887,0.0016558441566303372
1772709365021684200,1.395684326171875,0.00031328480690717697,-0.0030577233992516994,0.00014315731823444366
1772709365031709200,1.405709228515625,-0.00041402457281947136,-0.004016195423901081,0.00009362236596643925
1772709365041734100,1.415734130859375,-0.0003059485461562872,-0.0033504613675177097,0.0015955815324559808
1772709365051759400,1.42575927734375,0.0006890085060149431,-0.0033648423850536346,0.0015878583071753383
1772709365061784300,1.435784423828125,-0.0005924436263740063,-0.003102946560829878,0.0015738598303869367
1772709365071809300,1.445809326171875,-0.0015301427338272333,-0.002999349497258663,-0.0013273877557367086
1772709365081834200,1.455834228515625,-0.002027194481343031,-0.0021029720082879066,-0.0028265106957405806
1772709365091859500,1.465859375,0.000050337519496679306,-0.0005527460016310215,-0.0022525994572788477
1772709365101884400,1.475884521484375,-0.00103559042327106,-0.0005316678434610367,-0.0006462151650339365
1772709365111909400,1.485909423828125,-0.0009849902708083391,-0.000020606908947229385,-0.00017190608195960522
1772709365121934000,1.49593408203125,-0.0021808710880577564,0.0014966451562941074,0.0006623968947678804
1772709365131958300,1.505958251953125,0.0010617936495691538,0.000494497362524271,-0.0009386956226080656
1772709365141983200,1.515983154296875,-0.002034807112067938,0.0009370292536914349,-0.001186666777357459
1772709365152008200,1.52600830078125,0.0016781720332801342,0.0009673894383013248,-0.0003328572493046522
1772709365162033400,1.536033447265625,0.0004736552946269512,-0.0008410061709582806,-0.0006330448668450117
1772709365172058400,1.546058349609375,0.0010848506353795528,-0.0001062401570379734,-0.0003321077674627304
1772709365182083300,1.556083251953125,0.0002686413936316967,-0.000683455727994442,0.0007462387438863516
1772709365192108300,1.5661083984375,-0.0001199136022478342,-0.0002946346066892147,0.0007100198417901993
1772709365202133200,1.57613330078125,-0.00006495579145848751,-0.0013486812822520733,0.0022976170293986797
1772709365212158200,1.586158203125,-0.0007155661005526781,-0.001699952408671379,-0.0019131072331219912
1772709365222183200,1.59618310546875,-0.0011949646286666393,-0.003356554079800844,-0.003825482912361622
1772709365232208100,1.6062080078125,-0.0014567533507943153,-0.0004814052954316139,-0.003539459314197302
1772709365242232300,1.616232421875,-0.0004107754211872816,0.0012426143512129784,-0.0016931460704654455
1772709365252256800,1.6262568359375,-0.0005186335183680058,0.003113219514489174,-0.00182443973608315
1772709365262282000,1.636281982421875,-0.0005760944914072752,0.0026703584007918835,-0.0015361052937805653
1772709365272307000,1.646306884765625,-0.0006282925605773926,-0.0006215749308466911,-0.0014466233551502228
1772709365282331600,1.65633154296875,-0.00039465073496103287,0.00007719919085502625,-0.0016460604965686798
1772709365292356600,1.666356689453125,0.0008535729721188545,0.00007719919085502625,0.00043067242950201035
1772709365302381800,1.6763818359375,-0.00017760321497917175,-0.002589157782495022,0.0009467930067330599
1772709365312406800,1.68640673828125,-0.0009517841972410679,-0.0007334668189287186,0.00048819673247635365
1772709365322431700,1.696431640625,0.0010127471759915352,-0.0023315907455980778,0.001769676455296576
1772709365332456700,1.706456787109375,-0.0010932805016636848,-0.0009680525399744511,0.00013769138604402542
1772709365342481000,1.71648095703125,0.0001267269253730774,-0.00023413915187120438,0.001799754099920392
1772709365352505900,1.726505859375,-0.0006258822977542877,-0.00035211723297834396,0.0003086503129452467
1772709365362530800,1.73653076171875,-0.001411128556355834,-0.0032554790377616882,-0.001186395762488246
1772709365372555800,1.7465556640625,-0.00039113801904022694,-0.00020908936858177185,-0.0007831931579858065
1772709365382580700,1.756580810546875,-0.0008197897113859653,-0.0028293863870203495,0.0003390740603208542
1772709365392605700,1.766605712890625,-0.0008855699561536312,-0.0017790356650948524,-0.0012492351233959198
1772709365402631000,1.776630859375,-0.0020108907483518124,-0.0033259964548051357,-0.00017966004088521004
1772709365412655900,1.78665576171875,-0.0005421575624495745,-0.0009659030474722385,-0.002390083856880665
1772709365422680800,1.796680908203125,-0.0013900499325245619,-0.0012716399505734444,-0.0016399992164224386
1772709365432705800,1.806705810546875,0.0002603109460324049,0.0004721982404589653,-0.0012184206862002611
1772709365442729700,1.816729736328125,-0.0012362687848508358,-0.0012588705867528915,-0.0005086769815534353
1772709365452754700,1.826754638671875,-0.00028205825947225094,-0.0007352931424975395,-0.00016326503828167915
1772709365462779600,1.836779541015625,0.00010569603182375431,-0.0021057850681245327,0.0010020930785685778
1772709365472804900,1.846804931640625,-0.0008879294618964195,-0.0016847392544150352,-0.0001747577916830778
1772709365482829800,1.856829833984375,0.0003270045854151249,-0.00014037219807505608,0.00007238355465233326
1772709365492854800,1.866854736328125,-0.0010463874787092209,-0.0021095131523907185,-0.00023787468671798706
1772709365502879700,1.876879638671875,-0.0007799777667969465,-0.00031955400481820107,0.0022800355218350887
1772709365512905000,1.886905029296875,0.000396606745198369,-0.0018910854123532772,0.002848886651918292
1772709365522930000,1.896929931640625,0.0015112850815057755,-0.0009283688850700855,-0.001398375490680337
1772709365532955000,1.906954833984375,-0.0000623767264187336,0.0007547494024038315,-0.0010700079146772623
1772709365542979800,1.916979736328125,-0.0014053459744900465,-0.0014567170292139053,-0.0006336017977446318
1772709365553003800,1.927003662109375,0.0002956148236989975,0.0005244086496531963,-0.0004666214808821678
1772709365563028700,1.93702880859375,-0.0001903190277516842,-0.0017222142778337002,0.0003367047756910324
1772709365573054000,1.947053955078125,0.000629934249445796,-0.0004414999857544899,-0.00254377000965178
1772709365583079000,1.957078857421875,0.001598309725522995,0.00009239744395017624,0.00003236113116145134
1772709365593104000,1.967103759765625,-0.0011748401448130608,-0.0020399955101311207,-0.0003189097624272108
1772709365603128800,1.97712890625,-0.0017018186626955867,0.002087394706904888,-0.00021486659534275532
1772709365613154000,1.987154052734375,-0.0006570606492459774,0.0015094885602593422,-0.0020905311685055494
1772709365623178800,1.9971787109375,-0.0002603079192340374,-0.0015656566247344017,-0.004033179488033056
1772709365633203700,2.00720361328125,-0.0007045231759548187,0.0007579512894153595,-0.003007330000400543
1772709365643228700,2.017228759765625,-0.0008791973814368248,0.0007931017316877842,-0.0028095205780118704
1772709365653252900,2.0272529296875,0.0008736953604966402,0.0032996688969433308,-0.0011562302242964506
1772709365663277800,2.03727783203125,-0.0002401119563728571,0.0017069010064005852,-0.0007732585072517395
1772709365673302800,2.047302734375,0.0009780179243534803,0.0006786538287997246,-0.0002547409385442734
1772709365683328000,2.057327880859375,0.00018666964024305344,0.0008522761054337025,-0.0007322991732507944
1772709365693353000,2.06735302734375,0.0004900037311017513,-0.001168530434370041,-0.00142791704274714
1772709365703377700,2.077377685546875,0.0015424438752233982,-0.0019643385894596577,0.00019179796800017357
1772709365713402600,2.087402587890625,0.0002212498802691698,-0.0007853573188185692,-0.0007720000576227903
1772709365723427800,2.097427734375,0.00009534088894724846,0.00086606340482831,0.0006324236746877432
1772709365733452800,2.107452880859375,0.0008207859937101603,0.0014916392974555492,0.001093150582164526
1772709365743477800,2.117477783203125,0.0009686795528978109,-0.0016407808288931847,0.000981905497610569
1772709365753502700,2.127502685546875,-0.0014763688668608665,-0.0009033512324094772,-0.002278869040310383
1772709365763527000,2.13752685546875,-0.0017724836943671107,0.00012619420886039734,-0.00313944136723876
1772709365773551600,2.147551513671875,0.0009876163676381111,0.0027632559649646282,-0.001507988665252924
1772709365783576800,2.157576904296875,0.001334035536274314,0.0023505017161369324,0.00260489946231246
1772709365793601800,2.167601806640625,0.00030445773154497147,0.004957203753292561,0.002677071373909712
1772709365803626800,2.177626708984375,0.0026355984155088663,0.002486138604581356,-0.000721390824764967
1772709365813651700,2.187651611328125,0.0027394613716751337,0.001765754073858261,-0.0013411084655672312
1772709365823677000,2.197677001953125,0.0005457585211843252,0.001837132964283228,0.0007269636262208223
1772709365833702000,2.207701904296875,0.0010530909057706594,0.002558582928031683,0.0033424540888518095
1772709365843726800,2.217726806640625,0.0003315743524581194,0.0008291038684546947,0.0030586468055844307
1772709365853751800,2.227751708984375,0.001760626444593072,-0.0012337807565927505,0.0013891111593693495
1772709365863775700,2.237775634765625,0.0008667709771543741,-0.0012612608261406422,0.0005399368237704039
1772709365873800700,2.24780078125,0.00020391028374433517,-0.0008213063701987267,0.0005090441554784775
1772709365883825700,2.25782568359375,0.0020042392425239086,0.002487319055944681,0.001551289577037096
1772709365893851000,2.267850830078125,0.0006817136891186237,0.000717915128916502,-0.00044474960304796696
1772709365903875800,2.277875732421875,-0.001826271298341453,0.0006596017628908157,-0.000351880444213748
1772709365913900800,2.28790087890625,-0.000716265756636858,0.0020423149690032005,0.0004345509223639965
1772709365923925800,2.29792578125,-0.0007329268846660852,0.0017069019377231598,0.000639584381133318
1772709365933951000,2.307950927734375,0.0007749549113214016,-0.0003730272874236107,0.0011293396819382906
1772709365943976000,2.317975830078125,0.001523836050182581,0.001111685298383236,0.000104555394500494
1772709365954000600,2.328000732421875,-0.00040083075873553753,0.0006959652528166771,-0.0004781442694365978
1772709365964024800,2.33802490234375,0.001904638484120369,0.00045335572212934494,-0.0009198992047458887
1772709365974049800,2.3480498046875,0.00010886904783546925,0.0005553541705012321,-0.0006136356387287378
1772709365984074800,2.35807470703125,0.0010780729353427887,0.002365557476878166,0.0004844055511057377
1772709365994100000,2.368099853515625,0.0005896491929888725,0.001464078202843666,0.0005757519975304604
1772709366004125000,2.378125,0.0010754573158919811,-0.0008382000960409641,0.0005449000746011734
1772709366014150000,2.38814990234375,0.0005127312615513802,-0.002109859138727188,0.0007616812363266945
1772709366024174800,2.3981748046875,0.0009374115616083145,0.0011424007825553417,0.0011041094549000263
1772709366034199800,2.40819970703125,0.000500120222568512,-0.00035296427085995674,0.0030173242557793856
1772709366044224800,2.418224853515625,0.001016330672428012,-0.000918031670153141,0.004347181413322687
1772709366054249700,2.428249755859375,0.0008557422552257776,0.00034750206395983696,0.0020416826009750366
1772709366064274000,2.43827392578125,0.001473030773922801,0.00048091495409607887,-0.0004794138949364424
1772709366074299000,2.448298828125,0.00020856177434325218,0.0017182198353111744,-0.00045278226025402546
1772709366084323800,2.45832373046875,0.0018153958953917027,0.0008552181534469128,-0.0020060520619153976
1772709366094348800,2.468348876953125,0.0016212514601647854,0.0007098098285496235,-0.00037779519334435463
1772709366104374000,2.4783740234375,-0.000795725267380476,0.002175040077418089,-0.0004019881598651409
1772709366114398700,2.488398681640625,0.000972347566857934,0.0013545206747949123,-0.0023913695476949215
1772709366124423700,2.498423583984375,0.000517908250913024,0.0009959293529391289,0.00004229159094393253
1772709366134448600,2.50844873046875,-0.001216075848788023,0.0012414725497364998,-0.00018168031238019466
1772709366144473900,2.518473876953125,-0.00010259519331157207,0.0010633417405188084,-0.0013898296747356653
1772709366154498800,2.528498779296875,0.002004231559112668,0.0027115722186863422,-0.0007344256155192852
1772709366164523000,2.53852294921875,0.001056544715538621,0.0007394128479063511,-0.0009036071132868528
1772709366174548000,2.5485478515625,0.0007638630922883749,0.002093896735459566,-0.00040373182855546474
1772709366184573000,2.558572998046875,-0.00037552323192358017,0.0017791306599974632,-0.0004298742860555649
1772709366194597600,2.56859765625,-0.0005342476069927216,0.00009148567914962769,0.0002028925810009241
1772709366204622800,2.578622802734375,0.0014310905244201422,0.002432644832879305,0.0019492465071380138
1772709366214647800,2.588647705078125,0.0007453265134245157,0.00273571303114295,0.0020025097765028477
1772709366224672800,2.5986728515625,0.000561281805858016,-0.0005842447280883789,-0.00018699117936193943
1772709366234697700,2.60869775390625,0.000190037302672863,-0.0013507027179002762,-0.0003859293647110462
1772709366244723000,2.618722900390625,-0.00037436187267303467,-0.00010794959962368011,0.0003852839581668377
1772709366254747600,2.62874755859375,0.00008769659325480461,0.0016534654423594475,0.0011615953408181667
1772709366264771600,2.638771484375,0.0013399303425103426,-0.0008128369227051735,0.0021497500129044056
1772709366274796800,2.648796875,-0.00035197590477764606,0.001303311437368393,0.0020328371319919825
1772709366284821800,2.65882177734375,0.0005931705236434937,-0.0014064162969589233,-0.00037408340722322464
1772709366294846500,2.668846435546875,-0.001348806545138359,-0.0008961544372141361,-0.0015184436924755573
1772709366304871700,2.67887158203125,-0.0004935020115226507,-0.0008741789497435093,-0.0010040625929832458
1772709366314896600,2.688896728515625,-0.000017595244571566582,-0.0006438153795897961,0.0010226031299680471
1772709366324921600,2.698921630859375,0.0001268233172595501,0.00326024042442441,0.001093542668968439
1772709366334946600,2.708946533203125,-0.0006774512585252523,0.0043526687659323215,-0.0016878629103302956
1772709366344971800,2.7189716796875,0.0009193839505314827,0.0018136906437575817,-0.0018573408015072346
1772709366354996700,2.728996826171875,0.00004719872958958149,0.0006035496480762959,-0.0006301561370491982
1772709366365020700,2.739020751953125,0.000544730806723237,0.0007348936051130295,0.000217098044231534
1772709366375045600,2.749045654296875,0.0012153147254139185,0.0020771268755197525,0.00021842960268259048
1772709366385070600,2.759070556640625,-0.0004101537633687258,0.0007811561226844788,0.002563594840466976
1772709366395095600,2.769095458984375,-0.00043172528967261314,-0.001387189608067274,0.000885270768776536
1772709366405120500,2.77912060546875,0.0007854639552533627,-0.00044422829523682594,0.0014148837653920054
1772709366415145700,2.789145751953125,-0.002105663763359189,0.0014974819496273994,0.00037651718594133854
1772709366425170700,2.799170654296875,-0.001212327741086483,0.0001117810606956482,0.00016989163123071194
1772709366435195600,2.809195556640625,-0.0009452125523239374,0.001272120513021946,-0.0014727460220456123
1772709366445220600,2.819220703125,0.0004891827702522278,-0.0005297125317156315,0.00047011044807732105
1772709366455244500,2.82924462890625,-0.000015219906345009804,0.0005009309388697147,0.0010738489218056202
1772709366465269500,2.83926953125,0.0003674302715808153,-0.0005492367781698704,0.0002618297003209591
1772709366475294500,2.84929443359375,0.00018527009524405003,0.0009253551252186298,-0.0010199497919529676
1772709366485319700,2.859319580078125,-0.00035907793790102005,-0.0004833596758544445,0.0007590802852064371
1772709366495344600,2.8693447265625,-0.001010487088933587,-0.0007970803417265415,0.00020567560568451881
1772709366505369600,2.87936962890625,-0.0013675971422344446,-0.0008945190347731113,-0.0010305107571184635
1772709366515394600,2.88939453125,-0.00041178870014846325,-0.0002942425198853016,0.0020933770574629307
1772709366525419800,2.899419677734375,0.0008831096347421408,4.2887404561042786e-7,0.0028519746847450733
1772709366535444700,2.90944482421875,0.0013795231934636831,-0.0015015937387943268,0.0019571525044739246
1772709366545469700,2.9194697265625,-0.0024302820675075054,-0.003064610529690981,-0.0002510331105440855
1772709366555494700,2.92949462890625,-0.0015495745465159416,-0.00469712819904089,-0.003923798445612192
1772709366565518600,2.9395185546875,-0.0009943305049091578,-0.001187401358038187,-0.004063524305820465
1772709366575543600,2.94954345703125,0.00021767406724393368,0.0021996074356138706,0.001272651832550764
1772709366585568800,2.95956884765625,-0.00041996268555521965,0.0002450305037200451,0.00593720655888319
1772709366595593700,2.96959375,-0.000023418106138706207,-0.004223753698170185,0.005980083718895912
1772709366605618700,2.97961865234375,0.0002821716479957104,-0.005025011021643877,0.007201890926808119
1772709366615643600,2.9896435546875,-0.0007111874874681234,-0.0036034155637025833,0.007961157709360123
1772709366625668900,2.9996689453125,0.0019311073701828718,0.00019369972869753838,0.010979201644659042
1772709366635693600,3.009693603515625,0.0038262128364294767,0.0036299764178693295,0.011532073840498924
1772709366645718500,3.019718505859375,0.005713213700801134,0.0018134471029043198,0.013701207935810089
1772709366655742700,3.02974267578125,0.0036916080862283707,0.001015031710267067,0.01105482503771782
1772709366665767700,3.039767578125,0.0019192351028323174,0.0017590764909982681,0.005926067475229502
1772709366675792600,3.049792724609375,0.002060382626950741,-0.000019116327166557312,0.004082094877958298
1772709366685817600,3.059817626953125,0.0012921236921101809,0.0024440400302410126,0.0033004875294864178
1772709366695842800,3.0698427734375,-0.00023226975463330746,0.004031817428767681,0.0008101656567305326
1772709366705867800,3.07986767578125,-0.0021502040326595306,0.003388920333236456,-0.006620245054364204
1772709366715892500,3.089892578125,-0.0024601961486041546,0.00323312496766448,-0.016257159411907196
1772709366725917700,3.099917724609375,-0.004145681858062744,-0.0009128875099122524,-0.01920800469815731
1772709366735942700,3.109942626953125,-0.004035160876810551,0.004295190330594778,-0.011417461559176445
1772709366745967600,3.119967529296875,-0.0007783873006701469,0.012948837131261826,-0.004889828152954578
1772709366755991800,3.12999169921875,-0.0014516343362629414,0.011156529188156128,-0.006407030858099461
1772709366766016800,3.140016845703125,0.0010143157560378313,0.0018642735667526722,-0.007007213309407234
1772709366776041700,3.150041748046875,-0.0007217989768832922,-0.0012580165639519691,-0.0014784906525164843
1772709366786066700,3.160066650390625,0.0034460348542779684,0.003838260192424059,0.005340490490198135
1772709366796091600,3.170091552734375,0.0036689413245767355,0.005387420300394297,0.012692412361502647
1772709366806116600,3.18011669921875,0.003246296662837267,-0.00035017402842640877,0.013473251834511757
1772709366816141600,3.1901416015625,0.004464426543563604,-0.0057617174461483955,0.012364844791591167
1772709366826166500,3.20016650390625,0.004253723192960024,-0.003742180997505784,0.008909807540476322
1772709366836191700,3.210191650390625,0.005269452929496765,-0.0048151686787605286,0.0070421332493424416
1772709366846216700,3.220216796875,0.004353605676442385,0.008094267919659615,0.011604437604546547
1772709366856240600,3.23024072265625,0.008233563974499702,0.001342622097581625,0.021812066435813904
1772709366866265600,3.240265625,0.004730856977403164,0.00949075073003769,0.020296260714530945
1772709366876290600,3.25029052734375,0.003749215742573142,0.00019125919789075851,0.012715572491288185
1772709366886315500,3.2603154296875,0.009298119693994522,-0.015260128304362297,0.010996628552675247
1772709366896340700,3.2703408203125,0.015050813555717468,0.006434514187276363,0.014457939192652702
1772709366906365700,3.28036572265625,0.002637116704136133,0.01383998617529869,0.01013574656099081
1772709366916390700,3.290390625,0.004908259958028793,-0.002117942087352276,0.004739915952086449
1772709366926415600,3.30041552734375,0.009283121675252914,-0.006684739608317614,0.01061732042580843
1772709366936440800,3.31044091796875,0.007402397226542234,-0.00529430340975523,0.021562911570072174
1772709366946465800,3.3204658203125,0.007604725658893585,-0.0015153298154473305,0.017282191663980484
1772709366956489500,3.330489501953125,0.009537382051348686,0.008348487317562103,0.010715901851654053
1772709366966514700,3.3405146484375,0.009836871176958084,0.014503330923616886,0.007691071834415197
1772709366976539600,3.35053955078125,0.006064237095415592,0.005943397991359234,0.005677455570548773
1772709366986564600,3.360564697265625,0.0025226501747965813,-0.007177184801548719,-0.0018917915876954794
1772709366996589600,3.370589599609375,-0.0006608928088098764,-0.015482785180211067,-0.004824996925890446
1772709367006614800,3.38061474609375,-0.0016055654268711805,-0.008775046095252037,-0.007662692107260227
1772709367016639700,3.3906396484375,-0.001460689352825284,0.0028219553641974926,-0.010103479027748108
1772709367026664700,3.400664794921875,-0.0031831259839236736,-0.001052658073604107,-0.011855188757181168
1772709367036689700,3.410689697265625,-0.004375955555588007,-0.008762775920331478,-0.009562740102410316
1772709367046714600,3.420714599609375,-0.004263445269316435,-0.0078018903732299805,-0.005928803235292435
1772709367056738600,3.430738525390625,-0.003254373325034976,-0.0011048391461372375,-0.00298174936324358
1772709367066763500,3.440763427734375,-0.0008638335857540369,0.00612071854993701,0.001949469093233347
1772709367076788700,3.450788818359375,0.0009037062991410494,0.0018604598008096218,0.0027841036207973957
1772709367086813700,3.460813720703125,-0.0012812006752938032,-0.0004822574555873871,0.0008207657374441624
1772709367096838700,3.470838623046875,-0.0012582975905388594,-0.003054071683436632,-0.0018463903106749058
1772709367106863600,3.480863525390625,-0.00012801471166312695,-0.0017594830133020878,-0.003133251331746578
1772709367116888800,3.490888916015625,0.0006403070874512196,0.002793456893414259,0.00128226971719414
1772709367126913500,3.50091357421875,-0.0007950358558446169,0.0053731598891317844,0.0028976292815059423
1772709367136938500,3.5109384765625,0.0017376304604113102,0.004916427191346884,0.0021780431270599365
1772709367146963700,3.520963623046875,-0.000259727006778121,0.00576153676956892,0.0060048638842999935
1772709367156987600,3.530987548828125,0.0005882235709577799,0.005886171944439411,0.0038040275685489178
1772709367167012600,3.5410126953125,-0.002217321889474988,0.001218469813466072,-0.0010105841793119907
1772709367177037800,3.551037841796875,-0.0020316995214670897,-0.003771495306864381,-0.006201884243637323
1772709367187062800,3.561062744140625,-0.002538571832701564,-0.004202446900308132,-0.009398965165019035
1772709367197087700,3.571087646484375,-0.003307160222902894,0.002531888894736767,-0.008695624768733978
1772709367207112400,3.581112548828125,-0.0024900096468627453,0.007019068580120802,-0.00434044050052762
1772709367217137700,3.5911376953125,-0.0034194528125226498,-0.0025352882221341133,-0.00480356439948082
1772709367227162600,3.60116259765625,-0.003771599382162094,-0.006021060515195131,-0.004737017676234245
1772709367237187600,3.6111875,-0.0015883400337770581,0.0007542879320681095,-0.009066518396139145
1772709367247212500,3.621212646484375,-0.002946114633232355,0.005106405820697546,-0.01347603090107441
1772709367257237500,3.631237548828125,-0.0020470311865210533,0.0016871732659637928,-0.012169751338660717
1772709367267262200,3.64126220703125,-0.0009442241862416267,-0.004375542514026165,-0.007090878672897816
1772709367277287200,3.651287109375,0.002036385703831911,-0.0031198617070913315,0.004164705518633127
1772709367287312400,3.6613125,0.0008518763352185488,0.00043867621570825577,0.005107378587126732
1772709367297337300,3.67133740234375,0.0014191300142556429,-0.0012907804921269417,-0.0025034029968082905
1772709367307362300,3.6813623046875,0.0019070305861532688,-0.005758736282587051,-0.006905831396579742
1772709367317387300,3.69138720703125,-0.0003292257897555828,-0.0020737205632030964,-0.007900255732238293
1772709367327412500,3.70141259765625,0.0015269762370735407,-0.0006407615728676319,-0.004037733189761639
1772709367337437400,3.7114375,0.0018811768386512995,0.0002268962562084198,0.0012339939130470157
1772709367347462400,3.72146240234375,0.0006143443752080202,-0.0017155869863927364,-0.0011048167943954468
1772709367357486300,3.731486328125,-0.0007089802529662848,-0.0037100284826010466,-0.006213292013853788
1772709367367511300,3.74151123046875,-0.005574187263846397,-0.0037393064703792334,-0.008959225378930569
1772709367377536300,3.751536376953125,-0.00609936285763979,-0.00787599477916956,-0.009432202205061913
1772709367387561200,3.761561279296875,-0.0035486447159200907,-0.005492991767823696,-0.009265892207622528
1772709367397586400,3.77158642578125,-0.004371827933937311,0.003681331407278776,-0.00891515426337719
1772709367407611400,3.781611328125,-0.001395104918628931,0.005825104657560587,-0.013860184699296951
1772709367417636400,3.79163623046875,-0.0005841723177582026,-0.01146733295172453,-0.013283610343933105
1772709367427661300,3.801661376953125,0.0015810092445462942,-0.015195732936263084,-0.007194048725068569
1772709367437686300,3.811686279296875,0.0007671469356864691,0.0017441022209823132,0.007113784551620483
1772709367447711200,3.821711181640625,0.0016233292408287525,0.011853229254484177,0.013950490392744541
1772709367457735400,3.8317353515625,-0.0016334502724930644,-0.0068533471785485744,0.005853682290762663
1772709367467760400,3.841760498046875,-0.0018022011499851942,-0.0200242567807436,-0.00859970971941948
1772709367477785300,3.851785400390625,-0.005332487635314465,-0.010529555380344391,-0.015620600432157516
1772709367487810300,3.861810302734375,-0.00604421179741621,0.00837564654648304,-0.01979147270321846
1772709367497835500,3.87183544921875,-0.003842576639726758,-0.00035659223794937134,-0.016392480581998825
1772709367507860500,3.881860595703125,-0.0014856269117444754,-0.008369958959519863,-0.008810663595795631
1772709367517885200,3.89188525390625,0.0007413083221763372,-0.002135765738785267,-0.002310686046257615
1772709367527910100,3.90191015625,0.0011321848724037409,-0.0020679067820310593,0.002995705232024193
1772709367537935400,3.911935302734375,0.001166539965197444,0.0016815578565001488,-0.00044856080785393715
1772709367547960300,3.921960205078125,-0.0013625535648316145,0.0008633919060230255,-0.0070947762578725815
1772709367557985300,3.9319853515625,0.0010494713205844164,-0.005800103303045034,-0.009599478915333748
1772709367568009500,3.942009521484375,0.00004747370257973671,-0.0011986801400780678,-0.008771514520049095
1772709367578034400,3.952034423828125,-0.00032590143382549286,0.002083666156977415,-0.006197834853082895
1772709367588059400,3.962059326171875,-0.0005348138511180878,0.0003696391358971596,-0.005404798313975334
1772709367598084000,3.972083984375,0.00018796813674271107,-0.0016612876206636429,-0.0018587990198284388
1772709367608109300,3.982109375,0.000605639535933733,0.0007440689951181412,-0.0012009229976683855
1772709367618134300,3.99213427734375,-0.0032037459313869476,0.0014266371726989746,-0.0039061622228473425
1772709367628159200,4.0021591796875,0.0002689266111701727,-0.0016578552313148975,-0.0012127570807933807
1772709367638184200,4.01218408203125,0.0011845214758068323,-0.00003785453736782074,-0.0011445805430412292
1772709367648209400,4.02220947265625,0.0009965368080884218,-0.00013526994735002518,0.0017470987513661385
1772709367658234400,4.032234375,0.0024564818013459444,0.0023015225306153297,0.0014549499610438943
1772709367668259300,4.04225927734375,0.0003790429327636957,-0.0008971807546913624,0.00046437070704996586
1772709367678283300,4.052283203125,-0.00026277871802449226,0.0000567631796002388,-0.001955111278221011
1772709367688308200,4.06230810546875,-0.00032782391645014286,-0.0016178558580577374,-0.004755871370434761
1772709367698333200,4.072333251953125,-0.00022715632803738117,-0.0002511213533580303,-0.0037284239660948515
1772709367708358400,4.0823583984375,0.0006669959984719753,0.0005534659139811993,-0.0011692980770021677
1772709367718383400,4.09238330078125,0.0003287745639681816,0.0026493738405406475,0.00045549659989774227
1772709367728408300,4.102408203125,0.0008802209049463272,0.0008527855388820171,-0.0010498384945094585
1772709367738433300,4.112433349609375,0.0008554533123970032,0.0007153660990297794,-0.0035023437812924385
1772709367748458500,4.12245849609375,0.000317208468914032,0.00011192634701728821,-0.0006172354333102703
1772709367758483500,4.1324833984375,0.0012541087344288826,0.0027425969019532204,0.0028770980425179005
1772709367768508400,4.14250830078125,0.0024530196096748114,0.003543887287378311,0.004852876998484135
1772709367778532400,4.152532470703125,0.002352352486923337,0.0002402355894446373,0.004116513300687075
1772709367788557300,4.162557373046875,0.0031200051307678223,0.0018946370109915733,0.005363500211387873
1772709367798582300,4.172582275390625,0.002086698543280363,0.004964995197951794,0.004721411969512701
1772709367808607200,4.182607177734375,0.0021818228997290134,0.0052919951267540455,0.004989689216017723
1772709367818632400,4.192632568359375,0.0025317627005279064,-0.0005270112305879593,0.008107984438538551
1772709367828657400,4.202657470703125,0.00016956753097474575,-0.004109499044716358,0.007038128562271595
1772709367838682400,4.212682373046875,0.000229754950851202,-0.003197100479155779,0.0030393924098461866
1772709367848707300,4.222707275390625,-0.00040022702887654305,0.0004157605580985546,0.0021957557182759047
1772709367858732300,4.232732177734375,0.00018833158537745476,-0.001479877158999443,0.0020700544118881226
1772709367868757200,4.24275732421875,0.0012762700207531452,-0.0029187570326030254,0.005298316478729248
1772709367878781400,4.252781494140625,0.0006509600207209587,-0.0018084854818880558,0.007296752650290728
1772709367888806400,4.262806396484375,0.0010248222388327122,-0.00037620216608047485,0.005909416358917952
1772709367898831400,4.272831298828125,0.0030368403531610966,-0.000012946780771017075,0.003507245099171996
1772709367908856300,4.282856201171875,0.005735647864639759,0.00404169037938118,0.003317649243399501
1772709367918881500,4.292881591796875,0.006635263562202454,0.003208387643098831,0.00970124639570713
1772709367928906200,4.30290625,0.005183584522455931,0.006471733096987009,0.014893155544996262
1772709367938931200,4.31293115234375,0.0007076095789670944,0.01030801609158516,0.008972415700554848
1772709367948956200,4.3229560546875,0.0021459446288645267,-0.01502574048936367,0.004967275075614452
1772709367958981400,4.3329814453125,-0.0013864724896848202,-0.014324797317385674,-0.0014384265523403883
1772709367969006300,4.34300634765625,0.00140483514405787,0.005832100752741098,-0.005393656436353922
1772709367979030300,4.3530302734375,-0.0017797730397433043,0.00811522826552391,-0.005165157373994589
1772709367989055500,4.363055419921875,0.002177024492993951,0.009548496454954147,-0.007135459221899509
1772709367999080400,4.37308056640625,-0.0023375661112368107,-0.003926033619791269,-0.0006157741881906986
1772709368009105200,4.383105224609375,0.0024891807697713375,-0.0005347384139895439,0.0030915902461856604
1772709368019130000,4.393130126953125,-0.0005260501056909561,0.0013718190602958202,-0.0006048772484064102
1772709368029155300,4.4031552734375,-0.003587208455428481,0.00129989767447114,-0.007092124316841364
1772709368039180300,4.41318017578125,-0.004757667891681194,0.0003795088268816471,-0.015321558341383934
1772709368049205200,4.423205322265625,-0.002671521622687578,-0.000050838105380535126,-0.013541650958359241
1772709368059230200,4.433230224609375,-0.004163424484431744,0.002220571506768465,-0.007506661117076874
1772709368069255400,4.44325537109375,-0.003636392066255212,0.0013552512973546982,-0.0029191833455115557
1772709368079279400,4.453279296875,-0.003402566537261009,0.0007254146039485931,-0.003873394103720784
1772709368089304300,4.46330419921875,-0.003458817722275853,0.0008114404045045376,-0.011567670851945877
1772709368099329300,4.473329345703125,-0.004674018360674381,0.00023859413340687752,-0.011984722688794136
1772709368109354200,4.483354248046875,-0.004570118151605129,0.0017787571996450424,-0.010042194277048111
1772709368119379200,4.493379150390625,-0.004093945026397705,0.0007678205147385597,-0.007943356409668922
1772709368129404400,4.503404296875,-0.0034220293164253235,0.00019817054271697998,-0.005133455619215965
1772709368139429400,4.513429443359375,-0.003638011636212468,0.002636028453707695,-0.0038181196432560682
1772709368149454300,4.523454345703125,-0.003936097491532564,-0.001011132262647152,-0.00521471444517374
1772709368159479300,4.533479248046875,-0.004779254551976919,-0.0036330141592770815,-0.008132739923894405
1772709368169504500,4.54350439453125,-0.003898295108228922,-0.0011398210190236568,-0.0060976361855864525
1772709368179529500,4.553529541015625,-0.004042904824018478,-0.0009771017357707024,-0.006753040477633476
1772709368189553200,4.56355322265625,-0.005452340468764305,-0.00010067503899335861,-0.007010151632130146
1772709368199578400,4.573578369140625,-0.006095227785408497,0.0009502079337835312,-0.010433112271130085
1772709368209603300,4.583603271484375,-0.007384109776467085,0.000046321190893650055,-0.013141205534338951
1772709368219628300,4.593628173828125,-0.006599809043109417,-0.0017161588184535503,-0.012221349403262138
1772709368229653200,4.6036533203125,-0.004636042285710573,-0.00039463257417082787,-0.008795514702796936
1772709368239678500,4.613678466796875,-0.0036048663314431906,0.0011068577878177166,-0.004889989271759987
1772709368249703400,4.623703369140625,-0.0007140908855944872,0.0043876152485609055,-0.004028531722724438
1772709368259727400,4.633727294921875,-0.0010919934138655663,0.004862191155552864,-0.0016820202581584454
1772709368269752600,4.643752685546875,-0.0008010528981685638,0.00031592417508363724,-0.0011128499172627926
1772709368279777500,4.653777587890625,0.0005081570707261562,0.0012187361717224121,-0.0017783734947443008
1772709368289801500,4.663801513671875,0.0009433089289814234,-0.00026866886764764786,0.0009404055308550596
1772709368299826700,4.67382666015625,0.00014515966176986694,-0.0021936018019914627,0.002080771140754223
1772709368309851400,4.683851318359375,0.0015358827076852322,0.000032327137887477875,0.0018078818684443831
1772709368319876400,4.69387646484375,0.0021774382330477238,0.0010304800234735012,0.0014933625934645534
1772709368329901600,4.703901611328125,0.0005324615631252527,0.001985894050449133,0.0029002176597714424
1772709368339926500,4.713926513671875,0.002617716556414962,0.0023153270594775677,0.005120494868606329
1772709368349951500,4.723951416015625,0.0012216584291309118,0.0009794891811907291,0.00794457457959652
1772709368359976400,4.7339765625,0.0009710548911243677,-0.0007100198417901993,0.006238553673028946
1772709368370001700,4.744001708984375,0.0015722792595624924,-0.0033169747330248356,0.005408435128629208
1772709368380026600,4.754026611328125,0.002448991872370243,-0.0031561199575662613,0.006180485710501671
1772709368390050300,4.76405029296875,0.003789156675338745,-0.0017928252927958965,0.006490125320851803
1772709368400075500,4.774075439453125,0.0018450492061674595,-0.0010876203887164593,0.0070411330088973045
1772709368410100500,4.7841005859375,0.0014234669506549835,-0.003120174165815115,0.007070652209222317
1772709368420125400,4.79412548828125,0.0020421193912625313,-0.0026980629190802574,0.005263165105134249
1772709368430150400,4.804150390625,0.0024677542969584465,-0.00379899051040411,0.0009620736818760633
1772709368440175600,4.814175537109375,0.0030808141455054283,-0.003275945782661438,0.0009016201365739107
1772709368450200600,4.82420068359375,0.0011131255887448788,-0.003948378376662731,0.0038306175265461206
1772709368460225500,4.8342255859375,0.0024689408019185066,0.0007603573612868786,0.005815471522510052
1772709368470250500,4.84425048828125,0.0008162190206348896,0.0009883502498269081,0.0012353449128568172
1772709368480275700,4.854275634765625,-0.0007276155520230532,-0.002456714864820242,-0.002358857076615095
1772709368490300400,4.864300537109375,-0.00012604333460330963,-0.0024010813795030117,-0.004188959486782551
1772709368500324600,4.87432470703125,0.00158610288053751,-0.0024889656342566013,-0.002181735122576356
1772709368510349600,4.884349609375,0.00028376723639667034,-0.0006912956014275551,-0.0018244355451315641
1772709368520374500,4.89437451171875,-0.0014068074524402618,-0.0014231326058506966,-0.003156015882268548
1772709368530399500,4.9043994140625,-0.002460239455103874,-0.0026575205847620964,-0.00400368869304657
1772709368540424700,4.9144248046875,-0.0028879432938992977,-0.0025848164223134518,-0.003652151906862855
1772709368550449700,4.92444970703125,-0.001328072277829051,-0.0010670875199139118,-0.0020437301136553288
1772709368560474600,4.934474609375,-0.002827165648341179,0.0008855420164763927,-0.0027244342491030693
1772709368570499300,4.944499267578125,-0.0018482737941667438,-0.00007931096479296684,-0.0035173324868083
1772709368580524500,4.954524658203125,-0.0012605141382664442,-0.0004769209772348404,-0.00411627721041441
1772709368590549500,4.964549560546875,0.0005861218087375164,-0.001662560272961855,-0.0015095751732587814
1772709368600574500,4.974574462890625,0.0010684202425181866,0.0013223104178905487,0.001925103715620935
1772709368610598700,4.9845986328125,-0.00039685098454356194,-0.00009236065670847893,0.0013421376934275031
1772709368620623600,4.99462353515625,0.0012164921499788761,-0.0010055587626993656,0.0019200437236577272
1772709368630648600,5.004648681640625,0.003047020873054862,-0.0016367738135159016,0.0010432361159473658
1772709368640673500,5.014673583984375,0.0003625547979027033,-0.0025153509341180325,0.0008293844293802977
1772709368650698500,5.024698486328125,0.0007891904097050428,-0.000045564956963062286,0.0018764984561130404
1772709368660723500,5.034723388671875,-0.0010582443792372942,0.00019518472254276276,0.0031231241300702095
1772709368670748400,5.04474853515625,0.0004046298563480377,-0.0026056617498397827,0.0029058102518320084
1772709368680773400,5.0547734375,0.00007200101390480995,-0.002579829189926386,-0.000716088805347681
1772709368690798600,5.064798583984375,0.0020653181709349155,-0.0024373428896069527,-0.0011457956861704588
1772709368700823600,5.074823486328125,-0.0009517769794911146,0.0007190359756350517,0.0029485481791198254
1772709368710847700,5.08484765625,0.0003125749062746763,0.001202678307890892,0.0008576891850680113
1772709368720872700,5.094872802734375,0.00023427791893482208,0.0014199921861290932,0.000002814456820487976
1772709368730897400,5.1048974609375,0.0017582846339792013,0.0026854807510972023,-0.003042604075744748
1772709368740922400,5.11492236328125,0.0006794377695769072,0.003630104474723339,-0.003912125714123249
1772709368750947600,5.124947509765625,0.0015883459709584713,0.0029968367889523506,-0.003238241421058774
1772709368760972500,5.13497265625,-0.0007869272958487272,0.002458878792822361,-0.00026881671510636806
1772709368770997500,5.14499755859375,0.00031069363467395306,0.0027947789058089256,-0.0016351486556231976
1772709368781022500,5.1550224609375,-0.0008581678848713636,0.0024991678074002266,-0.0035832510329782963
1772709368791047700,5.165047607421875,-0.001089985715225339,0.0015577240847051144,-0.0032397559843957424
1772709368801072600,5.17507275390625,0.0006117741577327251,0.0015979376621544361,0.00012887641787528992
1772709368811097600,5.18509765625,0.0011569233611226082,0.0013550580479204655,0.000056971097365021706
1772709368821121500,5.19512158203125,-0.0005624135956168175,0.0010724966414272785,-0.0018306775018572807
1772709368831146500,5.205146484375,-0.0006483546458184719,-0.000050893984735012054,-0.004846183117479086
1772709368841171500,5.21517138671875,-0.0010070824064314365,0.00013206526637077332,-0.004488253965973854
1772709368851196400,5.225196533203125,-0.0013168638106435537,0.0015731374733150005,-0.0016725915484130383
1772709368861221600,5.2352216796875,-0.0008947527967393398,0.0006229220889508724,-0.00037430040538311005
1772709368871246600,5.24524658203125,-0.00017765071243047714,-0.00017761439085006714,0.0006163206417113543
1772709368881271600,5.255271484375,-0.001632269355468452,-0.0003959937021136284,-0.0003011384978890419
1772709368891296500,5.265296630859375,0.00178746716119349,-0.00035950541496276855,-0.0018659480847418308
1772709368901321500,5.275321533203125,0.00003404170274734497,-0.002645829226821661,0.0006736423820257187
1772709368911346400,5.285346435546875,-0.00041017355397343636,-0.002160068601369858,0.0029194860253483057
1772709368921371400,5.295371337890625,-0.0009396099485456944,-0.0017105271108448505,0.0036720954813063145
1772709368931395600,5.3053955078125,0.0007891780696809292,-0.0029621669091284275,0.0018870736239477992
1772709368941420500,5.315420654296875,0.00038251327350735664,-0.0026801377534866333,0.004014673177152872
1772709368959590400,5.33359033203125,-0.0008589453063905239,-0.004550518933683634,0.00026544369757175446
1772709368969615400,5.343615478515625,-0.0005175280384719372,-0.005169170908629894,-0.001311413710936904
1772709368979639600,5.3536396484375,-0.0005537469405680895,-0.0026687290519475937,0.0009813015349209309
1772709368989664500,5.36366455078125,-0.00023819785565137863,-0.0020147422328591347,0.0012539494782686234
1772709368999689500,5.373689453125,0.0008528989274054766,0.0038335593417286873,-0.00019827228970825672
1772709369009714700,5.383714599609375,0.001605361234396696,0.0032050996087491512,-0.0018085928168147802
1772709369019739600,5.39373974609375,0.0031222975812852383,0.00011769728735089302,-0.00002667168155312538
1772709369029764400,5.403764404296875,0.0009726234711706638,0.00039359740912914276,0.0028691859915852547
1772709369039789300,5.413789306640625,0.0007254821248352528,0.0021792463958263397,0.0018217646284028888
1772709369049814500,5.423814453125,0.0012358317617326975,0.00044685089960694313,0.0010492568835616112
1772709369059839500,5.433839599609375,0.0028465117793530226,-0.000311883632093668,0.0011864096159115434
1772709369069864400,5.443864501953125,0.002314685843884945,0.00020189909264445305,0.0017857037018984556
1772709369079889400,5.453889404296875,0.00008695176802575588,0.0008125621825456619,0.0031588294077664614
1772709369089913600,5.46391357421875,-0.0004108273424208164,0.0007488862611353397,0.001487451372668147
1772709369099938600,5.4739384765625,0.000689058331772685,-0.0015901685692369938,-0.0017677305731922388
1772709369109963500,5.483963623046875,-0.0026407535187900066,-0.00021946243941783905,-0.0015340845566242933
1772709369119988500,5.493988525390625,0.0003094961866736412,0.002073785290122032,-0.0010549819562584162
1772709369130013400,5.504013427734375,-0.0006497744470834732,0.0008998643606901169,-0.0017612522933632135
1772709369140038400,5.514038330078125,0.00014890753664076328,-0.00006286846473813057,-0.0009918648283928633
1772709369150063600,5.524063720703125,-0.00044021429494023323,-0.0008104443550109863,-0.0020563078578561544
1772709369160088600,5.534088623046875,-0.001808280241675675,-0.000904453918337822,-0.001342846779152751
1772709369170113500,5.544113525390625,0.0005556680262088776,0.000819486565887928,0.0006312234327197075
1772709369180138500,5.554138427734375,-0.0011836423072963953,0.0014637047424912453,0.0004314861726015806
1772709369190163700,5.564163818359375,-0.0009891781955957413,0.0010434212163090706,-0.001135686645284295
1772709369200187400,5.5741875,0.00024333270266652107,-0.0004820371977984905,0.00040122331120073795
1772709369210212400,5.58421240234375,0.0007281778380274773,0.00004528230056166649,-0.0000805538147687912
1772709369220237600,5.594237548828125,-0.0005448132287710905,-0.000361116137355566,-0.0006872217636555433
1772709369230262500,5.604262451171875,0.0007862995844334364,0.00007558334618806839,-0.00005560251884162426
1772709369240287500,5.61428759765625,-0.0003223742824047804,-0.0006072511896491051,0.0011076664086431265
1772709369250312400,5.6243125,-0.0011984608136117458,-0.0015073539689183235,0.001332797110080719
1772709369260338400,5.63433837890625,0.0008668205700814724,0.0005009360611438751,-0.00024699000641703606
1772709369270363400,5.64436328125,0.0009955221321433783,0.00016143172979354858,0.00012121698819100857
1772709369280388400,5.654388427734375,-0.0004955818876624107,-0.0006822580471634865,-0.0016260826960206032
1772709369299812400,5.673812255859375,-0.00013967463746666908,-0.0006053708493709564,0.0004179601091891527
1772709369309837300,5.68383740234375,0.000783128198236227,-0.00007057515904307365,0.0000486976932734251
1772709369319862300,5.6938623046875,-0.00138015765696764,-0.0005853641778230667,-0.001352124847471714
1772709369329887500,5.703887451171875,0.0010489588603377342,-0.0027947360649704933,-0.0010324744507670403
1772709369339912400,5.713912353515625,-0.0008360263891518116,0.0008117170073091984,-0.00048120017163455486
1772709369349936400,5.723936279296875,0.00024153990671038628,0.0007853582501411438,-0.00031981850042939186
1772709369359961600,5.733961669921875,-0.00033210497349500656,-0.0019134888425469398,-0.0032136095687747
1772709369369986300,5.743986328125,-0.0013636471703648567,-0.00039841653779149055,-0.002811569022014737
1772709369380011300,5.75401123046875,0.0004520961083471775,-0.00044635357335209846,-0.0016589530277997255
1772709369390036200,5.7640361328125,-0.0012316720094531775,-0.0015627439133822918,0.0004554539918899536
1772709369400061400,5.7740615234375,-0.0007776031270623207,0.0004146532155573368,0.0005848836153745651
1772709369410086400,5.78408642578125,0.0003575913142412901,-0.0009806971065700054,0.0011494641657918692
1772709369420111400,5.794111328125,-0.00013882177881896496,-0.0005487324669957161,0.0018312335014343262
1772709369430136300,5.80413623046875,-0.0005030736792832613,-0.002487052697688341,0.0007549356669187546
1772709369440161500,5.81416162109375,0.00036485050804913044,-0.0011948873288929462,0.0017552189528942108
1772709369450186500,5.8241865234375,0.00010329880751669407,-0.003072945401072502,0.0009270396549254656
1772709369460211500,5.83421142578125,0.001259643118828535,-0.002115272916853428,0.0021622139029204845
1772709369470235400,5.8442353515625,0.0016181343235075474,-0.0021882462315261364,0.0016199303790926933
1772709369480260400,5.85426025390625,-0.00029534706845879555,-0.002307289745658636,0.00338347558863461
1772709369490285300,5.864285400390625,0.00044110557064414024,-0.0016010291874408722,0.0004764439072459936
1772709369500310500,5.874310546875,-0.0005498568061739206,-0.002937669400125742,-0.0026421176735311747
1772709369510335500,5.88433544921875,-0.0014809027779847383,-0.003243580460548401,-0.0013156256172806025
1772709369520360400,5.8943603515625,-0.0004710322245955467,-0.0018797758966684341,-0.0004514299798756838
1772709369530385400,5.904385498046875,-0.000024419976398348808,0.0024449313059449196,0.0008593779057264328
1772709369540410600,5.91441064453125,0.0007199335377663374,0.004384777508676052,-0.0018562471959739923
1772709369550435300,5.924435302734375,0.00046341470442712307,0.0036598127335309982,-0.003594712819904089
1772709369560460300,5.934460205078125,-0.0014215705450624228,0.001237400807440281,-0.0017941496334969997
1772709369570485200,5.9444853515625,0.0014088344760239124,0.002860095351934433,0.0024930478539317846
1772709369580510500,5.954510498046875,0.0006285281851887703,0.002720278687775135,0.0031601698137819767
1772709369590534400,5.964534423828125,0.0003844061866402626,0.00006222771480679512,0.0005269928369671106
1772709369600559400,5.974559326171875,0.0002091703936457634,-0.0024054571986198425,0.001364823430776596
1772709369610584600,5.98458447265625,0.0020695049315690994,-0.00020759319886565208,0.002734190784394741
1772709369620609300,5.994609375,-0.0001545008271932602,0.003234009724110365,0.0008215087000280619
1772709369630634200,6.00463427734375,-0.000337755773216486,-0.00037883128970861435,-0.0003124014474451542
1772709369640659500,6.014659423828125,0.0008042075205594301,-0.0006211791187524796,-0.0038016748148947954
1772709369650684400,6.024684326171875,-0.00010876962915062904,0.0008280626498162746,-0.00312877562828362
1772709369660709400,6.03470947265625,0.0006188061088323593,-0.000866240356117487,-0.0011889289598912
1772709369670734300,6.044734375,-0.00026726722717285156,-0.0024312702007591724,0.0014415825717151165
1772709369680759600,6.054759521484375,-0.0024659731425344944,-0.00003176182508468628,0.0007009573746472597
1772709369690784500,6.064784423828125,-0.0007015697192400694,-0.001052794512361288,-0.001770542934536934
1772709369700809500,6.0748095703125,-0.0006099569145590067,-0.00009805150330066681,-0.0007177952211350203
1772709369710833400,6.08483349609375,0.00018811505287885666,0.001136301551014185,-0.0010139865335077047
1772709369720858400,6.0948583984375,-0.0004963173996657133,0.0014947629533708096,0.0008318505715578794
1772709369730883300,6.10488330078125,-0.0002598138526082039,0.0005205683410167694,0.0008498311508446932
1772709369740908300,6.114908203125,-0.00014662928879261017,0.00034346804022789,0.003137752879410982
1772709369750933500,6.12493359375,-0.0004700885619968176,-0.0006399126723408699,-0.00036343280225992203
1772709369760958500,6.13495849609375,0.001912109088152647,-0.001413294579833746,-0.0005522507708519697
1772709369770983400,6.1449833984375,0.0004413120914250612,0.000784710980951786,0.0011158052366226912
1772709369781008400,6.15500830078125,0.001565166050568223,0.0006624720990657806,0.00260664289817214
1772709369791033600,6.16503369140625,-0.0005676231812685728,0.0004389318637549877,0.0026382124051451683
1772709369801058300,6.175058349609375,0.0009591667912900448,0.00027008727192878723,0.0007793258409947157
1772709369811083300,6.185083251953125,0.0010891882702708244,0.00043022260069847107,-0.0009542489424347878
1772709369821108200,6.195108154296875,0.0004202022682875395,0.0003865472972393036,-0.0004796737339347601
1772709369831132400,6.20513232421875,0.0005834340117871761,0.001140095293521881,0.002041056752204895
1772709369841157400,6.215157470703125,0.0006864983588457108,0.001144888810813427,0.0012101504253223538
1772709369851182300,6.225182373046875,-0.0012240661308169365,0.0014250646345317364,-0.0010808263905346394
1772709369861207600,6.23520751953125,0.00037835794501006603,-0.0006021340377628803,-0.0014227763749659061
1772709369871232500,6.245232421875,0.001817547483369708,-0.0010064765810966492,-0.0003797058016061783
1772709369881257200,6.25525732421875,-0.001335901441052556,-0.00036066025495529175,0.0013649309985339642
1772709369891282400,6.265282470703125,0.0003799495752900839,-0.0002241586335003376,0.001057442743331194
1772709369901307400,6.275307373046875,-0.0005124758463352919,-0.0004449347034096718,0.0021834271028637886
1772709369911332400,6.285332275390625,-0.001998603343963623,-0.0024016364477574825,-0.0006936059799045324
1772709369921357300,6.295357421875,0.0005689500831067562,-0.0014679324813187122,-0.00024459720589220524
1772709369931382500,6.305382568359375,0.0009176034945994616,0.0005774353630840778,0.0009151801932603121
1772709369941407500,6.315407470703125,0.000410271342843771,-0.0003789057955145836,0.0024126756470650434
1772709369951431400,6.325431396484375,0.000037679215893149376,0.000053246039897203445,0.0021567638032138348
1772709369961456400,6.335456298828125,0.0012755165807902813,-0.0008620824664831161,0.0018832571804523468
1772709369971481300,6.3454814453125,-0.0007318542338907719,0.00022943923249840736,0.0003768838942050934
1772709369981506300,6.35550634765625,-0.0005560857243835926,-0.00076285470277071,0.000595529330894351
1772709369991531300,6.36553125,0.0002758095506578684,-0.0025262190029025078,-0.0003326982259750366
1772709370001556500,6.375556396484375,0.0009029840584844351,-0.002471890766173601,0.0002300275955349207
1772709370011581400,6.38558154296875,0.0007197768427431583,-0.00037286337465047836,0.002615506760776043
1772709370021606400,6.3956064453125,0.0007767686620354652,-0.0010285335592925549,0.0026738299056887627
1772709370031631400,6.40563134765625,0.0009725454729050398,-0.000927638728171587,0.003216903191059828
1772709370041656600,6.415656494140625,-0.00018273410387337208,0.0009504221379756927,0.0014456348726525903
1772709370051681500,6.425681640625,-0.0012807841412723064,-0.0004597199149429798,-0.002740419004112482
1772709370061706200,6.435706298828125,0.0001567902509123087,-0.0016520172357559204,-0.005499720107764006
1772709370071730400,6.44573046875,-0.0005733079742640257,-0.00036605726927518845,-0.0004014447331428528
1772709370081755400,6.45575537109375,0.0015012945514172316,0.0013333060778677464,0.001579947187565267
1772709370091780400,6.4657802734375,0.00008945446461439133,0.005089804530143738,0.0017571633215993643
1772709370101805600,6.4758056640625,-0.00015315948985517025,0.004176074638962746,-0.002125991741195321
1772709370111830500,6.48583056640625,-0.00006913556717336178,0.0010339426808059216,-0.0033535028342157602
1772709370121855500,6.49585546875,0.0012853480875492096,0.0008387328125536442,0.00006359908729791641
1772709370131880200,6.505880126953125,0.0020088818855583668,0.0028761192224919796,0.0031015898566693068
1772709370141905400,6.515905517578125,0.0017614741809666157,0.0011253575794398785,0.003001454984769225
1772709370151930400,6.525930419921875,0.0010148882865905762,-0.0024936748668551445,0.0010879195760935545
1772709370161955300,6.535955322265625,-0.00015104352496564388,-0.0024665105156600475,0.00221097469329834
1772709370171980300,6.545980224609375,0.0005104506853967905,0.0005018841475248337,0.0035780887119472027
1772709370182004500,6.55600439453125,0.00018128380179405212,0.0007255896925926208,-0.00008029560558497906
1772709370192029400,6.566029541015625,0.0010681140702217817,-0.0033810636959969997,-0.0011713330168277025
1772709370202054400,6.576054443359375,-0.0007697332184761763,-0.00014905165880918503,-0.00321610807441175
1772709370212079400,6.586079345703125,-0.0011547834146767855,0.0010194266214966774,-0.00005306419916450977
1772709370222104300,6.596104248046875,-0.0007230851333588362,-0.00024397671222686768,-0.000524177448824048
1772709370232129300,6.60612939453125,-0.0009013679809868336,-0.00012477301061153412,-0.0004374510608613491
1772709370242154200,6.616154296875,0.000705051003023982,-0.0015466343611478806,-0.0014651650562882423
1772709370252179500,6.626179443359375,-0.0007104082033038139,0.0005988324992358685,-0.0013017847668379545
1772709370262203600,6.63620361328125,0.0012502109166234732,-0.00020544230937957764,-0.0008136273827403784
1772709370272228600,6.646228515625,0.00027143978513777256,-0.0011212402023375034,0.00032018963247537613
1772709370282253800,6.65625390625,-0.0005418895743787289,-0.0002485220320522785,-0.0018739888910204172
1772709370292278800,6.66627880859375,-0.00047701108269393444,0.0016976166516542435,-0.0008650803938508034
1772709370302302700,6.676302734375,0.0010929221753031015,-0.0004411679692566395,0.0008563867304474115
1772709370312328000,6.686327880859375,0.0017162789590656757,-0.0020044459961354733,0.0004417866002768278
1772709370322353000,6.696352783203125,0.0026326728984713554,-0.000773000530898571,0.0012287505669519305
1772709370332377600,6.706377685546875,0.0014589405618607998,-0.0003262581303715706,0.0031898259185254574
1772709370342402800,6.71640283203125,0.0005119205452501774,-0.0012019057758152485,0.0032769113313406706
1772709370352427800,6.726427734375,0.0018401038832962513,-0.003610184881836176,0.0019234413048252463
1772709370362452700,6.73645263671875,0.00031384616158902645,0.0004988061264157295,-0.0012225508689880371
1772709370372477700,6.746477783203125,0.00009755860082805157,-0.0014537828974425793,-0.0019046608358621597
1772709370382503000,6.7565029296875,0.00021633552387356758,-0.0005669505335390568,-0.0014806860126554966
1772709370392528000,6.76652783203125,0.0010470068082213402,0.0005694343708455563,-0.00015659257769584656
1772709370402552800,6.776552734375,-0.0017692858818918467,0.004735150840133429,0.012803946621716022
1772709370412576800,6.78657666015625,0.0030442560091614723,0.012959318235516548,0.03190308436751366
1772709370422601700,6.796601806640625,0.00008148932829499245,0.03048398531973362,0.05255962535738945
1772709370432626700,6.806626708984375,0.0022799880243837833,0.03589259088039398,0.06381002068519592
1772709370442651600,6.816651611328125,0.0028235390782356262,0.034717071801424026,0.06031222641468048
1772709370452676900,6.8266767578125,0.0012692117597907782,0.03213493525981903,0.05228354036808014
1772709370462701800,6.836701904296875,-0.0014602621085941792,0.020326480269432068,0.03838317096233368
1772709370472726800,6.846726806640625,-0.002600779291242361,0.0048305680975317955,0.021416407078504562
1772709370482751700,6.856751708984375,-0.0027512479573488235,-0.0214172825217247,-0.014147445559501648
1772709370492777000,6.86677685546875,-0.0021631026174873114,-0.0393853485584259,-0.05015892535448074
1772709370502802000,6.876802001953125,-0.003746884409338236,-0.02913830056786537,-0.06933820992708206
1772709370512826600,6.88682666015625,0.0032441485673189163,-0.006419699173420668,-0.06631390005350113
1772709370522850800,6.896850830078125,0.003022573422640562,0.004994343034923077,-0.057269275188446045
1772709370532875800,6.906875732421875,-0.0010629508178681135,0.00320019805803895,-0.027434969320893288
1772709370542900700,6.916900634765625,0.0014095278456807137,-0.00791157502681017,0.018268603831529617
