time,seconds_elapsed,z,y,x
1772709133326805200,0.05980517578125,0.02604512636065483,-0.016462072642333805,-0.013245521748624742
1772709133336830500,0.06983056640625,-0.027854806131124496,0.0035270050823688506,0.018237813610583544
1772709133346855400,0.07985546875,-0.023541034585237503,0.011617664818465708,0.005504588765650987
1772709133356880400,0.08988037109375,0.02314239065647125,-0.005087568929977714,-0.033307993503101166
1772709133366905300,0.0999052734375,0.08150164064466953,-0.018429902116581798,-0.009577135434187948
1772709133376930600,0.1099306640625,0.0747410604685545,-0.020769670175760983,0.0022353578366339204
1772709133386955300,0.119955322265625,0.004219078999757766,-0.011698146176151931,0.004917180799134075
1772709133396980200,0.129980224609375,-0.014516016608476639,0.006431823145784437,-0.008291954461857676
1772709133407005200,0.140005126953125,0.012858312529325485,0.00037986616306006905,-0.013402100549824535
1772709133417030400,0.150030517578125,0.034710078853368756,-0.0067093249129131435,0.00036912557333707805
1772709133427055400,0.160055419921875,0.06790916862189769,-0.020358239830657838,0.029405798432789742
1772709133437080300,0.170080322265625,0.05261398433446884,-0.006665156977623701,0.013493395562469958
1772709133447105300,0.180105224609375,0.016229834789037705,0.007821122079715132,-0.0030807226195931434
1772709133457130500,0.190130615234375,0.013682488393783568,-0.0071906056238338345,-0.007424195183999836
1772709133467155500,0.200155517578125,0.026705051574110985,-0.008579466166347265,-0.00634819998294115
1772709133477180200,0.21018017578125,0.01635901412665844,0.006236446704156696,0.030005700554698703
1772709133487205400,0.220205322265625,0.03966799352169036,0.020013591111451387,0.007083674650639295
1772709133497230300,0.230230224609375,0.04654430903196335,0.0036020065473392603,-0.015115005414932966
1772709133507255300,0.24025537109375,0.021862287718057632,-0.001986936033517122,-0.014229491284675896
1772709133517280300,0.2502802734375,0.00928746830523014,0.013286840139701961,-0.012398768726177513
1772709133527305500,0.260305419921875,0.001939443629980087,-0.002464892276190221,0.002739288770779967
1772709133537330400,0.270330322265625,0.033359833288192746,-0.013098770221695304,-0.00011365297492593526
1772709133547355400,0.28035546875,0.03979951094686985,-0.009732399061135948,-0.014377813714183866
1772709133557380400,0.29038037109375,0.026206454402208326,-0.007693732840381562,-0.018399397380463776
1772709133567405600,0.300405517578125,0.031574703437089915,-0.007537555897980928,-0.00164363902118057
1772709133577430300,0.31043017578125,0.019138415712118148,-0.009190072345361113,0.008260938269086181
1772709133587455200,0.320455322265625,0.031094810965657232,0.001500431158207357,-0.008023183990456163
1772709133597480200,0.330480224609375,0.02596095520853996,0.009071122140809892,-0.01782262040581554
1772709133607505400,0.34050537109375,0.017612229058146477,0.015172398157976566,-0.003534786530025303
1772709133617530400,0.3505302734375,0.030818916633725164,-0.003895473068580031,-0.0031421704832464456
1772709133627555300,0.360555419921875,0.042052842831611634,-0.013452113704010843,0.005930412962287664
1772709133637580300,0.370580322265625,0.04803834698200225,0.006657229399494827,0.002457878013513982
1772709133647605500,0.38060546875,0.00992751977443695,0.003540631748922169,-0.013402977332659065
1772709133657630500,0.39063037109375,0.006256137785315513,-0.005664053643681109,0.042589835785143075
1772709133667655400,0.400655517578125,0.038109073641896245,-0.0067646352967247365,0.0329895386710763
1772709133677680000,0.41068017578125,0.03192132491767406,-0.012910408042743802,-0.014724215999059377
1772709133687705300,0.420705322265625,0.020102292308211325,0.020103899743407965,-0.04922083476483822
1772709133697730300,0.430730224609375,0.018509470158815385,0.016754187456704674,-0.04503635215442627
1772709133707755300,0.44075537109375,0.03366027753949165,0.009496727141737937,-0.022650698149390518
1772709133717780200,0.4507802734375,0.036950551256537435,-0.020909480505250395,0.0021864406609907747
1772709133727805400,0.460805419921875,0.01705050352215767,-0.008268683184124529,-0.02132533129714429
1772709133737830400,0.470830322265625,0.006916062998771667,0.012162293089181184,-0.011191731023974716
1772709133747855400,0.48085546875,0.0355447761118412,0.018530622544698415,0.017675832346267996
1772709133757880600,0.490880615234375,0.041995559686422344,0.009872063260152936,0.025836050187237558
1772709133767905500,0.500905517578125,0.037513445836305614,-0.00009217179547995328,0.011626615309901535
1772709133777930200,0.51093017578125,0.016142156505584714,-0.006080379359610378,0.000918722280114889
1772709133787955200,0.520955078125,0.019903554865717887,-0.010670154835283756,0.02180646587759256
1772709133797980400,0.53098046875,0.03832359317541122,-0.005728095323219895,0.022513481635786592
1772709133808005400,0.54100537109375,0.03713409112989902,-0.012615699412487446,-0.004004815194569528
1772709133818030300,0.5510302734375,0.017851298511028287,-0.001153517416678369,-0.005947473694942891
1772709133828055300,0.56105517578125,0.026557167536020276,-0.0023469284523278473,-0.004604388522915542
1772709133838080500,0.57108056640625,0.016104747104644775,-0.01696479800008237,0.007402860135026276
1772709133848105500,0.58110546875,0.02195171956717968,-0.02011811093185097,0.002836940458975732
1772709133858130400,0.59113037109375,0.024062428110837936,-0.009117080174386501,0.007141651915572584
1772709133868155100,0.601155029296875,0.02605330966711044,0.005413147622533142,-0.003663344813138246
1772709133878180400,0.611180419921875,0.03312894714176655,0.004419022018648684,-0.0075322952009737485
1772709133888205300,0.621205322265625,0.02508008072078228,0.010129179826378822,-0.0008618044611066579
1772709133898230300,0.631230224609375,0.021945874348282813,0.008486454120650888,-0.0032192177748307585
1772709133908255200,0.641255126953125,0.029430677145719526,-0.009076857761852443,0.007478007730469107
1772709133918280400,0.651280517578125,0.032767712613940236,-0.0019761589111760257,0.004578998353332281
1772709133928305400,0.661305419921875,0.02068681419789791,-0.005142696650698781,-0.009607822833396494
1772709133938330400,0.671330322265625,0.025357728618383406,-0.003870594355650246,0.0009274535758420824
1772709133948355300,0.681355224609375,0.021460136657953263,-0.013998385942541061,-0.0006984305929392576
1772709133958380500,0.691380615234375,0.025484569868445394,-0.011009725520573556,0.007557831501029432
1772709133968405200,0.7014052734375,0.021277765828371046,-0.00738156161867082,0.0068191419629380105
1772709133978430200,0.71143017578125,0.030249592313170433,-0.02334145689252764,0.019638035797327754
1772709133988455200,0.721455078125,0.02608604289293289,-0.0027497370995581147,0.012855170724168419
1772709133998480400,0.73148046875,0.03776654381453991,0.010008987512812017,0.005287037024833262
1772709134008505300,0.74150537109375,0.018325930285453797,-0.008448569795675575,-0.014012925924547016
1772709134018530300,0.7515302734375,0.01895136870741844,-0.007717186781205237,0.0033966567009687423
1772709134028555500,0.761555419921875,0.02512625795006752,0.006741181355901062,0.015787169055454433
1772709134038580200,0.771580322265625,0.029193945780396458,-0.006849281372874974,0.004222841859422624
1772709134048605200,0.781605224609375,0.04162672637403011,0.0011950184708461164,-0.0007283142745494843
1772709134058630100,0.791630126953125,0.02118658041357994,-0.009088511667028069,-0.010048954197019337
1772709134068655400,0.8016552734375,0.016869301736354828,0.012700272423401474,-0.0032448636727407574
1772709134078680300,0.811680419921875,0.01237140579521656,0.009614362172037363,-0.0010869184538722038
1772709134088705300,0.821705322265625,0.024344752183556556,0.0003340177273377776,0.017935652326233682
1772709134098730000,0.83172998046875,0.03214052062630653,-0.0028374153830111027,0.0029262627102434632
1772709134108755200,0.841755126953125,0.035437808606028555,0.007844137629121542,0.004064363362081349
1772709134118780200,0.8517802734375,0.026027006182074545,0.011582082048431037,-0.008849442214146255
1772709134128805000,0.86180517578125,0.01960018800497055,-0.008134389279969036,-0.00016647914070636033
1772709134138830000,0.871830078125,0.022152795097231864,0.0014967778963968156,-0.006804638513550162
1772709134148855300,0.881855224609375,0.027669512692093848,-0.003925356750190258,-0.016242730803228914
1772709134158880300,0.89188037109375,0.02556757197678089,-0.008679675137810408,-0.005253500081412494
1772709134168905200,0.9019052734375,0.031124621582031248,-0.009224851397797464,0.000777121852338314
1772709134178930200,0.91193017578125,0.023943185645341872,-0.018238909589126703,-0.000052095513418316835
1772709134188955400,0.921955322265625,0.04157996462285518,-0.016425686154700813,-0.003639196752570569
1772709134198980000,0.93197998046875,0.03002045973241329,0.0022054376224055886,-0.011820749642513692
1772709134209005000,0.942005126953125,-0.001681084954738617,0.0028047186898067593,-0.014399733285047112
1772709134219030000,0.952030029296875,0.002500584644079208,-0.010032003062218428,-0.005536518273875117
1772709134229055200,0.96205517578125,0.03957914619445801,0.014172792661376298,-0.0013577347518876194
1772709134239080200,0.972080078125,0.035977906832098956,0.019838344142399728,-0.013582425552792847
1772709134249105200,0.982105224609375,-0.005584522134065628,-0.029301497808098792,0.02868891886770725
1772709134259130000,0.992130126953125,0.014950900894403457,-0.029910569617152213,0.03774601248316466
1772709134269155300,1.0021552734375,0.046647184884548186,-0.0201082105923444,0.045216823287867004
1772709134279180300,1.01218017578125,0.06350538070499896,-0.0026904081277549265,0.008980923106707632
1772709134289205000,1.022205078125,0.03596855448186397,0.04113101527895778,-0.03316116891093552
1772709134299230200,1.032230224609375,0.021488193708658218,0.01060801285188645,-0.014136406173743307
1772709134309255200,1.042255126953125,0.00863221926689148,-0.0009681143797934054,-0.0005514964029192924
1772709134319280000,1.052280029296875,0.01773965483009815,-0.020288425997458396,-0.008010068780556321
1772709134329305000,1.06230517578125,0.03599661153256893,-0.03246061942614615,-0.019224851886555552
1772709134339330300,1.072330322265625,0.035549452286958695,-0.017505699943751094,-0.010587846846692263
1772709134349355300,1.082355224609375,0.03434942884743213,-0.0022451851109042765,0.0025261574767529963
1772709134359380200,1.092380126953125,0.013235913670063017,0.01929229109957814,0.0026214345447719096
1772709134369405200,1.1024052734375,0.029360534518957135,0.00532280245795846,-0.0036098975928500294
1772709134379430400,1.112430419921875,0.023811083698272704,0.006831197726912796,-0.006366575889848172
1772709134389455000,1.122455078125,0.02589139710366726,0.013695640136301517,0.0008236644078046083
1772709134399480000,1.13247998046875,0.04280103085041046,0.01698036089539528,0.007230718438513577
1772709134409505000,1.142505126953125,0.020071312648057938,0.006246566239371896,-0.014553389476798474
1772709134419530200,1.1525302734375,0.026810850036144255,0.012706957892514765,0.0044980055389925834
1772709134429555200,1.16255517578125,0.020662264278531073,-0.011578538384474812,-0.0016944924255833029
1772709134439580200,1.172580078125,0.02167816332280636,-0.007648322796076535,-0.005662811534665525
1772709134449605000,1.182605224609375,0.014922843843698502,0.001019296577759087,0.011170688235945999
1772709134459630300,1.19263037109375,0.01804828238785267,-0.010106785331480204,0.01008150475975126
1772709134469655300,1.2026552734375,0.029403204616904256,0.007840484367311001,0.0016674948208034038
1772709134479680300,1.21268017578125,0.034767361998558045,-0.0065492755129933355,0.014523688458278774
1772709134489705000,1.222705078125,0.029059505745768547,-0.015340740462206303,0.00039911885280162094
1772709134499730200,1.232730224609375,0.0320417364269495,-0.008945303804054856,0.002223082876950502
1772709134509755100,1.242755126953125,0.019191607204079628,-0.010871449561044574,0.008271569260954856
1772709134519780000,1.252780029296875,0.023235914158821105,-0.008781089685671031,-0.004257803574949503
1772709134529805000,1.26280517578125,0.026685762351751324,-0.01865870590377599,-0.003764065241254866
1772709134539830300,1.272830322265625,0.022516952234506605,-0.003300685513205826,0.005458886460401118
1772709134549855200,1.282855224609375,0.01801028846502304,-0.0028554990289732813,0.008329181199707091
1772709134559880200,1.292880126953125,0.02430266660749912,0.0015758344819769262,0.008223090476728975
1772709134569905400,1.302905517578125,0.035981998485326766,0.011109094241820276,-0.0005726853214204311
1772709134579930400,1.312930419921875,0.03105038730204105,0.005242503763362765,-0.004249108811840415
1772709134589955000,1.322955078125,0.019538813206553457,0.0006363982073962688,0.020665661812014877
1772709134599980000,1.33297998046875,0.02701718626320362,0.0005758271265774965,0.010589454281888901
1772709134610005200,1.343005126953125,0.030625439888238903,-0.006142119484208524,0.01014375634100288
1772709134620030200,1.3530302734375,0.03243336609303951,-0.015241627469286322,-0.0166794051874429
1772709134630055200,1.36305517578125,0.03917816417813301,-0.003127374772913754,0.0010689078731462359
1772709134640080100,1.373080078125,0.028853754040598867,-0.01359791538286954,-0.0008784633349627255
1772709134650105300,1.383105224609375,0.027474866902828216,-0.012119148067198693,-0.00442581708561629
1772709134660130300,1.39313037109375,0.023262802165746686,-0.01362714147735387,-0.011883987604454159
1772709134670155300,1.4031552734375,0.03165478293597698,-0.011326865178346633,-0.012659575086832046
1772709134680180000,1.413179931640625,0.029409634357690808,-0.008573109490796923,-0.0071125719515606756
1772709134690205200,1.423205078125,0.018341127854585648,-0.009147475312650203,-0.008243877536430954
1772709134700230100,1.433230224609375,0.016685177341103554,-0.008721176191978156,-0.007771364653855562
1772709134710255000,1.443255126953125,0.0404769718170166,0.009224559136852621,0.007344115685112774
1772709134720280000,1.453280029296875,0.0220814834266901,0.004919811147637665,-0.0002988733487203717
1772709134730305300,1.46330517578125,0.03659223933815956,-0.018611140435002744,0.00652041474469006
1772709134740330200,1.473330322265625,0.04645078552961349,0.0027292057681828734,0.01567103186249733
1772709134750355200,1.483355224609375,0.032522797942161556,0.02044931564759463,0.001269983403198421
1772709134760380200,1.493380126953125,0.002760696884989738,0.020525522688962516,0.003412292661517858
1772709134770405400,1.5034052734375,0.005627192232012748,-0.014904906328208744,0.024623605657555163
1772709134780430000,1.51343017578125,0.041675826212763785,-0.01647500518914312,0.02266286351121962
1772709134790455000,1.523455078125,0.03834229787588119,-0.004976546303555369,-0.004535086146369576
1772709134800480000,1.53347998046875,0.010649404308199882,0.0066539779964834445,-0.015363865609467028
1772709134810505200,1.543505126953125,0.01262801090478897,-0.004065240144915878,-0.01108238889798522
1772709134820530200,1.5535302734375,0.03626081542670727,-0.0020987258449196816,0.0036318536963313814
1772709134830555100,1.56355517578125,0.047422260910272594,0.0016298296915367245,-0.008398812369816004
1772709134840580400,1.573580322265625,0.0306213482350111,0.012604082039929927,-0.01517309227772057
1772709134850605300,1.583605224609375,0.03216097889244556,0.0186121998809278,0.010254742434807122
1772709134860630300,1.59363037109375,0.026653613647818562,0.027877091028168797,0.014972491671703754
1772709134870655200,1.6036552734375,0.016917232531309126,0.007766140489466488,-0.0021884499549865723
1772709134880680200,1.61368017578125,0.031714404168725015,0.008797127505019306,-0.0016094079580157995
1772709134890705200,1.623705078125,0.027376082703471184,0.0019274974638596176,0.012688947311788797
1772709134900730000,1.633730224609375,0.021238602861762046,0.0036682401839643716,0.015295330417901277
1772709134910755000,1.643755126953125,0.02107026055753231,-0.00014890695139765738,0.007836356181465089
1772709134920780300,1.6537802734375,0.04032791873514652,-0.006183364810049534,0.0032250629937276244
1772709134930805200,1.66380517578125,0.045540100425481796,-0.02224175202231854,-0.0007977993141859769
1772709134940830200,1.673830322265625,0.01871522186398506,-0.009778430159948765,0.021257563290558754
1772709134950855200,1.683855224609375,0.023316578179597855,-0.002442497781291604,-0.001727883238531649
1772709134960880400,1.69388037109375,0.020141455274820325,-0.004540127647668123,0.0028182357585057613
1772709134970905300,1.7039052734375,0.019994155758619306,0.003358626245521009,-0.003131722154468298
1772709134980930000,1.713929931640625,0.04004734822809696,-0.004416209007054567,-0.010888875619880854
1772709134990955000,1.723955078125,0.031954058143496514,-0.0075805547894909975,0.008631707810238004
1772709135000980200,1.733980224609375,0.030159575942158696,0.0039016470810398457,-0.0020010741567239162
1772709135011005200,1.744005126953125,0.013119593814015387,-0.008754457407072185,-0.0043638577653095124
1772709135021030100,1.754030029296875,0.031097733575105667,-0.010290763596259057,-0.002852466821670532
1772709135031055000,1.76405517578125,0.039620647248625754,-0.006784362910501659,-0.006022657823003828
1772709135041080000,1.774080078125,0.023158172747492788,0.00477295002285391,0.006505144110321998
1772709135051105000,1.78410498046875,0.018958967491984367,0.0019126286882907152,-0.0046498350998386735
1772709135061130000,1.7941298828125,0.022827333357930184,-0.01264083385374397,-0.006521620321087539
1772709135071155000,1.804155029296875,0.027461422899365425,-0.013271679103188216,-0.0073396952383220195
1772709135081180200,1.81418017578125,0.03313011618554592,-0.003477320721745491,-0.0035075697295367716
1772709135091205000,1.824205078125,0.02325871051251888,-0.006001432371884584,0.002319455923512578
1772709135101230000,1.83422998046875,0.03687982410788536,-0.0012741481216624378,0.00438895567394793
1772709135111255300,1.84425537109375,0.034330139625072476,-0.0035386224549263713,-0.00138440356310457
1772709135121280000,1.854280029296875,0.03342062356472015,-0.02057630302812904,0.003512136306799948
1772709135131305000,1.864304931640625,0.013353402569890021,-0.0034210239572450515,0.0012992460303008556
1772709135141330000,1.874329833984375,0.027870588222146032,-0.012531893586553633,0.002337137710675597
1772709135151355100,1.884355224609375,0.03220423351228237,-0.0024462971735745667,-0.004497603680193424
1772709135161380000,1.894380126953125,0.029643443113565444,0.003329107890091836,-0.00042187867388129234
1772709135171405000,1.904405029296875,0.01693009201288223,-0.002861782639287412,-0.005949482988938689
1772709135181430000,1.914429931640625,0.021865210327506063,-0.002603387431427836,0.0007951689656823873
1772709135191455200,1.924455322265625,0.008829203143715858,-0.010462174640409648,0.006050495678000152
1772709135201480200,1.934480224609375,0.03786123636066913,0.0006037380468100309,-0.0051531449794769285
1772709135211505200,1.944505126953125,0.033217794468998904,0.0006826850345358252,-0.016223149319924413
1772709135221529900,1.95452978515625,0.02350362518429756,-0.007230645373277366,-0.005486505119688808
1772709135231555000,1.96455517578125,0.027983400946855544,-0.0022357962280511855,0.00012863134834915397
1772709135241580000,1.974580078125,0.03439735964238643,-0.0020772446654736994,0.0008072247296571731
1772709135251605000,1.98460498046875,0.025848727005720138,-0.00793108526021242,0.0010286489279940723
1772709135261630000,1.9946298828125,0.018810498932003972,-0.011733802011422812,0.0034623423483222723
1772709135271655200,2.0046552734375,0.03318447672128677,-0.01723798891827464,-0.001106901795975864
1772709135281680100,2.01468017578125,0.036464229044318196,0.007573430928960442,0.00036463206131011247
1772709135291705000,2.024705078125,0.021637246790528294,0.026281711595505474,-0.00034749826341867447
1772709135301730000,2.03472998046875,-0.0016787468671798705,0.004271941698156297,0.009967851784825324
1772709135311755300,2.04475537109375,0.014325462472438811,-0.016185886049456893,0.02876870610564947
1772709135321780000,2.054780029296875,0.04002279830873012,-0.01546330739594996,0.005799114732816815
1772709135331805000,2.064804931640625,0.033410102170705794,0.0035066564140841363,-0.029455555858649313
1772709135341830000,2.074829833984375,0.016813187634944916,0.006320617856271565,-0.04284150899127125
1772709135351855000,2.084855224609375,0.024754502028226853,-0.003237374486029148,-0.010614625255763531
1772709135361880000,2.094880126953125,0.030693244427442548,-0.01686758470330387,0.00023947131168097256
1772709135371905000,2.104905029296875,0.01655073730647564,-0.009669234164431691,0.004761076921969652
1772709135381930200,2.11493017578125,0.0068085109710693354,0.015813983997143805,-0.023756321303732692
1772709135391955200,2.124955078125,0.019859131202101706,0.02638403945881873,-0.004531907808594406
1772709135401980200,2.134980224609375,0.02944704375863075,0.01683824901096523,0.014174655824899672
1772709135412004900,2.1450048828125,0.042738487008214,-0.011778737131692469,0.006569916442222893
1772709135422030000,2.155030029296875,0.027738486275076864,-0.01890552027169615,0.010257993837818502
1772709135432055000,2.165054931640625,0.025176526832580565,-0.011105879371427,-0.008640914030000568
1772709135442080000,2.175080078125,0.02651742004752159,0.0156836721483618,-0.0032460327165201304
1772709135452105000,2.18510498046875,0.009893617504835129,-0.011380495061725377,0.000501483248732984
1772709135462130200,2.195130126953125,0.022875848674774168,-0.014003317845985292,-0.005456109981425106
1772709135472155100,2.205155029296875,0.04047872538268566,0.0029651334159076213,-0.001350683956593275
1772709135482180000,2.21518017578125,0.03161737353503704,-0.0016084215773269532,-0.0018987097607925532
1772709135492205000,2.225205078125,0.028920974057912826,0.005630260971933603,-0.009458769751526415
1772709135502230300,2.235230224609375,0.017405308309197426,0.008196750459074973,-0.007040200835093855
1772709135512255000,2.2452548828125,0.022480711877346037,-0.00008808014225214719,-0.0012650880323722957
1772709135522280000,2.255280029296875,0.028424714973568913,-0.0024688012663275,0.018911365490593014
1772709135532305000,2.265304931640625,0.031259061616659166,-0.006343523807823658,-0.003976502415537834
1772709135542330000,2.275330078125,0.020029227072000503,-0.005729921954125166,0.0025206775840371847
1772709135552355000,2.28535498046875,0.016710896304249764,0.003053432753868401,-0.000493665268458426
1772709135562380000,2.295380126953125,0.03643967912495136,-0.00394285587426275,-0.0016638415589928625
1772709135572405000,2.305405029296875,0.03821194949448108,0.021496230884641407,-0.00812138366792351
1772709135582430200,2.31543017578125,0.023980010524392126,0.00885905029270798,0.004364076961018145
1772709135592455200,2.325455078125,0.019036124381422995,0.0002430880408734083,-0.003258599937148392
1772709135602480000,2.335480224609375,0.028766660279035565,-0.006990662604942918,-0.012952530151419341
1772709135612504800,2.3455048828125,0.031899113085865974,-0.0010578750224784015,-0.008679784735664725
1772709135622530000,2.355530029296875,0.011110592079162597,0.007407572842761874,-0.0075859981495887034
1772709135632555000,2.365554931640625,0.03430208257436752,-0.00112962508443743,0.016172405513375995
1772709135642580000,2.375580078125,0.027257424759864805,0.0024706278972327707,0.014898988044075667
1772709135652605200,2.385605224609375,0.0323117855399847,0.0019603037549182772,0.008055661487951874
1772709135662630100,2.395630126953125,0.017352701339125632,0.01634578931890428,-0.0027458281094208357
1772709135672655000,2.405655029296875,0.035466450178623196,0.008084376125782727,-0.007028766125626862
1772709135682680000,2.41568017578125,0.027846622824668883,-0.0010213058717548846,0.003706489835120737
1772709135692705300,2.425705322265625,0.02440028176307678,0.004035392995923757,-0.005943856965750455
1772709135702730200,2.435730224609375,0.018863105902075766,0.004404153243079781,0.0018782514946535228
1772709135712755000,2.4457548828125,0.024880174234509465,0.00001198269873857498,-0.013751498509384692
1772709135722780000,2.45577978515625,0.030738837134838104,0.01789385901112109,-0.022885164492391048
1772709135732805000,2.46580517578125,0.03240589356422424,-0.0008117547743022441,-0.0073412296082824464
1772709135742830000,2.475830078125,0.015057283878326415,0.0009998612249270081,-0.000528736581839621
1772709135752855000,2.48585498046875,0.021812603357434273,0.009296857188083232,-0.004024287080019712
1772709135762880000,2.4958798828125,0.027086744368076322,-0.0017397928720340131,-0.010125891890749335
1772709135772905200,2.5059052734375,0.029357027387619018,-0.0012640285864472388,0.00020520371589809655
1772709135782930200,2.51593017578125,0.004545242214202881,0.002684234115295112,0.015616232935339211
1772709135792955100,2.525955078125,0.03478255956768989,-0.012757774764299392,0.0082448639171198
1772709135802979800,2.535979736328125,0.04821253450512886,0.0004717091649770736,0.0034454277461394667
1772709135813005000,2.546005126953125,0.021300562182068824,0.01990242235455662,-0.0010462576499208807
1772709135823030000,2.556030029296875,-0.0094721772223711,-0.0037881402365863323,0.008199161611869931
1772709135833055000,2.566054931640625,0.03258943343758583,-0.018135741475597024,0.018601422758586703
1772709135843080000,2.576079833984375,0.04527472748756409,-0.016588767761923372,0.006665887629985809
1772709135853105200,2.586105224609375,0.040623102289438245,-0.00036244010422378776,-0.023459712977334856
1772709135863130000,2.596130126953125,0.019421324306726453,0.001496376037597656,-0.023678031903132796
1772709135873155000,2.606155029296875,0.03698386900424957,-0.00289356601703912,0.000527677135914564
1772709135883180000,2.616179931640625,0.030692659905552862,-0.019661380140297113,0.009121500621177255
1772709135893205200,2.626205322265625,0.016294716718792915,-0.004186491904407739,-0.004058372012712061
1772709135903230000,2.63622998046875,0.022764789515733717,0.019176080841384828,-0.020286599366553127
1772709135913255000,2.6462548828125,0.04333060768246651,0.020022760798595843,-0.007181216740980744
1772709135923280100,2.656280029296875,0.034840427234768864,-0.0016187603082507848,0.01924468909818679
1772709135933305000,2.66630517578125,0.029300913286209106,-0.014437142685987054,0.015311806628666817
1772709135943330000,2.676330078125,0.019422493350505828,-0.005763020506128668,-0.0002673456992954016
1772709135953355000,2.68635498046875,0.0025339023917913435,-0.0012161708567291498,0.0017886735150590537
1772709135963380200,2.696380126953125,0.025321488261222838,0.000034377193637192245,0.013000899337790906
1772709135973405200,2.7064052734375,0.036842414706945416,0.0003967807652428746,-0.006321421573869884
1772709135983430100,2.71643017578125,0.04324643653035164,0.005535860686749219,-0.007210954292118549
1772709135993455000,2.726455078125,0.012846037569642066,0.0014550211139023304,0.006533091563172638
1772709136003480000,2.73647998046875,0.01825344957113266,0.015965155970864,0.0068889557961374515
1772709136013505000,2.746505126953125,0.02516249830722809,0.002150419499538839,0.003923128260485828
1772709136023530000,2.756530029296875,0.02413724691271782,-0.002013897105678916,0.005425897506251931
1772709136033555000,2.766554931640625,0.03014028671979904,-0.008572086577489972,-0.0033712299987673756
1772709136043580400,2.776580322265625,0.02850771708190441,-0.0177892661254853,-0.002366875261813402
1772709136053605000,2.786605224609375,0.025963293296098706,0.004048069814406335,0.0103518096011132
1772709136063630000,2.796630126953125,0.02925532057881355,0.005975457680411637,0.006729235189780592
1772709136073655000,2.806655029296875,0.03615560148656368,-0.0009467793308198452,0.0016658508529886601
1772709136083680300,2.81668017578125,0.029572715964913367,0.011880517005734144,0.00521985354013741
1772709136093705200,2.826705322265625,0.018060557347536085,0.005707965850643813,0.007587861313112079
1772709136103730200,2.836730224609375,0.017785247537493706,0.009822123171202839,-0.007944419665820896
1772709136113755100,2.846755126953125,0.01661386567056179,-0.010584778106771409,-0.008573328686505555
1772709136123780400,2.8567802734375,0.01814355945587158,-0.006368658249080181,0.0004545388344675302
1772709136133805300,2.866805419921875,0.02683423091173172,-0.004962298582494259,-0.00036233050636947154
1772709136143830300,2.876830322265625,0.02804068409204483,-0.005607281955145299,0.009044745590537785
1772709136153855000,2.88685498046875,0.02191898634135723,-0.00863762609437108,0.010820084699988365
1772709136163880200,2.896880126953125,0.012193126618862151,-0.007404723298549651,0.009705291858501731
1772709136173905200,2.9069052734375,0.028053543573617935,-0.01515763898026198,0.0038641646148636936
1772709136183930000,2.91693017578125,0.031933015355467796,-0.011077712722867727,-0.0035160818295553323
1772709136193955000,2.926955078125,0.04003974944353103,-0.003340980990976095,0.0019959595901891587
1772709136203980300,2.936980224609375,0.048288522350788114,0.005193988446518779,0.014775690457969903
1772709136214005200,2.947005126953125,0.034222587597370145,-0.012458499556779861,0.0016005305318161844
1772709136224030200,2.9570302734375,0.019120295533537862,-0.0022848230015486476,-0.005568813108280301
1772709136234055200,2.96705517578125,0.0330523747742176,-0.006170761056803167,0.004644720533303916
1772709136244080400,2.977080322265625,0.030366496691107747,-0.00979479677285999,-0.0033974604185670614
1772709136254105000,2.98710498046875,0.021989713490009305,0.006064560735970735,-0.0013818097472190856
1772709136264130000,2.997130126953125,0.022146365356445312,0.020179047338850797,-0.02018251793757081
1772709136274155300,3.0071552734375,0.018713468298316,0.024217837868258357,-0.016087649839371443
1772709136284180200,3.01718017578125,0.028754969841241835,0.007769903349131345,0.007211173487827181
1772709136294205200,3.027205078125,0.022940146082639692,-0.002450790685601532,0.008266308563947677
1772709136304230100,3.037230224609375,0.029831074640154838,-0.015204327666200697,0.005807809495925903
1772709136314255400,3.04725537109375,0.0444984824180603,-0.023934089023433625,-0.00024520693272352215
1772709136324280300,3.0572802734375,0.05227086998522281,0.0018366773752495646,-0.009333535936661063
1772709136334305300,3.06730517578125,0.017697569254040715,0.01235587943252176,-0.011519757401943206
1772709136344330000,3.077330078125,-0.0074514850497245785,0.006314334245957434,-0.00669836512748152
1772709136354355200,3.087355224609375,0.01676642588376999,-0.02188329397346824,0.011529730806685984
1772709136364380200,3.097380126953125,0.06476853250861167,-0.036923480586521326,0.0016318755181506275
1772709136374405000,3.107405029296875,0.030789690539240834,-0.008888860909081996,-0.01864548109602183
1772709136384430000,3.11743017578125,0.013607085070014,0.00551507362704724,-0.002354161910712719
1772709136394455300,3.127455322265625,0.008994622838497161,0.005289886569045484,0.010188727993890643
1772709136404480300,3.137480224609375,0.024101591077446936,-0.011148330273665488,0.010153912408836185
1772709136414505200,3.147505126953125,0.03739712598025799,-0.0011027370775118469,-0.003932845936901867
1772709136424530200,3.1575302734375,0.022291326785087585,0.01281662881206721,0.006692483375966549
1772709136434555400,3.167555419921875,0.04355214147865772,0.01928655547853559,0.014503303257375954
1772709136444580000,3.177580078125,0.02576046420037746,0.0150862177118659,0.0003596270926296711
1772709136454605000,3.18760498046875,0.0055693245649337765,0.011398980566486716,0.0007178659457713365
1772709136464630000,3.197630126953125,0.0334141938239336,0.017032712137140332,0.0001096709195524454
1772709136474655200,3.2076552734375,0.0328477921128273,-0.009435023549757898,-0.00980060545913875
1772709136484680200,3.21768017578125,0.027346856608986853,-0.02545538030657917,0.00663841510117054
1772709136494705200,3.227705078125,0.043487844070792196,-0.02167209890820086,0.000752352737262845
1772709136504730000,3.237730224609375,0.024007483053207396,-0.011802373735606669,0.0007317848732694984
1772709136514755300,3.24775537109375,0.007977554750442505,-0.017180851903557778,0.012326361077092587
1772709136524780300,3.2577802734375,0.02410100655555725,-0.007201090485230088,0.00492375667039305
1772709136534805200,3.26780517578125,0.03109013479053974,-0.0026411256259307263,0.011110445948690175
1772709136544830200,3.277830322265625,0.020117489877343176,0.001442928817309439,-0.002068330706655979
1772709136554855200,3.287855224609375,0.00874503199160099,-0.0018082549983635544,-0.020706870605237782
1772709136564880100,3.297880126953125,0.034200960287451745,0.017093831207230688,-0.0031836350047960878
1772709136574905000,3.307905029296875,0.03884440217912197,-0.004308255120553076,-0.0020191943353042004
1772709136584930300,3.317930419921875,0.01834872663915157,0.0014147621687501668,-0.012314707171916961
1772709136594955300,3.327955322265625,0.022118892827630042,0.0009903627442196011,-0.01884228230975568
1772709136604980200,3.337980224609375,0.03469546580612659,0.003341090588830411,-0.013909757811017333
1772709136615005200,3.348005126953125,0.019295652100443837,0.007943871676549315,-0.014061989230662583
1772709136625030400,3.358030517578125,0.013922142368555069,0.005074563317932188,0.002191116836108267
1772709136635055400,3.368055419921875,0.02738017435669899,-0.003948226169124245,0.011533128340169787
1772709136645080000,3.378080078125,0.02705459566414356,-0.004054536087810993,-0.013013649221509695
1772709136655105000,3.38810498046875,0.017352116817235946,-0.02038761205561459,-0.002274813064187765
1772709136665130200,3.398130126953125,0.019291560447216034,0.010039053857512772,-0.0036863238299265503
1772709136675155200,3.4081552734375,0.03544190025925636,0.008891820051148533,-0.0021238602861762047
1772709136685180200,3.41818017578125,0.028556232398748396,-0.007413089268095791,0.02399352759309113
1772709136695205000,3.428205078125,0.04679097726941108,0.0005916092175990343,0.007811842794716358
1772709136705230300,3.438230224609375,0.024658055916428563,-0.012154182847961782,-0.004762976618111133
1772709136715255300,3.44825537109375,0.036632571348547936,-0.008962328004091977,0.02036371972337365
1772709136725280300,3.4582802734375,0.0342202495098114,0.005159282459318637,-0.0001657119557261467
1772709136735305000,3.468304931640625,0.004331891724467277,-0.015659670218266544,0.014661635624244808
1772709136745330200,3.478330078125,0.03291150499880314,-0.02578534291330725,0.005401274521648883
1772709136755355100,3.488355224609375,0.07101297985613346,-0.00923500746563077,0.01658456651084125
1772709136765380000,3.498380126953125,-0.019358195942640304,-0.013645736579969524,-0.0031602175965905186
1772709136775405000,3.508405029296875,0.003398410266637802,-0.0005594970462843775,0.01574859061073512
1772709136785430300,3.51843017578125,0.051582887721061704,0.006991502855159342,-0.00047773704696446655
1772709136795455200,3.528455322265625,0.01523965470790863,-0.011082717691548168,0.013846519849076866
1772709136805480200,3.538480224609375,0.02168459306359291,-0.012031469783745705,-0.003187580527551472
1772709136815505200,3.548505126953125,0.05623977361619472,0.006688282124884426,0.0007803367227315903
1772709136825530400,3.5585302734375,0.01135842936038971,0.0032985300887376067,-0.000795059367828071
1772709136835555000,3.56855517578125,-0.0025327333480119705,-0.013772066373378038,-0.00024699703101068734
1772709136845580000,3.578580078125,0.048776013606786725,-0.01346694594696164,0.003202412770502269
1772709136855605200,3.588605224609375,0.05473521427214145,-0.02565188925936818,0.004452193635888398
1772709136865630200,3.598630126953125,0.032124738535285,-0.014993023003078997,-0.024067908003553747
1772709136875655200,3.6086552734375,0.003999298769235611,0.02462682052794844,-0.01627579282261431
1772709136885680000,3.61868017578125,0.008798223483562469,-0.008769691508822142,0.00021568857729434965
1772709136895705300,3.628705322265625,0.020454759007692336,-0.02532291303332895,0.012830292011238633
1772709136905730300,3.638730224609375,0.053933250239491456,-0.0003042071109637618,0.005678301364742219
1772709136915755300,3.64875537109375,0.022648469659686088,0.004703428450599312,-0.008249978483654559
1772709136925780200,3.6587802734375,-0.005016366857290268,0.014788842200487852,-0.013915274236351251
1772709136935805200,3.66880517578125,0.02012742674946785,-0.0013491861192509531,0.0009070318423211574
1772709136945830100,3.678830078125,0.03401917397975921,-0.022113851326331493,-0.0014718261182308195
1772709136955855000,3.688855224609375,0.02485387074947357,-0.01287427728343755,-0.008010105313174426
1772709136965880000,3.698880126953125,0.03636719841063022,0.015301723626069724,-0.0023708207845687863
1772709136975905300,3.7089052734375,0.030229718568921086,0.02788892759643495,0.015526216564327478
1772709136985930200,3.71893017578125,0.026182489004731177,0.015780118260160087,0.022264438778162
1772709136995955200,3.728955078125,0.033517069676518435,0.011699205622076988,0.011453341102227567
1772709137005980200,3.738980224609375,0.04038812448978424,0.008678579159267246,0.0006670125413686036
1772709137016005400,3.74900537109375,0.029172902992367744,-0.019759799013473092,0.024728527336753903
1772709137026030300,3.7590302734375,0.025576924327015874,-0.019469876156188545,0.0029868337910622356
1772709137036055000,3.769054931640625,0.026008301481604573,-0.01254194005653262,0.0029322175269946454
1772709137046080500,3.77908056640625,0.024501988571882245,-0.00689191493820399,0.012910298444889485
1772709137056105700,3.789105712890625,0.05767068320214748,0.0032765009200200436,0.010934724055603145
1772709137066130700,3.799130615234375,0.035492753663659095,0.008470598964393138,0.01993281749282032
1772709137076155600,3.80915576171875,0.016461889979243277,-0.006564948006160557,0.008807393170706928
1772709137086180600,3.8191806640625,0.020915362256765366,0.014126067442819475,-0.009041603785380721
1772709137096205800,3.829205810546875,0.0525415036201477,0.01151120876930654,0.013581950628757476
1772709137106230500,3.83923046875,0.023536358410120008,-0.04364793000333011,-0.02238601933121681
1772709137116255500,3.84925537109375,0.04172375700771808,-0.03150795834381133,-0.01692490438111126
1772709137126280400,3.859280517578125,-0.011283026036620139,0.02770220938529819,0.022339988232403993
1772709137136305700,3.8693056640625,0.005184709161520004,0.024036416886746882,0.015058087595924734
1772709137146330600,3.87933056640625,0.06550093843638896,0.004033164506219327,-0.02129756650738418
1772709137156355600,3.88935546875,0.055621933978796,-0.024250169235281643,0.0014696706937626003
1772709137166380500,3.899380615234375,0.007407061386108398,-0.03923990430273115,0.011646452521532773
1772709137176405800,3.90940576171875,-0.0005453589230775832,-0.016294314859993754,0.024777882903814313
1772709137186430700,3.9194306640625,0.02264437800645828,0.01476838393434882,-0.006105331137776375
1772709137196455700,3.92945556640625,0.039863808354735374,-0.013273176940530538,-0.030336211150698362
1772709137206480400,3.93948046875,0.060198740375041956,-0.009817446996085345,-0.010484824863635002
1772709137216505600,3.949505615234375,0.0459539419233799,0.010921499247848987,0.030944406176917252
1772709137226530600,3.959530517578125,0.014062427622079848,0.0141201491586864,0.009675006318092346
1772709137236555500,3.969555419921875,0.005243745872378349,0.005161218688078224,-0.011020319979824125
1772709137246580500,3.97958056640625,0.03174713739454746,0.0036196883345022794,0.004644391739740968
1772709137256605700,3.989605712890625,0.04566051193475723,-0.004537789560109377,0.0066343965131789445
1772709137266630700,3.999630615234375,0.030235563787817953,0.002842603014782071,0.013327720139361917
1772709137276655600,4.009655517578125,0.029776714104413984,-0.003492518290877342,0.0023669848596677185
1772709137286680600,4.0196806640625,0.030669863551855085,-0.00412573816049844,-0.0007640431750565767
1772709137296705800,4.029705810546875,0.026174305698275564,-0.0037318069394677877,0.008298457267880439
1772709137306730500,4.03973046875,0.021062661772966385,-0.008611797533370553,0.0014807035444304346
1772709137316755500,4.04975537109375,0.022684710016846656,0.003938508492708206,0.007079802193120122
1772709137326780700,4.05978076171875,0.014299158987402916,-0.005275419652275741,0.0058929304961115115
1772709137336805600,4.0698056640625,0.03135550772845745,-0.005662190480157732,-0.0022687121169641614
1772709137346830600,4.07983056640625,0.030599720925092694,-0.014393120881170033,0.008673829918913543
1772709137356855600,4.08985546875,0.026855273699760436,-0.005592924636229873,-0.006385718981735408
1772709137366880800,4.099880859375,0.02640577636659145,-0.007689714252389967,0.0068799322394654154
1772709137376905700,4.10990576171875,0.05004150349795818,-0.03546049536187201,-0.0019603402875363824
1772709137386930700,4.1199306640625,0.054363458350300785,-0.006544197479076684,-0.0020435250589624044
1772709137396955400,4.129955322265625,0.028152912294864652,0.015351663715019821,-0.009305515418574214
1772709137406980600,4.139980712890625,-0.012530980271100996,0.012708163468912244,0.0020823957646265625
1772709137417005600,4.150005615234375,-0.008019640326499938,-0.030398974188603458,0.02015742002893239
1772709137427030500,4.160030517578125,0.051667058873176575,-0.027467925705388186,0.015011033583804964
1772709137437055500,4.170055419921875,0.05339958175420761,-0.019598726700246333,-0.011052322553284465
1772709137447080700,4.180080810546875,0.02433890696465969,0.008218085508048534,-0.041984124976955355
1772709137457105700,4.190105712890625,0.022861820149421692,-0.00556157964989543,-0.02206182887814939
1772709137467130600,4.200130615234375,0.030628947019577024,0.0014156024189665912,0.011190379317104815
1772709137477155600,4.210155517578125,0.030267712491750715,-0.006178834765404462,0.009261932005174457
1772709137487180800,4.220180908203125,0.014523030871152877,0.006530936138704419,-0.01428407101612538
1772709137497205500,4.23020556640625,0.019029694640636443,0.023842355619370936,0.0012907704629004
1772709137507230500,4.24023046875,0.026979776862263678,0.01558989291768521,0.028329437905550002
1772709137517255400,4.25025537109375,0.05331365703642368,0.0005880290210247039,0.024471885694563388
1772709137527280600,4.26028076171875,0.04251812225580215,-0.013040537228435277,0.010344576142728329
1772709137537305600,4.2703056640625,0.019013912549614907,-0.00416793333441019,0.0060616015939041964
1772709137547330600,4.28033056640625,0.0004524199426174164,-0.01327514970190823,0.005066306946240365
1772709137557355500,4.29035546875,0.01810615005493164,-0.019096476266533137,-0.0015559972703456878
1772709137567380700,4.300380615234375,0.04740881690680981,-0.018264080563001335,0.005219561279192567
1772709137577405700,4.31040576171875,0.05186813440322876,-0.008810279247537255,-0.0009816314484924077
1772709137587430700,4.3204306640625,0.030163667595386502,-0.005223543334566056,0.004479520034231245
1772709137597455600,4.33045556640625,0.029866730475425717,0.006198854640126228,0.007645546317100524
1772709137607480600,4.34048046875,0.01656067417860031,-0.011313823033683001,-0.001397555305622518
1772709137617505500,4.350505615234375,0.02418810031712055,-0.0036880773955956098,-0.011027115046791732
1772709137627530500,4.360530517578125,0.03721300158500671,0.00046571781560778616,-0.007423099205456674
1772709137637555700,4.3705556640625,0.03541910390555859,-0.02348484741859138,0.0023368819823488592
1772709137647580700,4.38058056640625,0.030625439888238903,-0.029856062950938938,-0.004993643568828702
1772709137657605600,4.390605712890625,0.031046880170702933,-0.032262137711979444,0.010619228365644813
1772709137667630600,4.400630615234375,0.0313140066742897,0.0006597060177475214,0.002198752153292298
1772709137677655800,4.41065576171875,0.03426934934854507,0.011967245441116391,-0.01391169403977692
1772709137687680800,4.4206806640625,0.030219197174906728,0.000407557887583971,-0.0027353067154064774
1772709137697705500,4.43070556640625,0.014632336464524269,0.002607807878218591,-0.0028729981530457734
1772709137707730400,4.44073046875,0.0377975234746933,-0.0024404154220595956,-0.0076448887299746275
1772709137717755600,4.450755615234375,0.04662438853085041,0.005102291575074196,-0.0010639029044657944
1772709137727780600,4.460780517578125,0.03332067032158375,0.015635887483879923,0.008724391062371432
1772709137737805600,4.4708056640625,0.028570260924100876,0.009523432485572993,0.004631568790785968
1772709137747830500,4.48083056640625,0.034249475604295726,0.006815488701127469,0.006277545899525285
1772709137757855700,4.490855712890625,0.02373626489639282,-0.0008748100731521845,0.007135185642167925
1772709137767880700,4.500880615234375,0.019085808742046354,0.008957944089919328,-0.006483407202549279
1772709137777905700,4.51090576171875,0.02206803942322731,-0.00550082590598613,-0.014387385260127485
1772709137787930400,4.520930419921875,0.036865211060643194,-0.006134009242989123,0.008557071671448648
1772709137797955600,4.53095556640625,0.030846389162540434,-0.02373301349338144,0.020207396650500593
1772709137807980500,4.54098046875,0.01300268943607807,-0.01921389210112393,0.00787471543047577
1772709137818005500,4.551005615234375,0.029583821880817412,-0.007352773915603757,0.006976305286027491
1772709137828030500,4.561030517578125,0.030608488753437996,-0.003600289514288306,0.016428718362003564
1772709137838055700,4.5710556640625,0.024926351463794707,0.024631387105211615,0.012060586280375719
1772709137848080600,4.58108056640625,0.032850130200386046,0.018137275845557452,0.0006167801914736628
1772709137858105600,4.591105712890625,0.03076689418554306,0.016717326045036316,-0.0050107408341020345
1772709137868129500,4.601129638671875,0.026454291683435438,0.003402867246046662,0.008914908665791154
1772709137878155800,4.61115576171875,0.031605098575353624,-0.010411650029569864,-0.005128120136074722
1772709137888180500,4.621180419921875,0.01579728859066963,-0.011422872898727655,-0.007894698772579431
1772709137898205400,4.631205322265625,0.04261106123626232,-0.0195532801233232,-0.007837415627390145
1772709137908230700,4.641230712890625,0.04741232403814792,-0.012199081435613334,-0.017713168681971727
1772709137918255600,4.651255615234375,0.030360651472210884,0.018806188083067537,-0.01907042850982398
1772709137928279600,4.661279541015625,-0.00790624307990074,0.005869586153142154,0.0031563086064532397
1772709137938305500,4.671305419921875,0.02397942600250244,-0.014715155909769236,0.03400269776899367
1772709137948329700,4.681329833984375,0.04850654901564121,-0.022572554879263042,0.014770795087143778
1772709137958355700,4.691355712890625,0.042220016092061996,-0.00937178558781743,-0.011019552794843911
1772709137968379400,4.70137939453125,0.026696868267655372,0.0009743979901075362,-0.03531644724868238
1772709137978404600,4.711404541015625,0.016574118182063103,0.0017281024342402816,0.0026227497190237045
1772709137988429600,4.7214296875,0.02854863361418247,-0.024942864207178353,0.022555274950899182
1772709137998454500,4.73145458984375,0.034056583380699154,-0.0048141588160768144,0.016055355004966257
1772709138008479500,4.7414794921875,0.005795534536242485,0.015670045481808483,-0.01463240952976048
1772709138018504700,4.751504638671875,0.024712416452169417,0.03641037996523082,0.010644618535228073
1772709138028529700,4.76152978515625,0.024604864424467087,0.008117292014695703,0.021433248651027678
1772709138038554600,4.7715546875,0.03150748341977596,0.0049047962415963405,0.01915726654306054
1772709138048579600,4.78157958984375,0.02732522929906845,-0.002627608557231724,0.01716894227005541
1772709138058604800,4.791604736328125,0.027341011390089986,-0.005877915590070188,0.006801569773629308
1772709138068629800,4.801629638671875,0.009411971467733383,-0.01332793933507055,0.0024864099882543084
1772709138078654700,4.81165478515625,0.019001637589931487,-0.012291801220364868,-0.004601319782994687
1772709138088679700,4.8216796875,0.026768179938197134,-0.010808905718848108,0.006200863934122025
1772709138098704600,4.83170458984375,0.03048398559093475,-0.0019867168378084896,0.01611377066131681
1772709138108729600,4.8417294921875,0.02210544882416725,0.003997289475239813,0.010353015177510678
1772709138118754600,4.851754638671875,0.006852350112795829,0.009750738435424863,-0.006350099679082632
1772709138128779800,4.86177978515625,0.01779167727828026,0.011078699103556572,0.0006835983499884605
1772709138138804700,4.8718046875,0.023797055172920224,-0.0015886208983138203,-0.000049428632296621794
1772709138148829700,4.88182958984375,0.02307750872671604,-0.0029787600824609396,0.005008293148688971
1772709138158854700,4.891854736328125,0.04180208294093608,-0.009989004170708358,-0.010103862722031771
1772709138168879900,4.9018798828125,0.03509995495378971,-0.0037943873142823573,-0.0001581862363964319
1772709138178904800,4.91190478515625,0.02105798559784889,-0.015332666753605007,-0.011348346357792615
1772709138188929800,4.9219296875,0.023905191722512244,-0.0003515168514102697,0.0040344066152349116
1772709138198954500,4.93195458984375,0.015223872616887091,0.002536678870767355,0.014701931102015077
1772709138208979700,4.941979736328125,0.021672902625799177,-0.012810162538662552,-0.0048711131677031515
1772709138219004700,4.952004638671875,0.01780161415040493,-0.02866528226379305,-0.004827639352157712
1772709138229029600,4.962029541015625,0.033676644152402874,-0.019737623714283108,-0.0030722105195745823
1772709138239054600,4.9720546875,0.032035891208052635,0.000573123712837696,-0.00737750649806112
1772709138249079800,4.982079833984375,0.018584288960695267,-0.009380553416162729,-0.017840813649632036
1772709138259104800,4.992104736328125,0.015609657064080237,-0.0033860257091000673,0.005380852788127958
1772709138269129700,5.002129638671875,0.019811200407147407,0.0019525953724980354,0.011674144246056676
1772709138279154700,5.01215478515625,0.022207740154862404,-0.0026047756709158417,0.014482297001965343
1772709138289180000,5.022179931640625,0.02775836001932621,-0.004531652080267667,-0.011645941064879298
1772709138299204600,5.03220458984375,0.03004091799855232,0.0008970949701964855,0.00537040445934981
1772709138309229600,5.0422294921875,0.01899286976158619,0.0049205052673816675,0.01729118041023612
1772709138319254500,5.052254638671875,0.033358079722523686,-0.005215177365019918,0.0005994637304916978
1772709138329279700,5.06227978515625,0.030366496691107747,-0.0013723843317478895,0.0011806246193125844
1772709138339304700,5.0723046875,0.025736498802900312,-0.011124949398078024,0.008842281820997595
1772709138349329700,5.08232958984375,0.02006079125404358,0.007715615878626704,0.004652136654779314
1772709138359354600,5.092354736328125,0.019172902503609656,-0.0006384075013920664,0.008159852514788507
1772709138369379800,5.1023798828125,0.019627076011896134,0.01432626619003713,-0.003243694628961384
1772709138379404800,5.11240478515625,0.018448679882287978,0.0101094522126019,-0.01027951154988259
1772709138389429800,5.1224296875,0.019823475366830826,0.015923399188369512,0.01119790503643453
1772709138399454700,5.132454833984375,0.028682489126920698,-0.00574358515329659,0.0019558102428913113
1772709138409479700,5.142479736328125,0.04560205974578857,-0.0177973763667047,-0.00440448203664273
1772709138419504600,5.152504638671875,0.04081833260059357,-0.0163344642072916,-0.005084938581474125
1772709138429529600,5.162529541015625,0.038107904598116873,0.013572963604703545,-0.01233812458012253
1772709138439554800,5.172554931640625,0.00041793315112590785,0.02618650759272277,0.006077749011106789
1772709138449579800,5.182579833984375,-0.009449380868673325,-0.0115791229063645,0.013033449900522827
1772709138459604700,5.192604736328125,0.03542611816823482,-0.027619061146490275,0.020436090839840472
1772709138469629700,5.202629638671875,0.05603811356425285,0.007176175239682197,0.0099683632414788
1772709138479655000,5.212655029296875,0.03105097182393074,0.017859774078428745,-0.022402093683183192
1772709138489679600,5.2226796875,0.01880465371310711,0.003524813125282526,-0.017056750599853693
1772709138499704600,5.23270458984375,0.012981646648049353,-0.0014206804528832434,-0.004608187915198504
1772709138509729500,5.2427294921875,0.029716508349776266,-0.013800123424082994,0.012531674390845
1772709138519754800,5.252754638671875,0.02146422831118107,-0.008278839251957833,-0.014127492214925586
1772709138529779700,5.26277978515625,0.02402560323178768,0.010079933857172726,-0.009439261333458125
1772709138539804700,5.2728046875,0.031688685205578805,0.01934047762285918,0.015481427574530244
1772709138549829600,5.28282958984375,0.03169277685880661,0.005255801636353135,-0.0018744521023705601
1772709138559854800,5.292854736328125,0.03392038978040218,-0.0030450302517041564,0.004062098339758813
1772709138569879800,5.3028798828125,0.016408698487281798,-0.019458843305520713,0.005339790125377476
1772709138579904800,5.31290478515625,0.02104103446304798,-0.014566650817170738,0.015212291776947676
1772709138590555600,5.3235556640625,0.031226328390836715,-0.016658727725595235,0.014497494571097193
1772709138600580600,5.33358056640625,0.019251812958717345,-0.01982431561704725,0.004677380693890154
1772709138610605800,5.343605712890625,0.02850596351623535,-0.013051168220303952,0.005080664265155792
1772709138620630800,5.353630859375,0.03865793969631195,-0.00463657375946641,0.025865458944812417
1772709138630655700,5.36365576171875,0.028463877940177917,0.016249087478779255,0.01582227690145373
1772709138640680700,5.3736806640625,0.02712181568145752,0.0004801116671413183,0.003884988207183778
1772709138650705700,5.38370556640625,0.036572950115799904,0.007177855740115046,-0.008281506133079528
1772709138660730600,5.393730712890625,0.0374924030482769,-0.000010557926632463932,0.006935681014694273
1772709138670755600,5.403755615234375,0.022698154020309447,-0.0014900193620473146,0.0022071181228384374
1772709138680780500,5.413780517578125,0.022416414469480513,-0.005577142545208334,0.002892506571114063
1772709138690805800,5.4238056640625,0.011961655950546263,-0.0023885756369680165,0.003238433931954205
1772709138700830700,5.433830810546875,0.02185878058671951,0.006964212989434599,-0.01125818385630846
1772709138710855700,5.443855712890625,0.0353179816186428,0.0043419381944462656,0.005330949231795967
1772709138720880600,5.453880615234375,0.030530162820219992,-0.008865589631348848,0.000021225451119244097
1772709138730905900,5.46390576171875,0.024535890841484068,-0.007017660209722817,-0.002163059785403311
1772709138740930800,5.473930908203125,0.041895021921396255,-0.0003464388174936175,-0.010228438949771225
1772709138750955500,5.48395556640625,0.026183073526620863,-0.006555997514724731,0.005212108625099063
1772709138760980500,5.49398046875,0.029331892946362494,-0.0076433543600142,0.0016874416302889584
1772709138771005700,5.504005615234375,0.025887889972329138,0.004153174156695604,-0.001088452823832631
1772709138781030700,5.51403076171875,0.027810966989398,-0.009939867799356579,0.00120510147344321
1772709138791055600,5.5240556640625,0.03692424777150154,-0.014746208635158835,0.010652947972156107
1772709138801080600,5.53408056640625,0.02465045713186264,0.00029047084655612704,0.013613441745564342
1772709138811105800,5.544105712890625,0.015519056171178817,-0.0019953385356813666,0.005404672055132687
1772709138821130800,5.554130859375,0.017305939587950705,0.010108210103586316,0.0015626827394589781
1772709138831155700,5.56415576171875,0.016569442006945607,-0.001816657500527799,0.01281001640819013
1772709138841181000,5.574180908203125,0.03483282845020294,-0.0009921893751248716,-0.0012412687653675675
1772709138851205600,5.58420556640625,0.03034603842496872,-0.002738302390091121,-0.008104615196213126
1772709138861230600,5.594230712890625,0.014191022437810896,-0.006681925449334085,0.014649324131943284
1772709138871255600,5.604255615234375,0.030513796207308767,-0.012822766291908918,0.01351831080801785
1772709138881280800,5.61428076171875,0.01958849756717682,0.003084047087840736,-0.0068143927225843065
1772709138891305700,5.6243056640625,0.02647299638390541,-0.02031443722154945,-0.006198781574890017
1772709138901330700,5.63433056640625,0.037545010018348694,0.008034399504214525,0.012258483472652732
1772709138911355600,5.644355712890625,0.04698153140544891,0.014803564845584332,0.004579729005694389
1772709138921380900,5.654380859375,0.02738017435669899,0.0017161562681198119,0.007528897667489946
1772709138931405800,5.66440576171875,0.03185702750980854,-0.010431560306437312,-0.00040949411634355783
1772709138950829800,5.683829833984375,0.027829087167978286,0.0068030676109716295,-0.002343457853607833
1772709138960854800,5.693854736328125,0.011817863565683364,0.00567797257117927,0.016830211834982036
1772709138970879700,5.703879638671875,0.012145780345797538,-0.008810388845391572,0.01385970812421292
1772709138980904700,5.71390478515625,0.04206804040074348,-0.016372567727975545,0.015220913474820554
1772709138990929700,5.7239296875,0.045775662747025485,0.0030853622620925308,-0.008874722785875202
1772709139000954600,5.73395458984375,0.022131752309203147,-0.0059561319254338736,-0.0020737010015174744
1772709139010979600,5.7439794921875,0.023210195195674896,-0.008701156317256391,0.0006197393335402011
1772709139021004800,5.7540048828125,0.023821605092287063,-0.02289104624390602,0.012784881966933608
1772709139031029800,5.76402978515625,0.024532968232035636,-0.021384002681821584,-0.007510485227964818
1772709139041055200,5.77405517578125,0.032899814561009405,0.00274707021843642,-0.023012407601252196
1772709139051080000,5.784079833984375,0.026046879926323888,0.026530900583602485,0.007037168627791106
1772709139061105000,5.79410498046875,0.021434417694807053,0.021296726257167754,0.019949111040495335
1772709139071130000,5.804130126953125,0.004070025917887687,-0.003835632640123367,0.003470854448340833
1772709139081155000,5.814155029296875,0.03550327505767345,-0.00174483437333256,0.0034719504268839953
1772709139091180000,5.824179931640625,0.03477028460800648,-0.006606449060328304,0.005834149513579905
1772709139101205000,5.834205078125,0.029111528193950652,-0.02208173915501684,0.010377309368550776
1772709139111230200,5.844230224609375,0.032711013990640636,-0.019360716693289575,0.011887677398882806
1772709139121255200,5.854255126953125,0.03253974907696247,-0.015401055814698337,-0.012345138842798769
1772709139131280100,5.864280029296875,0.024130232650041578,-0.023503332923352716,0.01579484090525657
1772709139141305000,5.87430517578125,0.029034371304512023,-0.008052702345885336,0.012631225775182246
1772709139151330000,5.884330078125,0.019735797083377835,0.005618460936285555,0.001955773710273206
1772709139161355000,5.89435498046875,0.031389994519948956,-0.005861220183596015,-0.00538943795338273
1772709139171380000,5.9043798828125,0.020612579917907714,-0.005498560883663594,-0.0051888373473659155
1772709139181405200,5.9144052734375,0.02614449508190155,0.0003771262167021632,0.005626388514414429
1772709139191430100,5.92443017578125,0.020309213057160377,0.0012539821164682507,-0.0064378510277718305
1772709139201455000,5.934455078125,0.023591887989640233,0.008158939199335873,0.00576093814689666
1772709139211480000,5.94447998046875,0.02210720238983631,0.003183781135268509,0.00678315733410418
1772709139221505300,5.95450537109375,0.029881928044557568,-0.007304514327086508,0.010820267363078891
1772709139231530200,5.9645302734375,0.023275077125430105,0.0024140388717874884,-0.019650164626538753
1772709139241555200,5.97455517578125,0.000678045392036438,0.009879698577336966,-0.012206168763525784
1772709139251580000,5.984579833984375,0.01803425386250019,-0.013621478921547532,0.0022850787298753857
1772709139261605000,5.994605224609375,0.03852992940247059,-0.01717683331556618,-0.008752082786895335
1772709139271630000,6.004630126953125,0.025636545559763906,0.0010761413315311073,0.010507073228061199
1772709139281655000,6.014655029296875,0.01962882957756519,0.00340845673661679,0.0041563524944707745
1772709139291680000,6.024679931640625,0.025911855369806287,0.010584741574153303,-0.016463497414439917
1772709139301705200,6.034705322265625,0.020232056167721748,-0.006217559340596199,0.006285436945036053
1772709139311730200,6.044730224609375,0.03098375180661678,-0.013109583876654505,-0.002258665646985173
1772709139321755100,6.054755126953125,0.02422024902105331,0.00037223084587603803,0.0023390374068170783
1772709139331780000,6.064780029296875,0.020785598397254943,-0.0038313217911869284,0.007870879505574703
1772709139341805300,6.074805419921875,0.025869769793748856,0.004809044249542057,0.003449482866749167
1772709139351830000,6.084830078125,0.027368483918905256,-0.010300079413875937,0.006024813247472048
1772709139361855000,6.09485498046875,0.01613280415534973,-0.01809076982270926,-0.0014305442597717045
1772709139371880000,6.1048798828125,0.02268178740739822,-0.01562817910145968,-0.0034248598821461198
1772709139381905200,6.1149052734375,0.02970890956521034,-0.007446041689626872,-0.00006455313619226217
1772709139391930000,6.12493017578125,0.0204214412599802,-0.006489179356209933,0.0036443478517234323
1772709139401955000,6.134955078125,0.030718963390588758,-0.00608235212098807,-0.0026262203177437183
1772709139411980000,6.14497998046875,0.03204699712395668,0.009097644821554422,0.016188187604397535
1772709139422005200,6.155005126953125,0.02738894218504429,-0.001805551584623754,0.006362301573529839
1772709139432030200,6.1650302734375,0.03127425918579101,0.007843662705086171,-0.0042406697770580645
1772709139442055200,6.17505517578125,0.027682956695556638,-0.00861987124197185,0.0030237682679668068
1772709139452080000,6.185080078125,0.021852935367822644,-0.01376607502400875,0.005210903048701584
1772709139462105000,6.19510498046875,0.029482699593901634,-0.02916066456530243,-0.004652648111432791
1772709139472130000,6.205130126953125,0.04009177189171314,-0.015193185217678547,-0.006860314223542809
1772709139482155000,6.215155029296875,0.029140169766545293,0.013965579651482403,-0.007160977670550346
1772709139492180200,6.22518017578125,-0.0013935001850128173,0.020022578135505318,0.006878069075942039
1772709139502205200,6.235205078125,0.0013175123393535614,-0.017000928759388623,0.016833170977048575
1772709139512230100,6.245230224609375,0.04080021242201328,-0.001071574754267931,0.022057116170413792
1772709139522255000,6.255255126953125,0.05437865591943264,0.007151588787697255,-0.0063161974094808095
1772709139532280300,6.2652802734375,0.016802666240930558,0.0031951793121173977,-0.0319593553731218
1772709139542305000,6.275304931640625,-0.008618775263428687,-0.010616488419286906,-0.017176906380802392
1772709139552330000,6.285330078125,0.03567161736190319,-0.014561609315872191,0.01716258559450507
1772709139562355000,6.29535498046875,0.038922728112339974,-0.015355463107302784,0.002397745324112475
1772709139572380200,6.305380126953125,0.01868774933516979,-0.014489676590822636,-0.015310016530379653
1772709139582405000,6.315405029296875,0.01495733063519001,0.016418818022497,-0.005356193270906806
1772709139592430000,6.32543017578125,0.03786123636066913,0.00300320040397346,0.010347791013121605
1772709139602455000,6.335455078125,0.03919979148805141,-0.011879347961954771,0.010230119450204073
1772709139612480300,6.345480224609375,0.03753682671189308,-0.006959756010025739,0.003462050087377429
1772709139622505200,6.355505126953125,0.017034136909246444,0.001435804956778884,0.010287439128011465
1772709139632530200,6.3655302734375,0.02391805120408535,-0.011673011734895407,0.02847512998655438
1772709139642555000,6.375554931640625,0.02255728424489498,-0.013946180831268428,0.0006515957765281201
1772709139652580000,6.385580078125,0.033171617239713666,-0.017713972399570045,0.009496617543883621
1772709139662605000,6.39560498046875,0.027750761234760283,-0.0031376404386013745,0.003313727657869458
1772709139672630000,6.405630126953125,0.03850421043932438,0.002875518903695047,0.003704882399924099
1772709139682655000,6.415655029296875,0.031467735931277274,0.009770392983965575,0.003358626245521009
1772709139692680200,6.42568017578125,0.01934007576406002,0.017945187339559198,-0.003275295343622565
1772709139702705200,6.435705078125,0.01993745713531971,-0.0019038608599454164,0.004520874957926571
1772709139712730000,6.445730224609375,0.02577975342273712,-0.003951514104753732,0.010627630867809056
1772709139722755000,6.455755126953125,0.038487843826413154,-0.009422237133421003,-0.0053759574173018335
1772709139732780300,6.4657802734375,0.04297755646109581,-0.0028145824966952205,0.0034761151453480124
1772709139742805000,6.475804931640625,0.03518529514968395,-0.010690247775241732,0.006902509397454559
1772709139752830000,6.485829833984375,0.0375619611531496,-0.008022562935948371,0.010807152153179048
1772709139762855200,6.495855224609375,0.03918050226569175,0.012973353743739426,0.007517134164460003
1772709139772880100,6.505880126953125,0.018356909945607184,-0.0021165902951732277,-0.0021777458978816866
1772709139782905000,6.515905029296875,0.01445756441950798,-0.008773235172778367,0.006746442052908241
1772709139792930000,6.525929931640625,0.03344341991841793,0.0100642248313874,0.01818089579157531
1772709139802955300,6.535955322265625,0.025936405289173126,-0.0077880600603297346,0.005637640560790896
1772709139812980200,6.545980224609375,0.022633856612443923,0.0043807358348742125,0.009049860157072544
1772709139823005200,6.556005126953125,0.029372809478640554,-0.005701426512002944,0.010407558376342057
1772709139833030100,6.566030029296875,0.027884032225608823,-0.002432268648222089,0.004424209650419652
1772709139843055000,6.57605517578125,0.026826047605276106,0.003171944567002356,0.011593224496953188
1772709139853080000,6.586080078125,0.009916413858532905,-0.004263758391700684,0.012673603612184524
1772709139863105000,6.59610498046875,0.02099485723376274,0.0011447861209511756,0.01327204442936927
1772709139873130000,6.6061298828125,0.0217372000336647,-0.004966207572631538,-0.0032455943251028657
1772709139883155200,6.6161552734375,0.022633272090554237,-0.011939297988265752,0.003786277073062956
1772709139893180200,6.62618017578125,0.03294423822462558,0.00017184943556785583,0.002842968340963125
1772709139903205000,6.636205078125,0.034281039786338806,-0.008462525255791843,-0.00634556963443756
1772709139913230000,6.64622998046875,0.00852934341430664,-0.0089651775483042,-0.0027212051248177885
1772709139923255300,6.65625537109375,0.0371001888602972,0.012365962435118854,-0.005659487066417932
1772709139933280000,6.666280029296875,0.025732407149672506,0.003060520081780851,-0.01943911569174379
1772709139943305000,6.676304931640625,0.02617489022016525,-0.007598382707126438,0.0007703267853707075
1772709139953330000,6.686329833984375,0.037089082944393156,-0.001248502223752439,-0.00959726490676403
1772709139963355100,6.696355224609375,0.02736263870000839,-0.012303418592922388,-0.0032826018672436476
1772709139973380000,6.706380126953125,0.014189853394031523,-0.011035627146810292,0.015270086378790437
1772709139983405000,6.716405029296875,0.03976970033049583,-0.01784969107583165,0.009453107195720076
1772709139993430000,6.726429931640625,0.049771454384922975,-0.007115932952426373,0.0033334187390282747
1772709140003455200,6.736455322265625,0.035514965495467184,0.025678302342258392,-0.0014740546079352497
1772709140013480200,6.746480224609375,-0.013425298762321472,-0.007296659814193845,-0.002182056746818125
1772709140023505200,6.756505126953125,0.015622516545653341,-0.024819822349399327,0.02105783946737647
1772709140033530000,6.766530029296875,0.05044716168940067,-0.030407413223385808,0.019591383644007147
1772709140043554300,6.77655419921875,0.04274959292411804,-0.010635229652374982,-0.008760631419532
1772709140053579000,6.7865791015625,0.023867197799682615,-0.006065510584041476,-0.03012030337769538
1772709140063604200,6.796604248046875,0.023425299251079557,-0.0009513093754649162,-0.017329210865683852
1772709140073629200,6.806629150390625,0.025205168405175206,-0.0007497223887592553,0.016792217912152407
1772709140083654100,6.816654052734375,0.027691724523901937,0.007062924123555421,-0.00639119887445122
1772709140093679000,6.82667919921875,0.01495382350385189,0.026167145305126902,-0.02389050561003387
1772709140103704300,6.836704345703125,0.010339607706665992,0.03064714026339352,0.007874934626184403
1772709140113729300,6.846729248046875,0.03221124777495861,0.017906901155784725,0.010445917625352739
1772709140123754200,6.856754150390625,0.03521276767849922,0.013975699186697601,0.009352715561166404
1772709140133779200,6.866779296875,0.017245733833312987,0.0014697072263807058,0.0016998627204447983
1772709140143804200,6.87680419921875,0.011418050593137741,0.007143880405277013,-0.014831402700580656
1772709140153829000,6.8868291015625,0.0174281046628952,0.010356924167647958,-0.0048738531140610575
1772709140163854000,6.89685400390625,0.03239712573587894,-0.0022238135293126105,-0.0050291898062452675
1772709140173879000,6.906879150390625,0.029845103165507314,-0.018199308231100438,0.0005228548303246498
1772709140183904300,6.916904296875,0.03777589616477489,-0.007970686618238687,0.0020803499380126593
1772709140193929200,6.92692919921875,0.02865677016377449,0.01213175182044506,0.0015543898351490497
1772709140203954200,6.9369541015625,0.021783377262949943,0.0032481150757521387,-0.00014463263507932423
1772709140213979100,6.946979248046875,0.01641863535940647,-0.005536664404347538,-0.013268793026357889
1772709140224004400,6.95700439453125,0.02644844646453857,-0.0066582888454198835,-0.003078822923451662
1772709140234029300,6.967029296875,0.030944004318118095,-0.008556669812649489,0.01298964729141444
1772709140244054000,6.977053955078125,0.034252398213744165,-0.014685235695540904,0.015757760297879574
1772709140254079000,6.987078857421875,0.026353753918409346,0.0011887713931500912,-0.0004945420512929558
1772709140264104200,6.997104248046875,0.03445581183135509,-0.0034578123036772012,0.009308036169223486
1772709140274129200,7.007129150390625,0.039702480313181875,-0.0020442922439426183,0.002894333202019334
1772709140284154000,7.017154052734375,0.025198154142498968,0.013867635702341794,0.0077829089611768714
1772709140294179300,7.027179443359375,0.007269114220142364,0.006691752723604441,0.004730426055379212
1772709140304204300,7.037204345703125,0.011783961296081542,-0.02295585510842502,0.012743417445383966
1772709140314229200,7.047229248046875,0.03140226947963238,-0.013057707558944821,0.003543737021461129
1772709140324254200,7.057254150390625,0.071067924913764,0.00017141104415059087,0.030853841816633937
1772709140334279400,7.067279541015625,0.14256488889455796,-0.018793292068876324,-0.0003195508105680346
1772709140344304000,7.07730419921875,-0.002112462109327316,-0.005597637343965471,-0.032640432972460984
1772709140354329000,7.0873291015625,-0.06780103207230567,0.008192731871083379,-0.045617622641101474
1772709140364354000,7.09735400390625,-0.054010407128930085,-0.007051160620525479,0.04810125615037977
1772709140374379300,7.107379150390625,0.043272155493497846,0.007863719112426042,0.017548004715517162
1772709140384404200,7.117404296875,0.1132961243122816,-0.021408662199042736,-0.007234700493887067
1772709140394429200,7.12742919921875,0.06259177299141884,-0.017861308448389172,-0.02361501313690096
1772709140404454100,7.1374541015625,-0.011011807879805564,0.002814838225021958,0.0025008769050240513
1772709140414479400,7.147479248046875,-0.06798983264267444,0.012352810692600906,0.015870025033317504
1772709140424504300,7.15750439453125,-0.0072188453376293175,-0.010826843234337866,-0.0007774871785193681
1772709140434529300,7.167529296875,0.09963760131597518,-0.014901618392579257,0.0051358650511130685
1772709140444554000,7.177553955078125,0.11611001268923282,-0.011481909609586,-0.004937456402182579
1772709140454579200,7.1875791015625,0.06135492467284202,-0.003803118610009551,-0.001201813537813723
1772709140464604200,7.197604248046875,-0.01030044474005699,0.015976298419386147,-0.013537673095613717
1772709140474629000,7.207629150390625,-0.019113281270861624,0.01530095644108951,0.001170030160062015
1772709140484654000,7.217654052734375,-0.008923311167955398,-0.014179258934780954,-0.00860967864152044
1772709140494679300,7.22767919921875,0.047511108237504956,-0.015230740749090909,-0.004028342200629413
1772709140504704300,7.237704345703125,0.06921732861101627,-0.018571575609594583,0.010802695173770189
1772709140514729200,7.247729248046875,0.0457271474301815,-0.005173091788962483,0.008562149705365299
1772709140524754200,7.257754150390625,0.014899462968111038,0.02267400595974177,0.005952296000532806
1772709140534779100,7.267779052734375,-0.020547697988152504,0.018646394411474466,0.005328209285438061
1772709140544804000,7.27780419921875,-0.0025619594424962995,-0.017801650683023036,0.025197240827046333
1772709140554829000,7.2878291015625,0.048617023652791976,-0.020391521045751867,0.02558276954591274
1772709140564854300,7.297854248046875,0.07192834113538264,-0.010159428834170103,-0.007433730197325348
1772709140574879200,7.307879150390625,0.022677695754170415,0.0015855521583929657,-0.02412204934358597
1772709140584904200,7.317904296875,-0.01082066922187805,-0.01313621615525335,-0.015225772313028574
1772709140594929200,7.32792919921875,0.011043956583738326,-0.021987521532922983,-0.0033641792034730315
1772709140604954400,7.337954345703125,0.02749941682219505,0.0053065454429015516,0.0015460238656029104
1772709140614979300,7.347979248046875,0.016419804403185842,-0.02147613794468343,-0.011391272184066473
1772709140625004300,7.35800439453125,0.02346621578335762,0.002659501532837748,-0.005768463866226375
1772709140635029000,7.368029052734375,0.03185936559736729,0.02154708428904414,0.007850311641581356
1772709140645054200,7.37805419921875,0.0326169059664011,0.0070129475019872186,0.008507058517262338
1772709140655079200,7.3880791015625,0.03263561066687107,0.012817651725374161,0.009744600955583155
1772709140665104100,7.398104248046875,0.04641220708489418,-0.0037938393250107763,0.005270232020504772
1772709140675129000,7.408129150390625,0.033553894555568696,-0.016611965974420308,0.006043919806741177
1772709140685154300,7.418154296875,0.004255903878808021,-0.03913936653770506,-0.01062339308410883
1772709140695179300,7.42817919921875,-0.00933539910018444,-0.00032115824576467276,-0.006193301682174205
1772709140705204200,7.438204345703125,-0.03835691092312336,-0.0010318272657692431,0.011429448769986628
1772709140715229200,7.448229248046875,0.005794365492463111,0.006486549007706344,0.022696656182967127
1772709140725254400,7.45825439453125,0.0801829592615366,0.004190985416434705,-0.0023076924204826353
1772709140735279000,7.468279052734375,0.0638917496740818,-0.006482859213277697,0.0011467954149469732
1772709140745304000,7.478303955078125,0.03622866672277451,-0.014769078054092824,0.0000785816615447402
1772709140755329000,7.4883291015625,-0.02286883441209793,-0.003601239362359047,-0.0060306584663689135
1772709140765354200,7.498354248046875,-0.01687397791147232,-0.005459909373708069,-0.011608677794411777
1772709140775379200,7.508379150390625,0.02490004797875881,-0.0016150705138221382,-0.008900697477348148
1772709140785404200,7.518404052734375,0.06682663408219813,-0.009198146053962408,0.010195559593476355
1772709140795429000,7.52842919921875,0.08254910387098789,-0.01720415971390903,0.022911796770989895
1772709140805454300,7.538454345703125,0.04049976817071438,0.0031143691608682272,0.021337971583008764
1772709140815479300,7.548479248046875,0.07547931161522865,0.08051157016139478,-0.07800093904733657
1772709140825504300,7.558504150390625,-0.0958423006862402,-0.10571264691334217,0.032515016494505104
1772709140835529200,7.568529296875,0.004498480463027954,0.03321154739130288,0.11635529268719255
1772709140845554200,7.57855419921875,0.014877251136302947,0.013754676847159862,-0.15811510738898069
1772709140855579100,7.5885791015625,0.0063052376240491865,-0.060151942091248925,0.0737628265535459
1772709140865603300,7.598603271484375,0.17390169192254543,-0.007858896806836128,0.028262802410125732
1772709140875629300,7.60862939453125,0.11296879205405712,-0.019123218142986297,0.033226635362580415
1772709140885654300,7.618654296875,-0.05719079073071479,-0.033224516470730305,-0.021430326041579247
1772709140895678200,7.62867822265625,-0.1128688388109207,-0.00040810587685555217,-0.03337079307362437
1772709140905703400,7.638703369140625,-0.026047464448213577,0.05140760421939194,0.05319383004903793
1772709140915728100,7.64872802734375,0.05580839646160602,-0.021542846505343913,0.008411598786152899
1772709140925753000,7.658753173828125,0.10490238997638225,-0.056028980409726495,-0.015443214455991982
1772709140935778000,7.668778076171875,0.0805097069978714,-0.0013469210969284176,-0.008243950601667166
1772709140945803300,7.67880322265625,-0.019461656317114828,0.02304342379402369,0.025734270313195882
1772709140955828200,7.688828125,-0.03936813379228115,-0.00994560342039913,0.010923362411372362
1772709140965853200,7.698853271484375,0.02872340565919876,0.0013239055475220084,0.010606222753599286
1772709140975878100,7.708878173828125,0.08513385966718197,-0.01432140735182911,-0.00790832543913275
1772709140985903400,7.7189033203125,0.04875906247198582,-0.012427410298772156,-0.0055136488549411295
1772709140995928300,7.72892822265625,0.00909925225675106,0.001758862898685038,0.008060191532596945
1772709141005953000,7.738953125,0.000720130968093872,0.017715762497857213,0.010248422291874885
1772709141015978000,7.74897802734375,0.020328502279520034,-0.007716127335280179,-0.007214899814873933
1772709141026003200,7.759003173828125,0.04217968408167362,-0.029231464779190718,-0.0014484817752614617
1772709141036028200,7.769028076171875,0.047699908807873725,-0.01623966206330806,0.004983852827176451
1772709141046053600,7.7790537109375,0.037649054914712904,-0.011408734775520861,0.0023306714372709394
1772709141056078600,7.78907861328125,0.020285247659683227,0.002248107720352709,0.005773140041343867
1772709141066103800,7.799103759765625,0.02207096203267574,0.01176909252051264,-0.009726517309620975
1772709141076128800,7.809128662109375,0.013851999741792678,-0.03465137093607336,-0.003050985068455338
1772709141086153500,7.819153564453125,0.05577274062633514,-0.01829348932057619,0.028789931556768712
1772709141096178400,7.829178466796875,0.03135492320656776,-0.005506817255355417,-0.0035122824372723696
1772709141106203600,7.83920361328125,-0.016691607081890106,-0.01213175182044506,-0.014695428295992314
1772709141116228600,7.849228515625,0.01011748938858509,0.006703625824488699,0.013178046002984046
1772709141126253600,7.859253662109375,0.052012511309981344,-0.0007062485732138156,0.003060264353454113
1772709141136278500,7.869278564453125,0.03688742289245128,-0.026398908234387633,-0.010737301787361502
1772709141146303700,7.8793037109375,0.02355330954492092,-0.02301905653774738,-0.007198533201962709
1772709141156328700,7.88932861328125,0.023550386935472487,0.0012060147888958454,0.0034697950024157763
1772709141166353700,7.899353759765625,0.024897709891200066,0.02157057476248592,0.0030294308237731457
1772709141176378400,7.90937841796875,0.00800035110414028,0.016331578130461273,0.0010148761309683322
1772709141186403600,7.919403564453125,0.016554244437813757,0.006547339284233749,-0.004549991454556584
1772709141196428500,7.929428466796875,0.007306523621082306,-0.023421024934761225,0.006533785682916641
1772709141206453500,7.93945361328125,-0.003596563187241554,-0.023098588047362863,0.0065943202311173075
1772709141216478500,7.949478515625,0.05043196412026882,-0.010700440375693142,0.027660525668039917
1772709141226503700,7.959503662109375,0.07512626039385795,-0.006217267079651355,0.017545337834395467
1772709141236528600,7.969528564453125,0.060009355282783505,-0.03519526855442673,-0.003283186389133334
1772709141246553600,7.9795537109375,0.028870705175399778,-0.031413558058626945,0.011576748286187648
1772709141256578600,7.98957861328125,-0.004839256724715232,0.0032177930027246474,0.03278090088907629
1772709141266603800,7.999603759765625,-0.0008358663022518157,0.020864545384980736,0.01719930087570101
1772709141276628500,8.00962841796875,0.0089057755112648,-0.0016383417915552853,-0.022516586908325552
1772709141286653400,8.0196533203125,0.03588146072030067,-0.008004442757368087,-0.027200506940856576
1772709141296678700,8.0296787109375,0.02916296612024307,-0.01096438854150474,0.00922218451667577
1772709141306703600,8.03970361328125,-0.006749474260210991,0.020199761333316562,0.017109613298252224
1772709141316728600,8.049728515625,0.027238135537505148,0.004546192062273621,-0.007457878257893026
1772709141326753500,8.05975341796875,0.0524023874104023,-0.03227035755105317,-0.00180343269277364
1772709141336778800,8.06977880859375,0.07408464238643646,-0.012049626494944095,0.017176979446038604
1772709141346803700,8.0798037109375,0.04546761971116066,0.016114793574623764,0.0014189634198322892
1772709141356828700,8.08982861328125,-0.04249941755533218,-0.034617651329562064,-0.024805501563102007
1772709141366853600,8.099853515625,-0.004634674063324928,-0.01877615827098489,-0.01737644754089415
1772709141376878600,8.109878662109375,0.03724164315760135,-0.005163447177782655,-0.002775236866995692
1772709141386903600,8.119903564453125,0.03888298062384128,-0.013942965960875152,0.00741564655136317
1772709141396928500,8.129928466796875,0.02363572713136673,-0.006586757979169487,-0.032340902036614716
1772709141406953500,8.139953369140626,0.00988835680782795,0.0015756518188863992,-0.011750826211459934
1772709141416978700,8.149978759765625,0.03429273022413253,-0.012355733302049338,0.03306373641844838
1772709141427003600,8.160003662109375,0.07946049020588397,0.019007957732863724,0.020090200011618434
1772709141437028600,8.170028564453125,0.02632043617069721,-0.008498436819389462,-0.013092596209235488
1772709141447053600,8.180053466796876,0.014202712875604628,-0.027619463005289432,0.010117233660258353
1772709141457078800,8.190078857421875,0.030489830809831617,0.0047012364935129876,0.015810367267951368
1772709141467103700,8.200103759765625,-0.002613397368788719,-0.02441573506053537,-0.011746917221322655
1772709141477128400,8.21012841796875,0.016233926442265508,0.00007072714865207672,0.00843476046603173
1772709141487153400,8.2201533203125,0.038514147311449046,0.03350545230396092,0.010382789261266588
1772709141497178600,8.2301787109375,0.02324526650905609,-0.017380867987684904,-0.003967880717664957
1772709141507203600,8.24020361328125,0.029987141984701156,-0.0067442135632038115,-0.007001330129429698
1772709141517228500,8.250228515625,0.01787467938661575,0.03021265783626586,-0.002975070288032293
1772709141527253500,8.26025341796875,-0.007852467066049576,0.016683021916635333,-0.007089227608591318
1772709141537278700,8.27027880859375,0.0039782559812068935,-0.01052186893839389,0.007028510397300123
1772709141547303700,8.2803037109375,0.08059621623754501,0.0007305062316358089,0.012565868921391665
1772709141557328600,8.29032861328125,0.08280980063378811,-0.007367386962845921,0.009280052183754741
1772709141567353600,8.300353515625,0.018299042278528212,-0.017491634885780514,-0.012548662058264017
1772709141577378600,8.310378662109375,-0.0029459903240203855,-0.001343925422243774,-0.0006587196370586752
1772709141587403500,8.320403564453125,0.0030278233885765076,0.007436872002482414,0.0029531507171690462
1772709141597428500,8.330428466796874,0.009289806392788886,-0.022822547584958372,-0.003242160259000957
1772709141607453700,8.34045361328125,0.06569032352864741,-0.006769932526350021,-0.011679149214737117
1772709141617478700,8.350478759765625,0.05582417855262756,0.03295673238001764,0.019961276402324438
1772709141627503600,8.360503662109375,-0.034682021802663804,0.010416399269923568,-0.0005093012290075421
1772709141637528600,8.370528564453124,-0.028973581027984616,-0.042803697731532156,0.0010060352373868226
1772709141647553800,8.3805537109375,0.058984688410162925,-0.028886816059984267,0.04480937499813735
1772709141657578800,8.390578857421875,0.10560849241912364,0.006293547186255455,0.011569295632094145
1772709141667603500,8.400603515625,0.062035308152437206,0.005665588013641536,-0.019324512868747114
1772709141677628400,8.41062841796875,0.01760170766413212,-0.04733432689849287,-0.030724004891887306
1772709141687653600,8.420653564453126,0.02938566896021366,-0.012926774655655025,0.013352525787055492
1772709141697678600,8.4306787109375,0.0017804536759853363,0.005824468369781971,0.014015556273050605
1772709141707703600,8.44070361328125,0.005045592951774597,0.01794873100351542,-0.01087371458336711
1772709141717728500,8.450728515625,0.049205052673816675,0.01647851232048124,-0.005834003383107483
1772709141727753700,8.460753662109376,0.06506956128180026,-0.007641491196490824,0.010973485163412988
1772709141737778700,8.47077880859375,0.038861937835812564,-0.005689516878500581,0.022917130533233285
1772709141747803600,8.4808037109375,0.0011316343784332275,0.005402151304483413,0.023460443629696962
1772709141757828600,8.49082861328125,-0.004859130468964576,-0.0021169556213542816,-0.007093392327055335
1772709141767853600,8.500853515625,-0.008300210833549499,-0.010615721234306692,0.00163432320356369
1772709141777878500,8.51087841796875,0.034492052188515664,-0.014530373927392065,0.018848127528652548
1772709141787903500,8.520903564453125,0.03341828547716141,-0.011314882479608058,0.009806194949708878
1772709141797928400,8.530928466796874,0.02845452558994293,-0.0036006183078512548,0.0013828691931441425
1772709141807953700,8.54095361328125,0.027387773141264914,-0.006372128847800195,-0.0027519290566444393
1772709141817977600,8.5509775390625,0.03351648515462875,-0.009489237955026328,0.012187281399965286
1772709141828002800,8.5610029296875,0.02063712983727455,0.002051671832799911,0.009913491249084472
1772709141838027800,8.57102783203125,0.0026718495577573776,-0.0026513182263821363,-0.003360160615481436
1772709141848052500,8.581052490234375,0.010007599273324012,-0.005059731074981391,0.004827675884775817
1772709141858077400,8.591077392578125,0.035297523352503773,-0.008818389488756656,0.015388159800507128
1772709141868102700,8.6011025390625,0.045008185505867,-0.013371741944178938,0.011049253813363611
1772709141878127600,8.611127685546874,0.016115268498659133,-0.008740392349101603,0.007183006839267909
1772709141888152600,8.621152587890625,0.011463058778643608,-0.001536050460860133,-0.002411846914701164
1772709141898177500,8.631177490234375,-0.007532733592391014,0.012882679785601795,-0.016169007979892194
1772709141908202800,8.64120263671875,0.00833762023448944,-0.007971526868455111,-0.008714636853337288
1772709141918227700,8.651227783203124,0.03242810539603233,-0.0010345306795090437,0.016303301884047685
1772709141928252700,8.661252685546875,0.06428396386206149,0.009204393131658434,0.005074197991751134
1772709141938277600,8.671277587890625,0.04154547783136368,-0.0019835019674152134,-0.0015356120694428681
1772709141948302600,8.681302490234375,0.02570084296762943,-0.014833558125048874,-0.017330672170408068
1772709141958327600,8.69132763671875,0.026745383584499356,0.0031279592948034404,0.029316768442466855
1772709141968352500,8.7013525390625,0.025977321821451186,-0.015118183752708136,0.003140891841612756
1772709141978377500,8.71137744140625,0.044052492216229436,-0.01737692246492952,0.004069112602435052
1772709141988402700,8.721402587890625,0.06018938802480697,0.0000789104551076889,0.0052237259976565835
1772709141998427600,8.731427734375,0.03383095793128013,-0.018320340794883667,-0.005498962742462754
1772709142008452600,8.74145263671875,0.026125790381431577,0.04796783902905881,0.07955847068764269
1772709142018477600,8.7514775390625,0.19869652596116064,0.17896083847563712,0.09189433024544268
1772709142028502800,8.761502685546875,0.2928086418539286,0.16422299581002442,-0.04944492584429681
1772709142038527500,8.771527587890626,-0.07757657615542411,-0.18917232629060743,0.016770444471761584
1772709142048552700,8.781552734375,-0.3853682676076889,-0.3205693764934316,-0.05673237943872809
1772709142058577700,8.79157763671875,-0.2313251223653555,-0.024757753431238233,-0.04545245867464691
1772709142068603000,8.801602783203125,0.03913140242695808,0.07892042851243168,-0.03417805433589965
1772709142078627600,8.811627685546876,0.10661620815694331,-0.018640658790431915,-0.011601517401263117
1772709142088652500,8.821652587890625,0.1596679993867874,-0.09043978405557572,0.017425620444864034
1772709142098677800,8.831677734375,0.0939770913362503,-0.1009433501522988,-0.024669125299714503
1772709142108702700,8.84170263671875,-0.08868892180025577,-0.013806808893196285,0.08130673912707716
1772709142118727700,8.851727783203126,-0.11018237620592117,0.12405355557221918,0.14091562385018913
