time,seconds_elapsed,z,y,x
1772709200740832800,0.039832763671875,-0.00028389296494424343,0.006256830412894487,-0.00930108968168497
1772709200750857700,0.049857666015625,0.0018080200534313917,0.014230068773031235,-0.014597051776945591
1772709200760882700,0.059882568359375,0.003397927153855562,0.01004810631275177,-0.014134461060166359
1772709200770906600,0.06990673828125,-0.00044900894863530993,0.003979561384767294,-0.010756241157650948
1772709200780931600,0.079931640625,0.0013579458463937044,0.003920173272490501,-0.009664079174399376
1772709200790956800,0.089956787109375,0.001119060325436294,0.005613943561911583,-0.007136738859117031
1772709200800981800,0.099981689453125,0.0017632789677008986,0.00689119566231966,-0.004982774145901203
1772709200811006700,0.1100068359375,0.0016578177455812693,0.005584116093814373,-0.008638229221105576
1772709200821032000,0.120031982421875,0.0008660599705763161,0.003462908323854208,-0.004679440520703793
1772709200831057000,0.130056884765625,0.0022354573011398315,0.0028192223981022835,-0.00481259822845459
1772709200841080600,0.14008056640625,0.002124403603374958,0.0043590618297457695,-0.00495134899392724
1772709200851105800,0.150105712890625,0.00250550196506083,0.008011853322386742,-0.0008423578692600131
1772709200861130800,0.160130859375,0.002778209513053298,0.007665376644581556,-0.0034732946660369635
1772709200871155700,0.17015576171875,0.003226952161639929,0.006219812668859959,-0.006125004030764103
1772709200881180700,0.1801806640625,0.0035518580116331577,0.004822984803467989,-0.007996140979230404
1772709200891206000,0.190205810546875,0.0012913667596876621,0.006506368983536959,-0.007218764163553715
1772709200901230800,0.20023095703125,0.000782436749432236,0.007680290378630161,-0.00809201505035162
1772709200911255600,0.210255615234375,0.0012777847005054355,0.006468818057328463,-0.007638478651642799
1772709200921280500,0.220280517578125,0.0013600763631984591,0.005736981518566608,-0.007769239600747824
1772709200931304700,0.2303046875,0.0013201289111748338,0.008028632029891014,-0.010976218618452549
1772709200941329700,0.24032958984375,0.003096190979704261,0.00891093723475933,-0.010557569563388824
1772709200951354600,0.250354736328125,0.001609081868082285,0.010718158446252346,-0.012087022885680199
1772709200961379800,0.2603798828125,0.0004695153038483113,0.010755175724625587,-0.013586382381618023
1772709200971404800,0.27040478515625,0.001270327833481133,0.008618521504104137,-0.014345383271574974
1772709200981429800,0.2804296875,0.0016197345685213804,0.008766327053308487,-0.013832991011440754
1772709200991454700,0.290454833984375,0.0011145329335704446,0.0093303844332695,-0.0124220484867692
1772709201001479700,0.300479736328125,0.0004367584188003093,0.009640110656619072,-0.0105328019708395
1772709201011503600,0.310503662109375,0.002778209513053298,0.010076602920889854,-0.009936786256730556
1772709201021528800,0.32052880859375,0.0021797972731292248,0.009323992766439915,-0.009678193368017673
1772709201031553800,0.3305537109375,0.0027505126781761646,0.009857158176600933,-0.008416920900344849
1772709201041578800,0.340578857421875,0.001085770782083273,0.011165834963321686,-0.008231830783188343
1772709201051603700,0.350603759765625,0.002719353651627898,0.007692274637520313,-0.0073569826781749725
1772709201061629000,0.36062890625,0.0027366643771529198,0.006447246763855219,-0.009443835355341434
1772709201071653600,0.370653564453125,0.003381948219612241,0.0041121868416666985,-0.006530603393912315
1772709201081678600,0.3806787109375,0.0018666095566004515,0.011269698850810528,-0.005311674904078245
1772709201091702800,0.390702880859375,0.001466869143769145,0.013157879933714867,-0.0018993664998561144
1772709201101728300,0.400728271484375,0.0018865832826122642,0.0073625752702355385,-0.0068235513754189014
1772709201111753200,0.410753173828125,0.004022971261292696,0.006331399083137512,-0.01197117567062378
1772709201121778200,0.420778076171875,0.0029915287159383297,0.009712016209959984,-0.010066748596727848
1772709201131803400,0.430803466796875,0.0048424256965518,0.014199974946677685,-0.007148456759750843
1772709201141828400,0.440828369140625,0.005107676610350609,0.012870258651673794,-0.007108243182301521
1772709201151853300,0.450853271484375,0.007384412921965122,0.009501359425485134,-0.007351655978709459
1772709201161878300,0.460878173828125,0.007032875902950764,0.009561547078192234,-0.003169161733239889
1772709201171902200,0.470902099609375,0.005120992194861174,0.012415656819939613,0.0026727484073489904
1772709201181927200,0.48092724609375,0.008315187878906727,0.009840114042162895,0.006104231346398592
1772709201191952100,0.4909521484375,0.007044593803584576,0.00740385428071022,0.003847468877211213
1772709201201977300,0.500977294921875,0.00700810831040144,0.005241899751126766,0.0032149681355804205
1772709201212002300,0.511002197265625,0.006450708955526352,0.008591091260313988,0.00010945591930067167
1772709201222027300,0.52102734375,0.0067569720558822155,0.011743474751710892,0.0017204020405188203
1772709201232052200,0.53105224609375,0.006086121778935194,0.010842793621122837,0.002126534003764391
1772709201242077400,0.541077392578125,0.0056925066746771336,0.009466472081840038,0.001977929612621665
1772709201252101000,0.55110107421875,0.0067990501411259174,0.008637962862849236,-0.0005451490869745612
1772709201262126000,0.5611259765625,0.0029944581910967827,0.01104386243969202,-0.004574511665850878
1772709201272151300,0.5711513671875,0.0009028115891851485,0.013084109872579575,-0.012033493258059025
1772709201282176300,0.58117626953125,-0.004159324802458286,0.009013734757900238,-0.02154976688325405
1772709201292201200,0.591201171875,-0.005106078926473856,-0.0008210525847971439,-0.02454662136733532
1772709201302226400,0.601226318359375,-0.011599131859838963,0.004957740660756826,-0.01949593611061573
1772709201312251400,0.61125146484375,-0.009411345236003399,0.009315737523138523,-0.024171914905309677
1772709201322276400,0.6212763671875,-0.009393502026796341,0.015488412231206894,-0.025523202493786812
1772709201332300300,0.63130029296875,-0.007230216171592474,0.01769936829805374,-0.020305538550019264
1772709201342325200,0.6413251953125,-0.0013076120521873236,0.01840217597782612,-0.012626845389604568
1772709201352350200,0.65135009765625,-0.00009800432599149644,0.021161744371056557,-0.015296664088964462
1772709201362375200,0.661375244140625,0.001659948262386024,0.022764168679714203,-0.02112925425171852
1772709201372400400,0.671400390625,0.0041284323669970036,0.020891966298222542,-0.02418762817978859
1772709201382425300,0.68142529296875,0.0034498588647693396,0.02582041174173355,-0.023686686530709267
1772709201392450300,0.6914501953125,0.005617938470095396,0.026583407074213028,-0.021036310121417046
1772709201402475300,0.701475341796875,0.004246676806360483,0.02292635478079319,-0.016201339662075043
1772709201412499200,0.711499267578125,0.007255249656736851,0.019837353378534317,-0.006859237793833017
1772709201422524200,0.721524169921875,0.006977482233196497,0.02118651196360588,-0.0013275857781991363
1772709201432549000,0.731549072265625,0.006757771130651236,0.0173286572098732,-0.0012543488992378116
1772709201442574300,0.74157421875,0.006138852797448635,0.014042582362890244,-0.0033214944414794445
1772709201452599300,0.751599365234375,0.004933505784720182,0.008928247727453709,0.00035686357296071947
1772709201462624300,0.761624267578125,0.0059934440068900585,0.009307214990258217,0.0055092815309762955
1772709201472649200,0.771649169921875,0.007801996544003487,0.010163421742618084,0.00821052584797144
1772709201482674400,0.78167431640625,0.0054672034457325935,0.01124892570078373,0.011679292656481266
1772709201492698000,0.791697998046875,0.004987301770597696,0.009189769625663757,0.013160010799765587
1772709201502723300,0.801723388671875,0.0073263561353087425,0.005964948330074549,0.01513048354536295
1772709201512748300,0.811748291015625,0.007446464616805315,0.006127933505922556,0.01543328445404768
1772709201522773200,0.821773193359375,0.007255516014993191,0.009225722402334213,0.014116085134446621
1772709201532798200,0.831798095703125,0.009576993063092232,0.010521084070205688,0.01398692186921835
1772709201542823400,0.841823486328125,0.009810286574065685,0.008165251463651657,0.013332583010196686
1772709201552848400,0.851848388671875,0.009340238757431507,0.00845526996999979,0.013587447814643383
1772709201562873300,0.861873291015625,0.010427340865135193,0.009923471137881279,0.013338708318769932
1772709201572897300,0.871897216796875,0.01053253561258316,0.0075910743325948715,0.01161457784473896
1772709201582922200,0.881922119140625,0.010251572355628014,0.00762915750965476,0.015059643425047398
1772709201592947200,0.891947265625,0.0113413380458951,0.009562079794704914,0.016953682526946068
1772709201602972200,0.90197216796875,0.008737032301723957,0.008983108215034008,0.01782293990254402
1772709201612997400,0.911997314453125,0.008565258234739304,0.0013635384384542704,0.014615960419178009
1772709201623022300,0.922022216796875,0.008166849613189697,-0.0020703414920717478,0.008742092177271843
1772709201633047300,0.93204736328125,0.00815060455352068,0.0021582257468253374,0.01050217542797327
1772709201643072300,0.942072265625,0.006148706190288067,0.009663546457886696,0.013990649953484535
1772709201653096200,0.95209619140625,0.0041433461010456085,0.001642371411435306,0.007621966768056154
1772709201663121200,0.96212109375,0.005246960092335939,-0.00749227125197649,0.0023869911674410105
1772709201673146400,0.972146484375,0.002712695859372616,-0.008387626148760319,0.005555354058742523
1772709201683171300,0.98217138671875,0.004792091902345419,-0.00036671728594228625,0.012261725962162018
1772709201693196300,0.9921962890625,0.005390504375100136,0.0026578346733003855,0.016499880701303482
1772709201703221200,1.00222119140625,0.005233111325651407,-0.0010104032699018717,0.01474698819220066
1772709201713246500,1.01224658203125,0.005830724723637104,-0.0074619110673666,0.010753843933343887
1772709201723271400,1.022271484375,0.00663446681573987,-0.0054482948035001755,0.011688081547617912
1772709201733295000,1.032295166015625,0.006853645201772451,-0.000041278995922766626,0.01420317031443119
1772709201743320300,1.0423203125,0.004688761197030544,-0.0011025486746802926,0.016446352005004883
1772709201753345300,1.05234521484375,0.006732204928994179,-0.009483249858021736,0.01962083950638771
1772709201763370200,1.062370361328125,0.004788363818079233,-0.008683769032359123,0.02257481776177883
1772709201773395200,1.072395263671875,0.0033127060160040855,-0.003771835006773472,0.023907996714115143
1772709201783420400,1.08242041015625,0.00609437795355916,-0.0019257317762821913,0.020671190693974495
1772709201793445400,1.0924453125,0.00566827179864049,-0.0006900250446051359,0.017486847937107086
1772709201803469000,1.102468994140625,0.005136172287166119,-0.0025387913919985294,0.017188839614391327
1772709201813494300,1.112494384765625,0.006859770510345697,-0.0014759238110855222,0.01636965200304985
1772709201823519200,1.122519287109375,0.007247793022543192,0.001713744131848216,0.0164218507707119
1772709201833544200,1.132544189453125,0.007709851488471031,0.0033622407354414463,0.016768859699368477
1772709201843569200,1.142569091796875,0.008185225538909435,0.007001716643571854,0.014809039421379566
1772709201853594400,1.152594482421875,0.00800306536257267,0.005584915168583393,0.01267185341566801
1772709201863619300,1.162619384765625,0.009639577940106392,0.002920954953879118,0.011048922315239906
1772709201873644300,1.172644287109375,0.00863450113683939,0.006052566226571798,0.012958675622940063
1772709201883668200,1.182668212890625,0.010204967111349106,0.00977300200611353,0.01461835764348507
1772709201893693200,1.192693115234375,0.010459032841026783,0.011203385889530182,0.009469934739172459
1772709201903718100,1.20271826171875,0.010910704731941223,0.009385245852172375,0.008915730752050877
1772709201913743400,1.212743408203125,0.010337059386074543,0.007463775109499693,0.011184210889041424
1772709201923768300,1.222768310546875,0.009770872071385384,0.007611047942191362,0.015032212249934673
1772709201933793300,1.232793212890625,0.011306717060506344,0.008182561956346035,0.018624549731612206
1772709201943818200,1.242818359375,0.013500895351171494,0.008421181701123714,0.02315618470311165
1772709201953842200,1.25284228515625,0.012031628750264645,0.005038434639573097,0.02954564243555069
1772709201963867100,1.2628671875,0.014129401184618473,0.008709335699677467,0.029872678220272064
1772709201973892000,1.27289208984375,0.013845507986843586,0.009885387495160103,0.023016635328531265
1772709201983917300,1.282917236328125,0.013230051845312119,0.006398244295269251,0.014519021846354008
1772709201993942300,1.2929423828125,0.013052685186266899,0.004030694253742695,0.015125423669815063
1772709202003967200,1.30296728515625,0.009921073913574219,0.007160174660384655,0.018274877220392227
1772709202013992200,1.3129921875,0.012322712689638138,0.011738947592675686,0.01889459602534771
1772709202024017400,1.323017333984375,0.012071044184267521,0.013472399674355984,0.017017332836985588
1772709202034041000,1.333041015625,0.011116833426058292,0.013403423130512238,0.008679508231580257
1772709202044066300,1.34306640625,0.011611382476985455,0.01273070927709341,0.001975000137463212
1772709202054091300,1.35309130859375,0.009197493083775043,0.008823585696518421,-0.0026194851379841566
1772709202064116200,1.3631162109375,0.009043295867741108,0.009426791220903397,-0.0041372207924723625
1772709202074141200,1.37314111328125,0.006931409239768982,0.013558952137827873,-0.0047177900560200214
1772709202084166400,1.38316650390625,0.008015848696231842,0.017786720767617226,-0.006798783782869577
1772709202094191400,1.39319140625,0.009860087186098099,0.015443936921656132,-0.009926133789122105
1772709202104216000,1.403216064453125,0.006973487325012684,0.014693458564579487,-0.010657704435288906
1772709202114240300,1.413240234375,0.008383897133171558,0.016699884086847305,-0.007830492220818996
1772709202124265200,1.42326513671875,0.005563343409448862,0.012719256803393364,-0.004967061802744865
1772709202134290000,1.4332900390625,0.006097573786973953,0.011359181255102158,-0.0028570392169058323
1772709202144315000,1.44331494140625,0.005535380449146032,0.012030564248561859,0.0017696705181151628
1772709202154340000,1.453340087890625,0.005617938470095396,0.010193515568971634,0.00387410051189363
1772709202164365000,1.463364990234375,0.006640325766056776,0.005403819959610701,0.0017073525814339519
1772709202174390000,1.47339013671875,0.004561462439596653,0.006313023157417774,0.0025656893849372864
1772709202184414200,1.483414306640625,0.005945773329585791,0.009555954486131668,0.003796069882810116
1772709202194439200,1.493439208984375,0.004209658596664667,0.009066198952496052,0.0032149681355804205
1772709202204464000,1.503464111328125,0.003507649526000023,0.005970274563878775,-0.0018767296569421887
1772709202214489000,1.513489013671875,0.0014112089993432164,0.006129798013716936,-0.003067695302888751
1772709202224514000,1.52351416015625,0.0010644654976204038,0.007200122345238924,-0.005303951445966959
1772709202234539000,1.5335390625,0.000368847802747041,0.00800279900431633,-0.00968298688530922
1772709202244564000,1.54356396484375,0.00017470336752012372,0.007516505662351847,-0.008303203620016575
1772709202254589200,1.553589111328125,-0.0019124159589409828,0.0046448190696537495,-0.0060027651488780975
1772709202264613000,1.563613037109375,-0.001585912425071001,0.0057279267348349094,-0.004897020757198334
1772709202274638000,1.57363818359375,-0.002579005202278495,0.0022240057587623596,-0.004886634182184935
1772709202284663300,1.583663330078125,-0.001585646066814661,0.002314553363248706,-0.005630721338093281
1772709202294688000,1.59368798828125,0.000300404557492584,0.00660437298938632,-0.004275705199688673
1772709202304713000,1.603712890625,-0.00041039311327040195,0.01146783772855997,-0.005544967483729124
1772709202314738000,1.613738037109375,0.0006801713607273996,0.012884905561804771,-0.00791171845048666
1772709202324763100,1.62376318359375,0.002183259464800358,0.004701810888946056,-0.00800226628780365
1772709202334787000,1.633787109375,0.00009747169679030776,0.009256348945200443,-0.007682687137275934
1772709202344812000,1.64381201171875,0.0013424995122477412,0.009881126694381237,-0.005306348204612732
1772709202354837200,1.653837158203125,-0.0007845672662369907,0.005503688473254442,-0.0021193434949964285
1772709202364862200,1.6638623046875,0.001942776027135551,0.0017142767319455743,0.001719603082165122
1772709202374887000,1.673886962890625,0.0010309095960110426,-0.0008993495139293373,0.005847768858075142
1772709202384912100,1.683912109375,0.0006119944155216217,0.0031465247739106417,0.007440072949975729
1772709202394937000,1.69393701171875,0.000059921123465755954,0.0006950850365683436,0.0025622271932661533
1772709202404962000,1.703962158203125,0.0016966998809948564,-0.004447745159268379,0.0027164241764694452
1772709202414986200,1.713986328125,-0.000017843178284238093,-0.005886651109904051,0.011679559014737606
1772709202425011200,1.72401123046875,0.001817873795516789,-0.013772803358733654,0.014870825223624706
1772709202435036200,1.7340361328125,0.0031214910559356213,-0.011114436201751232,0.01537442859262228
1772709202445061000,1.74406103515625,0.006637929007411003,0.00968671590089798,0.0065622953698039055
1772709202455086000,1.754086181640625,0.008656072430312634,0.023478694260120392,-0.005284776911139488
1772709202465111000,1.764111083984375,0.0008833705214783549,0.006440588738769293,-0.022832078859210014
1772709202475136000,1.774135986328125,-0.0028490496333688498,-0.009476592764258385,-0.03176911547780037
1772709202485161000,1.784160888671875,-0.003555586328729987,0.000699079770129174,-0.027881432324647903
1772709202495185200,1.79418505859375,0.0010098706698045135,0.02135295979678631,-0.014787734486162663
1772709202505210000,1.804210205078125,0.004010187927633524,0.029217006638646126,-0.009299492463469505
1772709202515235000,1.814235107421875,0.005447229836136103,0.019246399402618408,-0.01612384244799614
1772709202525260300,1.82426025390625,0.005061071366071701,0.017469005659222603,-0.018931878730654716
1772709202535285000,1.834284912109375,0.005824333056807518,0.022247781977057457,-0.018865566700696945
1772709202545310000,1.84431005859375,0.0036634444259107113,0.02340172976255417,-0.01967117376625538
1772709202555335200,1.854335205078125,0.0022085595410317183,0.013035907410085201,-0.023244602605700493
1772709202565360000,1.864360107421875,0.0023180153220891953,0.004840561654418707,-0.01943308673799038
1772709202575385000,1.874385009765625,0.0014618091518059373,0.00395692465826869,-0.007221694104373455
1772709202585409300,1.8844091796875,0.0034996599424630404,0.009099489077925682,0.002927612978965044
1772709202595434200,1.894434326171875,0.0014389059506356716,0.006527940277010202,0.007703193463385105
1772709202605459000,1.904458984375,0.0023702133912593126,-0.0041529336012899876,0.005945506971329451
1772709202615484000,1.91448388671875,0.0006593986763618886,-0.008718922734260559,0.007246727589517832
1772709202625509000,1.924509033203125,-0.0003222425002604723,-0.0070680296048521996,0.005361209623515606
1772709202635534000,1.9345341796875,0.000871652620844543,-0.007837682962417603,0.0032530513126403093
1772709202645559000,1.94455908203125,-0.002100435085594654,-0.01455763727426529,0.007799333427101374
1772709202655584000,1.954583984375,-0.0018405106384307146,-0.01461755856871605,0.018980881199240685
1772709202665609200,1.964609130859375,-0.00004873584839515388,-0.011846805922687054,0.02388509176671505
1772709202675633200,1.974633056640625,0.001088433898985386,-0.009212939068675041,0.024340493604540825
1772709202685657900,1.984657958984375,0.0007563377148471773,-0.009752762503921986,0.02117133140563965
1772709202695683000,1.99468310546875,0.00022903185163158923,-0.010405236855149269,0.013977334834635258
1772709202705708000,2.0047080078125,0.0019632822368294,-0.012027900665998459,0.00833622645586729
1772709202715733000,2.01473291015625,0.004779841285198927,-0.006206230726093054,0.004298608284443617
1772709202725758000,2.024758056640625,0.002296177437528968,0.006478139199316502,0.004504470620304346
1772709202735783200,2.034783203125,0.000666322885081172,0.003768905531615019,0.0018469021888449788
1772709202745808100,2.04480810546875,0.0013973605819046497,-0.0007246461464092135,-0.004366252571344376
1772709202755833000,2.0548330078125,0.0017193368403241038,-0.0011044129496440291,-0.005856025032699108
1772709202765857000,2.06485693359375,0.003242931328713894,0.004881041590124369,-0.004289819858968258
1772709202775882000,2.074882080078125,0.004881840664893389,0.009593239054083824,-0.0075974659994244576
1772709202785907000,2.084906982421875,0.007818241603672504,0.013651629909873009,-0.015631956979632378
1772709202795932200,2.09493212890625,0.006578806787729263,0.016384299844503403,-0.024096548557281494
1772709202805957000,2.10495703125,0.005658684764057398,0.016518522053956985,-0.025422269478440285
1772709202815982000,2.114982177734375,0.0051652006804943085,0.016860205680131912,-0.022359633818268776
1772709202826007000,2.125007080078125,0.005425391718745232,0.018991000950336456,-0.02316018007695675
1772709202836032300,2.1350322265625,0.005516205448657274,0.013827931135892868,-0.026697391644120216
1772709202846056000,2.145055908203125,0.002418416552245617,0.009651828557252884,-0.022056566551327705
1772709202856081000,2.155080810546875,0.001740642124786973,0.010040650144219398,-0.015854597091674805
1772709202866106000,2.165106201171875,0.0027651600539684296,0.012683038599789143,-0.008935438469052315
1772709202876131000,2.175131103515625,0.0011592740193009377,0.008894424885511398,-0.011203918606042862
1772709202886156000,2.185156005859375,0.00041998049709945917,0.002013882389292121,-0.01312086172401905
1772709202896181000,2.195180908203125,-0.0008633967954665422,0.001499625970609486,-0.00953651312738657
1772709202906206200,2.205206298828125,-0.0013973605819046497,0.0059508332051336765,-0.007795604877173901
1772709202916231200,2.215231201171875,-0.0002740392810665071,0.004270112607628107,-0.015047659166157246
1772709202926256000,2.225256103515625,-0.0007566040731035173,0.0030980552546679974,-0.015426892787218094
1772709202936280000,2.235280029296875,-0.0019600866362452507,0.00541473925113678,-0.016147810965776443
1772709202946305000,2.245304931640625,-0.0012953615514561534,0.009379653260111809,-0.018092185258865356
1772709202956330000,2.255330078125,-0.0013784521725028753,0.008611331693828106,-0.018520154058933258
1772709202966355200,2.265355224609375,-0.0009869674686342478,0.008359928615391254,-0.01786847971379757
1772709202976380200,2.275380126953125,0.0005507417372427881,0.0118502676486969,-0.016702014952898026
1772709202986405000,2.285405029296875,0.00023915186466183513,0.014907310716807842,-0.015968313440680504
1772709202996430000,2.29543017578125,0.0011643340112641454,0.015982961282134056,-0.01901603490114212
1772709203006455300,2.305455322265625,0.00038695731200277805,0.012472381815314293,-0.022103970870375633
1772709203016479000,2.31547900390625,0.0003810983616858721,0.01158901210874319,-0.021529793739318848
1772709203026504000,2.32550390625,0.0007416903390549123,0.015872173011302948,-0.020925255492329597
1772709203036529200,2.335529052734375,0.0027859327383339405,0.02070394717156887,-0.021320734173059464
1772709203046554000,2.34555419921875,0.0001179780374513939,0.01954706944525242,-0.020437363535165787
1772709203056579000,2.3555791015625,-0.00013156015484128147,0.015264173969626427,-0.019881296902894974
1772709203066604000,2.36560400390625,0.00009747169679030776,0.016155533492565155,-0.019055450335144997
1772709203076629200,2.375629150390625,-0.00035712990211322904,0.015328356064856052,-0.018633605912327766
1772709203086654200,2.385654296875,-0.00039281626231968403,0.016280436888337135,-0.01792893372476101
1772709203096678100,2.39567822265625,-0.0012341088149696589,0.013040967285633087,-0.01871882565319538
1772709203106702600,2.40570263671875,0.0008191883680410683,0.010949586518108845,-0.015185610391199589
1772709203116727600,2.4157275390625,0.0010215885704383254,0.012689696624875069,-0.012074772268533707
1772709203126752500,2.42575244140625,0.0005834985640831292,0.013845241628587246,-0.010759437456727028
1772709203136777500,2.435777587890625,0.0004551342281047255,0.01152642723172903,-0.012971991673111916
1772709203146802400,2.445802490234375,0.001347293145954609,0.010695520788431168,-0.013677729293704033
1772709203156827400,2.455827392578125,0.0006769755273126066,0.00971547793596983,-0.014002367854118347
1772709203166851600,2.4658515625,0.0013363742036744952,0.011712582781910896,-0.01239168830215931
1772709203176876500,2.47587646484375,0.0019406455103307962,0.010441455990076065,-0.013463344424962997
1772709203186901500,2.485901611328125,0.0026021746452897787,0.010971425101161003,-0.013164005242288113
1772709203196926700,2.4959267578125,0.0034708979073911905,0.011174091137945652,-0.013549630530178547
1772709203206951700,2.50595166015625,0.001955559244379401,0.012644688598811626,-0.012474246323108673
1772709203216976400,2.515976318359375,0.0015038870042189956,0.012267584912478924,-0.015595471486449242
1772709203227001300,2.52600146484375,0.0015273229219019413,0.007861651480197906,-0.016389891505241394
1772709203237026600,2.536026611328125,0.00205223192460835,0.007025951519608498,-0.017551830038428307
1772709203247050500,2.546050537109375,0.0016761935548856854,0.013498231768608093,-0.015548333525657654
1772709203257075500,2.556075439453125,-0.00041971419705078006,0.019543340429663658,-0.012034292332828045
1772709203267100700,2.5661005859375,-0.0003121224872302264,0.016047675162553787,-0.014407701790332794
1772709203277125600,2.576125732421875,-0.0014357101172208786,0.008599081076681614,-0.021528994664549828
1772709203287150600,2.586150634765625,-0.0010865697404369712,0.008467520587146282,-0.02425900101661682
1772709203297175300,2.59617529296875,0.0006191849242895842,0.013643108308315277,-0.021621672436594963
1772709203307200500,2.606200439453125,-0.00048363005043938756,0.015788016840815544,-0.02052817866206169
1772709203317224400,2.616224365234375,0.0015984292840585113,0.015081481076776981,-0.02045520767569542
1772709203327249400,2.62624951171875,0.002290318487212062,0.01170565839856863,-0.018981680274009705
1772709203337274600,2.636274658203125,-0.00038988678716123104,0.008919991552829742,-0.013712616637349129
1772709203347299600,2.646299560546875,0.0007036071619950235,0.007734884973615408,-0.010642790235579014
1772709203357324500,2.656324462890625,0.0024612934794276953,0.005588111001998186,-0.010805509984493256
1772709203367349500,2.666349609375,0.0005813680472783744,0.005077316425740719,-0.008982841856777668
1772709203377374500,2.67637451171875,0.0012929646763950586,0.006402771919965744,-0.006572947837412357
1772709203387398400,2.6863984375,0.0035473306197673082,0.007736749015748501,-0.005496498197317123
1772709203397423600,2.696423583984375,0.00301736150868237,0.008070975542068481,-0.004088218789547682
1772709203407448600,2.706448486328125,0.0028240159153938293,0.008175638504326344,-0.0011667308863252401
1772709203417473500,2.7164736328125,0.0015060176374390721,0.007449926808476448,-0.00256462418474257
1772709203427498500,2.72649853515625,0.004095142707228661,0.007681088987737894,-0.004559864290058613
1772709203437523700,2.736523681640625,0.0026471822056919336,0.007635016459971666,-0.007950601167976856
1772709203447548400,2.74654833984375,0.0028360001742839813,0.010432667098939419,-0.007693339604884386
1772709203457572400,2.756572265625,0.003855990944430232,0.011779161170125008,-0.006336458958685398
1772709203467597600,2.76659765625,0.0034647725988179445,0.009951167739927769,-0.006770820822566748
1772709203477622500,2.77662255859375,0.004455734975636005,0.010762366466224194,-0.007481085602194071
1772709203487647500,2.7866474609375,0.004137753508985043,0.0100198769941926,-0.005484247580170631
1772709203497672400,2.79667236328125,0.005790777504444122,0.009981794282793999,-0.00245143985375762
1772709203507697700,2.80669775390625,0.005961486138403416,0.010646519251167774,-0.0019078885670751333
1772709203517722600,2.81672265625,0.0046365633606910706,0.008251005783677101,-0.0004926847759634256
1772709203527746600,2.82674658203125,0.0051931641064584255,0.00401498144492507,0.0026008430868387222
1772709203537771500,2.836771484375,0.004032824654132128,0.0049313753843307495,0.00580888707190752
1772709203547796500,2.84679638671875,0.005179315805435181,0.008477107621729374,0.007656588219106197
1772709203557821400,2.856821533203125,0.007142597809433937,0.009877397678792477,0.004992095287889242
1772709203567846700,2.8668466796875,0.006382265593856573,0.005329784471541643,0.002276203827932477
1772709203577871600,2.87687158203125,0.005846703890711069,0.005672266706824303,-0.00018109494703821838
1772709203587895300,2.886895263671875,0.006184925325214863,0.01031628716737032,0.0010282464791089296
1772709203597920500,2.89692041015625,0.004627508576959372,0.009696569293737411,0.0006511429091915488
1772709203607945500,2.906945556640625,0.005811816547065973,0.005918608978390694,-0.00047351003740914166
1772709203617970400,2.916970458984375,0.006172408349812031,0.00501047121360898,-0.002546780975535512
1772709203627995400,2.926995361328125,0.004055195488035679,0.007186274044215679,-0.000010652644050423987
1772709203638020600,2.9370205078125,0.00418329332023859,0.009907225146889687,0.0024429175537079573
1772709203648045600,2.947045654296875,0.003655987558886409,0.008682703599333763,0.0014239922165870667
1772709203658069500,2.957069580078125,0.004352670628577471,0.005216067191213369,0.0009454221581108868
1772709203668094500,2.967094482421875,0.005559614859521389,0.00759906368330121,0.001341700553894043
1772709203678119400,2.977119384765625,0.005096491426229477,0.008313856087625027,0.0012961605098098516
1772709203688144400,2.987144287109375,0.005417668726295233,0.008067247457802296,0.00027510453946888447
1772709203698169300,2.99716943359375,0.005407015793025494,0.008804943412542343,0.0006522081675939262
1772709203708194600,3.007194580078125,0.004596083424985409,0.008509332314133644,0.0020479708909988403
1772709203718219500,3.017219482421875,0.005330849438905716,0.008857673965394497,0.0021318604703992605
1772709203728243700,3.02724365234375,0.00544323492795229,0.010700315237045288,0.0005217132274992764
1772709203738268700,3.0372685546875,0.00571860559284687,0.00857537891715765,-0.000841825210954994
1772709203748293400,3.04729345703125,0.0049556102603673935,0.00743101816624403,0.00017736652807798237
1772709203758318300,3.057318359375,0.004197141621261835,0.0059905145317316055,0.00020133497309871018
1772709203768343600,3.067343505859375,0.003841077210381627,0.00711729796603322,-0.0027348001021891832
1772709203778368500,3.077368408203125,0.005020058713853359,0.008353536948561668,-0.0007755124825052917
1772709203788392400,3.087392333984375,0.0033241575583815575,0.011933092027902603,0.0030298782512545586
1772709203798417700,3.097417724609375,0.004511128645390272,0.01124999113380909,0.00213558878749609
1772709203808442600,3.107442626953125,0.0044016726315021515,0.004437092691659927,-0.00138058268930763
1772709203818467600,3.117467529296875,0.004205664154142141,0.006395314820110798,-0.0011291803093627095
1772709203828492300,3.1274921875,0.0046386937610805035,0.011247861199080944,-0.00119629199616611
1772709203838517500,3.137517578125,0.003626426449045539,0.012065451592206955,-0.00007909588020993397
1772709203848542500,3.14754248046875,0.005374258849769831,0.009224124252796173,-0.002501773415133357
1772709203858566400,3.15756640625,0.0052413675002753735,0.009784719906747341,-0.003260508179664612
1772709203868591600,3.167591552734375,0.005598497111350298,0.011491806246340275,-0.0025212145410478115
1772709203878616600,3.177616455078125,0.0038192393258213997,0.010915764607489109,-0.0035390746779739857
1772709203888641500,3.1876416015625,0.0034179009962826967,0.009221195243299007,-0.0029257487040013075
1772709203898666500,3.19766650390625,0.005694371182471514,0.008823052980005741,-0.00192226970102638
1772709203908691500,3.20769140625,0.0024679512716829777,0.01008219551295042,-0.0002921487612184137
1772709203918715400,3.21771533203125,0.003934021573513746,0.00818149745464325,0.0007360977469943464
1772709203928740600,3.22774072265625,0.0034764904994517565,0.007930893450975418,0.001942509668879211
1772709203938765600,3.237765625,0.004887433256953955,0.008586564101278782,0.0003038666909560561
1772709203948790500,3.24779052734375,0.005602225661277771,0.008231298066675663,-0.0004751079250127077
1772709203958815500,3.2578154296875,0.005767341703176498,0.00974716991186142,-0.00276063266210258
1772709203968840700,3.2678408203125,0.0051955608651041985,0.010173008777201176,-0.0034735610242933035
1772709203978864400,3.277864501953125,0.0043769050389528275,0.011652395129203796,-0.0017907095607370138
1772709203988889300,3.287889404296875,0.005561479367315769,0.010783139616250992,-0.0036658411845564842
1772709203998914600,3.29791455078125,0.005684783682227135,0.01098474022001028,-0.004898618441075087
1772709204008939500,3.307939453125,0.004807005636394024,0.010527475737035275,-0.0060238041914999485
1772709204018964500,3.317964599609375,0.002885801251977682,0.011032677255570889,-0.004751611966639757
1772709204028989400,3.327989501953125,0.004822718445211649,0.011434015817940235,-0.004455734975636005
1772709204039014700,3.3380146484375,0.005397428758442402,0.01155572198331356,-0.004313255660235882
1772709204049038300,3.348038330078125,0.003637611633166671,0.011408449150621891,-0.0038091193418949842
1772709204059063600,3.3580634765625,0.004050667863339186,0.00911653321236372,-0.002133192028850317
1772709204069088500,3.368088623046875,0.004142280668020248,0.00806405209004879,-0.002118811011314392
1772709204079113500,3.378113525390625,0.004575044382363558,0.007452856283634901,-0.0018282600212842226
1772709204089138400,3.388138427734375,0.005175320897251368,0.010095244273543358,0.0009930927772074938
1772709204099163600,3.39816357421875,0.0050099384970963,0.010465956293046474,0.0004141215467825532
1772709204109187800,3.408187744140625,0.004600344225764275,0.008169779554009438,-0.0010250506456941366
1772709204119212800,3.418212890625,0.0034583809319883585,0.008057660423219204,-0.0014080132823437452
1772709204129238000,3.428238037109375,0.004329234827309847,0.010465689934790134,-0.0014879080699756742
1772709204139263000,3.438262939453125,0.0041273669339716434,0.009649697691202164,-0.0034232272300869226
1772709204149288000,3.448287841796875,0.0054456316865980625,0.008886702358722687,-0.0019518306944519281
1772709204159313000,3.45831298828125,0.006666424684226513,0.009353820234537125,-0.0026016421616077423
1772709204169336800,3.4683369140625,0.005244562868028879,0.009139436297118664,-0.004750014282763004
1772709204179361800,3.47836181640625,0.0031228226143866777,0.009427590295672417,-0.0031396006233990192
1772709204189386800,3.48838671875,0.003129480639472604,0.007923969067633152,-0.004633900243788958
1772709204199412000,3.498411865234375,0.002579271560534835,0.00923291314393282,-0.004313255660235882
1772709204209437000,3.50843701171875,0.004310592543333769,0.00902571901679039,-0.005893309134989977
1772709204219462000,3.5184619140625,0.0032671659719198942,0.010933341458439827,-0.0067934575490653515
1772709204229486800,3.52848681640625,0.0043707797303795815,0.008928780443966389,-0.006228334736078978
1772709204239510800,3.5385107421875,0.004681038204580545,0.009728793986141682,-0.007019559852778912
1772709204249535700,3.54853564453125,0.0041646515019237995,0.008862467482686043,-0.004727110732346773
1772709204259560700,3.558560791015625,0.005124720744788647,0.010238522663712502,-0.0015968313673511147
1772709204269586000,3.5685859375,0.004253068007528782,0.010401241481304169,-0.001972337020561099
1772709204279611000,3.57861083984375,0.0034618431236594915,0.009277653880417347,-0.002299905987456441
1772709204289635800,3.5886357421875,0.004524710588157177,0.007418235298246145,-0.002484995638951659
1772709204299660000,3.598659912109375,0.0034061830956488848,0.006367618218064308,0.00041971419705078006
1772709204309685000,3.60868505859375,0.004364388529211283,0.007383081596344709,-0.0006612628931179643
1772709204319709700,3.618709716796875,0.004208060912787914,0.006670952308923006,-0.0026873957831412554
1772709204329735000,3.62873486328125,0.004957474302500486,0.00845873262733221,-0.00017070861940737814
1772709204339759900,3.638759765625,0.0036818201187998056,0.009611082263290882,0.0006452839006669819
1772709204349784800,3.648784912109375,0.00364746549166739,0.005298625212162733,-0.001984321279451251
1772709204359809000,3.65880908203125,0.002633067313581705,0.005093828309327364,-0.0027502465527504683
1772709204369834000,3.668833984375,0.0040914141573011875,0.006690126843750477,-0.00290417717769742
1772709204379859000,3.67885888671875,0.002853044541552663,0.008985771797597408,-0.0016261261189356446
1772709204389884000,3.6888837890625,0.005665342323482037,0.006617422681301832,-0.0013020194601267576
1772709204399908900,3.698908935546875,0.0038959383964538574,0.006626211106777191,-0.0011970909545198083
1772709204409933800,3.708933837890625,0.003975566942244768,0.006253368686884642,-0.001005343277938664
1772709204419958800,3.718958740234375,0.0036855486687272787,0.006130596622824669,0.00008255799184553325
1772709204429983000,3.72898291015625,0.0037257622461766005,0.005361742340028286,-0.0029236183036118746
1772709204440008000,3.739008056640625,0.001936917076818645,0.0024144218768924475,-0.003576359013095498
1772709204450033000,3.749032958984375,0.0020450414158403873,0.004613926634192467,-0.003061836352571845
1772709204460057900,3.759057861328125,0.0029236183036118746,0.00643765926361084,-0.0023465112317353487
1772709204470083000,3.7690830078125,0.0014471617760136724,0.0054637412540614605,-0.0035361452028155327
1772709204480107800,3.779107666015625,0.0011656655697152019,0.004771319217979908,-0.005346562247723341
1772709204490132000,3.789132080078125,0.0010306433541700244,0.003849865635856986,-0.00902518630027771
1772709204500157000,3.799156982421875,0.0010162622202187777,0.006610764656215906,-0.008079231716692448
1772709204510182000,3.809181884765625,0.002216548891738057,0.009530387818813324,-0.009797236882150173
1772709204520206800,3.819206787109375,0.0016290555940940976,0.007230216171592474,-0.009873935952782631
1772709204530232000,3.829232177734375,0.0028940571937710047,0.0038722362369298935,-0.010686999186873436
1772709204540257000,3.839257080078125,0.0013728595804423094,0.006759635638445616,-0.009107211604714394
1772709204550282000,3.849281982421875,0.002365153282880783,0.009278719313442707,-0.010106430388987064
1772709204560306000,3.859305908203125,0.0029081718530505896,0.007773234508931637,-0.009088569320738316
1772709204570331000,3.869330810546875,0.0024498419370502234,0.006459497381001711,-0.00791491474956274
1772709204580355800,3.87935595703125,0.0017893778858706355,0.006312756799161434,-0.007795604877173901
1772709204590380800,3.889380859375,0.0015552861150354147,0.0062634884379804134,-0.005997438915073872
1772709204600406000,3.899406005859375,0.002944923471659422,0.006013151258230209,-0.005514341406524181
1772709204610431000,3.909430908203125,0.003487143199890852,0.001564873498864472,-0.005082110408693552
1772709204620455000,3.919454833984375,0.0020841897930949926,-0.00037390782381407917,-0.004751878324896097
1772709204630480000,3.92947998046875,0.0014231932582333684,0.003151052165776491,-0.0038373488932847977
1772709204640504800,3.9395048828125,0.0015606123488396406,0.007182545494288206,-0.0024104269687086344
1772709204650529800,3.94952978515625,0.0032650355715304613,0.00373108871281147,-0.003350256709381938
1772709204660555000,3.959554931640625,0.0014202637830749154,0.004033890087157488,-0.005352687556296587
1772709204670580000,3.969580078125,0.0029814087320119143,0.0052139367908239365,-0.004830974154174328
1772709204680604000,3.97960400390625,0.002825613832101226,0.006268016062676907,-0.004280498716980219
1772709204690628900,3.98962890625,0.0026724820490926504,0.0046296389773488045,-0.004432565066963434
1772709204700653800,3.99965380859375,0.003667971817776561,0.002276203827932477,-0.003385410411283374
1772709204710678800,4.0096787109375,0.0012985573848709464,0.00236302288249135,-0.0041340249590575695
1772709204720703700,4.019703857421875,0.0010671286145225167,0.002847185591235757,-0.003212837502360344
1772709204730729000,4.02972900390625,0.002404301892966032,0.0038980687968432903,-0.00424135010689497
1772709204740754000,4.03975390625,0.0004868258547503501,0.005772135220468044,-0.006711698602885008
1772709204750777900,4.04977783203125,0.0030562435276806355,0.003732952754944563,-0.006682670209556818
1772709204760803000,4.059802978515625,0.00014381069922819734,0.0003403519804123789,-0.0027483822777867317
1772709204770827800,4.069827880859375,0.0018192053539678454,-0.001186970854178071,0.003352387109771371
1772709204780852700,4.079852783203125,0.002246642718091607,0.0031467911321669817,0.004001133143901825
1772709204790877700,4.089877685546875,0.004652808886021376,0.006429403554648161,0.005097024142742157
1772709204800903000,4.09990283203125,0.006926615722477436,0.006100236903876066,0.0021015002857893705
1772709204810926800,4.1099267578125,0.00746031291782856,0.005335643421858549,-0.0009142631897702813
1772709204820952000,4.1199521484375,0.007239004597067833,0.009407083503901958,-0.003680488560348749
1772709204830977000,4.12997705078125,0.007221959996968508,0.011140535585582256,-0.005621133837848902
1772709204841002000,4.140001953125,0.0051721250638365746,0.009560481645166874,-0.008271245285868645
1772709204851026700,4.150026611328125,0.0043654534965753555,0.008697085082530975,-0.008146876469254494
1772709204861052000,4.160052001953125,0.0030099046416580677,0.011019893921911716,-0.007870972156524658
1772709204871075800,4.170075927734375,0.0036916739773005247,0.00555322365835309,-0.006629140581935644
1772709204881100800,4.180100830078125,0.005869074258953333,0.0028639633674174547,-0.005637113004922867
1772709204891126000,4.1901259765625,0.0029638318810611963,0.010399377904832363,0.0005523395957425237
1772709204901151000,4.20015087890625,0.0031579763162881136,0.009449427947402,-0.00042557314736768603
1772709204911176000,4.210176025390625,0.0009185242815874517,0.0033329459838569164,-0.004165716469287872
1772709204921201000,4.220200927734375,0.0019228023011237383,-0.0005227785441093147,-0.007896272465586662
1772709204931225900,4.230225830078125,0.003996073268353939,0.0037236318457871675,-0.004119643941521645
1772709204941249800,4.240249755859375,0.0030892668291926384,0.010506968945264816,-0.00401551416143775
1772709204951274800,4.250274658203125,0.00691995769739151,0.009958358481526375,-0.004759601317346096
1772709204961300000,4.260300048828125,0.0036874127108603716,0.0051806471310555935,-0.005273858085274696
1772709204971325000,4.270324951171875,0.003795803524553776,0.008139952085912228,-0.003599794814363122
1772709204981350000,4.280349853515625,0.000003994741746282671,0.00897059217095375,-0.005400091875344515
1772709204991374800,4.290374755859375,0.003506850451231003,0.004768389742821455,-0.006525010801851749
1772709205001398800,4.300398681640625,0.003596332622691989,0.007873369380831718,-0.004240285139530897
1772709205011423700,4.310423828125,0.002546780975535512,0.007446198258548975,-0.0033390712924301624
1772709205021449000,4.320448974609375,0.0020397149492055178,0.008165784180164337,-0.005572398193180561
1772709205031474000,4.330473876953125,0.003578489413484931,0.006358829792588949,-0.0051865060813724995
1772709205041499000,4.340498779296875,0.0034432008396834135,0.007345797028392553,-0.005596633069217205
1772709205051523800,4.35052392578125,0.006071208510547876,0.012133361771702766,-0.008242749609053135
1772709205061548000,4.360548095703125,0.0023118900135159492,0.010261425748467445,-0.009052351117134094
1772709205071572700,4.37057275390625,0.004290885291993618,0.00809361319988966,-0.00824115239083767
1772709205081597700,4.38059765625,0.002110022585839033,0.01064891554415226,-0.010785535909235477
1772709205091623000,4.390622802734375,0.003177950158715248,0.012286493554711342,-0.011717376299202442
1772709205101647600,4.400647705078125,0.0027379959356039762,0.011196994222700596,-0.010556237772107124
1772709205111672600,4.410672607421875,0.0033481260761618614,0.008980711922049522,-0.009881126694381237
1772709205121696800,4.42069677734375,0.0009416937828063965,0.006933007389307022,-0.010527475737035275
1772709205131721700,4.4307216796875,0.001528920722194016,0.007252852898091078,-0.009494967758655548
1772709205141746700,4.44074658203125,0.0034908715169876814,0.007139136083424091,-0.008882175199687481
1772709205151772000,4.45077197265625,0.002235191175714135,0.0060235378332436085,-0.007133277133107185
1772709205161796900,4.460796875,0.002120941411703825,0.006090116687119007,-0.00478543434292078
1772709205171821800,4.47082177734375,0.0038458709605038166,0.006969492416828871,-0.003177683800458908
1772709205181846500,4.480846435546875,0.0011984225129708648,0.00523683987557888,-0.001939580193720758
1772709205191870700,4.49087060546875,0.002600044244900346,0.00890933908522129,0.00040000680019147694
1772709205201895700,4.500895751953125,0.0015970977256074548,0.007546066772192717,-0.0010090717114508152
1772709205211920600,4.510920654296875,0.00018961707246489823,0.006318083498626947,-0.003885019337758422
1772709205221945900,4.52094580078125,0.0015960324089974165,0.0017510283505544066,-0.00649678148329258
1772709205231970800,4.530970703125,-0.0014407701091840863,0.003934554290026426,-0.009122125804424286
1772709205241995800,4.540995849609375,0.0004617921367753297,0.005316202063113451,-0.007784419693052769
1772709205252019700,4.551019775390625,0.0018303906545042992,0.008562329225242138,-0.004425374791026115
1772709205262044700,4.561044677734375,0.0009571401169523597,0.01005156897008419,-0.006098106037825346
1772709205272069600,4.571069580078125,0.0035156388767063618,0.00833622645586729,-0.00762969022616744
1772709205282094600,4.581094482421875,0.001996039180085063,0.010420150123536587,-0.010422547347843647
1772709205292119800,4.591119873046875,0.0010101370280608535,0.008859005756676197,-0.01014051865786314
1772709205302144800,4.601144775390625,0.001710548298433423,0.008952482603490353,-0.009665942750871181
1772709205312169700,4.611169677734375,0.002722017001360655,0.00944836251437664,-0.008414790034294128
1772709205322193700,4.621193603515625,0.001651159836910665,0.008143413811922073,-0.008207862265408039
1772709205332218600,4.631218505859375,0.0020042951218783855,0.0063124909065663815,-0.007346596103161573
1772709205342243600,4.64124365234375,0.0029529130551964045,0.0064989118836820126,-0.0062371231615543365
1772709205352268800,4.651268798828125,0.002585130510851741,0.006326339207589626,-0.001711081014946103
1772709205362293800,4.661293701171875,0.001886317040771246,0.004625910893082619,0.0010151970200240612
1772709205372318700,4.671318603515625,0.0013230583863332868,0.006590258330106735,-0.0011733887949958444
1772709205382343000,4.681343017578125,0.001240766723640263,0.0030008498579263687,0.0010578075889497995
1772709205392367600,4.69136767578125,0.0023180153220891953,0.004434163216501474,0.0013616742799058557
1772709205402392600,4.701392578125,-0.0007070692372508347,0.0070222229696810246,-0.0006388923502527177
1772709205412417500,4.71141748046875,-0.0002695118892006576,0.005111671518534422,-0.0021670141723006964
1772709205422442800,4.72144287109375,0.00005273058923194185,0.0009467537747696042,-0.0046690539456903934
1772709205432467700,4.7314677734375,0.0007499461644329131,0.0030953921377658844,-0.003945473115891218
1772709205442491600,4.74149169921875,-0.0008005462004803121,0.008300540037453175,-0.0041406829841434956
1772709205452516900,4.751516845703125,-0.0017784589435905218,0.010223076678812504,-0.0035302862524986267
1772709205462541800,4.761541748046875,-0.00024154871061909944,0.004564924165606499,-0.01230540219694376
1772709205472566500,4.77156640625,0.00015632755821570754,0.0013305152533575892,-0.012416722252964973
1772709205482591700,4.781591796875,0.001252750982530415,0.01004917174577713,-0.01107342354953289
1772709205492616700,4.79161669921875,0.00318966805934906,0.01474539004266262,-0.00944996066391468
1772709205502641700,4.8016416015625,0.005017928313463926,0.013821539469063282,-0.012315521948039532
1772709205512665900,4.811665771484375,0.002832005498930812,0.009279518388211727,-0.012943761423230171
1772709205522690800,4.82169091796875,0.003174221608787775,0.008452074602246284,-0.01005076989531517
1772709205532715800,4.8317158203125,0.003687146585434675,0.011261709034442902,-0.006369748618453741
1772709205542740700,4.84174072265625,0.004732437431812286,0.011892079375684261,-0.0062493737787008286
1772709205552765700,4.851765625,0.0032732912804931402,0.008716792799532413,-0.010431601665914059
1772709205562790700,4.861790771484375,0.001764077926054597,0.0070552462711930275,-0.009475793689489365
1772709205572814600,4.871814697265625,0.0019800602458417416,0.006415554787963629,-0.00936101097613573
1772709205582839800,4.88183984375,0.0030162963084876537,0.012286759912967682,-0.010844391770660877
1772709205592864800,4.89186474609375,0.000734766130335629,0.01537362951785326,-0.01176371518522501
1772709205602889700,4.9018896484375,0.0002950782363768667,0.007671235594898462,-0.012885171920061111
1772709205612914700,4.911914794921875,0.0006769755273126066,0.004635232035070658,-0.012083826586604118
1772709205622940000,4.92193994140625,0.0006972155533730984,0.008379369974136353,-0.0062757390551269054
1772709205632964600,4.931964599609375,0.0016112125013023615,0.008408931083977222,-0.0059926449321210384
1772709205642988800,4.94198876953125,0.00021518341964110732,0.007225688546895981,-0.007241934072226286
1772709205653013800,4.952013671875,0.0023723437916487455,0.0054269894026219845,-0.0062461779452860355
1772709205663038700,4.962038818359375,0.00030786142451688647,0.005091697443276644,-0.004746818449348211
1772709205673063700,4.972063720703125,0.0013720606220886111,0.006373210810124874,-0.002697515767067671
1772709205683089000,4.9820888671875,0.0034530546981841326,0.009226255118846893,-0.0026639599818736315
1772709205693113900,4.99211376953125,0.002557966159656644,0.0012665993999689817,-0.0011379687348380685
1772709205703137500,5.002137451171875,0.00210735946893692,0.009048622101545334,-0.00044128578156232834
1772709205713162800,5.012162841796875,0.0023435817565768957,0.005628324579447508,0.0011105381418019533
1772709205723187700,5.022187744140625,0.0010996191995218396,0.005724730901420116,0.0001174454009742476
1772709205733212700,5.032212646484375,0.002659965306520462,0.005013667047023773,0.0011981561547145247
1772709205743237600,5.042237548828125,0.0025158883072435856,0.004986236337572336,0.0025965820532292128
1772709205753262800,5.052262939453125,0.0027268105186522007,0.010395915247499943,0.00043516053119674325
1772709205763286800,5.062286865234375,0.004093545023351908,0.008312790654599667,-0.002776079112663865
1772709205773311500,5.0723115234375,0.0031284152064472437,0.004887433256953955,-0.0033926009200513363
1772709205783336700,5.082336669921875,0.0023877902422100306,0.005932724103331566,-0.0020780644845217466
1772709205793361700,5.092361572265625,0.004632036201655865,0.00920601561665535,-0.0024927188642323017
1772709205803386600,5.10238671875,0.005014998838305473,0.0073170349933207035,-0.0031366711482405663
1772709205813411800,5.112411865234375,0.0037473340053111315,0.007199056912213564,-0.005052282940596342
1772709205823436800,5.122436767578125,0.001651692553423345,0.007259510923177004,-0.002936135046184063
1772709205833460700,5.132460693359375,0.0023515713401138783,0.008461661636829376,-0.002989664673805237
1772709205843486000,5.14248583984375,0.002941993996500969,0.007348992861807346,-0.0044264402240514755
1772709205853510700,5.1525107421875,0.0025545042008161545,0.007689611054956913,-0.004092479590326548
1772709205863535600,5.16253564453125,0.0038661109283566475,0.006850183010101318,-0.005077582783997059
1772709205873560600,5.172560546875,0.004542820155620575,0.007160707376897335,-0.0030043120495975018
1772709205883585800,5.182585693359375,0.0020208065398037434,0.008195611648261547,-0.004352670628577471
1772709205893609700,5.192609619140625,0.00487145408987999,0.007071491796523333,-0.0025182850658893585
1772709205903634700,5.202634765625,0.0033366745337843895,0.0065284729935228825,-0.0015867113834246993
1772709205913660000,5.212659912109375,0.002746251644566655,0.008075769990682602,0.0008191883680410683
1772709205923684900,5.222684814453125,0.004640824627131224,0.006479737348854542,-0.0012367720482870936
1772709205933709600,5.23270947265625,0.0034975295420736074,0.005624329671263695,-0.003585680155083537
1772709205943734500,5.242734619140625,0.004181429278105497,0.003930559381842613,-0.005059206858277321
1772709205953759700,5.252759765625,0.0029526466969400644,0.00830000825226307,-0.00418489146977663
1772709205963783700,5.26278369140625,0.0027925907634198666,0.0060933125205338,-0.004999552387744188
1772709205973808600,5.27280859375,0.002808303339406848,0.0036514601670205593,-0.004838697146624327
1772709205983833900,5.282833740234375,0.0034908715169876814,0.0030597057193517685,-0.004730572924017906
1772709205993858800,5.29285888671875,0.0033361418172717094,0.0093919038772583,-0.0038930089212954044
1772709206003883500,5.302883544921875,0.003023486817255616,0.013732589781284332,0.0001382180635118857
1772709206013908700,5.31290869140625,0.0016679377295076847,0.005577191710472107,-0.004627508576959372
1772709206023932700,5.3229326171875,0.0023667511995881796,0.0029872676823288202,-0.006645119283348322
1772709206033957600,5.33295751953125,0.002922286745160818,0.009277920238673687,-0.006117547396570444
1772709206043982800,5.34298291015625,0.003299922915175557,0.011326956562697887,-0.006584665738046169
1772709206054007800,5.3530078125,0.006061088293790817,0.008701878599822521,-0.0046509443782269955
1772709206064032800,5.36303271484375,0.003852795111015439,0.008763398043811321,-0.005625927820801735
1772709206074057700,5.3730576171875,0.0046661244705319405,0.01041482388973236,-0.005976399872452021
1772709206084082700,5.383082763671875,0.005286640953272581,0.007454453967511654,-0.005031243897974491
1772709206094106600,5.393106689453125,0.0032139027025550604,0.0038932752795517445,-0.0008602010202594101
1772709206104132400,5.40313232421875,0.002829608740285039,0.004467186518013477,-0.0034298852551728487
1772709206114157300,5.4131572265625,0.002098304685205221,0.007636614143848419,-0.0028130970895290375
1772709206124182300,5.423182373046875,0.0032812808640301228,0.006054962985217571,-0.003947337158024311
1772709206134207200,5.433207275390625,0.0020013656467199326,0.007928497157990932,-0.002692722249776125
1772709206144232200,5.443232177734375,0.002808836055919528,0.0073114424012601376,-0.003918841481208801
1772709206154257400,5.45325732421875,0.00401498144492507,0.007639011368155479,-0.004004328977316618
1772709206164281300,5.46328125,0.0031411985401064157,0.00678307143971324,-0.004378769546747208
1772709206174306300,5.473306396484375,0.003026416292414069,0.0062333946116268635,-0.0035446672700345516
1772709206184331500,5.48333154296875,0.0023289343807846308,0.0057678744196891785,-0.0049124667420983315
1772709206194356500,5.4933564453125,0.0022530341520905495,0.0065383268520236015,-0.0026730147656053305
1772709206204381200,5.503381103515625,0.003862116253003478,0.006946589332073927,-0.0027265443932265043
1772709206214406100,5.51340625,0.0034882084000855684,0.007245928514748812,-0.002403769176453352
1772709206224430300,5.523430419921875,0.002567287301644683,0.005513542331755161,-0.00202267081476748
1772709206234455300,5.533455322265625,0.003864779369905591,0.007483482826501131,-0.003897003596648574
1772709206244480300,5.543480224609375,0.0035153725184500217,0.005557484459131956,-0.0049737198278307915
1772709206254505500,5.55350537109375,0.0038743666373193264,0.0070706927217543125,-0.006107427179813385
1772709206264530400,5.563530517578125,0.003662378992885351,0.008067780174314976,-0.002944923471659422
1772709206274555400,5.573555419921875,0.0022072279825806618,0.005882656667381525,-0.0007680556736886501
1772709206284580400,5.583580322265625,0.0027286747936159372,0.005082376766949892,-0.004162520635873079
1772709206294604300,5.593604248046875,0.0027861990965902805,0.0062360577285289764,-0.0023062974214553833
1772709206304629200,5.603629150390625,0.003817907767370343,0.006561496295034885,-0.003472495824098587
1772709206314654500,5.613654541015625,0.001942509668879211,0.00771650904789567,-0.003020290983840823
1772709206324679400,5.623679443359375,0.0024085629265755415,0.005566805601119995,-0.005093828309327364
1772709206334704400,5.633704345703125,0.002912166528403759,0.007385211996734142,-0.005051750224083662
1772709206344729300,5.643729248046875,0.0037912761326879263,0.007517304737120867,-0.004175037611275911
1772709206354754600,5.653754638671875,0.004611529875546694,0.00960016343742609,-0.004025368019938469
1772709206364778200,5.6637783203125,0.00224903947673738,0.007763380650430918,-0.003192331176251173
1772709206374803200,5.67380322265625,0.002180862706154585,0.006312756799161434,-0.0035396073944866657
1772709206384828400,5.683828369140625,0.0038456046022474766,0.006469883490353823,-0.003323092358186841
1772709206394853400,5.693853271484375,0.00381417921744287,0.008769523352384567,-0.005917544011026621
1772709206404878300,5.70387841796875,0.004059189930558205,0.005894374568015337,-0.0049127331003546715
1772709206414903300,5.7139033203125,0.00330338510684669,0.007040865253657103,-0.005366269499063492
1772709206424928500,5.723928466796875,0.0036786242853850126,0.009294964373111725,-0.0062278020195662975
1772709206434952200,5.7339521484375,0.005253351293504238,0.008771386928856373,-0.0037550569977611303
1772709206444977400,5.743977294921875,0.00472418125718832,0.006713562645018101,-0.004138818476349115
1772709206455002400,5.75400244140625,0.004008057527244091,0.007290936075150967,-0.005536179058253765
1772709206465027300,5.76402734375,0.0023395870812237263,0.00866006687283516,-0.002326271263882518
1772709206475052300,5.77405224609375,0.001651426195167005,0.008234494365751743,-0.002424808219075203
1772709206485077500,5.784077392578125,0.004078364931046963,0.0067838700488209724,-0.003472229465842247
1772709206495102500,5.7941025390625,0.0032293491531163454,0.00714579364284873,-0.0037201696541160345
1772709206505126100,5.804126220703125,0.0035473306197673082,0.00612287363037467,-0.002100168727338314
1772709206515151400,5.8141513671875,0.002529204124584794,0.007003581151366234,-0.00276063266210258
1772709206525176300,5.82417626953125,0.0031214910559356213,0.008611598052084446,-0.0020519655663520098
1772709206535201300,5.834201171875,0.00432976707816124,0.0034205641131848097,-0.0007534082396887243
1772709206545226200,5.844226318359375,0.0038045919500291348,0.0030304109677672386,-0.005045891273766756
1772709206555251500,5.85425146484375,0.004378503188490868,0.0073625752702355385,-0.003849599277600646
1772709206565276400,5.8642763671875,0.0028533106669783592,0.011048922315239906,0.001936650718562305
1772709206575300400,5.87430029296875,0.001535312389023602,0.006275206338614225,0.0003656520275399089
1772709206585325300,5.8843251953125,0.004723649006336927,0.0008010788587853312,-0.005773467011749744
1772709206595350300,5.894350341796875,0.0034288198221474886,0.005567604675889015,-0.004502606578171253
1772709206605375200,5.904375244140625,0.003239202778786421,0.011895807459950447,-0.002031725598499179
1772709206615400200,5.914400146484375,0.005593437235802412,0.01164280716329813,-0.003370496677234769
1772709206625425400,5.92442529296875,0.0054576159454882145,0.007050186395645142,-0.005251487251371145
1772709206635450400,5.934450439453125,0.0046331011690199375,0.01062228437513113,-0.004174771253019571
1772709206645474600,5.944474609375,0.005440305452793837,0.010091249831020832,-0.002122006844729185
1772709206655499500,5.95449951171875,0.004411792848259211,0.004875182639807463,-0.0031076427549123764
1772709206665524200,5.964524169921875,0.006643521599471569,0.0038927425630390644,-0.003907389938831329
1772709206675549200,5.974549072265625,0.0033342777751386166,0.006079996936023235,-0.00088976213010028
1772709206685574400,5.984574462890625,0.004837632179260254,0.010269948281347752,-0.001582982949912548
1772709206695599400,5.994599365234375,0.0036597158759832382,0.005825132131576538,-0.002335326047614217
1772709206705624300,6.004624267578125,0.003953462466597557,0.007321828510612249,-0.0011579424608498812
1772709206715648500,6.0146484375,0.0030399984680116177,0.009325324557721615,-0.0030503845773637295
1772709206725673500,6.024673583984375,0.0029800771735608578,0.006744455546140671,-0.0019912454299628735
1772709206735698200,6.0346982421875,0.004013650119304657,0.006229133810847998,-0.0018431737553328276
1772709206745723100,6.04472314453125,0.005382515024393797,0.005022721830755472,-0.0020160130225121975
1772709206755748400,6.054748291015625,0.003960386849939823,0.0073173013515770435,-0.001064998097717762
1772709206765773300,6.064773193359375,0.004948685877025127,0.006150570698082447,-0.0011086739832535386
1772709206775798300,6.07479833984375,0.002031459240242839,0.005587045568972826,0.0002620550512801856
1772709206785822500,6.084822509765625,0.004010987002402544,0.006166283041238785,-0.00037151097785681486
1772709206795847400,6.094847412109375,0.004516721237450838,0.005404885392636061,-0.001517735538072884
1772709206805872400,6.104872314453125,0.004111121874302626,0.006649114191532135,-0.0032149681355804205
1772709206815897300,6.1148974609375,0.004835767671465874,0.008686166256666183,-0.0028067054226994514
1772709206825922300,6.12492236328125,0.003879426745697856,0.008047273382544518,-0.004144144710153341
1772709206835947300,6.134947265625,0.0052384380251169205,0.008710667490959167,-0.0034072482958436012
1772709206845971500,6.144971435546875,0.004796885885298252,0.0070491209626197815,-0.0022391858510673046
1772709206855996400,6.154996337890625,0.0036732980515807867,0.007108775898814201,-0.0013028184184804559
1772709206866021400,6.165021484375,0.0034498588647693396,0.00911360327154398,-0.0026370619889348745
1772709206876046300,6.17504638671875,0.003555319970473647,0.00830906257033348,-0.0013321131700649858
1772709206886071600,6.185071533203125,0.004991828929632902,0.005429386626929045,-0.003924434073269367
1772709206896096300,6.19509619140625,0.0026160231791436672,0.0043321643024683,-0.004111121874302626
1772709206906121200,6.205121337890625,0.004563326481729746,0.006678408943116665,-0.0018407768802717328
1772709206916145400,6.2151455078125,0.0034466630313545465,0.009007609449326992,-0.0017153420485556126
1772709206926170400,6.22517041015625,0.0035124430432915688,0.006080529186874628,-0.004816060420125723
1772709206936195300,6.2351953125,0.0025539714843034744,0.005188902840018272,-0.0035577169619500637
1772709206946220300,6.24522021484375,0.0029547770973294973,0.006746585946530104,-0.0015965650090947747
1772709206956245500,6.25524560546875,0.00344559783115983,0.008867527358233929,-0.0007483482477255166
1772709206966270500,6.2652705078125,0.002347310073673725,0.006027265917509794,-0.005371063016355038
1772709206976295200,6.275295166015625,0.0037862160243093967,0.00615190202370286,-0.00615243474021554
1772709206986319400,6.2853193359375,0.0028842033352702856,0.007799067068845034,-0.004054929129779339
1772709206996344300,6.29534423828125,0.004011253360658884,0.0075790900737047195,-0.004791026934981346
1772709207006369300,6.305369384765625,0.002406165935099125,0.007904794998466969,-0.004714061506092548
1772709207016394500,6.31539453125,0.003430684097111225,0.007512777578085661,-0.005082909017801285
1772709207026419500,6.32541943359375,0.0046634613536298275,0.009619603864848614,-0.004144943784922361
1772709207036444400,6.3354443359375,0.003067695302888751,0.007470965851098299,-0.004279433749616146
1772709207046469400,6.345469482421875,0.0023877902422100306,0.007379619404673576,-0.004822984803467989
1772709207056493300,6.355493408203125,0.004265851341187954,0.009074721485376358,-0.005318598821759224
1772709207066518300,6.365518310546875,0.005320996046066284,0.007958590984344482,-0.00523604080080986
1772709207076543200,6.375543212890625,0.004711398389190435,0.007306382525712252,-0.004456001333892345
1772709207086568400,6.385568359375,0.0026578346733003855,0.008444084785878658,-0.002715891692787409
1772709207096593400,6.395593505859375,0.0033009881153702736,0.00806325301527977,-0.0029033781029284
1772709207106617300,6.405617431640625,0.003659449517726898,0.004525776021182537,-0.0018679412314668298
1772709207116642600,6.415642578125,0.0030453247018158436,0.003204049076884985,-0.00392842898145318
1772709207126666500,6.42566650390625,0.00493217445909977,0.0059969061985611916,-0.004662395920604467
1772709207136691500,6.43569140625,0.003968376200646162,0.009195362217724323,0.0006476807757280767
1772709207146716400,6.44571630859375,0.002008556155487895,0.007852597162127495,-0.0016468988033011556
1772709207156741400,6.455741455078125,0.0011225224006921053,0.0012650014832615852,-0.007048055995255709
1772709207166766300,6.465766357421875,0.002989931032061577,0.004008590243756771,-0.0065194182097911835
1772709207176791600,6.47579150390625,0.0028485171496868134,0.012352540157735348,-0.004752411041408777
1772709207186816500,6.48581640625,0.0032746228389441967,0.009554889053106308,-0.004723649006336927
1772709207196840400,6.49584033203125,0.0036613137926906347,0.006052566226571798,-0.007675496395677328
1772709207206865700,6.50586572265625,0.0044200485572218895,0.007501325570046902,-0.00780679052695632
1772709207216890600,6.515890625,0.0033750240691006184,0.011167433112859726,-0.004375040996819735
1772709207226915300,6.525915283203125,0.00407463638111949,0.008237157016992569,-0.002246376359835267
1772709207236940300,6.535940185546875,0.0034109766129404306,0.003171025775372982,-0.003117496380582452
1772709207246965500,6.545965576171875,0.005386775825172663,0.008039284497499466,-0.001984587637707591
1772709207256990500,6.555990478515625,0.0043984767980873585,0.010214021429419518,-0.0009182579233311117
1772709207267014400,6.566014404296875,0.003363838652148843,0.008717325516045094,-0.002011485630646348
1772709207277039600,6.57603955078125,0.004719654098153114,0.006499178241938353,-0.0034173682797700167
1772709207287064600,6.586064697265625,0.004029895178973675,0.007144195958971977,-0.003478354774415493
1772709207297089500,6.596089599609375,0.0036333505995571613,0.007420632056891918,-0.005485845264047384
1772709207307114200,6.6061142578125,0.005106611177325249,0.007165501359850168,-0.005205947440117598
1772709207317139500,6.616139404296875,0.003486876841634512,0.005595301277935505,-0.00561074772849679
1772709207327164400,6.626164306640625,0.003144926857203245,0.00714659271761775,-0.005345496814697981
1772709207337188600,6.636188720703125,0.0032754219137132168,0.007170294877141714,-0.004228300880640745
1772709207347213600,6.646213623046875,0.003602191573008895,0.006780407857149839,-0.004865595139563084
1772709207357238500,6.656238525390625,0.003603257006034255,0.005022988189011812,-0.005288771353662014
1772709207367263500,6.666263427734375,0.0028445222415030003,0.005076784174889326,-0.001955559244379401
1772709207377288700,6.676288818359375,0.004853877238929272,0.006705573294311762,-0.003034938359633088
1772709207387313400,6.6863134765625,0.003718571737408638,0.007026217877864838,-0.0029726203065365553
1772709207397338400,6.69633837890625,0.0030125677585601807,0.006066414527595043,-0.002360093407332897
1772709207407363300,6.70636328125,0.002317216480150819,0.004832838196307421,-0.0021635519806295633
1772709207417387500,6.716387451171875,0.005109008401632309,0.0070517840795218945,-0.0013587448047474027
1772709207427412500,6.72641259765625,0.0027241474017500877,0.00509915454313159,-0.004691690672188997
1772709207437437400,6.7364375,0.0005914880894124508,0.005655222572386265,-0.005268265027552843
1772709207447462700,6.746462646484375,0.0014231932582333684,0.007325024344027042,-0.0038453382439911366
1772709207457487600,6.756487548828125,0.0016471651615574956,0.007379619404673576,-0.007483748719096184
1772709207467512300,6.76651220703125,0.0015941682504490018,0.00520727876573801,-0.007794273551553488
1772709207477537300,6.776537353515625,0.002353701740503311,0.004233893472701311,-0.009104282595217228
1772709207487561500,6.7865615234375,0.001698564155958593,0.007931426167488098,-0.00771757448092103
1772709207497586400,6.79658642578125,0.002418150193989277,0.009224656969308853,-0.008400408551096916
1772709207511996400,6.810996337890625,0.0017989652696996927,0.005244829226285219,-0.008401207625865936
1772709207522021600,6.821021728515625,0.0028306739404797554,0.007607319392263889,-0.0054182009771466255
1772709207532046600,6.831046630859375,0.0029766152147203684,0.009375392459332943,-0.007685350254178047
1772709207542071600,6.841071533203125,0.0007893609581515193,0.007960188202559948,-0.00920308567583561
1772709207552096300,6.85109619140625,0.0026879284996539354,0.007366569712758064,-0.010914699174463749
1772709207562120400,6.861120361328125,0.002578738844022155,0.006433397997170687,-0.007154049351811409
1772709207572145400,6.8711455078125,0.0024682176299393177,0.008113053627312183,-0.008858206681907177
1772709207582170400,6.88117041015625,0.0029547770973294973,0.0080925477668643,-0.008710667490959167
1772709207592195600,6.891195556640625,0.0037760960403829813,0.008114119060337543,-0.007842742837965488
1772709207602220500,6.901220458984375,0.002650910522788763,0.008900550194084644,-0.008388158865272999
1772709207612245500,6.91124560546875,0.003397394670173526,0.007230216171592474,-0.0073428675532341
1772709207622270500,6.9212705078125,0.0033803503029048443,0.006659766659140587,-0.005620601586997509
1772709207632294400,6.93129443359375,0.0018730012234300375,0.007232879288494587,-0.007723966147750616
1772709207642319400,6.9413193359375,-0.000014381069377122913,0.00452710734680295,-0.008153000846505165
1772709207652344600,6.951344482421875,0.002120675053447485,0.006932474672794342,-0.009972739033401012
1772709207662369500,6.96136962890625,0.0021046961192041636,0.0068094367161393166,-0.011651862412691116
1772709207672394500,6.97139453125,0.0026844663079828024,0.007721569389104843,-0.011064635589718819
1772709207682419500,6.98141943359375,0.001701759872958064,0.006984938867390156,-0.008622250519692898
1772709207692444700,6.991444580078125,0.00005885586142539978,0.005483981221914291,-0.007728493306785822
1772709207702468400,7.00146826171875,0.0027206854429095984,0.004425374791026115,-0.009558351710438728
1772709207712493300,7.011493408203125,0.0012277172645553946,0.007257912773638964,-0.006179599091410637
1772709207722518500,7.0215185546875,0.0023782027419656515,0.009403355419635773,-0.006053897552192211
1772709207732543500,7.03154345703125,0.0014599448768422008,0.0073135728016495705,-0.00945022702217102
1772709207742568400,7.041568359375,0.001891909632831812,0.006666691042482853,-0.012325641699135303
1772709207752593400,7.051593505859375,0.0003581951605156064,0.008126636035740376,-0.012716594152152538
1772709207762618600,7.06161865234375,0.0005416869535110891,0.011572499759495258,-0.010537062771618366
1772709207772643600,7.0716435546875,0.0028551749419420958,0.01242124941200018,-0.012177304364740849
1772709207782667500,7.08166748046875,0.0018855180824175477,0.011247594840824604,-0.015916382893919945
1772709207792692500,7.0916923828125,0.002034122357144952,0.00827843602746725,-0.013131247833371162
1772709207802717400,7.101717529296875,0.00043782367720268667,0.006429669912904501,-0.00869149249047041
1772709207812742400,7.111742431640625,0.001329716295003891,0.00960042979568243,-0.006804642733186483
1772709207822767600,7.121767578125,0.0032751555554568768,0.007534615229815245,-0.006907440721988678
1772709207832792600,7.13179248046875,0.0025039040483534336,0.006895456463098526,-0.008350607939064503
1772709207842817500,7.141817626953125,0.0032692966051399708,0.006774283014237881,-0.008085357025265694
1772709207853469400,7.152469482421875,0.0023643544409424067,0.00851732213050127,-0.008666724897921085
1772709207863494400,7.162494384765625,0.001969407545402646,0.010862767696380615,-0.010963168926537037
1772709207873519400,7.172519287109375,-0.006318083498626947,-0.006295979022979736,0.04104730114340782
1772709207883543600,7.18254345703125,-0.0020698087755590677,0.01312219351530075,0.10427181422710419
1772709207893568500,7.192568603515625,-0.004465854726731777,0.051543086767196655,0.03718651831150055
1772709207903593500,7.202593505859375,0.0013733921805396676,0.0006151901907287538,-0.04529797285795212
1772709207913618700,7.21261865234375,0.005437908694148064,-0.05863188952207565,-0.04736405238509178
1772709207923643400,7.222643310546875,-0.0027116306591778994,-0.010636398568749428,-0.019050655886530876
1772709207933668400,7.23266845703125,-0.00025992453447543085,0.027826039120554924,-0.01245160959661007
1772709207943693300,7.242693359375,0.0022628880105912685,0.01858886517584324,-0.029820745810866356
1772709207953718500,7.252718505859375,0.005081044975668192,-0.00040426786290481687,-0.04489823430776596
1772709207963742500,7.262742431640625,0.003490072675049305,0.0041247038170695305,-0.033702302724123
1772709207973767400,7.272767333984375,0.004322843160480261,0.02093137986958027,-0.014961638487875462
1772709207983792600,7.282792724609375,0.0020325244404375553,0.019782492890954018,-0.005934854503720999
