time,seconds_elapsed,z,y,x
1772709200747097900,0.046097900390625,-0.0028760177083313465,0.003973581362515688,-0.00957729946821928
1772709200757122800,0.056122802734375,-0.0015132781118154526,0.004943504463881254,-0.01137732993811369
1772709200767147800,0.066147705078125,-0.0035666462499648333,-0.000481282826513052,-0.009222153574228287
1772709200777172700,0.0761728515625,-0.0029751581605523825,-0.003387856762856245,-0.007696161977946758
1772709200787198000,0.086197998046875,-0.003589131636545062,-0.0016808202490210533,-0.006220733746886253
1772709200797222700,0.09622265625,-0.0016013483982533216,-0.0002602902241051197,-0.003979950211942196
1772709200807246600,0.10624658203125,-0.0035537632647901773,-0.0005053584463894367,-0.005451703444123268
1772709200817271800,0.116271728515625,-0.0024829062167555094,-0.00338237127289176,-0.0032639161217957735
1772709200827296800,0.126296875,-0.0005079349502921104,-0.005501679144799709,-0.005417708307504654
1772709200837321700,0.13632177734375,0.00016637751832604408,-0.0034446539357304573,-0.0008866055868566036
1772709200847346700,0.1463466796875,-0.0008280719630420208,-0.0014284029603004456,-0.00017212447710335255
1772709200857372000,0.156371826171875,-0.0012571071274578571,0.0008627148345112801,-0.0013148870784789324
1772709200867396900,0.16639697265625,0.000560498796403408,-0.00013966811820864677,-0.0013856180012226105
1772709200877421600,0.176421630859375,-0.00044990447349846363,-0.001947155687958002,-0.005182486958801746
1772709200887445800,0.18644580078125,-0.001185043016448617,-0.0009676641784608364,-0.004460622556507587
1772709200897470700,0.196470703125,0.00015958677977323532,-0.0003921547904610634,-0.003225980792194605
1772709200907495700,0.20649560546875,-0.0024880985729396343,-0.0006530848331749439,-0.005047162063419819
1772709200917520600,0.216520751953125,-0.0035770651884377003,-0.0018839980475604534,-0.006011492572724819
1772709200927545900,0.2265458984375,-0.002606958383694291,0.00007736682891845703,-0.0066205840557813644
1772709200937570800,0.23657080078125,-0.0027539648581296206,0.003381284885108471,-0.007351089268922806
1772709200947595800,0.246595703125,-0.001115905586630106,0.003285651560872793,-0.007704737596213818
1772709200957620700,0.256620849609375,-0.0020482782274484634,0.001966321375221014,-0.0115064000710845
1772709200967644700,0.266644775390625,-0.004131111316382885,-0.0001660115085542202,-0.01332678273320198
1772709200977669600,0.276669677734375,-0.002589940093457699,0.00029045436531305313,-0.010748043656349182
1772709200987694800,0.28669482421875,-0.0014381504151970148,0.0024313414469361305,-0.010376578196883202
1772709200997719800,0.2967197265625,-0.0023950242903083563,0.0007940297946333885,-0.008522219024598598
1772709201007744800,0.306744873046875,-0.0013490403071045876,0.0009892205707728863,-0.00742644676938653
1772709201017769700,0.316769775390625,-0.0004113411996513605,0.003242787439376116,-0.008283453062176704
1772709201027794700,0.326794677734375,-0.0017675298731774092,0.002558101899921894,-0.006907938979566097
1772709201037819600,0.336819580078125,-0.0009398194961249828,0.0021088263019919395,-0.006949484348297119
1772709201047843600,0.346843505859375,-0.002088680397719145,0.0009839357808232307,-0.0053166551515460014
1772709201057868800,0.356868896484375,-0.002558728214353323,-0.0013460638001561165,-0.005889766849577427
1772709201067893800,0.366893798828125,-0.0005286270752549171,-0.0013953293673694134,-0.0059019532054662704
1772709201077918700,0.376918701171875,-0.0008506032172590494,0.0006470484659075737,-0.0034414592664688826
1772709201087943700,0.386943603515625,0.00034164125099778175,0.006576050538569689,0.00031798752024769783
1772709201097969400,0.396969482421875,-0.0034339220728725195,0.0028777183033525944,-0.0005877534858882427
1772709201107994400,0.406994384765625,0.00012390036135911942,-0.0018446426838636398,-0.00551603315398097
1772709201118019300,0.417019287109375,-0.0011576125398278236,0.0006784358993172646,-0.006583428476005793
1772709201128043300,0.427043212890625,0.0008311043493449688,0.007257493212819099,-0.005796784535050392
1772709201138068200,0.437068115234375,0.001073718536645174,0.0069139450788497925,-0.003414054401218891
1772709201148093200,0.44709326171875,0.0018751947209239006,0.0033663958311080933,-0.004818974994122982
1772709201158118100,0.4571181640625,0.004044871777296066,0.0018595792353153229,-0.0030967083293944597
1772709201168143400,0.467143310546875,0.0008903318084776402,0.004309158772230148,0.0022315422538667917
1772709201178168300,0.477168212890625,0.002221645787358284,0.003012731671333313,0.007414054125547409
1772709201188193300,0.487193359375,0.0039391182363033295,0.0011700903996825218,0.00834615994244814
1772709201198218200,0.49721826171875,0.0034626792185008526,-0.0017753653228282928,0.006211636587977409
1772709201208243500,0.507243408203125,0.004758761264383793,-0.00007898639887571335,0.00496338726952672
1772709201218267100,0.51726708984375,0.0015864036977291107,0.003440914209932089,0.004630492068827152
1772709201228292400,0.527292236328125,0.0013420595787465572,0.003145381808280945,0.00436524860560894
1772709201238317300,0.5373173828125,0.0016427305527031422,0.0020713284611701965,0.005008401814848185
1772709201248342300,0.54734228515625,0.0018926402553915977,0.0021789083257317543,0.0027732199523597956
1772709201258367200,0.5573671875,0.00048249633982777596,0.0013914117589592934,0.0003617275506258011
1772709201268392400,0.567392333984375,-0.00013927044346928596,0.004719757009297609,-0.0044235847890377045
1772709201278417400,0.57741748046875,-0.0076781464740633965,0.005790347699075937,-0.014499654993414879
1772709201288442400,0.5874423828125,-0.00896711926907301,-0.006394082680344582,-0.02268599346280098
1772709201298466300,0.59746630859375,-0.013414865359663963,-0.004192980006337166,-0.018368743360042572
1772709201308491300,0.6074912109375,-0.01598484069108963,-0.0003218064084649086,-0.016853872686624527
1772709201318516200,0.61751611328125,-0.014500928111374378,0.0029389681294560432,-0.023643068969249725
1772709201328541200,0.627541259765625,-0.013065855950117111,0.008293798193335533,-0.019589748233556747
1772709201338566400,0.63756640625,-0.00938776321709156,0.01062086969614029,-0.01286713033914566
1772709201348591400,0.64759130859375,-0.00436392379924655,0.0124429976567626,-0.01113433949649334
1772709201358616300,0.6576162109375,-0.002437393181025982,0.014712543226778507,-0.015576226636767387
1772709201368641300,0.667641357421875,-0.0017047859728336334,0.014476558193564415,-0.02009805291891098
1772709201378665200,0.677665283203125,-0.00041847932152450085,0.017968760803341866,-0.021404065191745758
1772709201388690200,0.687690185546875,0.0008559767156839371,0.019969312474131584,-0.018825650215148926
1772709201398715100,0.697715087890625,0.002168914768844843,0.017086174339056015,-0.01572040282189846
1772709201408740400,0.707740234375,0.000993635505437851,0.010808841325342655,-0.009211307391524315
1772709201418765300,0.717765380859375,0.0037361588329076767,0.013469072990119457,-0.002466585487127304
1772709201428790300,0.727790283203125,0.0034706685692071915,0.013060837984085083,0.0018019743729382753
1772709201438815200,0.737815185546875,0.0025625303387641907,0.009340137243270874,-0.00018048263154923916
1772709201448840200,0.747840087890625,0.000233490951359272,0.003965889103710651,0.0017734693828970194
1772709201458864000,0.757864013671875,0.0008803727105259895,0.0010414719581604004,0.004826516844332218
1772709201468889300,0.767889404296875,0.0018464168533682823,0.003031012136489153,0.009158097207546234
1772709201478914300,0.777914306640625,0.0023063449189066887,0.004595619160681963,0.01310250535607338
1772709201488939300,0.787939208984375,0.0016682934947311878,0.004295835737138987,0.015498483553528786
1772709201498964200,0.797964111328125,0.002726634033024311,-0.00012154923751950264,0.018121963366866112
1772709201508989400,0.807989501953125,0.0013006175868213177,-0.000818776898086071,0.017326485365629196
1772709201519014400,0.818014404296875,0.005022917874157429,0.0005708602257072926,0.016418348997831345
1772709201529038000,0.8280380859375,0.004633883014321327,0.003122695256024599,0.016041915863752365
1772709201539063300,0.838063232421875,0.003979012370109558,0.0012150728143751621,0.015245097689330578
1772709201549088300,0.848088134765625,0.005568254739046097,-0.00033676717430353165,0.0167249608784914
1772709201559113200,0.85811328125,0.005933639593422413,0.0016414285637438297,0.015622679144144058
1772709201569138200,0.86813818359375,0.008422523736953735,0.000854242593050003,0.014611843973398209
1772709201579163400,0.878163330078125,0.006658711936324835,-0.001751926727592945,0.015233425423502922
1772709201589188400,0.888188232421875,0.00673097325488925,0.0008148811757564545,0.018381042405962944
1772709201599213300,0.89821337890625,0.004961568396538496,0.000006877817213535309,0.020567230880260468
1772709201609238300,0.90823828125,0.004749413579702377,-0.0016677617095410824,0.0191215667873621
1772709201619262200,0.91826220703125,0.003424224443733692,-0.008818881586194038,0.013461817055940628
1772709201629287200,0.928287109375,0.0033781230449676514,-0.009336628019809723,0.013897464610636234
1772709201639312400,0.9383125,0.0029091406613588333,-0.001396147534251213,0.01673905737698078
1772709201649337300,0.94833740234375,0.0005582394078373909,-0.0004642605781555176,0.014375667087733746
1772709201659362300,0.9583623046875,-0.00001141102984547615,-0.010622356086969376,0.006442376412451267
1772709201669387300,0.96838720703125,-0.0006117308512330055,-0.018636036664247513,0.006185886450111866
1772709201679412500,0.97841259765625,-0.0008338384795933962,-0.01103404350578785,0.01387869380414486
1772709201689436200,0.988436279296875,0.0018998291343450546,-0.004605525638908148,0.01843702420592308
1772709201699461000,0.998461181640625,0.002296906430274248,-0.005624983459711075,0.018112119287252426
1772709201709486300,1.008486328125,0.0011705262586474419,-0.013048764318227768,0.01414630375802517
1772709201719511300,1.01851123046875,0.001935119740664959,-0.015134552493691444,0.014282925054430962
1772709201729536300,1.028536376953125,0.0012096446007490158,-0.007381053175777197,0.01710183545947075
1772709201739561200,1.038561279296875,0.0005891281180083752,-0.006638830062001944,0.01722300797700882
1772709201749586400,1.04858642578125,0.002894046250730753,-0.012852746993303299,0.0208912193775177
1772709201759611400,1.058611328125,0.0022205328568816185,-0.016875185072422028,0.023925891146063805
1772709201769635300,1.06863525390625,0.0010465853847563267,-0.013853559270501137,0.026920679956674576
1772709201779660300,1.078660400390625,0.002757666166871786,-0.01098187267780304,0.024821842089295387
1772709201789685200,1.088685302734375,0.002008973155170679,-0.009940833784639835,0.020056042820215225
1772709201799710200,1.098710205078125,0.0025645089335739613,-0.010398898273706436,0.018606750294566154
1772709201809735400,1.1087353515625,0.002413501963019371,-0.010591741651296616,0.01842447929084301
1772709201819760400,1.118760498046875,0.0031080543994903564,-0.00781832542270422,0.0173935703933239
1772709201829785300,1.128785400390625,0.0019815899431705475,-0.0033424203284084797,0.01859324425458908
1772709201839810300,1.138810302734375,0.005024784244596958,-0.001401508692651987,0.01822199858725071
1772709201849834200,1.148834228515625,0.0053236219100654125,-0.0013127336278557777,0.015621686354279518
1772709201859859200,1.158859130859375,0.005320160184055567,-0.004123433958739042,0.012940416112542152
1772709201869884200,1.16888427734375,0.005517840385437012,-0.003619870636612177,0.014739344827830791
1772709201879909400,1.178909423828125,0.006059527397155762,0.0007549040019512177,0.015492753125727177
1772709201889934300,1.188934326171875,0.006956798490136862,0.00383564131334424,0.01501192431896925
1772709201899959300,1.198959228515625,0.006879034917801619,0.0018164333887398243,0.011716262437403202
1772709201909984300,1.208984375,0.005887992680072784,-0.0003892187960445881,0.012905978597700596
1772709201920008200,1.21900830078125,0.007682963274419308,0.0010712584480643272,0.015704428777098656
1772709201930033200,1.229033203125,0.006611679680645466,-0.00017907656729221344,0.020203158259391785
1772709201940058000,1.23905810546875,0.007353636436164379,0.0003120102919638157,0.02343570441007614
1772709201950083300,1.249083251953125,0.008398234844207764,-0.0010904227383434772,0.03128085285425186
1772709201960108300,1.2591083984375,0.008636055514216423,0.0005703242495656013,0.034384503960609436
1772709201970133200,1.26913330078125,0.009266426786780357,0.002900088671594858,0.02907080575823784
1772709201980158200,1.279158203125,0.009089060127735138,-0.0009827995672821999,0.019721511751413345
1772709201990183400,1.289183349609375,0.008526235818862915,-0.0026914402842521667,0.01663980260491371
1772709202000207000,1.29920703125,0.006916887126863003,-0.0024043512530624866,0.021222304552793503
1772709202010232300,1.309232421875,0.00881878100335598,0.0030234213918447495,0.02184329926967621
1772709202020257300,1.31925732421875,0.006837655324488878,0.005033043213188648,0.020970048382878304
1772709202030282200,1.3292822265625,0.0072718774899840355,0.005388262216001749,0.01367814838886261
1772709202040307200,1.33930712890625,0.0067059556022286415,0.004858293104916811,0.007323047611862421
1772709202050332400,1.34933251953125,0.005334892310202122,0.003972330596297979,0.001835218514315784
1772709202060357400,1.359357421875,0.006652091629803181,0.0021680393256247044,-0.0009901290759444237
1772709202070381000,1.369381103515625,0.0036323782987892628,0.004968049004673958,-0.0014518944080919027
1772709202080406300,1.37940625,0.0031964187510311604,0.009902354329824448,-0.0027994539123028517
1772709202090431200,1.38943115234375,0.0033187633380293846,0.007471345365047455,-0.0065818848088383675
1772709202100456000,1.3994560546875,0.004439953714609146,0.0074558984488248825,-0.00809988658875227
1772709202110481000,1.40948095703125,0.0036445767618715763,0.00869861152023077,-0.006807382218539715
1772709202120506000,1.419506103515625,0.003250695299357176,0.007846133783459663,-0.002999595133587718
1772709202130531000,1.429531005859375,0.002866374794393778,0.003508912865072489,-0.00202481378801167
1772709202140556000,1.43955615234375,0.00333109637722373,0.0051254513673484325,0.002432252513244748
1772709202150580200,1.449580322265625,0.001998398918658495,0.003247662913054228,0.005073970183730125
1772709202160605200,1.459605224609375,0.002323038410395384,-0.0013734539970755577,0.005546681582927704
1772709202170630000,1.4696298828125,0.0023589045740664005,-0.0006254259496927261,0.005013223271816969
1772709202180655000,1.479655029296875,0.001391910482198,0.0033781039528548717,0.00352345104329288
1772709202190680000,1.48968017578125,0.00028138095512986183,0.0021642977371811867,0.0047910697758197784
1772709202200705000,1.499705078125,0.00015008682385087013,-0.0008602538146078587,0.002667731372639537
1772709202210730000,1.50972998046875,-0.0018915536347776651,-0.0016387519426643848,0.0017666921485215425
1772709202220755200,1.519755126953125,-0.0036931822542101145,-0.0000014407560229301453,-0.0013822296168655157
1772709202230779100,1.529779052734375,-0.0021805111318826675,-0.0006096102297306061,-0.0059251864440739155
1772709202240804000,1.53980419921875,-0.004379749298095703,-0.000928923487663269,-0.0065220012329518795
1772709202250829000,1.5498291015625,-0.004313777666538954,-0.0039804596453905106,-0.0061307186260819435
1772709202260854000,1.55985400390625,-0.005521787796169519,-0.0030092052184045315,-0.002257950371131301
1772709202270879000,1.56987890625,-0.007324560079723597,-0.0012579010799527168,-0.002660161117091775
1772709202280904000,1.579904052734375,-0.007353588938713074,-0.006887291092425585,-0.0038564533460885286
1772709202290929200,1.58992919921875,-0.005219101905822754,-0.0015172245912253857,-0.003438785905018449
1772709202300953000,1.599953125,-0.005197530146688223,0.0017278376035392284,-0.0011330212000757456
1772709202310978000,1.60997802734375,-0.003307234263047576,0.0027251290157437325,-0.0029724217019975185
1772709202321003300,1.620003173828125,-0.0017852378077805042,0.0005935346707701683,-0.004534099251031876
1772709202331028000,1.630028076171875,-0.0023484453558921814,-0.0014760452322661877,-0.006103205494582653
1772709202341053000,1.640052978515625,-0.002454971894621849,0.0032779634930193424,-0.0043977173045277596
1772709202351078100,1.650078125,-0.003181904088705778,-0.0006655952893197536,-0.001362017123028636
1772709202361103000,1.66010302734375,-0.0021123788319528103,-0.005784723442047834,0.003076406894251704
1772709202371128000,1.670128173828125,-0.0007437984459102154,-0.009567443281412125,0.006447345018386841
1772709202381152300,1.68015234375,-0.0036564976908266544,-0.006327441427856684,0.00998828373849392
1772709202391177200,1.69017724609375,-0.0022013976704329252,-0.004790259525179863,0.007063196040689945
1772709202401202200,1.7002021484375,-0.0027318992651998997,-0.0121107567101717,0.005208837334066629
1772709202411227000,1.710226806640625,-0.004245460499078035,-0.01409296877682209,0.009664388373494148
1772709202421252000,1.720252197265625,-0.003130927449092269,-0.018413681536912918,0.017630701884627342
1772709202431277000,1.730277099609375,-0.001980661181733012,-0.02399677038192749,0.0183524452149868
1772709202441302000,1.740302001953125,0.002620215993374586,-0.007873193360865116,0.014581143856048584
1772709202451327000,1.750326904296875,0.003779463469982147,0.013888563960790634,0.0026241473387926817
1772709202461351200,1.76035107421875,-0.0013604373671114445,0.006706018932163715,-0.013975868932902813
1772709202471376100,1.770376220703125,-0.005435204599052668,-0.01377500593662262,-0.026079347357153893
1772709202481401000,1.780401123046875,-0.007376915775239468,-0.012311065569519997,-0.030355852097272873
1772709202491426000,1.790426025390625,-0.005495487246662378,0.0072632115334272385,-0.01775633543729782
1772709202501451000,1.800450927734375,-0.0015121973119676113,0.021139346063137054,-0.006685840897262096
1772709202511476000,1.81047607421875,0.0005786614492535591,0.01618017628788948,-0.009590678848326206
1772709202521501200,1.820501220703125,0.001911040861159563,0.010067423805594444,-0.01788722351193428
1772709202531526100,1.830526123046875,0.001213350798934698,0.01234261691570282,-0.015513991005718708
1772709202541550000,1.840550048828125,-0.00017655291594564915,0.015794606879353523,-0.014229548163712025
1772709202551575300,1.8505751953125,-0.0016678636893630028,0.010450201109051704,-0.01969650201499462
1772709202561600300,1.860600341796875,-0.0018098100554198027,-0.0007936651818454266,-0.019672267138957977
1772709202571625000,1.870625,-0.002587993163615465,-0.004180172458291054,-0.009562486782670021
1772709202581650000,1.88064990234375,-0.00038342853076756,-0.0005979542620480061,0.0035775494761765003
1772709202591675100,1.890675048828125,-0.0010701282881200314,0.0017905882559716702,0.009598258882761002
1772709202601700000,1.9007001953125,-0.0007689245976507664,-0.007377077359706163,0.008737525902688503
1772709202611725000,1.91072509765625,-0.0015343523118644953,-0.016132120043039322,0.008915085345506668
1772709202621750000,1.92075,-0.003605758771300316,-0.014869781211018562,0.009201642125844955
1772709202631774200,1.930774169921875,-0.004046332556754351,-0.013177364133298397,0.00681446585804224
1772709202641799000,1.940798828125,-0.005025577265769243,-0.02056204341351986,0.008310896344482899
1772709202651823900,1.950823974609375,-0.0061979773454368114,-0.02216818556189537,0.0164763405919075
1772709202661849000,1.96084912109375,-0.005251756403595209,-0.02228430099785328,0.023966215550899506
1772709202671874000,1.9708740234375,-0.0034641469828784466,-0.01914128288626671,0.028001070022583008
1772709202681899000,1.98089892578125,-0.002260664477944374,-0.015057324431836605,0.026363492012023926
1772709202691924000,1.990924072265625,-0.00165184261277318,-0.016303451731801033,0.02035415917634964
1772709202701949200,2.00094921875,-0.002476091030985117,-0.021187422797083855,0.012306354008615017
1772709202711974100,2.01097412109375,-0.002019224688410759,-0.01721050962805748,0.007062644697725773
1772709202721998000,2.020998046875,0.0003797505050897598,-0.005761046428233385,0.006857581436634064
1772709202732023000,2.03102294921875,-0.0031475534196943045,-0.0016166730783879757,0.0060605257749557495
1772709202742048000,2.041048095703125,-0.0012527143117040396,-0.008296946063637733,0.00047587696462869644
1772709202752073000,2.051072998046875,-0.002062821527943015,-0.009660989046096802,-0.003252503229305148
1772709202762098200,2.06109814453125,-0.0002617256250232458,-0.00509073818102479,-0.0026935057248920202
1772709202772123100,2.071123046875,-0.0002262790221720934,-0.0008544512093067169,-0.004575625993311405
1772709202782148000,2.081148193359375,0.003573519177734852,0.005440729204565287,-0.008453721180558205
1772709202792173000,2.091173095703125,0.004463291261345148,0.008269069716334343,-0.017121024429798126
1772709202802198300,2.1011982421875,0.0014390056021511555,0.008057081140577793,-0.02346387505531311
1772709202812222000,2.111221923828125,0.002712519373744726,0.008856499567627907,-0.021864866837859154
1772709202822247000,2.121246826171875,0.0021529891528189182,0.011015523225069046,-0.016893278807401657
1772709202832272100,2.131272216796875,0.0011937189847230911,0.00864368211477995,-0.023063134402036667
1772709202842297000,2.141297119140625,-0.00027661235071718693,0.0021042898297309875,-0.0239129476249218
1772709202852322000,2.151322021484375,-0.0023791519924998283,0.0009823278523981571,-0.01553752738982439
1772709202862347000,2.161346923828125,-0.0013943149242550135,0.002912320662289858,-0.007434060797095299
1772709202872372200,2.171372314453125,-0.003460102481767535,0.0026009934954345226,-0.006751024164259434
1772709202882397200,2.181397216796875,-0.0034470530226826668,-0.0035445168614387512,-0.009372374042868614
1772709202892421000,2.191421142578125,-0.004143256228417158,-0.006596226245164871,-0.008228417485952377
1772709202902446000,2.201446044921875,-0.005610391963273287,-0.0036414493806660175,-0.0057985493913292885
1772709202912471000,2.211470947265625,-0.005087610334157944,-0.0007462957873940468,-0.009103688411414623
1772709202922496000,2.22149609375,-0.006280439905822277,-0.0035295654088258743,-0.011003321036696434
1772709202932521200,2.231521240234375,-0.005430092569440603,-0.0036600602325052023,-0.012874191626906395
1772709202942546200,2.241546142578125,-0.005295869428664446,0.0010931501165032387,-0.013681130483746529
1772709202952571100,2.251571044921875,-0.004703904502093792,0.0017426703125238419,-0.016669444739818573
1772709202962596000,2.26159619140625,-0.006083155516535044,0.0019754311069846153,-0.015665166079998016
1772709202972620000,2.2716201171875,-0.0025541188661009073,0.0024574846029281616,-0.014623686671257019
1772709202982645000,2.28164501953125,-0.003725377144291997,0.004134210757911205,-0.012707010842859745
1772709202992670000,2.291669921875,-0.002289640484377742,0.008950002491474152,-0.015218701213598251
1772709203002695200,2.301695068359375,-0.0035290755331516266,0.005670852027833462,-0.017636319622397423
1772709203012720000,2.31172021484375,-0.0020578615367412567,0.004517725203186274,-0.01854107901453972
1772709203022745000,2.3217451171875,-0.0025335021782666445,0.007427760865539312,-0.018333351239562035
1772709203032770000,2.33177001953125,-0.0006189621053636074,0.013085849583148956,-0.017320768907666206
1772709203042795300,2.341795166015625,-0.0025204592384397984,0.012295955792069435,-0.019297633320093155
1772709203052819000,2.35181884765625,-0.000839178217574954,0.009039470925927162,-0.01988295279443264
1772709203062844200,2.36184423828125,-0.0024485262110829353,0.00646898802369833,-0.017642434686422348
1772709203072869000,2.371869140625,-0.0033132017124444246,0.008377669379115105,-0.01593920588493347
1772709203082894000,2.38189404296875,-0.0021019959822297096,0.009356115013360977,-0.015161296352744102
1772709203092919000,2.3919189453125,-0.002939880359917879,0.006602913606911898,-0.015412680804729462
1772709203102943500,2.401943603515625,-0.005619552917778492,0.004344819579273462,-0.011841647326946259
1772709203112968400,2.411968505859375,-0.0044427290558815,0.004071315750479698,-0.010389095172286034
1772709203122993400,2.421993408203125,-0.0038379249162971973,0.004855084232985973,-0.008748055435717106
1772709203133017600,2.432017578125,-0.002570123877376318,0.004988289438188076,-0.011310650035738945
1772709203143042600,2.44204248046875,-0.0032055540941655636,0.003122745081782341,-0.012733576819300652
1772709203153067500,2.452067626953125,-0.004145351238548756,0.00172727694734931,-0.011608345434069633
1772709203163092700,2.4620927734375,-0.001777268247678876,0.0032095923088490963,-0.010886895470321178
1772709203173117400,2.472117431640625,-0.0011717805173248053,0.0030710576102137566,-0.010331588797271252
1772709203183142400,2.482142333984375,-0.0025403788313269615,0.002816460095345974,-0.009861807338893414
1772709203193167400,2.49216748046875,-0.002652444876730442,0.002728004939854145,-0.009592533111572266
1772709203203191600,2.502191650390625,-0.002161358017474413,0.0041799601167440414,-0.009490801021456718
1772709203213216500,2.512216552734375,-0.002291024662554264,0.006388845853507519,-0.01172903273254633
1772709203223241500,2.522241455078125,-0.0029176664538681507,0.0013445522636175156,-0.014064358547329903
1772709203233266700,2.5322666015625,-0.0022714261431246996,-0.0008560363203287125,-0.014621078968048096
1772709203243291600,2.542291748046875,-0.002623229753226042,0.0025416240096092224,-0.013829853385686874
1772709203253316400,2.55231640625,-0.0023596289101988077,0.009549942798912525,-0.009543053805828094
1772709203263341300,2.56234130859375,-0.0027633639983832836,0.010981923900544643,-0.00923838745802641
1772709203273366500,2.572366455078125,-0.004137101583182812,0.002858290448784828,-0.017745710909366608
1772709203283390500,2.582390380859375,-0.005512890871614218,0.00029393192380666733,-0.02196469157934189
1772709203293415400,2.59241552734375,-0.003187496680766344,0.004139279946684837,-0.01920253224670887
1772709203303440600,2.602440673828125,-0.0015568432863801718,0.008652272634208202,-0.017853375524282455
1772709203313465600,2.612465576171875,-0.003086060518398881,0.009797937236726284,-0.01763610914349556
1772709203323490600,2.622490478515625,-0.0012764425482600927,0.005947805009782314,-0.01751253753900528
1772709203333515500,2.632515625,-0.0020235907286405563,0.00487909372895956,-0.013757158070802689
1772709203343540500,2.64254052734375,-0.004466774873435497,0.0006260257214307785,-0.008571451529860497
1772709203353564400,2.652564453125,-0.002627464709803462,-0.0010683247819542885,-0.007540706545114517
1772709203363589600,2.662589599609375,-0.0020783208310604095,-0.003054243978112936,-0.006701810285449028
1772709203373614600,2.672614501953125,-0.0030301075894385576,-0.0026478166691958904,-0.004481487907469273
1772709203383639600,2.6826396484375,-0.002228762488812208,-0.000702910590916872,-0.0029578933026641607
1772709203393664500,2.69266455078125,-0.0008915334474295378,-0.0000642603263258934,-0.002620755461975932
1772709203403689700,2.702689697265625,-0.0015338880475610495,0.00017782114446163177,-0.0010678665712475777
1772709203413714400,2.71271435546875,-0.00032638455741107464,0.00010484782978892326,0.00004074280150234699
1772709203423738400,2.72273828125,-0.0013732733204960823,-0.0007321839220821857,-0.0025819384027272463
1772709203433763600,2.732763671875,-0.0015339662786573172,-0.0006051384843885899,-0.0057372599840164185
1772709203443788500,2.74278857421875,-0.0012929500080645084,0.0020449734292924404,-0.004899163730442524
1772709203453813500,2.7528134765625,0.0009666327387094498,0.0025312472134828568,-0.005539773032069206
1772709203463838500,2.76283837890625,-0.00004243897274136543,0.003772812895476818,-0.004046805202960968
1772709203473863700,2.77286376953125,0.0008625555783510208,0.005786689464002848,-0.00582193024456501
1772709203483888600,2.782888671875,0.00023910962045192719,0.0018348242156207561,-0.004823777824640274
1772709203493912600,2.79291259765625,0.0007337154820561409,0.0022857231087982655,-0.0009733978658914566
1772709203503937500,2.8029375,0.0019252137281000614,0.0037123779766261578,-0.000017855549231171608
1772709203513962500,2.81296240234375,0.0017520254477858543,0.003850308246910572,0.0014975658850744367
1772709203523987500,2.822987548828125,0.0024540345184504986,-0.002288011834025383,0.0029010516591370106
1772709203534012700,2.8330126953125,0.0005233217962086201,-0.003714942838996649,0.008394960314035416
1772709203544037600,2.84303759765625,0.0008229273371398449,0.000902179628610611,0.010048783384263515
1772709203554062600,2.8530625,0.0018847296014428139,0.0021014008671045303,0.008616002276539803
1772709203564086500,2.86308642578125,0.001833330374211073,6.994232535362244e-7,0.007151263765990734
1772709203574111500,2.873111572265625,0.0012705307453870773,-0.0013630646280944347,0.0026510911993682384
1772709203584136400,2.883136474609375,0.003849536180496216,0.001817281823605299,0.0021381662227213383
1772709203594161400,2.893161376953125,0.001123466994613409,0.004177616909146309,0.0023847930133342743
1772709203604186600,2.9031865234375,0.00322123896330595,-0.0011748038232326508,0.0029864010866731405
1772709203614211600,2.913211669921875,0.0005529620684683323,-0.00293384725227952,0.0010132839670404792
1772709203624235300,2.9232353515625,-0.0010971326846629381,-0.0012240977957844734,0.0031004033517092466
1772709203634260500,2.933260498046875,-0.000371099216863513,0.0019208546727895737,0.003762179985642433
1772709203644285400,2.943285400390625,0.0004792483523488045,0.0031104888767004013,0.004333428107202053
1772709203654310400,2.953310302734375,0.0012673353776335716,-0.00022110110148787498,0.002938179997727275
1772709203664335600,2.963335693359375,0.0012705307453870773,-0.002030719071626663,0.004605584777891636
1772709203674360600,2.973360595703125,0.0013499711640179157,0.0012159314937889576,0.00433002132922411
1772709203684385500,2.983385498046875,0.0017643589526414871,0.0010335049591958523,0.004006180912256241
1772709203694409700,2.99340966796875,0.0009244829416275024,0.00019383197650313377,0.004538997076451778
1772709203704434400,3.003434326171875,0.0006142249330878258,-0.00001788930967450142,0.003511549439281225
1772709203714459400,3.01345947265625,0.0013350057415664196,0.0018574935384094715,0.005093677900731564
1772709203724484400,3.023484375,0.0018559200689196587,0.002094514202326536,0.004113101866096258
1772709203734509600,3.033509521484375,0.0022859941236674786,0.002956049982458353,0.004378950223326683
1772709203744534500,3.043534423828125,0.0007136641070246696,0.0009019537828862667,0.0022875696886330843
1772709203754559500,3.0535595703125,0.002383063081651926,-0.0021084994077682495,0.0028047000523656607
1772709203764583700,3.063583740234375,-0.000027363887056708336,-0.0015827910974621773,0.0009636568138375878
1772709203774608600,3.073608642578125,0.0030385195277631283,-0.0009588189423084259,-0.0005368969868868589
1772709203784633300,3.08363330078125,0.001194280106574297,0.002219131216406822,0.004358525853604078
1772709203794658300,3.093658203125,-0.001093102153390646,0.0047385129146277905,0.005190608091652393
1772709203804683500,3.10368359375,-0.0003817719407379627,-0.0004930007271468639,0.0028755220118910074
1772709203814708500,3.11370849609375,-0.002103485632687807,-0.003223307430744171,0.0015264563262462616
1772709203824732400,3.123732421875,-0.00046457606367766857,0.0008153766393661499,0.0010114009492099285
1772709203834757600,3.133757568359375,0.0017241709865629673,0.004772312939167023,0.002205287106335163
1772709203844782600,3.143782470703125,0.0011254926212131977,0.0029608309268951416,0.0010606603464111686
1772709203854807600,3.1538076171875,0.0007528727874159813,0.0015006568282842636,-0.0009745543356984854
1772709203864832500,3.16383251953125,0.0014887042343616486,0.003128381446003914,-0.0027085384353995323
1772709203874857500,3.173857421875,0.0010175565257668495,0.0034015937708318233,0.0003814804367721081
1772709203884881400,3.18388134765625,0.00022766320034861565,0.0037755020894110203,0.0007370125968009233
1772709203894906600,3.19390673828125,-0.000002966728061437607,0.0015685404650866985,0.0007545894477516413
1772709203904931600,3.203931640625,0.0010529765859246254,0.0009951614774763584,-0.00019695796072483063
1772709203914956500,3.21395654296875,0.0004564756527543068,0.0009151976555585861,0.0012447956250980496
1772709203924981500,3.2239814453125,0.00014009233564138412,0.0017192056402564049,0.004375874064862728
1772709203935006700,3.2340068359375,0.0014576991088688374,0.0025299498811364174,0.0042805420234799385
1772709203945031400,3.244031494140625,0.0009993691928684711,0.0002156631089746952,0.0035122199915349483
1772709203955055400,3.254055419921875,0.0011956184171140194,0.0020191590301692486,0.000346051761880517
1772709203965080600,3.26408056640625,0.0019474285654723644,0.002786682453006506,-0.0009610278066247702
1772709203975105500,3.27410546875,0.0011814944446086884,0.002672103699296713,-0.0002989196218550205
1772709203985130500,3.284130615234375,-0.00013783550821244717,0.003117916639894247,-0.0018914900720119476
1772709203995155500,3.294155517578125,-0.000417651841416955,0.003754167817533016,-0.002453233813866973
1772709204005180700,3.3041806640625,0.0012409649789333344,0.00272485613822937,-0.0024297975469380617
1772709204015204400,3.314204345703125,0.00030923355370759964,0.003714771941304207,-0.002230740385130048
1772709204025229600,3.3242294921875,0.0007739551365375519,0.0037965308874845505,-0.003049928927794099
1772709204035254500,3.334254638671875,-0.00028185173869132996,0.004377381876111031,-0.00027991971001029015
1772709204045279500,3.344279541015625,-0.0013870636466890574,0.0036335615441203117,-0.000711085507646203
1772709204055304400,3.354304443359375,0.0006887302733957767,0.0018332181498408318,0.0009694702457636595
1772709204065329700,3.36432958984375,-0.0005943805444985628,-0.000145777128636837,0.00009701866656541824
1772709204075353600,3.374353515625,0.0003025457262992859,-0.0004432494752109051,0.0011442379327490926
1772709204085378300,3.38437841796875,-0.00042795948684215546,0.0008457209914922714,0.002204442396759987
1772709204095403500,3.394403564453125,0.001157286111265421,0.0024622431956231594,0.002672570990398526
1772709204105429000,3.404428955078125,-0.0005758991464972496,0.001732004340738058,0.0025639140512794256
1772709204115454000,3.414453857421875,-0.00010324106551706791,0.0008129538036882877,0.0004050179850310087
1772709204125479000,3.42447900390625,0.00111062778159976,0.001856913324445486,0.001190650393255055
1772709204135504000,3.43450390625,0.0005766223184764385,0.0026788334362208843,-0.00005109841004014015
1772709204145527800,3.44452783203125,0.0014613247476518154,0.002479362767189741,0.0007419909816235304
1772709204155552800,3.454552734375,0.0008546453900635242,0.0010944567620754242,0.0003715907223522663
1772709204165578000,3.464577880859375,0.0008407970890402794,0.0013506533578038216,0.0007878427859395742
1772709204175603000,3.47460302734375,0.0004492332227528095,0.0017014001496136189,-0.0007342274766415358
1772709204185628000,3.4846279296875,0.0014604353345930576,0.002411398570984602,-0.0014796459581702948
1772709204195652900,3.49465283203125,-0.00048156967386603355,0.0013599549420177937,-0.0022647916339337826
1772709204205676800,3.5046767578125,-0.0002669189125299454,0.0013647484593093395,-0.0025609349831938744
1772709204215701800,3.51470166015625,0.0006529903039336205,0.0019431808032095432,-0.0028878331650048494
1772709204225726700,3.524726806640625,0.0013765711337327957,0.00033330032601952553,-0.00502262357622385
1772709204235752000,3.534751953125,-0.0005336343310773373,0.0008603613823652267,-0.0041116392239928246
1772709204245777000,3.54477685546875,-0.00019354885444045067,0.0014587733894586563,-0.0018050752114504576
1772709204255801900,3.5548017578125,0.00048185884952545166,0.0024819886311888695,-0.0020351267885416746
1772709204265826800,3.564826904296875,-0.0006340057589113712,0.003974956460297108,0.00025465921498835087
1772709204275850800,3.574850830078125,-0.0010041326750069857,0.0010843556374311447,-0.0010245856828987598
1772709204285875700,3.584875732421875,0.00008776364848017693,0.0004212288185954094,0.002283592941239476
1772709204295901000,3.59490087890625,-0.0018876907415688038,0.00004651211202144623,0.002603512490168214
1772709204305926000,3.60492578125,-0.0004676932003349066,-0.00226271478459239,0.0034858176950365305
1772709204315950800,3.614950927734375,-0.000013164710253477097,-0.0004900745116174221,0.00126104976516217
1772709204325975800,3.624975830078125,0.0017498480156064034,-0.0014400240033864975,0.001044534845277667
1772709204336000000,3.635,-0.001343961339443922,0.0034770043566823006,0.002727028913795948
1772709204346025000,3.64502490234375,-0.001627055462449789,-0.0004508914425969124,0.0012561649782583117
1772709204356049700,3.655049560546875,-0.002853484358638525,-0.003118373453617096,-0.0008934293873608112
1772709204366075000,3.665074951171875,0.00015934975817799568,-0.002280276268720627,-0.0010633391793817282
1772709204376099800,3.675099853515625,-0.00035684905014932156,0.000857203733175993,0.00004153279587626457
1772709204386124800,3.685124755859375,0.0022373362444341183,0.0012681293301284313,0.0015435557579621673
1772709204396149000,3.69514892578125,0.0007069283165037632,-0.0031963754445314407,0.001732227043248713
1772709204406174000,3.705174072265625,0.000720510259270668,-0.0016418881714344025,0.003299230942502618
1772709204416199000,3.715198974609375,-0.00036849197931587696,-0.001354060135781765,0.0021416652016341686
1772709204426223900,3.725223876953125,0.00020355498418211937,-0.002413731999695301,-0.0004418673925101757
1772709204436248800,3.735248779296875,-0.0005565111059695482,-0.004655847325921059,-0.0016815687995404005
1772709204446273800,3.745273681640625,-0.00021802331320941448,-0.004691800102591515,-0.00022322172299027443
1772709204456298800,3.755298828125,0.0005665905773639679,-0.0014367937110364437,0.00104284577537328
1772709204466323000,3.765322998046875,0.0003692503087222576,-0.0014125588349997997,-0.0012655823957175016
1772709204476348000,3.775347900390625,-0.0012363602872937918,-0.000887715257704258,-0.0021859901025891304
1772709204486372900,3.785372802734375,-0.0017689925152808428,-0.003835568204522133,-0.0043354276567697525
1772709204496398000,3.795398193359375,-0.0023680683225393295,-0.0030864053405821323,-0.00580703467130661
1772709204506423000,3.805423095703125,-0.0031291996128857136,-0.00004827138036489487,-0.007291480898857117
1772709204516447700,3.81544775390625,-0.0015578861348330975,0.000278460793197155,-0.009011056274175644
1772709204526472000,3.825471923828125,-0.0009783823043107986,-0.004009494557976723,-0.00913169700652361
1772709204536497000,3.835496826171875,-0.001165494555607438,-0.0024569155648350716,-0.007151470519602299
1772709204546521900,3.84552197265625,-0.0019271585624665022,0.0013021361082792282,-0.00682736374437809
1772709204556546800,3.855546875,-0.0017562091816216707,0.0011133840307593346,-0.007050786633044481
1772709204566572000,3.865572021484375,-0.0018574094865471125,-0.0009026289917528629,-0.006544519681483507
1772709204576597000,3.875596923828125,-0.00020201783627271652,-0.002649690955877304,-0.005095805041491985
1772709204586621000,3.885620849609375,-0.0007916416507214308,-0.001027825754135847,-0.0027120099402964115
1772709204596646000,3.89564599609375,-0.0032569298055022955,-0.0014786990359425545,-0.002264598850160837
1772709204606670800,3.9056708984375,-0.0014449150767177343,-0.00345263397321105,-0.0037405225448310375
1772709204616695800,3.91569580078125,-0.0011976396199315786,-0.007652423810213804,-0.0018829130567610264
1772709204626721000,3.925720947265625,-0.0020746185909956694,-0.005070222541689873,-0.001189159695059061
1772709204636746000,3.93574609375,-0.0019085686653852463,-0.002212102524936199,0.00037496956065297127
1772709204646770000,3.94577001953125,-0.0016630252357572317,-0.0009939726442098618,-0.00029774499125778675
1772709204656795000,3.955794921875,-0.0011230986565351486,-0.003946130163967609,-0.000014750752598047256
1772709204666819800,3.96581982421875,-0.003158019855618477,-0.002480592578649521,-0.0029980239924043417
1772709204676844800,3.9758447265625,-0.002222637180238962,-0.00036096060648560524,0.00035374751314520836
1772709204686869800,3.985869873046875,-0.0003589570987969637,-0.00381960766389966,-0.0038559113163501024
1772709204696895000,3.99589501953125,-0.0004710389766842127,-0.005227828398346901,-0.0015638384502381086
1772709204706920000,4.005919921875,-0.0018391048070043325,-0.006266194861382246,0.00007400545291602612
1772709204716944000,4.01594384765625,-0.0006520079914480448,-0.004490083083510399,-0.0017010264564305544
1772709204726968800,4.02596875,-0.0017641440499573946,-0.0025323936715722084,0.0002252382691949606
1772709204736993800,4.035993896484375,-0.002646342385560274,-0.002761236857622862,-0.00246856058947742
1772709204747018800,4.046018798828125,-0.0006210084538906813,-0.0026206220500171185,-0.004322387278079987
1772709204757043700,4.056043701171875,-0.0029821852222085,-0.00553568359464407,-0.0027754483744502068
1772709204767069000,4.06606884765625,-0.0020982821006327868,-0.009560252539813519,0.004224936943501234
1772709204777092900,4.0760927734375,-0.0013048858381807804,-0.00560259772464633,0.007771918550133705
1772709204787118000,4.0861181640625,0.00014786841347813606,-0.0007828087545931339,0.008765543811023235
1772709204797143000,4.09614306640625,0.00155958766117692,-0.0009657335467636585,0.006565947085618973
1772709204807167700,4.106167724609375,0.002450149040669203,-0.0016168765723705292,0.003409568453207612
1772709204817192700,4.116192626953125,0.0033387939911335707,0.001858004368841648,0.001229780144058168
1772709204827218000,4.126218017578125,0.0028064281214028597,0.002109939232468605,-0.002864830195903778
1772709204837243000,4.136242919921875,0.0017779662739485502,0.0008377092890441418,-0.006147414445877075
1772709204847266800,4.146266845703125,0.0007388007361441851,0.0021719527430832386,-0.006716798059642315
1772709204857292000,4.1562919921875,-0.0003995373845100403,0.0013219155371189117,-0.00415180716663599
1772709204867317000,4.16631689453125,-0.001547359861433506,0.0012172525748610497,-0.0033366132993251085
1772709204877342000,4.176342041015625,0.002112619113177061,-0.005027891136705875,-0.0035460477229207754
1772709204887366700,4.18636669921875,-0.003156711347401142,0.00005688238888978958,0.00005055125802755356
1772709204897391900,4.196391845703125,-0.0015478131826967,0.004651387222111225,0.0053077503107488155
1772709204907415800,4.206415771484375,-0.003787797875702381,-0.0010914532467722893,-0.001317927846685052
1772709204917440800,4.216440673828125,-0.0026374575681984425,-0.007728824857622385,-0.004558747634291649
1772709204927466000,4.226466064453125,-0.00002702721394598484,-0.0067349327728152275,-0.0025475278962403536
1772709204937491000,4.236490966796875,0.0001995139755308628,0.0023483536206185818,-0.0011207705829292536
1772709204947516000,4.246515869140625,0.0009547863155603409,0.004190195817500353,-0.000999596668407321
1772709204957540900,4.256540771484375,0.0002260201144963503,-0.0014461646787822247,-0.0022178927902132273
1772709204967564800,4.266564697265625,-0.00028583966195583344,-0.0016791913658380508,-0.003056788584217429
1772709204977589800,4.27658984375,-0.000912453280761838,0.0041139861568808556,-0.0033392857294529676
1772709204987615000,4.286614990234375,-0.0005790253635495901,-0.0030368673615157604,-0.002992542227730155
1772709204997640000,4.296639892578125,-0.0006642730440944433,-0.000052566640079021454,-0.0018446918111294508
1772709205007665000,4.306664794921875,-0.000033902935683727264,0.0000030938535928726196,0.00027411896735429764
1772709205017689900,4.31668994140625,-0.0004420843906700611,0.0008468320593237877,-0.0010324644390493631
1772709205027715000,4.326715087890625,0.00033023254945874214,0.0009986329823732376,-0.0024561902973800898
1772709205037738800,4.33673876953125,-0.0008085642475634813,-0.002156207337975502,-0.0018347646109759808
1772709205047763700,4.346763671875,0.0019408834632486105,0.0033032731153070927,-0.002814541570842266
1772709205057789000,4.356788818359375,-0.0008569301571696997,0.002992266323417425,-0.007117714267224073
1772709205067814000,4.36681396484375,-0.00024466938339173794,0.0016281954012811184,-0.00490249739959836
1772709205077838800,4.3768388671875,-0.0013280389830470085,0.002123839221894741,-0.006655012257397175
1772709205087863800,4.38686376953125,-0.0006641128566116095,0.0039004338905215263,-0.009048927575349808
1772709205097888000,4.396887939453125,-0.0006730137392878532,0.003310259897261858,-0.007842369377613068
1772709205107912700,4.40691259765625,-0.0025100624188780785,0.0027411417104303837,-0.007950227707624435
1772709205117938000,4.41693798828125,-0.002663128077983856,0.0002941954880952835,-0.007890481501817703
1772709205127963000,4.426962890625,-0.001791475573554635,-0.0015447167679667473,-0.006369283888489008
1772709205137987600,4.436987548828125,-0.001161837251856923,-0.0015214886516332626,-0.008011763915419579
1772709205148012500,4.447012451171875,-0.0029512152541428804,-0.0016208249144256115,-0.004893469158560038
1772709205158036700,4.45703662109375,-0.0011607955675572157,-0.0017547719180583954,-0.002828527009114623
1772709205168061700,4.467061767578125,-0.001369853736832738,-0.0009520952589809895,-0.0010849556419998407
1772709205178086700,4.477086669921875,-0.0011895564384758472,-0.00294418353587389,-0.000843775225803256
1772709205188112000,4.48711181640625,-0.0008569275960326195,-0.0006674472242593765,0.0008262931369245052
1772709205198136800,4.49713671875,-0.0014454154297709465,0.0018543093465268612,0.0028140030335634947
1772709205208161800,4.507161865234375,-0.0017085359431803226,-0.0011808951385319233,-0.000045166583731770515
1772709205218186500,4.5171865234375,-0.0035453098826110363,-0.00470001483336091,-0.0023675623815506697
1772709205228210700,4.527210693359375,-0.004388200119137764,-0.004640626255422831,-0.006543398834764957
1772709205238235600,4.537235595703125,-0.0025429148226976395,-0.004269124940037727,-0.003183215158060193
1772709205248260900,4.5472607421875,-0.0031402618624269962,-0.0008373758755624294,-0.003446069313213229
1772709205258285800,4.557285888671875,-0.003958253189921379,0.002178983297199011,-0.003938532434403896
1772709205268310800,4.567310791015625,-0.0029039077926427126,-0.00012198789045214653,-0.004976366646587849
1772709205278335700,4.577335693359375,-0.001448972849175334,0.002199990674853325,-0.006794883869588375
1772709205288359700,4.587359619140625,-0.0016308666672557592,0.0018601715564727783,-0.006581299006938934
1772709205298384600,4.597384521484375,-0.0022909347899258137,0.001334714237600565,-0.006471897941082716
1772709205308409600,4.60740966796875,-0.0010903819929808378,0.0006862352602183819,-0.005931542720645666
1772709205318434800,4.617434814453125,-0.0013506407849490643,0.0026426329277455807,-0.0058364300057291985
1772709205328459800,4.627459716796875,-0.001555704278871417,-0.0018940619193017483,-0.005063580349087715
1772709205338484700,4.637484619140625,-0.00004762760363519192,-0.0015324922278523445,-0.0037487142253667116
1772709205348509700,4.647509765625,0.001135614700615406,-0.002410003449767828,-0.00016862689517438412
1772709205358533600,4.65753369140625,-0.0018214790616184473,-0.0006398097611963749,0.0014437244972214103
1772709205368558600,4.66755859375,-0.002380743157118559,-0.0023405044339597225,0.002261315006762743
1772709205378583600,4.67758349609375,-0.0025056693702936172,-0.005048638209700584,0.004082291852682829
1772709205388608800,4.68760888671875,-0.0030367039144039154,-0.004930926486849785,0.005507881753146648
1772709205398633700,4.6976337890625,-0.0032504634000360966,-0.002032023388892412,0.005314298905432224
1772709205408658700,4.70765869140625,-0.004753285087645054,0.00034378282725811005,0.0012109000235795975
1772709205418683000,4.717682861328125,-0.004647304769605398,-0.005293126218020916,-0.001031968742609024
1772709205428707600,4.72770751953125,-0.0037269163876771927,-0.006526435725390911,-0.0023867187555879354
1772709205438732500,4.737732666015625,-0.004504761192947626,0.0006010383367538452,-0.0012835455127060413
1772709205448757800,4.7477578125,-0.004701036028563976,0.0016969293355941772,-0.0008752827998250723
1772709205458782700,4.75778271484375,-0.0052139428444206715,-0.001401693094521761,-0.006465432234108448
1772709205468807700,4.7678076171875,-0.0035143133718520403,-0.005716280080378056,-0.011459126137197018
1772709205478831900,4.777831787109375,-0.003200326580554247,-0.0018224725499749184,-0.01041596569120884
1772709205488856800,4.78785693359375,-0.0000016039703041315079,0.007171289063990116,-0.007089943625032902
1772709205498881800,4.7978818359375,0.001400721725076437,0.0056807613000273705,-0.007890122011303902
1772709205508906500,4.807906494140625,-0.00045603420585393906,0.0040626246482133865,-0.010709078051149845
1772709205518931700,4.817931640625,0.000023729633539915085,0.0010926523245871067,-0.0070528797805309296
1772709205528956700,4.827956787109375,0.0006205439567565918,0.003380307462066412,-0.005161769688129425
1772709205538980600,4.837980712890625,-0.00015015620738267899,0.003157898783683777,-0.0027821434196084738
1772709205549005800,4.848005859375,0.0003353380598127842,0.005220782943069935,-0.0056522320955991745
1772709205559030800,4.85803076171875,-0.0021493330132216215,-0.000021091662347316742,-0.007556144148111343
1772709205569055700,4.8680556640625,-0.0012414613738656044,-0.0016759801656007767,-0.006527365185320377
1772709205579080700,4.878080810546875,-0.002561538014560938,0.0026335413567721844,-0.005924287252128124
1772709205589105700,4.888105712890625,-0.0021040071733295918,0.006141723599284887,-0.008447100408375263
1772709205599130600,4.898130615234375,-0.001047368161380291,0.003784039057791233,-0.010361389257013798
1772709205609154800,4.90815478515625,-0.0033336919732391834,-0.0011097854003310204,-0.010368846356868744
1772709205619179800,4.9181796875,-0.0038773335982114077,-0.0017944411374628544,-0.006742849946022034
1772709205629204700,4.928204833984375,-0.0021590618416666985,0.0010878974571824074,-0.004199530929327011
1772709205639229700,4.938229736328125,-0.0022480497136712074,0.0010071760043501854,-0.0036930448841303587
1772709205649255000,4.9482548828125,-0.00217241607606411,-0.001006972510367632,-0.004197980277240276
1772709205659280000,4.95827978515625,-0.0025652716867625713,-0.0037263850681483746,-0.00315763964317739
1772709205669303600,4.968303466796875,-0.0023074778728187084,-0.0015580393373966217,0.00032178033143281937
1772709205679328800,4.978328857421875,-0.0004549568984657526,0.0014702375046908855,-0.0008135896641761065
1772709205689353700,4.988353759765625,-0.0021543200127780437,-0.0034374352544546127,0.0004777773283421993
1772709205699378700,4.998378662109375,-0.0008215722627937794,-0.00244505750015378,0.0012411782518029213
1772709205709403600,5.008403564453125,0.000006404472514986992,0.0007454096339643002,0.004143757279962301
1772709205719428900,5.018428955078125,-0.0008587907068431377,-0.0011547962203621864,0.003700569272041321
1772709205729453800,5.028453857421875,0.0001241820864379406,-0.0032200776040554047,0.003356488887220621
1772709205739477800,5.038477783203125,-0.0005918643437325954,-0.004879768937826157,0.004122487735003233
1772709205749502700,5.048502685546875,-0.002021981868892908,0.0014124815352261066,0.004055642522871494
1772709205759527700,5.058527587890625,-0.0006149224936962128,0.001448719296604395,0.0018328216392546892
1772709205769552600,5.068552734375,-0.00009960075840353966,-0.0023635956458747387,-0.0013717601541429758
1772709205779577900,5.078577880859375,-0.000987395877018571,-0.00292979646474123,0.0012368150055408478
1772709205789602800,5.088602783203125,-0.0015357406809926033,0.0002247178927063942,0.0006730237510055304
1772709205799626800,5.098626708984375,0.00006258557550609112,0.0007706782780587673,0.00009377743117511272
1772709205809651700,5.108651611328125,-0.001957688480615616,0.0004343208856880665,-0.0027829690370708704
1772709205819676700,5.1186767578125,-0.0006135201547294855,-0.0005460288375616074,-0.0005853665061295033
1772709205829701600,5.12870166015625,0.00008769030682742596,0.001503273844718933,-0.0009046795312315226
1772709205839726600,5.1387265625,-0.0014880700036883354,0.000033502932637929916,-0.00037359842099249363
1772709205849751800,5.148751708984375,0.0014302218332886696,-0.0012378902174532413,-0.0008292652200907469
1772709205859775700,5.158775634765625,-0.001467348774895072,-0.0011489340104162693,-0.0025460768956691027
1772709205869800700,5.16880078125,-0.0007786552887409925,0.0002766558900475502,-0.0003963732160627842
1772709205879826000,5.178825927734375,-0.00013478007167577744,-0.0008133663795888424,-0.0010403988417237997
1772709205889850600,5.1888505859375,0.0001669558696448803,-0.0005129617638885975,-0.0019674450159072876
1772709205899875600,5.19887548828125,0.0007790788076817989,-0.00008873594924807549,0.00010310742072761059
1772709205909900500,5.208900634765625,-0.0004457088652998209,-0.000470633152872324,0.0010519917123019695
1772709205919925800,5.21892578125,0.0005558738484978676,-0.0011830567382276058,0.0017768575344234705
1772709205929949700,5.22894970703125,-0.00003667944110929966,-0.001992657780647278,-0.000619454775005579
1772709205939975000,5.238974853515625,0.0007773968391120434,-0.001927936915308237,-0.002155969850718975
1772709205949999900,5.248999755859375,-0.0003869372885674238,-0.0009676013141870499,-0.001023327698931098
1772709205960024800,5.25902490234375,-0.0005182833410799503,0.001338969450443983,-0.0026272207032889128
1772709205970049500,5.269049560546875,-0.0008043067064136267,-0.001303685363382101,-0.0013670132029801607
1772709205980074800,5.27907470703125,-0.0017208359204232693,-0.004664077423512936,-0.0008083370048552752
1772709205990099700,5.289099609375,-0.00008405721746385098,-0.0005484283901751041,-0.0013345777988433838
1772709206000123600,5.29912353515625,0.0008346983231604099,0.005368651356548071,-0.00008946610614657402
1772709206010148900,5.30914892578125,-0.0014423043467104435,0.0005280901677906513,0.0012650176649913192
1772709206020173800,5.319173828125,-0.00046499399468302727,-0.006196980830281973,-0.004337034188210964
1772709206030198800,5.32919873046875,0.00016244687139987946,0.00013148877769708633,-0.004102143459022045
1772709206040223500,5.339223388671875,-0.0004870460834354162,0.0044601839035749435,-0.0030183654744178057
1772709206050248700,5.349248779296875,0.00042242323979735374,0.002281186170876026,-0.002356569981202483
1772709206060272600,5.359272705078125,0.0008185198530554771,0.0004369691014289856,-0.0019020512700080872
1772709206070297600,5.369297607421875,0.0015897713601589203,0.0017246073111891747,-0.0029345587827265263
1772709206080322800,5.37932275390625,-0.0004749514628201723,0.0020202151499688625,-0.0031988085247576237
1772709206090347800,5.38934765625,-0.000940738245844841,-0.002672807313501835,0.0006177676841616631
1772709206100372700,5.399372802734375,0.0005939891561865807,-0.0013992777094244957,0.0006088416557759047
1772709206110398200,5.409398193359375,-0.0006473101675510406,-0.0016570715233683586,-0.000532322796061635
1772709206120423400,5.41942333984375,0.0004978170618414879,0.000990348868072033,-0.0009781827684491873
1772709206130447400,5.429447265625,0.00005733012221753597,-0.0024299491196870804,0.0002495346125215292
1772709206140472300,5.439472412109375,-0.0012457224074751139,0.00029635708779096603,-0.0003618805203586817
1772709206150497500,5.44949755859375,-0.0014148331247270107,-0.0007302914746105671,-0.0005578892305493355
1772709206160522200,5.459522216796875,-0.00022289017215371132,-0.0008919984102249146,-0.0018327722791582346
1772709206170547200,5.469547119140625,-0.0009115836583077908,-0.0014515286311507225,-0.00010438053868710995
1772709206180572200,5.479572265625,-0.0007921673823148012,-0.0019450248219072819,-0.0007030495908111334
1772709206190597400,5.489597412109375,-0.0008851117454469204,-0.0020579430274665356,0.00044397381134331226
1772709206200621300,5.499621337890625,-0.00015597185119986534,0.00023354077711701393,0.00115576374810189
1772709206210646300,5.509646240234375,0.00010954518802464008,-0.0002258545719087124,-0.0005590457003563643
1772709206220671500,5.51967138671875,-0.00019723596051335335,-0.0009558615274727345,0.00006395881064236164
1772709206230696400,5.529696533203125,-0.0007921862415969372,-0.0012120571918785572,-0.0010119581129401922
1772709206240721200,5.53972119140625,0.0006014141254127026,-0.0006693331524729729,-0.0009906995110213757
1772709206250746400,5.549746337890625,0.00030074315145611763,-0.0015846616588532925,-0.002096444135531783
1772709206260770300,5.559770263671875,0.0011147363111376762,-0.0007463144138455391,-0.0007705108728259802
1772709206270795300,5.569795166015625,0.000671852845698595,-0.001852591522037983,0.00028276932425796986
1772709206280820500,5.579820556640625,-0.0003041389863938093,-0.0026531126350164413,0.0014260461321100593
1772709206290845400,5.589845458984375,0.00016670767217874527,-0.0015361825935542583,0.001002603443339467
1772709206300870400,5.599870361328125,0.0003999699838459492,0.00023262947797775269,0.0009382658172398806
1772709206310895400,5.609895263671875,-0.002687432337552309,0.0009271819144487381,-0.000022070016711950302
1772709206320920300,5.61992041015625,0.0009943144395947456,-0.00047649815678596497,0.0005176328122615814
1772709206330944300,5.6299443359375,-0.0025013508275151253,0.0008505550213158131,-0.0024842824786901474
1772709206340969200,5.63996923828125,0.00041845301166176796,0.0002736295573413372,-0.0023065200075507164
1772709206350994400,5.649994384765625,-0.0008417547214776278,0.0025626164861023426,-0.0012298040091991425
1772709206361019400,5.660019287109375,-0.0012232735753059387,0.00025719963014125824,-0.00120096979662776
1772709206371044400,5.67004443359375,-0.0014248748775571585,-0.002844584174454212,-0.002729357685893774
1772709206381069300,5.6800693359375,-0.0009182118810713291,-0.0006821136921644211,-0.00045800255611538887
1772709206391094500,5.690094482421875,-0.0015605662483721972,0.0009245714172720909,-0.001661218935623765
1772709206401118200,5.7001181640625,-0.000893500167876482,-0.0007066386751830578,-0.0005402758251875639
1772709206411143400,5.710143310546875,-0.0008839129004627466,-0.001698133535683155,-0.0014454841148108244
1772709206421168400,5.72016845703125,0.0007143556140363216,-0.00010531069710850716,-0.002034299774095416
1772709206431193300,5.730193359375,-0.00012720306403934956,0.0017173564992845058,-0.0005165643524378538
1772709206441218300,5.74021826171875,0.00009583705104887486,0.0010480890050530434,-0.0007911908905953169
1772709206451243500,5.750243408203125,-0.00014997273683547974,-0.0006328979507088661,-0.0023739077150821686
1772709206461268500,5.7602685546875,0.0003079310990869999,0.00019323360174894333,-0.0017002751119434834
1772709206471292200,5.770292236328125,-0.00015066540800035,-0.0004688282497227192,0.0022979287896305323
1772709206481317400,5.7803173828125,-0.000568808289244771,-0.0013500656932592392,-0.0005188325885683298
1772709206491342300,5.79034228515625,0.00034438958391547203,-0.0002882629632949829,0.00024043465964496136
1772709206501367300,5.8003671875,0.00045012030750513077,-0.0017505735158920288,0.0010980824008584023
1772709206511392300,5.810392333984375,0.000887677539139986,-0.000009132549166679382,0.0004956754855811596
1772709206521417500,5.82041748046875,0.0005489815957844257,0.0006526876240968704,-0.0000891729723662138
1772709206531442400,5.8304423828125,-0.0011453211773186922,-0.0015225820243358612,0.0020874287001788616
1772709206541466000,5.840466064453125,-0.0016885874792933464,-0.005398612469434738,-0.0005488526076078415
1772709206551491300,5.8504912109375,0.0015104017220437527,-0.0033892570063471794,-0.0018348931334912777
1772709206561516300,5.860516357421875,0.0008411826565861702,0.003136345651000738,0.0032793309073895216
1772709206571541200,5.870541259765625,-0.0028230606112629175,0.0006862380541861057,0.004523026756942272
1772709206581566200,5.880566162109375,-0.0017216375563293695,-0.006466803140938282,-0.0029882441740483046
1772709206591591400,5.89059130859375,0.0015133041888475418,-0.005437225103378296,-0.003126195864751935
1772709206601616400,5.900616455078125,0.0003636777400970459,0.0025267484597861767,0.0004795496352016926
1772709206611640600,5.910640625,0.0012893928214907646,0.004656744655221701,0.00046383682638406754
1772709206621665300,5.920665283203125,0.0028467224910855293,0.0011671516112983227,-0.00127390306442976
1772709206631690200,5.930690185546875,0.0044126613065600395,0.0006230673752725124,-0.00360629940405488
1772709206641715200,5.940715087890625,-0.0004895210731774569,0.005536909680813551,0.0007075895555317402
1772709206651740400,5.950740478515625,0.002079363912343979,-0.0019537629559636116,-0.0001435568556189537
1772709206661765400,5.960765380859375,0.000024384353309869766,-0.0033210832625627518,-0.0010884732473641634
1772709206671789300,5.970789306640625,0.0018268115818500519,-0.0010249055922031403,0.002107852604240179
1772709206681814500,5.980814453125,0.0007750228978693485,0.0023519950918853283,0.0030159810557961464
1772709206691839500,5.990839599609375,-0.00004176865331828594,-0.0011625788174569607,0.0011190114310011268
1772709206701864200,6.0008642578125,-0.0008677728474140167,-0.0014176908880472183,-0.0001677088439464569
1772709206711889200,6.01088916015625,-0.00015218136832118034,0.0005037803202867508,0.0005942215211689472
1772709206721914400,6.020914306640625,0.0007372326217591763,0.0008406476117670536,-0.00032129022292792797
1772709206731939300,6.030939208984375,0.0004179193638265133,-0.0016861590556800365,0.0006632804870605469
1772709206741963300,6.04096337890625,0.00062141427770257,-0.0008736001327633858,0.0020641484297811985
1772709206751988500,6.050988525390625,0.00004430720582604408,-0.0007542907260358334,0.002429267857223749
1772709206762013400,6.061013427734375,0.0001329905353486538,0.000207643024623394,0.0027104977052658796
1772709206772038400,6.071038330078125,-0.0016313537489622831,-0.0033396873623132706,0.002461492083966732
1772709206782063400,6.0810634765625,0.0007871943525969982,0.0002518356777727604,0.0021815390791743994
1772709206792088300,6.09108837890625,0.0018458007834851742,-0.0005276715382933617,0.0010694031370803714
1772709206802113300,6.10111328125,0.002108968561515212,-0.0007868357934057713,0.0010225761216133833
1772709206812138200,6.11113818359375,0.00022904318757355213,0.0003492683172225952,0.00021643727086484432
1772709206822162400,6.121162353515625,0.0004972915630787611,-0.00021040160208940506,-0.001944864634424448
1772709206832187400,6.1311875,-0.00022282730787992477,0.0012239771895110607,-0.00040955236181616783
1772709206842212400,6.14121240234375,0.00100544816814363,0.00036624725908041,0.00016218330711126328
1772709206852237300,6.1512373046875,-0.0001194709911942482,-0.001231383066624403,-0.00030546775087714195
1772709206862262300,6.16126220703125,0.0009130123071372509,0.0013709231279790401,-0.0009202689398080111
1772709206872287200,6.171287353515625,-0.0019054111326113343,0.0004345555789768696,0.001498413854278624
1772709206882311400,6.1813115234375,-0.000004234025254845619,-0.0005036583170294762,-0.0002792810555547476
1772709206892336400,6.19133642578125,0.0008674184791743755,-0.002237909007817507,-0.0021967568900436163
1772709206902361300,6.201361328125,0.00021591922268271446,-0.001570406835526228,0.001157873310148716
1772709206912386300,6.21138623046875,-0.0007619934622198343,0.001803817693144083,0.0024210105184465647
1772709206922411500,6.22141162109375,-0.00043377606198191643,-0.0007466399110853672,-0.0007878616452217102
1772709206932436200,6.231436279296875,-0.0012785305734723806,-0.0020446646958589554,0.0009621013887226582
1772709206942461200,6.241461181640625,-0.001277803210541606,-0.0007955892942845821,0.0006065079942345619
1772709206952485400,6.2514853515625,-0.00048071914352476597,0.0016715629026293755,-0.00033864774741232395
1772709206962510300,6.26151025390625,-0.00030205980874598026,-0.00013843830674886703,-0.0011751602869480848
1772709206972535300,6.271535400390625,0.00044309254735708237,-0.0011467109434306622,-0.0028537509497255087
1772709206982560500,6.281560546875,-0.000636940123513341,0.000056240707635879517,-0.002084498992189765
1772709206992585500,6.29158544921875,0.00047572841867804527,0.0007587824948132038,-0.00200886488892138
1772709207002610400,6.3016103515625,-0.0008275152649730444,-0.0004154122434556484,-0.002990209497511387
1772709207012635100,6.31163525390625,0.00024280929937958717,-0.0014593712985515594,-0.001365681178867817
1772709207022659300,6.321659423828125,-0.0009741017129272223,-0.0010525095276534557,-0.0019008873496204615
1772709207032684300,6.331684326171875,0.00007438473403453827,0.000341655220836401,-0.0012611958663910627
1772709207042709200,6.341709228515625,0.00046978588216006756,0.0005344361998140812,-0.00015592947602272034
1772709207052734500,6.351734375,0.0005001456011086702,0.0018772021867334843,-0.0017394451424479485
1772709207062759400,6.361759521484375,-0.00024103745818138123,0.0006616255268454552,-0.0028427683282643557
1772709207072784400,6.371784423828125,-0.0005004294216632843,-0.0008505168370902538,-0.001692549092695117
1772709207082809300,6.381809326171875,0.0015587471425533295,0.0010749949142336845,-0.0014185721520334482
1772709207092833300,6.391833251953125,-0.0008298419415950775,0.00019854865968227386,-0.00029178871773183346
1772709207102858200,6.401858154296875,0.0008661104366183281,-0.0014495416544377804,0.0014873689506202936
1772709207112882400,6.41188232421875,-0.000059870770201087,-0.0032964437268674374,0.00047723203897476196
1772709207122907400,6.421907470703125,-0.00014596106484532356,-0.0018389918841421604,-0.0037137833423912525
1772709207132932400,6.431932373046875,-0.00023890542797744274,0.002279852982610464,0.0020445033442229033
1772709207142957600,6.44195751953125,-0.0024665403179824352,0.0023520360700786114,0.004502234980463982
1772709207152982500,6.451982421875,-0.0019317774567753077,-0.004459531046450138,-0.002131166635081172
1772709207163006500,6.46200634765625,-0.002099771983921528,-0.0067547280341386795,-0.004127011634409428
1772709207173031700,6.47203173828125,-0.00009867292828857899,0.002753289882093668,-0.0016247057355940342
1772709207183056400,6.482056396484375,0.0005288959946483374,0.00508375046774745,-0.002032688818871975
1772709207193081300,6.492081298828125,0.0005129172932356596,0.0012354827485978603,-0.003663608804345131
1772709207203106300,6.502106201171875,0.001610740553587675,-0.0021718130446970463,-0.006708500906825066
1772709207213131500,6.512131591796875,0.0012227180413901806,0.0029518422670662403,-0.001971269492059946
1772709207223156500,6.522156494140625,0.0016503480728715658,0.0017962143756449223,-0.00026870728470385075
1772709207233180400,6.532180419921875,0.001095611834898591,-0.0027492688968777657,-0.00018934509716928005
1772709207243205600,6.54220556640625,0.0007094806060194969,-0.001166065689176321,0.0004019893240183592
1772709207253230600,6.552230712890625,0.000005873618647456169,0.0012600738555192947,0.002888050163164735
1772709207263255300,6.56225537109375,0.000047947512939572334,0.0012861406430602074,0.0012652291916310787
1772709207273280300,6.5722802734375,-0.00001410418190062046,-0.0004198802635073662,-0.0004064368549734354
1772709207283305500,6.582305419921875,0.0011380254290997982,-0.0006976178847253323,-0.0014921361580491066
1772709207293330400,6.592330322265625,0.00014573149383068085,0.0015090769156813622,-0.0018476680852472782
1772709207303354600,6.602354736328125,-0.0005639954470098019,0.00012354552745819092,-0.002112769056111574
1772709207313379600,6.612379638671875,0.0005228407680988312,-0.0002064201980829239,-0.0025631096214056015
1772709207323404500,6.622404541015625,-0.0006784163415431976,-0.0007264530286192894,-0.0019071944989264011
1772709207333429500,6.632429443359375,-0.001125561073422432,0.0007401495240628719,-0.0029034828767180443
1772709207343454500,6.642454345703125,-0.0006125718355178833,0.0003646481782197952,-0.0017688532825559378
1772709207353479400,6.6524794921875,0.0010939817875623703,-0.0010580122470855713,-0.0032852569129318
1772709207363504400,6.66250439453125,0.0003291515167802572,-0.0011891350150108337,-0.0006682523526251316
1772709207373528600,6.672528564453125,-0.0012599567417055368,-0.0023273704573512077,0.00007530231960117817
1772709207383553500,6.682553466796875,0.000010296236723661423,-0.0012941192835569382,-0.00008843746036291122
1772709207393578500,6.69257861328125,-0.00048478529788553715,-0.0026304936036467552,-0.0003227957058697939
1772709207403603500,6.702603515625,-0.0008788160048425198,-0.0041803158819675446,0.0004937225021421909
1772709207413628700,6.712628662109375,0.0011454529594630003,-0.001615158747881651,0.0012489950750023127
1772709207423653400,6.7226533203125,-0.0022098857443779707,-0.002704810816794634,0.0006400577258318663
1772709207433678300,6.73267822265625,-0.0026533021591603756,-0.000560433603823185,-0.0020049940794706345
1772709207443702500,6.74270263671875,-0.0006107953377068043,-0.0003553321585059166,-0.002106546424329281
1772709207453727500,6.7527275390625,-0.0017879125662147999,0.001085970550775528,-0.0032623582519590855
1772709207463752400,6.76275244140625,-0.003387236502021551,-0.00011814525350928307,-0.0069693271070718765
1772709207473777400,6.77277734375,-0.00006414414383471012,-0.002495815511792898,-0.00605666171759367
1772709207483802600,6.782802734375,-0.003071233630180359,-0.0036158107686787844,-0.004325752146542072
1772709207493827600,6.79282763671875,-0.0015140832401812077,0.0005863914266228676,-0.004481280222535133
1772709207503852300,6.802852294921875,-0.0021451744250953197,0.001025456003844738,-0.005416746251285076
1772709207522021600,6.821021728515625,-0.0009185569360852242,0.00016828346997499466,-0.0026324305217713118
1772709207532046600,6.831046630859375,-0.0007726156618446112,0.0019363565370440483,-0.004899580031633377
1772709207542071600,6.841071533203125,-0.0029594600200653076,0.0005227751098573208,-0.006417251192033291
1772709207552096300,6.85109619140625,-0.0010608923621475697,-0.00007084337994456291,-0.00812886469066143
1772709207562120400,6.861120361328125,-0.0011698275338858366,-0.001002224162220955,-0.004367893561720848
1772709207572145400,6.8711455078125,-0.0012803487479686737,0.0006774314679205418,-0.006072050891816616
1772709207582170400,6.88117041015625,-0.0007931140717118979,0.0006585381925106049,-0.005925218109041452
1772709207592195600,6.891195556640625,0.000028204871341586113,0.0006801094859838486,-0.005057293456047773
1772709207602220500,6.901220458984375,-0.0010965487454086542,0.0014683022163808346,-0.005602709483355284
1772709207612245500,6.91124560546875,-0.00035006459802389145,-0.00020203180611133575,-0.004557418171316385
1772709207622270500,6.9212705078125,-0.0003665238618850708,-0.0007707048207521439,-0.0028352802619338036
1772709207632294400,6.93129443359375,-0.0018738729413598776,-0.00019759219139814377,-0.004938644822686911
1772709207642319400,6.9413193359375,-0.003760353662073612,-0.00290139252319932,-0.00536832120269537
1772709207652344600,6.951344482421875,-0.0016252975910902023,-0.0004960251972079277,-0.007188059389591217
1772709207662369500,6.96136962890625,-0.0016410497482866049,-0.0006169942207634449,-0.008866092190146446
1772709207672394500,6.97139453125,-0.001061279559507966,0.0002951384522020817,-0.008278865367174149
1772709207682419500,6.98141943359375,-0.0020434174221009016,-0.0004394957795739174,-0.005836158990859985
1772709207692444700,6.991444580078125,-0.003686321433633566,-0.0019404534250497818,-0.0049424017779529095
1772709207702468400,7.00146826171875,-0.0010232222266495228,-0.0029970714822411537,-0.006773351226001978
1772709207712493300,7.011493408203125,-0.0025161905214190483,-0.00016453349962830544,-0.0033945986069738865
1772709207722518500,7.0215185546875,-0.001366159413009882,0.0019809636287391186,-0.0032678060233592987
1772709207732543500,7.03154345703125,-0.0022844173945486546,-0.00010881898924708366,-0.006664135493338108
1772709207742568400,7.041568359375,-0.0018515877891331911,-0.0007535736076533794,-0.009539485909044743
1772709207752593400,7.051593505859375,-0.003385302145034075,0.0007063713856041431,-0.009930438362061977
1772709207762618600,7.06161865234375,-0.0031998008489608765,0.004153740592300892,-0.007752062287181616
1772709207772643600,7.0716435546875,-0.0008863129187375307,0.005002490244805813,-0.009392304345965385
1772709207782667500,7.08166748046875,-0.0018559967866167426,0.0038288389332592487,-0.013131318613886833
1772709207792692500,7.0916923828125,-0.0017073925118893385,0.0008596801199018955,-0.01034618355333805
1772709207802717400,7.101717529296875,-0.0033038794063031673,-0.0009890636429190636,-0.005905979312956333
1772709207812742400,7.111742431640625,-0.0024119867011904716,0.0021816962398588657,-0.00401912909001112
1772709207822767600,7.121767578125,-0.00046616909094154835,0.0001158369705080986,-0.004122824873775244
1772709207832792600,7.13179248046875,-0.0012374205980449915,-0.0005233217962086201,-0.0055659920908510685
1772709207842817500,7.141817626953125,-0.00047245994210243225,-0.0006444440223276615,-0.005299714859575033
1772709207853469400,7.152469482421875,-0.0013774021062999964,0.001098595093935728,-0.005881082732230425
1772709207863494400,7.162494384765625,-0.0017719990573823452,0.0034439992159605026,-0.008178360760211945
1772709207873519400,7.172519287109375,-0.010059489868581295,-0.013714747503399849,0.04383210837841034
1772709207883543600,7.18254345703125,-0.0058115385472774506,0.005703463219106197,0.10705739259719849
1772709207893568500,7.192568603515625,-0.008207584731280804,0.044124357402324677,0.03997209668159485
1772709207903593500,7.202593505859375,-0.0023677684366703033,-0.006803607102483511,-0.04251374304294586
1772709207913618700,7.21261865234375,0.0016967481933534145,-0.066050685942173,-0.044579822570085526
1772709207923643400,7.222643310546875,-0.006452708505094051,-0.018055206164717674,-0.01626661792397499
1772709207933668400,7.23266845703125,-0.0040010022930800915,0.020407231524586678,-0.00966757070273161
1772709207943693300,7.242693359375,-0.0014782999642193317,0.011170070618391037,-0.027036450803279877
1772709207953718500,7.252718505859375,0.0013398570008575916,-0.007823062129318714,-0.04211393743753433
1772709207963742500,7.262742431640625,-0.00025108782574534416,-0.003294093534350395,-0.030918071046471596
1772709207973767400,7.272767333984375,0.0005816826596856117,0.013512582518160343,-0.01217740774154663
1772709207983792600,7.282792724609375,-0.001709044212475419,0.012363743036985397,-0.003149661934003234
