time,seconds_elapsed,z,y,x
1772708648163901400,0.0589013671875,-0.33936455845832825,-0.3956535756587982,0.46781671047210693
1772708648173926400,0.068926513671875,-0.33077532052993774,-0.4124906063079834,0.5183911919593811
1772708648183952400,0.078952392578125,-0.305280864238739,-0.3758528232574463,0.5634932518005371
1772708648193977300,0.088977294921875,-0.2616998553276062,-0.3244575560092926,0.5883618593215942
1772708648204002300,0.099002197265625,-0.19442804157733917,-0.2855477035045624,0.5810352563858032
1772708648214027500,0.109027587890625,-0.09893348067998886,-0.26634231209754944,0.5577297210693359
1772708648224052500,0.119052490234375,0.007136297877877951,-0.20161201059818268,0.5480305552482605
1772708648234077400,0.129077392578125,0.08439113944768906,-0.10230647027492523,0.5557646155357361
1772708648244103400,0.139103515625,0.11541715264320374,-0.05006902664899826,0.5627766251564026
1772708648254128400,0.14912841796875,0.08406934887170792,-0.09385725855827332,0.5610164999961853
1772708648264153600,0.159153564453125,0.0019062841311097145,-0.20065271854400635,0.5556194186210632
1772708648274178300,0.16917822265625,-0.0936569944024086,-0.33789873123168945,0.5444186925888062
1772708648284203300,0.179203369140625,-0.16972942650318146,-0.4844735860824585,0.537872314453125
1772708648294229200,0.189229248046875,-0.1976308375597,-0.5360424518585205,0.5544853806495667
1772708648304254200,0.199254150390625,-0.18139755725860596,-0.4624612629413605,0.5952049493789673
1772708648314279400,0.209279541015625,-0.15712125599384308,-0.38232940435409546,0.6259964108467102
1772708648324304400,0.219304443359375,-0.13994888961315155,-0.3444046378135681,0.6358372569084167
1772708648334329300,0.229329345703125,-0.126687154173851,-0.3020457327365875,0.6335930228233337
1772708648344354300,0.239354248046875,-0.11810995638370514,-0.19676752388477325,0.6084290146827698
1772708648354380300,0.24938037109375,-0.11708091199398041,-0.003999141976237297,0.5407277345657349
1772708648364405500,0.259405517578125,-0.13003675639629364,0.17108213901519775,0.4189349412918091
1772708648374430500,0.269430419921875,-0.13675856590270996,0.2701488137245178,0.26789215207099915
1772708648384455400,0.279455322265625,-0.13374359905719757,0.3022286891937256,0.16302508115768433
1772708648394480400,0.28948046875,-0.15506725013256073,0.18770453333854675,0.12277858704328537
1772708648404505600,0.299505615234375,-0.256377637386322,0.03022819384932518,0.12233268469572067
1772708648414531600,0.309531494140625,-0.42330777645111084,0.07824018597602844,0.15767070651054382
1772708648424556300,0.319556396484375,-0.5113043785095215,0.16922232508659363,0.283268541097641
1772708648434581200,0.329581298828125,-0.5258199572563171,0.1865006387233734,0.4501800239086151
1772708648444606200,0.339606201171875,-0.5218949317932129,0.1978774070739746,0.5747917890548706
1772708648454631400,0.34963134765625,-0.4934057295322418,0.20257121324539185,0.6759008169174194
1772708648464657400,0.359657470703125,-0.47922447323799133,0.18554452061653137,0.7354142665863037
1772708648474682400,0.369682373046875,-0.5007795691490173,0.12434081733226776,0.7214891314506531
1772708648484707300,0.379707275390625,-0.5495824217796326,-0.11284537613391876,0.6455493569374084
1772708648494732300,0.389732177734375,-0.5781996846199036,-0.40219223499298096,0.570127546787262
1772708648504757500,0.399757568359375,-0.5531202554702759,-0.5279282927513123,0.5299670696258545
1772708648514782500,0.409782470703125,-0.4590480923652649,-0.4715404212474823,0.5187346339225769
1772708648524808400,0.419808349609375,-0.2939954102039337,-0.28435081243515015,0.5427286624908447
1772708648534833400,0.42983349609375,-0.10804179310798645,-0.030916688963770866,0.604567289352417
1772708648544858400,0.4398583984375,0.062057849019765854,0.23872728645801544,0.6999127864837646
1772708648554883300,0.44988330078125,0.21541225910186768,0.4350283443927765,0.7953810095787048
1772708648564908300,0.459908203125,0.3609391152858734,0.41996556520462036,0.888881504535675
1772708648574934300,0.469934326171875,0.5028605461120605,0.22461391985416412,0.9901900291442871
1772708648584959200,0.479959228515625,0.6218087673187256,0.08882082253694534,1.10940682888031
1772708648594984000,0.48998388671875,0.6755167245864868,0.10864965617656708,1.2492754459381104
1772708648605009200,0.500009033203125,0.6163578629493713,0.24447086453437805,1.355170726776123
1772708648615034000,0.5100341796875,0.46555882692337036,0.5061376094818115,1.3778893947601318
1772708648625059000,0.52005908203125,0.3184596002101898,0.8526841402053833,1.2851524353027344
1772708648635085000,0.5300849609375,0.28036174178123474,1.267932653427124,1.0967758893966675
1772708648645110000,0.540110107421875,0.3661007583141327,1.8724721670150757,0.9152301549911499
1772708648655135200,0.55013525390625,0.5020977258682251,2.2802488803863525,0.7639431953430176
1772708648665160200,0.56016015625,0.5753679275512695,2.1460440158843994,0.6257500052452087
1772708648675185200,0.57018505859375,0.5822309255599976,1.625301480293274,0.5425142049789429
1772708648685211100,0.580211181640625,0.5481330752372742,1.0730903148651123,0.5442260503768921
1772708648695236000,0.590236083984375,0.48240116238594055,0.7146068215370178,0.6062875390052795
1772708648705261300,0.60026123046875,0.3065236210823059,0.598884105682373,0.7058510780334473
1772708648715286300,0.610286376953125,0.03734833747148514,0.9038040637969971,0.8553577661514282
1772708648725311200,0.620311279296875,-0.256593257188797,1.6190792322158813,0.9863154292106628
1772708648735336200,0.630336181640625,-0.4778883755207062,2.288644552230835,1.030669093132019
1772708648745362200,0.640362060546875,-0.5375784039497375,2.6405041217803955,1.054451584815979
1772708648755387100,0.65038720703125,-0.4553370475769043,2.557647228240967,1.1514846086502075
1772708648765412000,0.660412109375,-0.3401874899864197,1.9800952672958374,1.3443598747253418
1772708648775437000,0.67043701171875,-0.33246859908103943,1.1283987760543823,1.6613370180130005
1772708648785462000,0.6804619140625,-0.4004431962966919,-0.0038310822565108538,1.9833567142486572
1772708648795488000,0.690488037109375,-0.6014508605003357,-1.5926157236099243,2.1361284255981445
1772708648805513200,0.70051318359375,-0.8528748750686646,-3.1860342025756836,2.1295125484466553
1772708648815538200,0.7105380859375,-0.9404560923576355,-4.621120929718018,2.03555965423584
1772708648825563100,0.720563232421875,-0.8602915406227112,-5.535590648651123,1.8859952688217163
1772708648835588000,0.730588134765625,-0.690773069858551,-5.721678733825684,1.492167353630066
1772708648845613300,0.74061328125,-0.3942135274410248,-5.269556522369385,0.9201721549034119
1772708648855639300,0.750639404296875,0.036129072308540344,-4.368513107299805,0.35134971141815186
1772708648865664300,0.760664306640625,0.393973708152771,-3.3154592514038086,-0.31906092166900635
1772708648875689200,0.770689208984375,0.5988624095916748,-2.5689852237701416,-1.0069767236709595
1772708648885714200,0.780714111328125,0.6471508145332336,-1.6328446865081787,-1.6992114782333374
1772708648895739100,0.7907392578125,0.6196541786193848,-0.8252735137939453,-2.352039337158203
1772708648905765000,0.80076513671875,0.5373378396034241,-0.21991491317749023,-2.8329110145568848
1772708648915790000,0.8107900390625,0.4227484166622162,0.20562388002872467,-3.085620164871216
1772708648925815000,0.82081494140625,0.1948438584804535,0.35194942355155945,-3.1839420795440674
1772708648935840300,0.83084033203125,-0.22333581745624542,0.22175763547420502,-3.2363462448120117
1772708648945865200,0.840865234375,-0.621560275554657,-0.04232054948806763,-3.2862966060638428
1772708648955891200,0.85089111328125,-0.7496556639671326,-0.2856932580471039,-3.3405375480651855
1772708648965916200,0.860916259765625,-0.6061607599258423,-0.5140271782875061,-3.350773811340332
1772708648975941000,0.870941162109375,-0.2821941375732422,-0.7266459465026855,-3.2258245944976807
1772708648985966000,0.880966064453125,0.08698993176221848,-0.9385684728622437,-2.9255361557006836
1772708648995991300,0.8909912109375,0.40966784954071045,-0.7139356136322021,-2.3803482055664062
1772708649006016300,0.901016357421875,0.582935631275177,-0.1671326458454132,-1.6855096817016602
1772708649016042200,0.911042236328125,0.5977068543434143,0.15422354638576508,-1.004772424697876
1772708649026067200,0.921067138671875,0.47828882932662964,0.11894054710865021,-0.4304317831993103
1772708649036092200,0.931092041015625,0.28890931606292725,-0.0830940380692482,0.03251190483570099
1772708649046117000,0.9411171875,0.05724532529711723,-0.23735544085502625,0.3935878276824951
1772708649056142000,0.95114208984375,-0.20773732662200928,-0.2948243319988251,0.675713837146759
1772708649066168000,0.96116796875,-0.5009463429450989,-0.014736730605363846,0.8786302208900452
1772708649076193000,0.971193115234375,-0.7321987152099609,0.3228868246078491,0.9434958100318909
1772708649086218200,0.98121826171875,-0.8981895446777344,0.564643144607544,0.8162420392036438
1772708649096243200,0.9912431640625,-0.9207659363746643,0.6814935803413391,0.5741005539894104
1772708649106268200,1.00126806640625,-0.7796450257301331,0.605904221534729,0.20733842253684998
1772708649116293000,1.011293212890625,-0.5631625056266785,0.22541572153568268,-0.2791667878627777
1772708649126319000,1.021319091796875,-0.30707797408103943,-0.27557897567749023,-0.7493544816970825
1772708649136344300,1.03134423828125,-0.09767895936965942,-0.5928218960762024,-1.0732507705688477
1772708649146369300,1.041369384765625,0.024326711893081665,-0.7088371515274048,-1.259965181350708
1772708649156394200,1.051394287109375,0.06943640112876892,-0.7720105051994324,-1.3633686304092407
1772708649166419200,1.061419189453125,0.026737922802567482,-0.8493663668632507,-1.3704696893692017
1772708649176445200,1.071445068359375,-0.03502611070871353,-0.5856236815452576,-1.2247806787490845
1772708649186470100,1.08147021484375,-0.08564125001430511,-0.20275302231311798,-0.9253740310668945
1772708649196495000,1.0914951171875,-0.024749670177698135,0.22272023558616638,-0.5682817101478577
1772708649206520000,1.10152001953125,0.22052331268787384,0.6823869943618774,-0.2702845335006714
1772708649216545000,1.111544921875,0.6273972988128662,1.1678186655044556,-0.03431861475110054
1772708649226570200,1.1215703125,1.070428490638733,1.463149070739746,0.23088426887989044
1772708649236596200,1.13159619140625,1.3899908065795898,1.536897897720337,0.6096579432487488
1772708649246621200,1.14162109375,1.3938510417938232,1.1808151006698608,1.0000709295272827
1772708649256646100,1.151646240234375,1.1076456308364868,0.550766110420227,1.1487547159194946
1772708649266671000,1.161671142578125,0.7521510720252991,0.03735683485865593,0.9824645519256592
1772708649276696300,1.1716962890625,0.35153281688690186,-0.3554130792617798,0.6477291584014893
1772708649286722300,1.181722412109375,-0.05554414168000221,-0.3849260210990906,0.4537914991378784
1772708649296747300,1.191747314453125,-0.32836663722991943,0.22535759210586548,0.45300161838531494
1772708649306772200,1.201772216796875,-0.35758671164512634,1.237426519393921,0.3500607907772064
1772708649316797200,1.211797119140625,-0.07647090405225754,2.423590898513794,-0.007819577120244503
1772708649326822400,1.221822509765625,0.2311960607767105,3.3639585971832275,-0.655015230178833
1772708649336848400,1.231848388671875,0.3048396408557892,3.6323349475860596,-1.4916367530822754
1772708649346873300,1.241873291015625,0.25694823265075684,2.9934465885162354,-2.3008341789245605
1772708649356898000,1.25189794921875,0.10160685330629349,1.6691300868988037,-2.849855661392212
1772708649366923000,1.261923095703125,-0.17550013959407806,0.20535756647586823,-2.898897886276245
1772708649376948200,1.2719482421875,-0.5151112675666809,-0.8924922347068787,-2.456467390060425
1772708649386974200,1.28197412109375,-0.8469662070274353,-1.5542830228805542,-1.7880103588104248
1772708649396999200,1.291999267578125,-1.0673763751983643,-1.8293888568878174,-1.1794124841690063
1772708649407024000,1.302024169921875,-1.06522536277771,-1.8849014043807983,-0.7561091184616089
1772708649417049000,1.312049072265625,-0.7397600412368774,-1.9897332191467285,-0.6121591329574585
1772708649427074300,1.32207421875,-0.17767992615699768,-2.241119146347046,-0.6450901627540588
1772708649437099300,1.332099365234375,0.34416675567626953,-2.4179983139038086,-0.7106009721755981
1772708649447125200,1.342125244140625,0.6345682740211487,-2.3847920894622803,-0.7486439347267151
1772708649457150200,1.352150146484375,0.7183552980422974,-1.8560338020324707,-0.6751811504364014
1772708649467175200,1.362175048828125,0.6541973948478699,-0.9752334356307983,-0.46180424094200134
1772708649477200400,1.372200439453125,0.4702208638191223,-0.12711594998836517,-0.17103204131126404
1772708649487225000,1.38222509765625,0.21606579422950745,0.33251526951789856,0.11330872029066086
1772708649497251300,1.392251220703125,-0.0202865581959486,0.12785238027572632,0.320834219455719
1772708649507276000,1.402276123046875,-0.20046347379684448,-0.6183144450187683,0.41687214374542236
1772708649517301000,1.412301025390625,-0.35241279006004333,-1.3906872272491455,0.3979325592517853
1772708649527326200,1.422326171875,-0.49044862389564514,-1.9114313125610352,0.2678905725479126
1772708649537351200,1.43235107421875,-0.5569115877151489,-2.050447702407837,0.11707095801830292
1772708649547376000,1.442376220703125,-0.4811084568500519,-1.8268250226974487,0.03896164894104004
1772708649557401600,1.452401611328125,-0.27154991030693054,-1.3998452425003052,0.078715980052948
1772708649567426600,1.462426513671875,0.03474137559533119,-0.8251156210899353,0.24128931760787964
1772708649577451800,1.47245166015625,0.3693784773349762,-0.20402304828166962,0.5065851807594299
1772708649587476700,1.482476806640625,0.6964272856712341,0.33642637729644775,0.8466901183128357
1772708649597501700,1.492501708984375,0.93022221326828,0.6563801765441895,1.1519657373428345
1772708649607527700,1.502527587890625,0.9702529311180115,0.6655222773551941,1.3044902086257935
1772708649617552600,1.512552734375,0.7961373329162598,0.4746774435043335,1.2777882814407349
1772708649627577900,1.522577880859375,0.4467557966709137,0.22173917293548584,1.113048791885376
1772708649637602600,1.5326025390625,0.055385373532772064,-0.01046955306082964,0.8995264172554016
1772708649647627500,1.54262744140625,-0.2954121530056,-0.24474380910396576,0.6412580609321594
1772708649657652700,1.55265283203125,-0.5050125122070312,-0.3132781386375427,0.391533762216568
1772708649667678700,1.5626787109375,-0.5536879301071167,-0.1652441918849945,0.1870134472846985
1772708649677703700,1.57270361328125,-0.5024703145027161,0.10913782566785812,0.06689475476741791
1772708649687728600,1.582728759765625,-0.4012826979160309,0.44532835483551025,0.06852567195892334
1772708649697753600,1.592753662109375,-0.2811669409275055,0.7763427495956421,0.1792798936367035
1772708649707778800,1.60277880859375,-0.17784763872623444,1.0177305936813354,0.3464353084564209
1772708649717804500,1.612804443359375,-0.1369398832321167,1.0360139608383179,0.5171684622764587
1772708649727829800,1.622829833984375,-0.1946595311164856,0.9868459701538086,0.6860985159873962
1772708649737854700,1.632854736328125,-0.31965792179107666,1.0567799806594849,0.8777044415473938
1772708649747879700,1.642879638671875,-0.4582175016403198,1.1751151084899902,1.0757142305374146
1772708649757904600,1.652904541015625,-0.5571664571762085,1.1291064023971558,1.2255144119262695
1772708649767929600,1.6629296875,-0.6152336597442627,0.6827382445335388,1.267948031425476
1772708649777955800,1.672955810546875,-0.5975204706192017,-0.12857729196548462,1.1584949493408203
1772708649787980500,1.68298046875,-0.45364776253700256,-1.0619505643844604,0.9629157781600952
1772708649798005500,1.693005615234375,-0.21356326341629028,-1.6175607442855835,0.7980117797851562
1772708649808030700,1.70303076171875,0.16706040501594543,-1.5508440732955933,0.6971309185028076
1772708649818055700,1.7130556640625,0.7668364644050598,-0.7903690934181213,0.700688362121582
1772708649828081700,1.72308154296875,1.6081088781356812,0.4350448250770569,0.8811811208724976
1772708649838106600,1.733106689453125,2.4114842414855957,2.0157082080841064,1.1420055627822876
1772708649848131600,1.743131591796875,2.5291333198547363,3.4067320823669434,1.011317491531372
1772708649858156800,1.75315673828125,1.778321623802185,3.325704336166382,0.2483133226633072
1772708649868181800,1.763181640625,0.7616093158721924,1.9656531810760498,-0.4778727889060974
1772708649878206700,1.773206787109375,-0.11258099973201752,0.19723282754421234,-0.7098144292831421
1772708649888232700,1.783232666015625,-0.6727724075317383,-1.4351680278778076,-0.6981191635131836
1772708649898257700,1.793257568359375,-0.9431714415550232,-2.0916762351989746,-0.7782249450683594
1772708649908283000,1.803282958984375,-1.0742392539978027,-1.8758625984191895,-1.231262445449829
1772708649918307800,1.813307861328125,-1.075465440750122,-0.8815172910690308,-2.0187816619873047
1772708649928332500,1.82333251953125,-0.8378420472145081,0.6566606163978577,-2.8545913696289062
1772708649938358800,1.83335888671875,-0.38468578457832336,2.2128262519836426,-3.452502727508545
1772708649948383500,1.843383544921875,0.21799887716770172,3.2889697551727295,-3.6057262420654297
1772708649958408700,1.85340869140625,0.8202903866767883,3.5981462001800537,-3.298569917678833
1772708649968433700,1.86343359375,1.1834831237792969,3.1807467937469482,-2.6764845848083496
1772708649978458600,1.873458740234375,1.213417887687683,2.2106096744537354,-1.9253408908843994
1772708649988483600,1.883483642578125,0.9605337977409363,0.8677376508712769,-1.2330940961837769
1772708649998509600,1.893509521484375,0.48290467262268066,-0.5015063881874084,-0.7359738349914551
1772708650008534800,1.90353466796875,0.010781223885715008,-1.607566475868225,-0.4959188401699066
1772708650018559700,1.913559814453125,-0.2945358157157898,-2.248035192489624,-0.49669596552848816
1772708650028584700,1.923584716796875,-0.4009159207344055,-2.3673553466796875,-0.6707879900932312
1772708650038609700,1.933609619140625,-0.3353627324104309,-2.0888290405273438,-0.9276102185249329
1772708650048635600,1.9436357421875,-0.14363344013690948,-1.6261990070343018,-1.1679340600967407
1772708650058660900,1.953660888671875,0.10488051176071167,-0.9719202518463135,-1.2963669300079346
1772708650068685800,1.963685791015625,0.3210311532020569,-0.10905849188566208,-1.2477527856826782
1772708650078710500,1.97371044921875,0.4428617060184479,0.7329957485198975,-1.0383106470108032
1772708650088735500,1.983735595703125,0.47701993584632874,1.309731125831604,-0.7294858694076538
1772708650098760700,1.9937607421875,0.4574688673019409,1.5312377214431763,-0.3689172863960266
1772708650108786700,2.00378662109375,0.35585474967956543,1.5042121410369873,-0.004208802245557308
1772708650118811600,2.013811767578125,0.17060314118862152,1.3029708862304688,0.2856816053390503
1772708650128836600,2.023836669921875,-0.007443586364388466,0.9330906271934509,0.4309126138687134
1772708650138861600,2.033861572265625,-0.12524691224098206,0.2834246754646301,0.40447354316711426
1772708650148886800,2.04388671875,-0.18058675527572632,-0.6976222395896912,0.24876366555690765
1772708650158911700,2.053911865234375,-0.18448510766029358,-1.8848570585250854,0.05465996637940407
1772708650168937700,2.063937744140625,-0.12984207272529602,-2.822819948196411,-0.08314436674118042
1772708650178962700,2.073962646484375,0.0023037102073431015,-3.0823209285736084,-0.07972513884305954
1772708650188987600,2.083987548828125,0.18930430710315704,-2.571441888809204,0.013275588862597942
1772708650199012900,2.094012939453125,0.4191713333129883,-2.432914972305298,0.17055203020572662
1772708650209037800,2.104037841796875,0.623140811920166,-2.4042623043060303,0.3534127473831177
1772708650219063800,2.114063720703125,0.7965559959411621,-2.3911163806915283,0.569020688533783
1772708650229088800,2.1240888671875,0.9086058735847473,-2.490885019302368,0.827631950378418
1772708650239113500,2.134113525390625,0.9427957534790039,-2.542375326156616,1.1365203857421875
1772708650249138700,2.144138671875,0.8841790556907654,-2.4035043716430664,1.4486628770828247
1772708650259163600,2.15416357421875,0.714078962802887,-2.0718207359313965,1.7290722131729126
1772708650269188600,2.164188720703125,0.4632525146007538,-1.6441391706466675,1.9638009071350098
1772708650279214600,2.174214599609375,0.1790791004896164,-1.2047086954116821,2.134411334991455
1772708650289239600,2.184239501953125,-0.06527342647314072,-0.7990663647651672,2.232895851135254
1772708650299264800,2.1942646484375,-0.2246319204568863,-0.4911873936653137,2.266303539276123
1772708650309289700,2.204289794921875,-0.3095594048500061,-0.3092508614063263,2.2185781002044678
1772708650319314700,2.214314697265625,-0.3590680956840515,-0.2510615885257721,2.0892205238342285
1772708650329339600,2.224339599609375,-0.4126409888267517,-0.2146308869123459,1.9089609384536743
1772708650339365600,2.23436572265625,-0.49306365847587585,-0.08233729004859924,1.6765207052230835
1772708650349390800,2.244390869140625,-0.6214576363563538,0.17371021211147308,1.3841747045516968
1772708650359415800,2.254415771484375,-0.7719299793243408,0.41347378492355347,1.0238474607467651
1772708650369440500,2.2644404296875,-0.9013961553573608,0.3904670476913452,0.630502462387085
1772708650379465500,2.274465576171875,-0.9492754936218262,0.03995988145470619,0.2332179695367813
1772708650389491500,2.284491455078125,-0.841881513595581,-0.4156513512134552,-0.106552854180336
1772708650399516700,2.2945166015625,-0.5487667918205261,-0.5624463558197021,-0.39396360516548157
1772708650409541600,2.304541748046875,-0.14247460663318634,-0.20959605276584625,-0.6094837188720703
1772708650419566600,2.314566650390625,0.3195100724697113,0.6489530205726624,-0.6540871858596802
1772708650429591600,2.324591552734375,0.7171752452850342,1.8192987442016602,-0.5150440335273743
1772708650439616800,2.33461669921875,0.9137967228889465,2.851147413253784,-0.3676886260509491
1772708650449642800,2.344642822265625,0.8569812774658203,3.252204656600952,-0.2984320819377899
1772708650459667700,2.354667724609375,0.5278499722480774,2.9560489654541016,-0.23375533521175385
1772708650469692700,2.364692626953125,-0.05661653354763985,2.0666821002960205,-0.1865759938955307
1772708650479717600,2.374717529296875,-0.7323817014694214,0.7469611763954163,-0.2385726124048233
1772708650489742800,2.384742919921875,-1.0300476551055908,-0.1379917860031128,-0.1838945895433426
1772708650499768800,2.394768798828125,-0.913617730140686,-0.08280229568481445,-0.14838266372680664
1772708650509793800,2.404793701171875,-0.5530205368995667,0.07386531680822372,-0.30535581707954407
1772708650519818800,2.41481884765625,-0.049440205097198486,0.2545722424983978,-0.5855283737182617
1772708650529843500,2.424843505859375,0.46444833278656006,0.7680947184562683,-0.8077468276023865
1772708650539868700,2.43486865234375,0.8403380513191223,1.4701379537582397,-0.8745956420898438
1772708650549894100,2.44489404296875,0.9882782101631165,1.9272183179855347,-0.8875880837440491
1772708650559920000,2.454920166015625,0.9107674956321716,1.9425251483917236,-0.8603870868682861
1772708650569945000,2.464945068359375,0.6268875002861023,1.6784604787826538,-0.6774499416351318
1772708650579970000,2.474969970703125,0.2002461701631546,1.278212308883667,-0.3531847596168518
1772708650589995300,2.484995361328125,-0.22609461843967438,0.6173286437988281,-0.05130938068032265
1772708650600020000,2.49502001953125,-0.46459507942199707,-0.45847126841545105,0.10679928958415985
1772708650610045000,2.505044921875,-0.4380500912666321,-1.6393705606460571,0.17942991852760315
1772708650620071000,2.51507080078125,-0.2544211149215698,-2.5239479541778564,0.1747848391532898
1772708650630096000,2.525095947265625,-0.02800314500927925,-2.873356342315674,0.03254852443933487
1772708650640121000,2.53512109375,0.23002147674560547,-2.672785520553589,-0.19453789293766022
1772708650650146000,2.54514599609375,0.48026201128959656,-2.089822292327881,-0.42668429017066956
1772708650660171000,2.5551708984375,0.6839898824691772,-1.2134829759597778,-0.5792874693870544
1772708650670197000,2.565197021484375,0.854054868221283,-0.22240696847438812,-0.5931516885757446
1772708650680222000,2.575221923828125,0.9758892059326172,0.6687509417533875,-0.4998433291912079
1772708650690247200,2.5852470703125,1.027126669883728,1.3161696195602417,-0.36288708448410034
1772708650700272000,2.595272216796875,0.9750151634216309,1.695336103439331,-0.2527478039264679
1772708650710297000,2.605297119140625,0.8150297403335571,1.8668278455734253,-0.21008197963237762
1772708650720322000,2.615322021484375,0.5445007681846619,1.8841007947921753,-0.21331745386123657
1772708650730348000,2.62534814453125,0.1521974503993988,1.7251890897750854,-0.23736236989498138
1772708650740373200,2.635373291015625,-0.32250410318374634,1.379493236541748,-0.23431944847106934
1772708650750398200,2.645398193359375,-0.7584061026573181,1.0069921016693115,-0.14507871866226196
1772708650760423000,2.6554228515625,-1.0166759490966797,0.8302468061447144,0.020384276285767555
1772708650770448000,2.66544775390625,-1.0602198839187622,0.9007164239883423,0.24875086545944214
1772708650780473000,2.67547314453125,-0.9300885200500488,1.1497734785079956,0.5297486782073975
1772708650790499000,2.6854990234375,-0.697479248046875,1.4360589981079102,0.8273684978485107
1772708650800524000,2.69552392578125,-0.42643579840660095,1.6228059530258179,1.070985198020935
1772708650810549000,2.705549072265625,-0.19190487265586853,1.6944916248321533,1.2124851942062378
1772708650820574000,2.715573974609375,-0.04634714126586914,1.8923306465148926,1.255061388015747
1772708650830599200,2.72559912109375,0.01774734817445278,2.1184256076812744,1.1861604452133179
1772708650840624000,2.7356240234375,0.01184152252972126,2.1857848167419434,1.0178297758102417
1772708650850650000,2.745650146484375,-0.0728534460067749,1.967828392982483,0.7745163440704346
1772708650860675000,2.755675048828125,-0.27199795842170715,1.054711937904358,0.44710442423820496
1772708650870700000,2.765699951171875,-0.5289216041564941,-0.20876364409923553,0.1752733737230301
1772708650880725200,2.775725341796875,-0.7284757494926453,-0.9657107591629028,0.1148609071969986
1772708650890750000,2.78575,-0.8167840242385864,-1.3218635320663452,0.22340209782123566
1772708650900776200,2.795776123046875,-0.8167145252227783,-1.3987596035003662,0.43367090821266174
1772708650910801000,2.80580078125,-0.7493508458137512,-1.273257851600647,0.6673704385757446
1772708650920825900,2.815825927734375,-0.6209960579872131,-1.0011389255523682,0.9098927974700928
1772708650930851000,2.82585107421875,-0.5057580471038818,-0.5400313138961792,1.1136435270309448
1772708650940876000,2.8358759765625,-0.44239985942840576,-0.21615177392959595,1.2816953659057617
1772708650950901000,2.84590087890625,-0.43213316798210144,0.04716072231531143,1.3553565740585327
1772708650960927000,2.855927001953125,-0.43284955620765686,0.2835372984409332,1.2831696271896362
1772708650970952000,2.865951904296875,-0.41090190410614014,0.5042024254798889,1.0716480016708374
1772708650980977200,2.87597705078125,-0.31346163153648376,0.5812657475471497,0.7693821787834167
1772708650991002000,2.886002197265625,-0.03184255212545395,0.4942922592163086,0.45323824882507324
1772708651001027000,2.896027099609375,0.4743282198905945,0.4834401607513428,0.22819766402244568
1772708651011052000,2.906052001953125,1.1674420833587646,0.6807242035865784,0.1986420452594757
1772708651021078000,2.916078125,1.9479613304138184,1.1879205703735352,0.31940385699272156
1772708651031103200,2.926103271484375,2.543142080307007,2.0855329036712646,0.3488183319568634
1772708651041128200,2.936128173828125,2.5624163150787354,3.056950807571411,0.05520641803741455
1772708651051153000,2.94615283203125,1.6308188438415527,3.14312481880188,-0.4360997676849365
1772708651061177900,2.956177734375,0.25769034028053284,2.2237062454223633,-0.7914786338806152
1772708651071203000,2.966203125,-0.7989559173583984,0.3875240683555603,-0.995167076587677
1772708651081229000,2.97622900390625,-1.2934138774871826,-1.340286374092102,-0.9163510799407959
1772708651091254000,2.98625390625,-1.3496793508529663,-1.6310296058654785,-0.8597240447998047
1772708651101279000,2.996279052734375,-1.0518556833267212,-1.774621605873108,-0.9465702772140503
1772708651111304000,3.006303955078125,-0.8033020496368408,-1.9521948099136353,-1.4718196392059326
1772708651121329200,3.0163291015625,-0.749579131603241,-1.5873734951019287,-2.096283435821533
1772708651131355100,3.026355224609375,-0.7002353668212891,-0.7507824897766113,-2.5082714557647705
1772708651141380000,3.036380126953125,-0.5350645184516907,0.0471879206597805,-2.5826892852783203
1772708651151405000,3.046405029296875,-0.22587041556835175,0.37034499645233154,-2.565493106842041
1772708651161430000,3.056429931640625,0.07144568115472794,-0.02190268784761429,-2.691701889038086
1772708651171455200,3.066455322265625,0.18999680876731873,-0.7359156608581543,-2.781104564666748
1772708651181480000,3.07647998046875,0.13259662687778473,-1.554829716682434,-2.641247034072876
1772708651191506200,3.086506103515625,-0.054394565522670746,-2.181898593902588,-2.195253610610962
1772708651201531000,3.09653076171875,-0.34797292947769165,-2.2109930515289307,-1.5591082572937012
1772708651211555800,3.106555908203125,-0.6943601369857788,-1.7233309745788574,-0.9258674383163452
1772708651221581000,3.1165810546875,-1.0401017665863037,-1.048504114151001,-0.3786559998989105
1772708651231606000,3.12660595703125,-1.3665763139724731,-0.3042736053466797,0.06242135539650917
1772708651241631000,3.136630859375,-1.5960917472839355,0.26525643467903137,0.3829980492591858
1772708651251657000,3.146656982421875,-1.6881438493728638,0.4575193524360657,0.550619900226593
1772708651261682000,3.156681884765625,-1.6560453176498413,0.30385151505470276,0.5664758682250977
1772708651271707100,3.16670703125,-1.5343750715255737,-0.10669876635074615,0.43138402700424194
1772708651281732000,3.176732177734375,-1.4261490106582642,-0.7131229043006897,0.1262296885251999
1772708651291757000,3.186757080078125,-1.323875904083252,-1.4377062320709229,-0.2832953929901123
1772708651301782000,3.196781982421875,-1.1580679416656494,-2.078815460205078,-0.6433843374252319
1772708651311808000,3.20680810546875,-0.9189220070838928,-2.4613873958587646,-0.7982251048088074
1772708651321833200,3.216833251953125,-0.6556274890899658,-2.285194158554077,-0.691713809967041
1772708651331858200,3.226858154296875,-0.4237121045589447,-1.8575361967086792,-0.39811456203460693
1772708651341883000,3.2368828125,-0.2640635669231415,-1.3251678943634033,-0.046291012316942215
1772708651351908000,3.246908203125,-0.14928573369979858,-0.7802947163581848,0.2804000973701477
1772708651361933800,3.256933837890625,-0.02970234304666519,-0.27687525749206543,0.5553321242332458
1772708651371959000,3.266958984375,0.10643813014030457,0.15766161680221558,0.7803588509559631
1772708651381984000,3.27698388671875,0.2331036776304245,0.4652218520641327,0.9682813286781311
1772708651392009000,3.287009033203125,0.3415297865867615,0.5861982107162476,1.1159754991531372
1772708651402034000,3.297033935546875,0.4288657605648041,0.48221802711486816,1.2247850894927979
1772708651412059100,3.30705908203125,0.54039466381073,0.19383227825164795,1.2647290229797363
1772708651422085000,3.317085205078125,0.6786774396896362,-0.19218146800994873,1.2201250791549683
1772708651432110000,3.327110107421875,0.8250983357429504,-0.5477102398872375,1.0927928686141968
1772708651442135000,3.337135009765625,0.9775922298431396,-0.8007196187973022,0.9033229351043701
1772708651452160000,3.347159912109375,1.148894190788269,-1.021834373474121,0.6696460247039795
1772708651462185200,3.357185302734375,1.3341785669326782,-1.2517280578613281,0.40338218212127686
1772708651472210000,3.3672099609375,1.496025800704956,-1.4599108695983887,0.1201699748635292
1772708651482236200,3.377236083984375,1.5298500061035156,-1.619858741760254,-0.1487581729888916
1772708651492260900,3.3872607421875,1.459408164024353,-1.554929256439209,-0.39794185757637024
1772708651502286000,3.3972861328125,1.297271490097046,-1.2809467315673828,-0.6691898703575134
1772708651512311000,3.40731103515625,0.9572982788085938,-0.8497990369796753,-0.9583352208137512
1772708651522336000,3.4173359375,0.4201728105545044,-0.466637521982193,-1.1739535331726074
1772708651532361000,3.42736083984375,-0.24274210631847382,-0.30057379603385925,-1.1957873106002808
1772708651542387000,3.437386962890625,-0.877992570400238,-0.16398850083351135,-1.030829668045044
1772708651552412000,3.447411865234375,-1.2475672960281372,-0.06289297342300415,-0.6849522590637207
1772708651562436900,3.457436767578125,-1.136871576309204,0.1078052669763565,-0.10642179846763611
1772708651572461800,3.4674619140625,-0.43637657165527344,0.5671073198318481,0.526526689529419
1772708651582486800,3.47748681640625,0.6051210165023804,1.42643404006958,0.8570010662078857
1772708651592512000,3.487511962890625,1.522408127784729,1.9249423742294312,0.5654258131980896
1772708651602538000,3.4975380859375,1.7220083475112915,1.7349554300308228,-0.09174644947052002
1772708651612563000,3.50756298828125,0.9149856567382812,1.939597725868225,-0.41525959968566895
1772708651622587600,3.517587646484375,-0.26144230365753174,1.9009031057357788,-0.39160192012786865
1772708651632612600,3.527612548828125,-1.044646143913269,1.6710549592971802,-0.08538742363452911
1772708651642637800,3.537637939453125,-1.0905911922454834,1.6647320985794067,0.2928624153137207
1772708651652663800,3.547663818359375,-0.6754939556121826,1.0451328754425049,0.2420031726360321
1772708651662688800,3.557688720703125,-0.1391245424747467,-0.02060403861105442,-0.17406007647514343
1772708651672713700,3.567713623046875,0.26113831996917725,-0.5917877554893494,-0.5721835494041443
1772708651682738700,3.57773876953125,0.3130156397819519,-0.5472496151924133,-0.8600571155548096
1772708651692764000,3.587763916015625,0.0547957606613636,-0.027844659984111786,-1.0195767879486084
1772708651702788900,3.597788818359375,-0.39080512523651123,0.7918180227279663,-1.1683611869812012
1772708651712814800,3.60781494140625,-0.8901925086975098,1.4153087139129639,-1.4618420600891113
1772708651722839800,3.61783984375,-1.308759093284607,1.4850188493728638,-1.9204167127609253
1772708651732864800,3.62786474609375,-1.6402223110198975,1.0074008703231812,-2.301513433456421
1772708651742890000,3.637889892578125,-1.9749764204025269,0.2546594738960266,-2.404304265975952
1772708651752915000,3.6479150390625,-2.430760383605957,-0.6390947103500366,-2.217413902282715
1772708651762939600,3.657939697265625,-2.9848084449768066,-1.6548781394958496,-1.8340896368026733
1772708651772966000,3.6679658203125,-3.4349262714385986,-2.6002423763275146,-1.3795592784881592
1772708651782990600,3.677990478515625,-3.5193800926208496,-3.1401619911193848,-0.9499419331550598
1772708651793015800,3.688015869140625,-3.160121440887451,-3.1219465732574463,-0.5500608086585999
1772708651803040800,3.698040771484375,-2.4646458625793457,-2.6354873180389404,-0.1494406759738922
1772708651813065700,3.708065673828125,-1.6653369665145874,-1.8674860000610352,0.24298204481601715
1772708651823090700,3.718090576171875,-0.8768234848976135,-1.1192766427993774,0.5845212340354919
1772708651833116700,3.72811669921875,-0.20084625482559204,-0.4491974711418152,0.8770411610603333
1772708651843142000,3.738141845703125,0.31206390261650085,0.09809598326683044,1.1127581596374512
1772708651853166800,3.748166748046875,0.6377756595611572,0.44775518774986267,1.3102548122406006
1772708651863191800,3.75819189453125,0.7930414080619812,0.6166446208953857,1.5107567310333252
1772708651873216800,3.768216796875,0.834708034992218,0.636469304561615,1.7047853469848633
1772708651883242000,3.778241943359375,0.8183330297470093,0.5290374159812927,1.874396800994873
1772708651893268000,3.78826806640625,0.7714212536811829,0.31362664699554443,1.9866516590118408
1772708651903293000,3.79829296875,0.713509202003479,-0.004410706460475922,2.027186155319214
1772708651913317600,3.808317626953125,0.6378719210624695,-0.34384214878082275,2.029478073120117
1772708651923342600,3.818342529296875,0.5185726881027222,-0.6201967597007751,2.041685104370117
1772708651933367800,3.828367919921875,0.3364923894405365,-0.8132428526878357,2.050957441329956
1772708651943392800,3.838392822265625,0.10884243994951248,-0.9473053216934204,2.0201425552368164
1772708651953418800,3.848418701171875,-0.1332119256258011,-0.9908122420310974,1.9313780069351196
1772708651963443700,3.858443603515625,-0.359548956155777,-0.9098071455955505,1.7839845418930054
1772708651973468700,3.86846875,-0.5651473999023438,-0.6974354982376099,1.5894678831100464
1772708651983494000,3.878493896484375,-0.7395820021629333,-0.38446563482284546,1.3758269548416138
1772708651993518800,3.888518798828125,-0.870544970035553,-0.03335076943039894,1.1799575090408325
1772708652003543800,3.898543701171875,-0.9645782709121704,0.27694159746170044,1.029297113418579
1772708652013569800,3.90856982421875,-1.0448862314224243,0.4441870450973511,0.9319632649421692
1772708652023594800,3.9185947265625,-1.1298328638076782,0.39615505933761597,0.8764195442199707
1772708652033620000,3.928619873046875,-1.2211506366729736,0.18782635033130646,0.8377121090888977
1772708652043645000,3.93864501953125,-1.3119226694107056,-0.012014864012598991,0.8082354664802551
1772708652053669600,3.948669677734375,-1.386053204536438,-0.04985706880688667,0.7923862338066101
1772708652063696000,3.95869580078125,-1.402999758720398,0.18429844081401825,0.8022077083587646
1772708652073720600,3.968720458984375,-1.3555868864059448,0.586545467376709,0.8521355986595154
1772708652083745800,3.978745849609375,-1.2660341262817383,0.9565078616142273,0.9122753739356995
1772708652093770800,3.988770751953125,-1.1247385740280151,1.0701433420181274,0.9456365704536438
1772708652103795700,3.998795654296875,-0.9034228920936584,0.8740236163139343,0.8664463758468628
1772708652113820700,4.008820556640625,-0.5759536623954773,0.5101418495178223,0.6418728828430176
1772708652123846000,4.018845947265625,-0.10748524963855743,0.18219144642353058,0.34659093618392944
1772708652133871900,4.028871826171875,0.4694458544254303,-0.06442241370677948,0.10936875641345978
1772708652143896800,4.038896728515625,1.176936388015747,-0.06172063574194908,0.029176976531744003
1772708652153921800,4.048921875,1.988100528717041,0.18586163222789764,-0.016726037487387657
1772708652163946800,4.05894677734375,2.7112720012664795,0.3545859456062317,-0.18044306337833405
1772708652173972000,4.068971923828125,3.156085729598999,0.46769875288009644,-0.46229496598243713
1772708652183998000,4.078998046875,3.223767042160034,0.7066759467124939,-0.6443763375282288
1772708652194023000,4.08902294921875,2.9263834953308105,1.2354687452316284,-0.5767819285392761
1772708652204047600,4.099047607421875,2.3713319301605225,1.8778314590454102,-0.27973777055740356
1772708652214072800,4.10907275390625,1.765492558479309,2.6513445377349854,0.11109808087348938
1772708652224097800,4.119097900390625,1.2721960544586182,2.964492082595825,0.21866928040981293
1772708652234122800,4.129122802734375,0.862935483455658,2.3217320442199707,-0.22355636954307556
1772708652244148700,4.139148681640625,0.3995065689086914,1.2208287715911865,-1.0036401748657227
1772708652254173700,4.149173583984375,-0.20130567252635956,0.19321739673614502,-1.7819631099700928
1772708652264198700,4.15919873046875,-0.8298977017402649,-0.6742676496505737,-2.3310470581054688
1772708652274223900,4.169223876953125,-1.303002119064331,-1.297905683517456,-2.6825339794158936
1772708652284248800,4.179248779296875,-1.5150294303894043,-1.8569422960281372,-2.9312808513641357
1772708652294273800,4.189273681640625,-1.315548062324524,-2.7195117473602295,-3.091789960861206
1772708652304299800,4.1992998046875,-0.7911360263824463,-3.5304529666900635,-3.0510716438293457
1772708652314324700,4.20932470703125,-0.14465221762657166,-3.8993418216705322,-2.6868298053741455
1772708652324350000,4.219349853515625,0.40161243081092834,-3.7017502784729004,-2.0567374229431152
1772708652334375000,4.229375,0.6881980299949646,-2.9605324268341064,-1.2895737886428833
1772708652344399600,4.239399658203125,0.7038158774375916,-1.847280502319336,-0.5061731934547424
1772708652354424800,4.2494248046875,0.537432074546814,-0.5332596898078918,0.21606764197349548
1772708652364450800,4.259450927734375,0.22274599969387054,0.6629241704940796,0.8013279438018799
1772708652374475800,4.269475830078125,-0.21383360028266907,1.5685153007507324,1.2267422676086426
1772708652384500700,4.279500732421875,-0.7276053428649902,2.104748010635376,1.481218695640564
1772708652394525700,4.289525634765625,-1.2704482078552246,2.140021562576294,1.56719172000885
1772708652404551000,4.299551025390625,-1.7640166282653809,1.3865660429000854,1.4317957162857056
1772708652414575900,4.309575927734375,-2.0543246269226074,0.1289631426334381,1.0692949295043945
1772708652424601900,4.319601806640625,-2.076615810394287,-0.9095799326896667,0.6564491391181946
1772708652434626800,4.329626708984375,-1.9812208414077759,-1.3888719081878662,0.25797849893569946
1772708652444651800,4.33965185546875,-1.8029526472091675,-1.4173099994659424,-0.07422392815351486
1772708652454677000,4.349677001953125,-1.5425024032592773,-1.0891263484954834,-0.26229485869407654
1772708652464702000,4.359701904296875,-1.2733700275421143,-0.7350060343742371,-0.32505786418914795
1772708652474726700,4.3697265625,-0.9957209229469299,-0.5162903070449829,-0.3092480003833771
1772708652484753000,4.3797529296875,-0.7156205773353577,-0.49198946356773376,-0.2637079358100891
1772708652494777600,4.389777587890625,-0.46262791752815247,-0.5590251088142395,-0.22264771163463593
1772708652504802800,4.399802734375,-0.2607531249523163,-0.602173924446106,-0.19621503353118896
1772708652514827800,4.409827880859375,-0.11080567538738251,-0.5376631021499634,-0.19431258738040924
1772708652524852700,4.419852783203125,-0.0014192636590451002,-0.3959357440471649,-0.20045650005340576
1772708652534877700,4.429877685546875,0.0766008272767067,-0.24226313829421997,-0.1916859894990921
1772708652544903700,4.439903564453125,0.1330140233039856,-0.1443144679069519,-0.1485995054244995
1772708652554929000,4.449928955078125,0.1883745938539505,-0.12474798411130905,-0.06555309146642685
1772708652564953900,4.459953857421875,0.26051321625709534,-0.16032062470912933,0.07209877669811249
1772708652574978800,4.469978759765625,0.3519842028617859,-0.23231595754623413,0.2521844208240509
1772708652585003800,4.480003662109375,0.4401595890522003,-0.32772478461265564,0.4411069452762604
1772708652595029000,4.490029052734375,0.47786688804626465,-0.45226308703422546,0.617491602897644
1772708652605055000,4.500054931640625,0.423228919506073,-0.5907490849494934,0.798538088798523
1772708652615080000,4.510079833984375,0.25754326581954956,-0.7000635862350464,0.9713565707206726
1772708652625105000,4.52010498046875,-0.03136071562767029,-0.7956060767173767,1.1144710779190063
1772708652635129900,4.5301298828125,-0.42292243242263794,-0.8916964530944824,1.2161895036697388
1772708652645155000,4.540155029296875,-0.8832581043243408,-1.0016658306121826,1.265782356262207
1772708652655180000,4.550179931640625,-1.3228846788406372,-0.9334054589271545,1.3363115787506104
1772708652665206000,4.5602060546875,-1.4803855419158936,-0.5610020756721497,1.4061564207077026
1772708652675231000,4.57023095703125,-1.1162978410720825,0.08575039356946945,1.6178122758865356
1772708652685255700,4.580255615234375,-0.4979723393917084,0.8507048487663269,1.8201576471328735
1772708652695281000,4.590281005859375,0.21901661157608032,1.5721672773361206,1.6511914730072021
1772708652705305900,4.600305908203125,0.8330461978912354,2.0668866634368896,0.8570355772972107
1772708652715330800,4.610330810546875,1.1203768253326416,1.7591603994369507,-0.5157007575035095
1772708652725356800,4.620356689453125,0.9481377005577087,0.7433924078941345,-1.888752818107605
1772708652735381800,4.6303818359375,0.5829069018363953,0.10283166170120239,-2.510637044906616
1772708652745407000,4.640406982421875,0.34543707966804504,0.5057634115219116,-2.1908302307128906
1772708652755432000,4.650431884765625,0.588706910610199,1.791013479232788,-1.32870614528656
1772708652765457000,4.660456787109375,1.400972604751587,2.9534125328063965,-0.5824990272521973
1772708652775483000,4.67048291015625,2.4207589626312256,3.323467254638672,-0.35234057903289795
1772708652785507800,4.6805078125,3.2324039936065674,3.0620663166046143,-0.6449176073074341
1772708652795533000,4.690532958984375,3.5088417530059814,2.6012868881225586,-1.0994335412979126
1772708652805558000,4.70055810546875,3.2067363262176514,2.2878000736236572,-1.4209508895874023
1772708652815583000,4.7105830078125,2.5041534900665283,1.960062026977539,-1.5755066871643066
1772708652825607700,4.720607666015625,1.5842126607894897,1.4559141397476196,-1.5784311294555664
1772708652835633000,4.7306328125,0.6182482242584229,0.7739095687866211,-1.5436077117919922
1772708652845659000,4.740658935546875,-0.16256897151470184,-0.1412939578294754,-1.5990797281265259
1772708652855683800,4.750683837890625,-0.622793436050415,-1.374260663986206,-1.7465028762817383
1772708652865708800,4.760708740234375,-0.6486963629722595,-2.556950092315674,-1.7593941688537598
1772708652875733800,4.770733642578125,-0.259737104177475,-3.122612237930298,-1.5047705173492432
1772708652885759000,4.780759033203125,0.39854758977890015,-2.9112088680267334,-0.9621772170066833
1772708652895785000,4.790784912109375,1.1680089235305786,-2.084946632385254,-0.21672075986862183
1772708652905810000,4.800809814453125,1.86811101436615,-0.9111961722373962,0.5687548518180847
1772708652915835000,4.8108349609375,2.342048168182373,0.3367610573768616,1.2833633422851562
1772708652925859800,4.82085986328125,2.4785876274108887,1.3955260515213013,1.8216997385025024
1772708652935885000,4.830885009765625,2.2625315189361572,2.1048035621643066,2.1237590312957764
1772708652945910000,4.840909912109375,1.7766950130462646,2.4871928691864014,2.191797971725464
1772708652955934700,4.850934814453125,1.1192163228988647,2.5911169052124023,2.03591251373291
1772708652965961000,4.8609609375,0.3622783124446869,2.3833086490631104,1.6881486177444458
1772708652975985700,4.870985595703125,-0.5011433362960815,1.4390833377838135,1.0863173007965088
1772708652986011000,4.881010986328125,-1.1016387939453125,0.3699203431606293,0.5563958883285522
1772708652996035800,4.891035888671875,-1.3564527034759521,-0.10672642290592194,0.4001283645629883
1772708653006060800,4.901060791015625,-1.4351983070373535,-0.1554604023694992,0.5349677205085754
1772708653016086800,4.911086669921875,-1.3747295141220093,-0.06872523576021194,0.861263632774353
1772708653026111700,4.92111181640625,-1.169632911682129,0.03433297201991081,1.2536582946777344
1772708653036137000,4.931136962890625,-0.8971360921859741,0.13177011907100677,1.618106722831726
1772708653046162000,4.941161865234375,-0.639728844165802,0.21568605303764343,1.8976408243179321
1772708653056187000,4.951186767578125,-0.4502289295196533,0.29499340057373047,2.0821597576141357
1772708653066211800,4.9612119140625,-0.36159467697143555,0.3656529188156128,2.180310010910034
1772708653076237000,4.971237060546875,-0.37865835428237915,0.4253593981266022,2.184088945388794
1772708653086263000,4.981262939453125,-0.5043111443519592,0.5208017230033875,2.091298818588257
1772708653096288000,4.9912880859375,-0.6971082091331482,0.6490036845207214,1.8961982727050781
1772708653106313000,5.00131298828125,-0.9151843786239624,0.737875759601593,1.6156080961227417
1772708653116337700,5.011337646484375,-1.1234358549118042,0.5770833492279053,1.253974437713623
1772708653126363000,5.02136279296875,-1.2644504308700562,0.02845592424273491,0.8444827795028687
1772708653136387800,5.031387939453125,-1.3117488622665405,-0.5523228645324707,0.5394333004951477
1772708653146413800,5.041413818359375,-1.3224656581878662,-0.7999027967453003,0.37951263785362244
1772708653156438800,5.051438720703125,-1.306679368019104,-0.823870837688446,0.30002912878990173
1772708653166463700,5.061463623046875,-1.2517812252044678,-0.7375175356864929,0.22126318514347076
1772708653176489000,5.071489013671875,-1.192748785018921,-0.5642992258071899,0.09371746331453323
1772708653186514000,5.081513916015625,-1.158530592918396,-0.4370904266834259,-0.07629314810037613
1772708653196539000,5.091538818359375,-1.1823492050170898,-0.4382321238517761,-0.2886101305484772
1772708653206564900,5.10156494140625,-1.294636607170105,-0.5764285922050476,-0.5804774165153503
1772708653216589800,5.11158984375,-1.4663158655166626,-0.9885478019714355,-0.9000434279441833
1772708653226615000,5.121614990234375,-1.530530571937561,-1.1513961553573608,-1.100687861442566
1772708653236640000,5.131639892578125,-1.334025502204895,-1.1736334562301636,-1.046161413192749
1772708653246664700,5.141664794921875,-0.8484950065612793,-0.9023547768592834,-0.8025080561637878
1772708653256689700,5.151689697265625,-0.18969246745109558,-0.5247584581375122,-0.410084068775177
1772708653266715600,5.161715576171875,0.4936469495296478,-0.16694146394729614,0.008546720258891582
1772708653276740900,5.171740966796875,0.9106412529945374,0.15237203240394592,0.2813672423362732
1772708653286765800,5.181765869140625,0.7248143553733826,0.07458295673131943,0.2481786608695984
1772708653296790800,5.191790771484375,0.08521845936775208,-0.1065426766872406,0.03128301352262497
1772708653306815700,5.201815673828125,-0.4201943874359131,-0.031420499086380005,-0.11221343278884888
1772708653316841000,5.211841064453125,-0.509898841381073,-0.07824224978685379,-0.14802326261997223
1772708653326867000,5.221866943359375,-0.32254281640052795,-0.4257219135761261,-0.1956741362810135
1772708653336892000,5.231891845703125,-0.01761319302022457,-0.4390462636947632,-0.34114551544189453
1772708653346916900,5.241916748046875,0.02794097550213337,-0.3107894957065582,-0.9147800207138062
1772708653356941800,5.25194189453125,-0.292097806930542,-0.5965052843093872,-2.1586058139801025
1772708653366967000,5.261967041015625,-0.6216767430305481,-0.8448520302772522,-3.5668752193450928
1772708653376992000,5.271991943359375,-0.6982006430625916,-0.6309937834739685,-4.420074462890625
1772708653387018000,5.28201806640625,-0.5403715968132019,-0.10282130539417267,-4.416190147399902
1772708653397043000,5.29204296875,-0.21663285791873932,0.28344646096229553,-3.776494264602661
1772708653407067600,5.302067626953125,0.1641368567943573,0.23448023200035095,-2.8652641773223877
1772708653420225000,5.31522509765625,0.5325631499290466,-0.7244098782539368,-1.7415080070495605
1772708653430250000,5.32525,0.5450209975242615,-1.760387659072876,-1.113602876663208
1772708653440275000,5.33527490234375,0.28299635648727417,-2.4470913410186768,-0.7304838299751282
1772708653450301000,5.345301025390625,-0.10420301556587219,-2.61411714553833,-0.6003155708312988
1772708653460326000,5.355325927734375,-0.43170177936553955,-2.4169859886169434,-0.683989405632019
1772708653470351000,5.36535107421875,-0.6539773344993591,-1.9158625602722168,-0.8226509690284729
1772708653480375800,5.375375732421875,-0.7629405856132507,-1.166589617729187,-0.8757274746894836
1772708653490400800,5.38540087890625,-0.7766420245170593,-0.28960293531417847,-0.7645729780197144
1772708653500425700,5.39542578125,-0.719575822353363,0.6185811161994934,-0.5005844831466675
1772708653510451700,5.40545166015625,-0.5977219343185425,1.4347728490829468,-0.1285308301448822
1772708653520477000,5.415476806640625,-0.4493681490421295,2.005159854888916,0.2647371292114258
1772708653530502000,5.425501953125,-0.3304816782474518,2.175436496734619,0.5788105726242065
1772708653540526800,5.43552685546875,-0.2785670757293701,1.7579699754714966,0.7466126084327698
1772708653550551800,5.4455517578125,-0.2588116526603699,0.7928252220153809,0.820564866065979
1772708653560577300,5.455577392578125,-0.19513040781021118,-0.32527709007263184,0.8417080044746399
1772708653570603000,5.46560302734375,-0.08090488612651825,-1.1294846534729004,0.812980055809021
1772708653580628200,5.475628173828125,0.019184695556759834,-1.5033777952194214,0.7401558756828308
1772708653590653200,5.485653076171875,0.07331547886133194,-1.5464448928833008,0.6151679754257202
1772708653600678100,5.49567822265625,0.09315869212150574,-1.3801518678665161,0.4434063136577606
1772708653610703000,5.505703125,0.07901597023010254,-1.0692631006240845,0.2804708182811737
1772708653620728000,5.51572802734375,0.03834870457649231,-0.6646865606307983,0.18740081787109375
1772708653630754300,5.52575439453125,-0.02771223895251751,-0.17710278928279877,0.1848476380109787
1772708653640779000,5.535779052734375,-0.10507094115018845,0.35583117604255676,0.27050766348838806
1772708653650804000,5.545803955078125,-0.17003807425498962,0.8506906628608704,0.4104374647140503
1772708653660829200,5.5558291015625,-0.2231830507516861,1.1984899044036865,0.6131948828697205
1772708653670854100,5.565854248046875,-0.27063101530075073,1.376731038093567,0.9034690856933594
1772708653680879000,5.575879150390625,-0.29816943407058716,1.3909754753112793,1.305809497833252
1772708653690905000,5.585905029296875,-0.314331591129303,1.3159512281417847,1.7687397003173828
1772708653700930000,5.595929931640625,-0.3282966911792755,1.2368654012680054,2.1843276023864746
1772708653710955300,5.605955322265625,-0.3355102837085724,1.1220663785934448,2.4299046993255615
1772708653720980200,5.615980224609375,-0.32190391421318054,0.9004757404327393,2.4733777046203613
1772708653731005200,5.626005126953125,-0.2738679349422455,0.6314483284950256,2.373847723007202
1772708653741658000,5.636658203125,-0.2130541354417801,0.39983293414115906,2.134669303894043
1772708653751683300,5.646683349609375,-0.18792088329792023,0.25288552045822144,1.8369958400726318
1772708653761708000,5.6567080078125,-0.1990710198879242,0.30810537934303284,1.5096755027770996
1772708653771734300,5.666734375,-0.17704911530017853,0.5018519163131714,1.1836278438568115
1772708653781759000,5.676759033203125,-0.07965970784425735,0.6597456932067871,0.8779469132423401
1772708653791784000,5.686783935546875,0.057459596544504166,0.6202617883682251,0.5797221064567566
1772708653801809200,5.69680908203125,0.17827098071575165,0.28606221079826355,0.3114509880542755
1772708653811834000,5.706834228515625,0.28801506757736206,-0.11519749462604523,0.17042255401611328
1772708653821859000,5.716859130859375,0.44822099804878235,-0.19549420475959778,0.2620270550251007
1772708653831885000,5.726885009765625,0.7094808220863342,-0.15912766754627228,0.4888327717781067
1772708653841910000,5.736909912109375,1.0025761127471924,-0.17122481763362885,0.6256630420684814
1772708653851935200,5.746935302734375,1.1985470056533813,-0.24144913256168365,0.44680097699165344
1772708653861960200,5.756960205078125,1.1913859844207764,-0.2842501103878021,-0.02208634652197361
1772708653871985200,5.766985107421875,0.9196392297744751,-0.23958413302898407,-0.4806182384490967
1772708653882011100,5.77701123046875,0.5185102224349976,-0.0022131293080747128,-0.7292876839637756
1772708653892036000,5.7870361328125,0.12935277819633484,0.7079201340675354,-0.6822893023490906
1772708653902061300,5.797061279296875,-0.08242951333522797,1.6681092977523804,-0.48943251371383667
1772708653912086000,5.8070859375,0.022024843841791153,2.013472557067871,-0.45454010367393494
1772708653922111000,5.817111083984375,0.3018983006477356,1.7451121807098389,-0.6591766476631165
1772708653932136000,5.827135986328125,0.54393070936203,1.0277743339538574,-0.9894634485244751
1772708653942162000,5.837161865234375,0.6305884122848511,-0.008406867273151875,-1.4657570123672485
1772708653952187100,5.847187255859375,0.5680223107337952,-1.0190011262893677,-2.0829946994781494
1772708653962212000,5.857212158203125,0.5407081246376038,-1.6303129196166992,-2.6978981494903564
1772708653972237000,5.867237060546875,0.7292762398719788,-1.6407032012939453,-3.1011929512023926
1772708653982262000,5.877261962890625,1.1546393632888794,-0.9946656227111816,-3.0188498497009277
1772708653992287200,5.887287353515625,1.5668740272521973,-0.021795086562633514,-2.422088623046875
1772708654002313200,5.897313232421875,1.7102303504943848,0.703924834728241,-1.5080628395080566
1772708654012338200,5.907338134765625,1.509415864944458,0.961017370223999,-0.5229021310806274
1772708654022363100,5.917363037109375,1.0677274465560913,0.7141303420066833,0.2561092674732208
1772708654032388000,5.92738818359375,0.4899550974369049,0.04090258106589317,0.632815420627594
1772708654042413300,5.937413330078125,-0.16983161866664886,-0.7821207046508789,0.6423918604850769
1772708654052438000,5.94743798828125,-0.7386866807937622,-1.4869736433029175,0.37586936354637146
1772708654062464300,5.95746435546875,-1.0091978311538696,-1.98232901096344,-0.08559626340866089
1772708654072489000,5.967489013671875,-0.9164711236953735,-2.1600232124328613,-0.6075038909912109
1772708654082514000,5.977513916015625,-0.5254834294319153,-2.0625040531158447,-1.070745825767517
1772708654092539100,5.9875390625,0.02453087829053402,-1.8600574731826782,-1.4223027229309082
1772708654102564000,5.997564208984375,0.6002740859985352,-1.629955768585205,-1.6102180480957031
1772708654112590000,6.007590087890625,1.035294771194458,-1.39266836643219,-1.6477570533752441
1772708654122615000,6.017614990234375,1.285152792930603,-1.210119605064392,-1.5613763332366943
1772708654132640000,6.027639892578125,1.226013422012329,-0.9792376756668091,-1.361396312713623
1772708654142665200,6.037665283203125,0.8703961968421936,-0.5440334677696228,-1.0203452110290527
1772708654152690200,6.047690185546875,0.36835360527038574,0.12244020402431488,-0.5486747622489929
1772708654162715100,6.057715087890625,-0.13141359388828278,0.8278372883796692,0.005335448309779167
1772708654172741000,6.0677412109375,-0.5164605379104614,1.299212098121643,0.5828105807304382
1772708654182766000,6.07776611328125,-0.7588132619857788,1.401504635810852,1.0147895812988281
1772708654192791300,6.087791259765625,-0.8383725881576538,1.1589542627334595,1.2128480672836304
1772708654202816000,6.09781591796875,-0.7621712684631348,0.5924701690673828,1.1836984157562256
1772708654212841000,6.107841064453125,-0.5565437078475952,-0.0723026916384697,1.018005132675171
1772708654222867000,6.117866943359375,-0.2465330809354782,-0.48912760615348816,0.8745939135551453
1772708654232892200,6.12789208984375,0.06776507198810577,-0.5068534016609192,0.806800901889801
1772708654242917000,6.137917236328125,0.2749965488910675,-0.24327021837234497,0.7643796801567078
1772708654252942000,6.147942138671875,0.32803282141685486,0.17288680374622345,0.7211321592330933
1772708654262967000,6.157967041015625,0.2539980113506317,0.6163140535354614,0.6776542067527771
1772708654272992300,6.1679921875,0.09324174374341965,0.9862138032913208,0.6607553362846375
1772708654283018200,6.178018310546875,-0.10141082853078842,1.2595404386520386,0.6794030666351318
1772708654293043200,6.188043212890625,-0.3146487772464752,1.4150445461273193,0.7172012329101562
1772708654303068200,6.198068115234375,-0.5251561999320984,1.3847076892852783,0.7697908878326416
1772708654313093000,6.208093017578125,-0.6972570419311523,1.1530344486236572,0.8310639262199402
1772708654323118300,6.218118408203125,-0.804578959941864,0.7972888350486755,0.8679846525192261
1772708654333143300,6.228143310546875,-0.834378182888031,0.38184425234794617,0.8395993709564209
1772708654343169300,6.238169189453125,-0.7591275572776794,0.009538891725242138,0.7503989934921265
1772708654353194200,6.2481943359375,-0.5748748183250427,-0.2187560796737671,0.6529546976089478
1772708654363219000,6.258218994140625,-0.32964614033699036,-0.25828325748443604,0.5861911177635193
1772708654373244200,6.268244140625,-0.08865085989236832,-0.09848900884389877,0.5521316528320312
1772708654383269000,6.27826904296875,0.09234023094177246,0.2746132016181946,0.5614423155784607
1772708654393295000,6.288295166015625,0.19427433609962463,0.8147069811820984,0.6087892055511475
1772708654403320000,6.298320068359375,0.22215843200683594,1.3938722610473633,0.6682474613189697
1772708654413345000,6.308344970703125,0.196457639336586,1.9014177322387695,0.6972614526748657
1772708654423370200,6.318370361328125,0.11348846554756165,2.1397883892059326,0.6918858885765076
1772708654433395200,6.328395263671875,-0.0016092599835246801,1.9297395944595337,0.6890605092048645
1772708654443420200,6.338420166015625,-0.06907698512077332,1.3541345596313477,0.6801450848579407
1772708654453446100,6.348446044921875,0.008827020414173603,0.5467351675033569,0.6839916706085205
1772708654463471000,6.35847119140625,0.3045116662979126,-0.19022303819656372,0.72639000415802
1772708654473496300,6.368496337890625,0.8979660272598267,-0.41190505027770996,0.9871619343757629
1772708654483521300,6.378521240234375,1.6481012105941772,-0.008695549331605434,1.190859317779541
1772708654493546000,6.3885458984375,2.171809673309326,0.4440234899520874,0.8093163967132568
1772708654503571000,6.398571044921875,2.247274160385132,0.8583157658576965,-0.24665121734142303
1772708654513597000,6.408596923828125,1.8335883617401123,1.3672727346420288,-1.3713668584823608
1772708654523622100,6.4186220703125,1.1288315057754517,1.8965163230895996,-1.8594838380813599
1772708654533647000,6.428647216796875,0.3711714446544647,2.3773670196533203,-1.551501750946045
1772708654543672000,6.438672119140625,-0.10178280621767044,2.578322649002075,-0.7599688768386841
1772708654553697300,6.448697265625,-0.09593911468982697,2.2010960578918457,-0.08483051508665085
1772708654563723300,6.45872314453125,0.10187783092260361,1.1383192539215088,0.05326610058546066
1772708654573748200,6.468748291015625,0.26125118136405945,-0.16246429085731506,-0.18404309451580048
1772708654583773400,6.4787734375,0.39925965666770935,-1.3138463497161865,-0.5529993176460266
1772708654593798400,6.48879833984375,0.4847450256347656,-1.9702181816101074,-0.8506776690483093
1772708654603823400,6.4988232421875,0.4901043772697449,-1.9098844528198242,-0.9459347128868103
1772708654613848300,6.508848388671875,0.401822566986084,-1.2287795543670654,-0.9061090350151062
1772708654623874300,6.518874267578125,0.26021721959114075,-0.295803427696228,-0.8701345324516296
1772708654633899500,6.5288994140625,0.08493802696466446,0.5033632516860962,-0.8872659802436829
1772708654643924500,6.538924560546875,-0.05802631750702858,0.8449916839599609,-0.8536497354507446
1772708654653949400,6.548949462890625,-0.12821030616760254,0.5566856861114502,-0.7504663467407227
1772708654663974400,6.558974365234375,-0.05935506895184517,-0.21686305105686188,-0.5312058925628662
1772708654674000400,6.56900048828125,0.10429105162620544,-1.1794251203536987,-0.2482098937034607
1772708654684025600,6.579025634765625,0.23441389203071594,-1.9975603818893433,-0.05239085108041763
1772708654694050300,6.58905029296875,0.31200987100601196,-2.3856265544891357,-0.03559984266757965
1772708654704075300,6.5990751953125,0.34908559918403625,-2.3805294036865234,-0.1457923948764801
1772708654714100500,6.6091005859375,0.336762934923172,-2.061248779296875,-0.267168790102005
1772708654724125400,6.61912548828125,0.25237879157066345,-1.5190399885177612,-0.3100951910018921
1772708654734151400,6.6291513671875,0.10485108941793442,-0.9385254383087158,-0.34791672229766846
1772708654744176400,6.63917626953125,-0.0955994501709938,-0.45912685990333557,-0.4116173982620239
1772708654754201300,6.649201416015625,-0.3182075023651123,-0.08267005532979965,-0.5114169716835022
1772708654764226600,6.6592265625,-0.5385441780090332,0.13890627026557922,-0.6502059698104858
1772708654774251500,6.66925146484375,-0.7399875521659851,0.09573531895875931,-0.7554912567138672
1772708654784276500,6.6792763671875,-0.8884782195091248,-0.25942569971084595,-0.7967768907546997
1772708654794302500,6.689302490234375,-0.9642874002456665,-0.8157667517662048,-0.7225822806358337
1772708654804327400,6.699327392578125,-0.9324868321418762,-1.2502505779266357,-0.49654245376586914
1772708654814352600,6.7093525390625,-0.8150535821914673,-1.339026927947998,-0.15883037447929382
1772708654824377300,6.71937744140625,-0.6581041812896729,-1.1743292808532715,0.19777940213680267
1772708654834402300,6.72940234375,-0.4886082708835602,-0.9734929800033569,0.5003776550292969
1772708654844427300,6.73942724609375,-0.3330034911632538,-0.7518678903579712,0.7395961284637451
1772708654854453200,6.749453369140625,-0.2218606024980545,-0.4234764575958252,0.9153901934623718
1772708654864478500,6.759478515625,-0.17741777002811432,-0.015156349167227745,1.0402836799621582
1772708654874503400,6.76950341796875,-0.21990393102169037,0.36688873171806335,1.1155591011047363
1772708654884528400,6.7795283203125,-0.32057860493659973,0.6596255898475647,1.1437134742736816
1772708654894553300,6.78955322265625,-0.4298740327358246,0.8273442983627319,1.1187995672225952
1772708654904578600,6.79957861328125,-0.5355498790740967,0.8623625040054321,1.0296491384506226
1772708654914604500,6.8096044921875,-0.6246890425682068,0.7435089349746704,0.8841813802719116
1772708654924629500,6.81962939453125,-0.6866938471794128,0.4806126058101654,0.7143755555152893
1772708654934654500,6.829654541015625,-0.6947068572044373,0.1614231914281845,0.5534447431564331
1772708654944679400,6.839679443359375,-0.619332492351532,-0.12520857155323029,0.4254783093929291
1772708654954704600,6.84970458984375,-0.4948412775993347,-0.3188282549381256,0.3143077790737152
1772708654964730600,6.859730712890625,-0.366604745388031,-0.3890478014945984,0.21073342859745026
1772708654974755600,6.869755615234375,-0.24210378527641296,-0.3838758170604706,0.09234681725502014
1772708654984780300,6.8797802734375,-0.09933464974164963,-0.3634898364543915,-0.11430409550666809
1772708654994805200,6.88980517578125,0.04063454642891884,-0.2645557224750519,-0.3353996276855469
1772708655004830500,6.89983056640625,0.18970978260040283,0.025731243193149567,-0.42201361060142517
1772708655014855400,6.90985546875,0.331405371427536,0.5124726295471191,-0.3101924657821655
1772708655024881400,6.91988134765625,0.452777624130249,1.0613621473312378,-0.03813166171312332
1772708655034906400,6.92990625,0.5709925889968872,1.593185544013977,0.3288470506668091
1772708655044931300,6.939931396484375,0.6678563356399536,2.170656204223633,0.8381047248840332
1772708655054956500,6.94995654296875,0.7141972184181213,2.5059430599212646,1.2678494453430176
1772708655064981500,6.9599814453125,0.6487596035003662,1.958885669708252,1.362400770187378
1772708655075006500,6.97000634765625,0.43115898966789246,0.6447342038154602,1.064367651939392
1772708655085032400,6.980032470703125,0.08363138139247894,-1.0217984914779663,0.5356239676475525
1772708655095057400,6.990057373046875,-0.1816953718662262,-1.9648817777633667,0.2217107117176056
1772708655105082600,7.00008251953125,-0.20701457560062408,-1.6106714010238647,0.2865821421146393
1772708655115107300,7.010107421875,0.0345631018280983,-0.3196091651916504,0.44106918573379517
1772708655125132300,7.02013232421875,0.4145983159542084,1.2797937393188477,0.2503141462802887
1772708655135157200,7.0301572265625,0.7742889523506165,2.445747137069702,-0.4309558570384979
1772708655145183200,7.040183349609375,1.0369610786437988,2.7086567878723145,-1.330437183380127
1772708655155208400,7.05020849609375,1.1117833852767944,2.1640453338623047,-2.0604469776153564
1772708655165233400,7.0602333984375,0.825658917427063,1.3415695428848267,-2.3963048458099365
1772708655175258400,7.07025830078125,0.22612249851226807,0.46167314052581787,-2.321551561355591
1772708655185283300,7.080283447265625,-0.45102617144584656,-0.519086480140686,-2.0150511264801025
1772708655195309300,7.090309326171875,-0.9176931381225586,-1.8844106197357178,-1.702815294265747
1772708655205334500,7.10033447265625,-0.9446648359298706,-3.5369508266448975,-1.4105993509292603
1772708655215359500,7.110359375,-0.5964279770851135,-4.888705730438232,-1.095754861831665
1772708655225384400,7.120384521484375,-0.1376231163740158,-5.362171173095703,-0.7650474905967712
1772708655235409400,7.130409423828125,0.20765359699726105,-4.820349216461182,-0.48129817843437195
1772708655245434600,7.1404345703125,0.45429855585098267,-3.528592109680176,-0.3063045144081116
1772708655255460600,7.150460693359375,0.5982070565223694,-1.8684266805648804,-0.20111685991287231
1772708655265485600,7.160485595703125,0.6012817025184631,-0.11087508499622345,-0.07442043721675873
1772708655275510300,7.17051025390625,0.4926777780056,1.4543910026550293,0.08764757961034775
1772708655285535200,7.18053515625,0.2807151973247528,2.5876049995422363,0.19162698090076447
1772708655295560400,7.190560546875,0.0017984230071306229,3.1318888664245605,0.17453359067440033
1772708655305585400,7.20058544921875,-0.286728173494339,2.816934823989868,0.04067378491163254
1772708655315611400,7.210611328125,-0.5028151869773865,1.6275731325149536,-0.07077409327030182
1772708655325636400,7.22063623046875,-0.5967597365379333,0.1401432901620865,-0.1211421936750412
1772708655335661300,7.230661376953125,-0.586698591709137,-1.1212689876556396,-0.07187378406524658
1772708655345686500,7.2406865234375,-0.5271849036216736,-1.5418177843093872,-0.06036333739757538
1772708655355711500,7.25071142578125,-0.3544851541519165,-1.5999972820281982,0.13196857273578644
1772708655365736400,7.260736328125,-0.16775281727313995,-1.3676502704620361,0.2827884256839752
1772708655375762400,7.270762451171875,-0.058607663959264755,-0.9909044504165649,0.34880685806274414
1772708655385787400,7.280787353515625,-0.028378387913107872,-0.4997171461582184,0.3543555438518524
1772708655395812600,7.2908125,-0.07230086624622345,0.08003044873476028,0.33195197582244873
1772708655405837300,7.30083740234375,-0.1735401302576065,0.6517261266708374,0.32448261976242065
1772708655415862300,7.3108623046875,-0.31172290444374084,1.0861047506332397,0.3383477032184601
1772708655425887200,7.32088720703125,-0.44937288761138916,1.2374942302703857,0.37694409489631653
1772708655435913200,7.330913330078125,-0.5528370141983032,1.0865209102630615,0.4607243835926056
1772708655445938400,7.3409384765625,-0.6226344704627991,0.7384503483772278,0.5821861028671265
1772708655455963400,7.35096337890625,-0.665207028388977,0.31817930936813354,0.7364929914474487
1772708655465988400,7.36098828125,-0.6712337136268616,-0.016567261889576912,0.9214119911193848
1772708655476013300,7.371013427734375,-0.6433369517326355,-0.12467070668935776,1.0897667407989502
1772708655486038500,7.38103857421875,-0.595412015914917,0.021044950932264328,1.2185287475585938
1772708655496064500,7.391064453125,-0.5353012681007385,0.2648780047893524,1.308148741722107
1772708655506089500,7.40108935546875,-0.49715495109558105,0.4967311918735504,1.3483896255493164
1772708655516114400,7.411114501953125,-0.4928058683872223,0.7437642812728882,1.3439562320709229
1772708655526139400,7.421139404296875,-0.5282312631607056,0.9900211691856384,1.280057668685913
1772708655536164600,7.43116455078125,-0.5955687165260315,1.1527117490768433,1.1634056568145752
1772708655546189300,7.441189208984375,-0.6678826212882996,1.1604650020599365,1.0079642534255981
1772708655556214800,7.45121484375,-0.7118640542030334,0.9929726719856262,0.8569852113723755
1772708655566239700,7.46123974609375,-0.6471540331840515,0.7387979626655579,0.8152961134910583
1772708655576265000,7.471264892578125,-0.43324995040893555,0.529884397983551,0.8481776118278503
1772708655586289700,7.48128955078125,-0.0747474655508995,0.5480881929397583,0.9689871668815613
1772708655596314600,7.491314697265625,0.3679082989692688,0.8010405898094177,1.0812554359436035
1772708655606339600,7.501339599609375,0.7168402075767517,1.1778877973556519,0.8620637655258179
1772708655616365600,7.511365478515625,0.8655717968940735,1.4405317306518555,0.24541740119457245
1772708655626390800,7.521390869140625,0.822420597076416,1.7082500457763672,-0.4809773564338684
1772708655636415700,7.531415771484375,0.7136160135269165,2.0393428802490234,-0.8733479380607605
1772708655646440700,7.541440673828125,0.6286686658859253,2.113509178161621,-0.8193241357803345
1772708655656465700,7.551465576171875,0.5531588792800903,1.8930450677871704,-0.49613091349601746
1772708655666491000,7.561490966796875,0.4201981723308563,1.4406602382659912,-0.33629995584487915
1772708655676516900,7.571516845703125,0.164727583527565,0.7322462797164917,-0.6138267517089844
1772708655686541800,7.581541748046875,-0.1020340621471405,0.09695666283369064,-1.1350934505462646
1772708655696566800,7.59156689453125,-0.15085479617118835,-0.38226762413978577,-1.6052320003509521
1772708655706591700,7.601591796875,0.16036540269851685,-0.5999261736869812,-1.801615834236145
1772708655716616700,7.61161669921875,0.6601265668869019,-0.42258843779563904,-1.7804185152053833
1772708655726641700,7.6216416015625,1.059067964553833,0.12147300690412521,-1.6058608293533325
1772708655736667600,7.631667724609375,1.0976201295852661,0.7927650213241577,-1.3792299032211304
1772708655746692600,7.641692626953125,0.8318782448768616,1.0110955238342285,-1.170030117034912
1772708655756717600,7.651717529296875,0.4792342483997345,0.34599819779396057,-1.0122435092926025
1772708655766742800,7.66174267578125,0.15858672559261322,-0.9385860562324524,-0.8615813851356506
1772708655776767700,7.671767822265625,-0.10961361974477768,-2.0848474502563477,-0.6303864121437073
1772708655786792700,7.681792724609375,-0.34072619676589966,-2.683609962463379,-0.40330660343170166
1772708655796818700,7.691818603515625,-0.5288227796554565,-2.862816572189331,-0.32140132784843445
1772708655806843600,7.70184375,-0.6600399017333984,-2.8258838653564453,-0.44471874833106995
1772708655816868900,7.711868896484375,-0.7369547486305237,-2.6658687591552734,-0.6984331607818604
1772708655826893800,7.721893798828125,-0.7245409488677979,-2.339294672012329,-0.9330289363861084
1772708655836918800,7.731918701171875,-0.631105899810791,-1.8787775039672852,-1.005861759185791
1772708655846943700,7.74194384765625,-0.5201724171638489,-1.3556053638458252,-0.8917900323867798
1772708655856969700,7.7519697265625,-0.42376813292503357,-0.8094607591629028,-0.6288130283355713
1772708655866995000,7.761994873046875,-0.36762523651123047,-0.31153836846351624,-0.28742536902427673
1772708655877019600,7.77201953125,-0.3661290109157562,-0.010937275364995003,0.05531986057758331
1772708655887044600,7.782044677734375,-0.4007170796394348,0.08210531622171402,0.3410336375236511
1772708655897069600,7.792069580078125,-0.4303012788295746,0.03880523517727852,0.549394428730011
1772708655907094800,7.8020947265625,-0.44711941480636597,-0.11660485714673996,0.6563426852226257
1772708655917120800,7.812120849609375,-0.48509839177131653,-0.35817083716392517,0.6833558678627014
1772708655927145700,7.822145751953125,-0.5194915533065796,-0.5673762559890747,0.7078662514686584
1772708655937170700,7.832170654296875,-0.48461440205574036,-0.6284217834472656,0.7849841117858887
1772708655947195600,7.842195556640625,-0.38265952467918396,-0.5527259111404419,0.8553754687309265
1772708655957220900,7.852220947265625,-0.2680087685585022,-0.39126360416412354,0.8615884184837341
1772708655967245800,7.862245849609375,-0.18454182147979736,-0.19122184813022614,0.818409264087677
1772708655977271800,7.872271728515625,-0.14650672674179077,0.010862897150218487,0.7585332989692688
1772708655987296800,7.882296875,-0.15399500727653503,0.17757704854011536,0.7011999487876892
1772708655997321700,7.89232177734375,-0.19223354756832123,0.29227519035339355,0.6417333483695984
1772708656007346700,7.9023466796875,-0.22820086777210236,0.35913997888565063,0.615522027015686
1772708656017371600,7.91237158203125,-0.22802060842514038,0.4175928831100464,0.6328691840171814
1772708656027396600,7.922396728515625,-0.17792469263076782,0.4741160571575165,0.6886664032936096
1772708656037422600,7.932422607421875,-0.10068602859973907,0.4709870517253876,0.7378817200660706
1772708656047447800,7.94244775390625,-0.016658231616020203,0.38991591334342957,0.7436551451683044
1772708656057472800,7.95247265625,0.04923461750149727,0.28192955255508423,0.6796321272850037
1772708656067497700,7.962497802734375,0.09217569231987,0.19252029061317444,0.5710944533348083
1772708656077522700,7.972522705078125,0.07982955127954483,0.14003518223762512,0.43374598026275635
1772708656087548000,7.9825478515625,-0.007461949251592159,0.16879600286483765,0.30920538306236267
1772708656097573600,7.99257373046875,-0.10907333344221115,0.29338353872299194,0.24480952322483063
1772708656107598800,8.002598876953124,-0.1674729883670807,0.5283340215682983,0.2614106237888336
1772708656117623800,8.012623779296876,-0.14305804669857025,0.8482940793037415,0.35301661491394043
1772708656127648800,8.022648681640625,-0.01843756064772606,1.0876036882400513,0.5028566718101501
1772708656137673700,8.032673828125,0.1628263294696808,1.1120067834854126,0.5738484859466553
1772708656147698700,8.04269873046875,0.2917819321155548,0.8658275604248047,0.49136883020401
1772708656157725000,8.052724853515626,0.35508158802986145,0.4862484931945801,0.4091944098472595
1772708656167749600,8.06274951171875,0.4937010109424591,0.4416455924510956,0.5603125691413879
1772708656177774600,8.072774658203125,0.8948862552642822,0.9939777851104736,1.089845061302185
1772708656187799800,8.0827998046875,1.4274652004241943,1.719143271446228,1.5633503198623657
1772708656197824800,8.09282470703125,1.6842960119247437,2.109313488006592,1.3652434349060059
1772708656207849700,8.102849609375,1.299167513847351,1.9459636211395264,0.413404643535614
1772708656217875700,8.112875732421875,0.14570024609565735,1.4079558849334717,-0.6360026001930237
1772708656227900700,8.122900634765625,-1.2484816312789917,0.7436672449111938,-1.0498427152633667
1772708656237926000,8.13292578125,-1.9064184427261353,0.38522979617118835,-0.6845611333847046
1772708656247950800,8.142950927734375,-1.3991882801055908,0.36986178159713745,0.0025663860142230988
1772708656257975800,8.152975830078125,-0.2576226592063904,0.6245702505111694,0.4274134039878845
1772708656268000800,8.163000732421875,0.8861938118934631,0.8850356340408325,0.3773161470890045
1772708656278026800,8.17302685546875,1.5711321830749512,0.9125836491584778,0.026037486270070076
1772708656288052000,8.183052001953126,1.7868493795394897,0.7476953268051147,-0.3570196330547333
1772708656298077000,8.193076904296875,1.7446688413619995,0.5393933057785034,-0.7524166107177734
1772708656308101600,8.2031015625,1.49253511428833,0.466651976108551,-1.1114661693572998
1772708656318126600,8.213126708984374,0.9689115881919861,0.626926064491272,-1.375562071800232
1772708656328151800,8.22315185546875,0.23753836750984192,0.8266724348068237,-1.5069105625152588
1772708656338177800,8.233177734375,-0.505977213382721,0.89792400598526,-1.4422253370285034
1772708656348202800,8.24320263671875,-0.9981852769851685,0.7519777417182922,-1.1685434579849243
1772708656358227700,8.253227783203124,-1.0762360095977783,0.19549763202667236,-0.7135615944862366
1772708656368252700,8.263252685546876,-0.8796116709709167,-0.8137407898902893,-0.16435039043426514
1772708656378278000,8.27327783203125,-0.6039378046989441,-1.965449571609497,0.29846516251564026
1772708656388302800,8.283302734375,-0.3969462513923645,-2.803654432296753,0.5081832408905029
1772708656398328800,8.293328857421875,-0.32285812497138977,-3.062875509262085,0.4038814306259155
1772708656408353800,8.303353759765624,-0.34251198172569275,-2.822213888168335,0.09662909805774689
1772708656418378800,8.313378662109375,-0.37891244888305664,-2.1500296592712402,-0.24718263745307922
1772708656428404000,8.323404052734375,-0.40551766753196716,-1.2107529640197754,-0.500832736492157
1772708656438428700,8.3334287109375,-0.44204652309417725,-0.22184310853481293,-0.5895601511001587
1772708656448453600,8.34345361328125,-0.5172464847564697,0.6750690937042236,-0.49400246143341064
1772708656458479600,8.353479736328126,-0.6104519367218018,1.2611242532730103,-0.25763243436813354
1772708656468504600,8.363504638671875,-0.6897326707839966,1.2807339429855347,0.014890704303979874
1772708656478529800,8.37352978515625,-0.7083759307861328,0.6941157579421997,0.2884272336959839
1772708656488554800,8.3835546875,-0.6461541056632996,-0.2483990341424942,0.5808442234992981
1772708656498579700,8.393579833984376,-0.5104160904884338,-1.1766992807388306,0.8790354132652283
1772708656508604700,8.403604736328125,-0.35313189029693604,-1.8509852886199951,1.1175404787063599
1772708656518630000,8.4136298828125,-0.22060449421405792,-2.2009401321411133,1.2534972429275513
1772708656528656000,8.42365576171875,-0.12424066662788391,-2.1967861652374268,1.2858322858810425
1772708656538680800,8.433680908203126,-0.06952164322137833,-1.9511404037475586,1.251370906829834
1772708656548705800,8.443705810546875,-0.033271223306655884,-1.5577120780944824,1.1908109188079834
1772708656558730500,8.45373046875,0.009555625729262829,-1.0760732889175415,1.1494146585464478
1772708656568755500,8.46375537109375,0.060108814388513565,-0.5959083437919617,1.1299242973327637
1772708656578780400,8.473780517578126,0.09192758798599243,-0.1853162944316864,1.0952579975128174
1772708656588806400,8.483806396484376,0.06750080734491348,0.13470405340194702,1.0226271152496338
1772708656598831400,8.493831298828125,-0.006695420481264591,0.3568365275859833,0.922406792640686
1772708656608856300,8.503856201171875,-0.09285826981067657,0.4423072040081024,0.8333826065063477
1772708656618881500,8.513881591796874,-0.15804699063301086,0.41042548418045044,0.7884059548377991
1772708656628906500,8.523906494140626,-0.17642998695373535,0.33807671070098877,0.792451798915863
1772708656638931500,8.533931396484375,-0.12823541462421417,0.29933327436447144,0.817981481552124
1772708656648957400,8.54395751953125,-0.0415487177670002,0.2752273976802826,0.8312743902206421
1772708656658982400,8.553982421875,0.0188579224050045,0.21862809360027313,0.7809064388275146
1772708656669007600,8.564007568359376,0.018453389406204224,0.13885736465454102,0.6500133872032166
1772708656679032600,8.574032470703125,-0.022568244487047195,0.0774032473564148,0.4612147808074951
1772708656689057500,8.5840576171875,-0.09899590909481049,0.0557783767580986,0.25711196660995483
1772708656699082500,8.59408251953125,-0.2194293588399887,0.07461470365524292,0.05985844507813454
1772708656709107500,8.604107421875,-0.34356409311294556,0.1716030240058899,-0.11442068219184875
1772708656719133700,8.6141337890625,-0.3648054301738739,0.36016765236854553,-0.22400827705860138
1772708656729158400,8.624158447265625,-0.2735884487628937,0.5989211201667786,-0.2828225791454315
1772708656739183400,8.634183349609375,-0.12689371407032013,0.8431007266044617,-0.3874607980251312
1772708656749208600,8.64420849609375,-0.010772163048386574,1.05251145362854,-0.5068606734275818
1772708656759233500,8.654233642578125,0.0664481595158577,1.4107928276062012,-0.457063764333725
1772708656769258500,8.664258544921875,0.17843860387802124,2.1719260215759277,-0.17525047063827515
1772708656779284500,8.674284423828125,0.3019862174987793,3.0429601669311523,0.20804697275161743
1772708656789309400,8.684309326171874,0.31934604048728943,3.418851852416992,0.264565110206604
1772708656799334400,8.69433447265625,0.1654984951019287,3.1015779972076416,-0.15753215551376343
1772708656809359600,8.704359619140625,-0.13009880483150482,2.0829036235809326,-0.8616594076156616
1772708656819384600,8.714384521484375,-0.42517518997192383,0.37459373474121094,-1.420392632484436
1772708656829409500,8.724409423828124,-0.46933385729789734,-0.8038159012794495,-1.383864164352417
1772708656839435500,8.734435546875,-0.21943359076976776,-0.7481371760368347,-0.7857336401939392
1772708656849460500,8.74446044921875,0.12195569276809692,-0.014937235042452812,-0.20201802253723145
1772708656859485400,8.7544853515625,0.3661908805370331,0.8633126020431519,-0.22615869343280792
1772708656869510400,8.764510498046874,0.5360472798347473,1.4128340482711792,-0.8270946145057678
1772708656879535400,8.774535400390626,0.6952723860740662,1.4426621198654175,-1.51534903049469
1772708656889560600,8.784560546875,0.8002443313598633,1.1570050716400146,-1.9621227979660034
1772708656899586600,8.794586669921875,0.7136054039001465,0.7745614051818848,-2.285959243774414
1772708656909611500,8.804611572265625,0.3375851809978485,0.3810543119907379,-2.639770269393921
1772708656919636500,8.814636474609374,-0.2991583049297333,-0.011513356119394302,-2.994840383529663
1772708656929661400,8.824661376953125,-0.9531329274177551,-0.6366581916809082,-3.144005298614502
1772708656939686700,8.834686767578125,-1.2147384881973267,-1.2646280527114868,-2.7640790939331055
1772708656949711600,8.844711669921875,-0.7804001569747925,-1.7399280071258545,-1.8161998987197876
1772708656959737600,8.854737548828124,0.17129436135292053,-2.2477009296417236,-0.5177000164985657
1772708656969762600,8.864762451171876,1.135050892829895,-2.7813048362731934,0.7156509160995483
1772708656979787500,8.87478759765625,1.6359179019927979,-3.3040308952331543,1.535132884979248
1772708656989812700,8.884812744140625,1.6683685779571533,-3.5331616401672363,1.8719438314437866
1772708656999837400,8.89483740234375,1.489656686782837,-3.3847506046295166,1.7904912233352661
1772708657009862400,8.9048623046875,1.2741260528564453,-2.9399259090423584,1.431603193283081
1772708657019887400,8.914887451171875,1.0676862001419067,-2.2245352268218994,0.9506964683532715
1772708657029913300,8.924913330078125,0.8980087637901306,-1.335873007774353,0.42056313157081604
1772708657039938600,8.9349384765625,0.7400127649307251,-0.34402352571487427,-0.11314007639884949
1772708657049963500,8.944963623046876,0.586406946182251,0.6714105010032654,-0.5369139909744263
1772708657059988500,8.954988525390625,0.46772053837776184,1.5867584943771362,-0.7583822011947632
1772708657070013400,8.965013427734375,0.40263688564300537,2.0701229572296143,-0.7018302083015442
1772708657080038700,8.97503857421875,0.41360971331596375,1.8089154958724976,-0.44559913873672485
1772708657090064600,8.985064697265624,0.44845050573349,0.8578317165374756,-0.12417664378881454
1772708657100089600,8.995089599609376,0.45697495341300964,-0.36844444274902344,0.2275645136833191
1772708657110114600,9.005114501953125,0.3962644934654236,-1.3211172819137573,0.5882880687713623
1772708657120139500,9.015139404296875,0.2357707917690277,-1.7486040592193604,0.8980086445808411
1772708657130164500,9.02516455078125,0.0036816352512687445,-1.7811262607574463,1.0690383911132812
1772708657140189400,9.035189453125,-0.24253757297992706,-1.5573737621307373,1.0486488342285156
1772708657150215400,9.04521533203125,-0.4475000500679016,-1.134664535522461,0.8857599496841431
1772708657160240400,9.055240478515625,-0.5469231605529785,-0.5457305312156677,0.6828668713569641
1772708657170265300,9.065265380859374,-0.5291599035263062,0.13294807076454163,0.47547030448913574
1772708657180290600,9.07529052734375,-0.4530462324619293,0.7814967632293701,0.2824271619319916
1772708657190315500,9.0853154296875,-0.3964711129665375,1.2759021520614624,0.1410367339849472
1772708657200340500,9.095340576171875,-0.37460169196128845,1.5168159008026123,0.052919741719961166
1772708657210365400,9.105365478515624,-0.3645293414592743,1.4920005798339844,0.015037340112030506
1772708657220391400,9.115391357421874,-0.353568971157074,1.2829616069793701,0.0441608801484108
1772708657230416600,9.125416748046876,-0.32489684224128723,1.0297406911849976,0.11091887205839157
1772708657240441600,9.135441650390625,-0.28744497895240784,0.7795316576957703,0.16962382197380066
1772708657250466600,9.145466552734375,-0.24344344437122345,0.5264330506324768,0.26240861415863037
1772708657260491500,9.155491455078124,-0.20941250026226044,0.30276432633399963,0.4014035165309906
1772708657270516500,9.1655166015625,-0.1884331852197647,0.21765528619289398,0.5823618173599243
1772708657280542700,9.175542724609375,-0.1968693882226944,0.26545819640159607,0.7373788952827454
1772708657290567400,9.1855673828125,-0.2825073003768921,0.38097625970840454,0.9134817719459534
1772708657300592400,9.19559228515625,-0.4159024953842163,0.3638751208782196,1.0300391912460327
1772708657310617300,9.205617431640626,-0.48914024233818054,0.2254416048526764,1.0635961294174194
1772708657320642600,9.215642578125,-0.43862318992614746,0.4086505174636841,1.02061128616333
1772708657330667500,9.22566748046875,-0.29966798424720764,0.6500759124755859,0.9027820825576782
1772708657340692500,9.2356923828125,-0.14207196235656738,0.77574622631073,0.8335832953453064
