time,seconds_elapsed,z,y,x
1772725615817068300,0.092068359375,0,0,0
1772725615826585300,0.10158544921875,0.047435760498046875,-0.00011229515075683594,0.006775528192520142
1772725615836102100,0.11110205078125,0.08075904846191406,-0.0039937496185302734,-0.02158030867576599
1772725615845619000,0.120618896484375,0.09470367431640625,-0.022814273834228516,-0.0757601261138916
1772725615855136000,0.130135986328125,0.0935068130493164,0.009029626846313477,-0.10259923338890076
1772725615864652800,0.13965283203125,0.08291339874267578,0.01861858367919922,-0.10046905279159546
1772725615874169600,0.149169677734375,0.037509918212890625,0.026468753814697266,-0.053956881165504456
1772725615883686700,0.158686767578125,-0.03274250030517578,0.020899534225463867,-0.00241146981716156
1772725615893203500,0.168203369140625,-0.004164695739746094,0.039391279220581055,0.03969506919384003
1772725615902720300,0.17772021484375,-0.04955101013183594,0.022078514099121094,0.06047305464744568
1772725615912237300,0.1872373046875,-0.12414360046386719,-0.03627371788024902,0.05128765106201172
1772725615921754000,0.196754150390625,-0.21367359161376953,-0.058183908462524414,0.09588474035263062
1772725615931271000,0.20627099609375,-0.24302959442138672,-0.039946794509887695,0.14682728052139282
1772725615940788000,0.2157880859375,-0.3033275604248047,-0.0395967960357666,0.1335274577140808
1772725615950304800,0.2253046875,-0.29238414764404297,-0.04503679275512695,0.10445308685302734
1772725615959821800,0.23482177734375,-0.2230691909790039,-0.03421306610107422,0.05739906430244446
1772725615969338600,0.244338623046875,-0.12705612182617188,-0.01995110511779785,0.05986696481704712
1772725615978855400,0.25385546875,-0.1067972183227539,-0.05188274383544922,0.009302347898483276
1772725615988372200,0.263372314453125,-0.0970773696899414,-0.06842684745788574,-0.00041726231575012207
1772725615997889300,0.27288916015625,-0.02441120147705078,-0.02751326560974121,0.034173041582107544
1772725616007406000,0.282406005859375,-0.0030870437622070312,-0.03864884376525879,0.04906776547431946
1772725616016923100,0.291923095703125,-0.06506061553955078,-0.10832500457763672,0.02548915147781372
1772725616026440000,0.30143994140625,-0.12939453125,-0.10772228240966797,0.08498305082321167
1772725616035956700,0.310956787109375,-0.20100688934326172,-0.05080699920654297,0.12085917592048645
1772725616045473800,0.320473876953125,-0.1741781234741211,0.011984109878540039,0.17285794019699097
1772725616054990600,0.329990478515625,-0.06377315521240234,0.03597569465637207,0.1872890293598175
1772725616064507400,0.33950732421875,0.09564495086669922,0.04222226142883301,0.1431783139705658
1772725616074024400,0.3490244140625,0.27326297760009766,0.009389400482177734,0.06044009327888489
1772725616083541200,0.358541259765625,0.4021129608154297,-0.0178525447845459,0.007738679647445679
1772725616093058000,0.36805810546875,0.42391109466552734,-0.06037545204162598,-0.030389368534088135
1772725616102575000,0.3775751953125,0.3766365051269531,-0.036110877990722656,0.01803538203239441
1772725616112092000,0.387091796875,0.24344921112060547,-0.01573348045349121,0.04949536919593811
1772725616121608700,0.396608642578125,0.11916160583496094,-0.007509708404541016,0.05431920289993286
1772725616131125800,0.406125732421875,0.031014442443847656,0.010171890258789062,0.043110817670822144
1772725616140642600,0.415642578125,-0.03383064270019531,0.03487348556518555,0.013397693634033203
1772725616150159600,0.42515966796875,-0.12050437927246094,0.041351318359375,-0.022289544343948364
1772725616159676400,0.434676513671875,-0.16808414459228516,0.05117535591125488,-0.039826929569244385
1772725616169193200,0.444193115234375,-0.17062950134277344,0.04999971389770508,0.012751460075378418
1772725616178710300,0.453710205078125,-0.11270618438720703,0.02083754539489746,0.04857704043388367
1772725616188227000,0.46322705078125,-0.0630502700805664,0.012427330017089844,0.0572759211063385
1772725616197743900,0.472743896484375,-0.028242111206054688,-0.022630691528320312,0.04417833685874939
1772725616207261000,0.482260986328125,-0.012620925903320312,-0.03674507141113281,-0.054086267948150635
1772725616216777700,0.49177783203125,-0.06982994079589844,0.005738258361816406,-0.1001785397529602
1772725616226294500,0.50129443359375,-0.1143789291381836,0.02960681915283203,-0.09285160899162292
1772725616235811600,0.5108115234375,-0.19356060028076172,0.012311220169067383,-0.06248089671134949
1772725616245328400,0.520328369140625,-0.2131195068359375,0.008544683456420898,-0.026721090078353882
1772725616254845200,0.52984521484375,-0.20235538482666016,0.02002406120300293,0.05242699384689331
1772725616264362200,0.5393623046875,-0.16884994506835938,-0.0029730796813964844,0.09464967250823975
1772725616273879000,0.548879150390625,-0.11520195007324219,-0.003937721252441406,0.09038972854614258
1772725616283396000,0.55839599609375,-0.07912635803222656,-0.004739522933959961,0.07898089289665222
1772725616292913000,0.567912841796875,-0.046044349670410156,-0.001062154769897461,0.041679054498672485
1772725616302429700,0.5774296875,-0.053458213806152344,-0.011652708053588867,0.04459145665168762
1772725616311946500,0.586946533203125,-0.08666038513183594,0.006392002105712891,0.03574499487876892
1772725616321463600,0.596463623046875,-0.14773273468017578,0.03430891036987305,0.029747694730758667
1772725616330980400,0.60598046875,-0.1234750747680664,0.06504964828491211,0.042556196451187134
1772725616340497400,0.615497314453125,-0.04584980010986328,0.055959224700927734,0.055312275886535645
1772725616350014200,0.62501416015625,0.06325340270996094,0.03545665740966797,0.028205782175064087
1772725616359531000,0.634531005859375,0.1801156997680664,0.007678031921386719,0.024482935667037964
1772725616369048000,0.644048095703125,0.28847789764404297,-0.01856207847595215,0.014093846082687378
1772725616378564900,0.65356494140625,0.35105323791503906,-0.027341604232788086,0.02551335096359253
1772725616388081700,0.66308154296875,0.38744449615478516,-0.026340961456298828,0.032611966133117676
1772725616397598700,0.6725986328125,0.3532896041870117,-0.02731609344482422,0.038901060819625854
1772725616407115500,0.682115478515625,0.27544403076171875,-0.022617816925048828,0.03580257296562195
1772725616416632300,0.69163232421875,0.22032451629638672,-0.00004458427429199219,0.03351473808288574
1772725616426149400,0.7011494140625,0.16863250732421875,0.014548301696777344,0.04123657941818237
1772725616435666200,0.710666259765625,0.13683795928955078,0.00006079673767089844,0.029551804065704346
1772725616445183000,0.720182861328125,0.1269683837890625,-0.01002645492553711,0.01925450563430786
1772725616454700000,0.729699951171875,0.07036304473876953,-0.03209090232849121,-0.027088910341262817
1772725616464216800,0.739216796875,-0.0016078948974609375,-0.05417227745056152,0.001763761043548584
1772725616473734000,0.74873388671875,-0.1148223876953125,-0.059110164642333984,0.05358722805976868
1772725616483250700,0.758250732421875,-0.23361778259277344,-0.02759552001953125,0.038101524114608765
1772725616492767500,0.767767578125,-0.32290077209472656,0.033531904220581055,0.037118226289749146
1772725616502284500,0.777284423828125,-0.39030933380126953,0.046465396881103516,0.047301292419433594
1772725616511801300,0.78680126953125,-0.38903045654296875,0.06820273399353027,0.027666926383972168
1772725616521318400,0.796318359375,-0.3624305725097656,0.018275737762451172,-0.010226786136627197
1772725616530835200,0.805835205078125,-0.3107328414916992,-0.02507472038269043,-0.04497206211090088
1772725616540352000,0.81535205078125,-0.17295551300048828,-0.034384727478027344,-0.013310879468917847
1772725616549868800,0.824868896484375,-0.07026481628417969,-0.048586130142211914,0.019125670194625854
1772725616559385900,0.8343857421875,-0.06101417541503906,-0.06960940361022949,0.019459962844848633
1772725616568902700,0.843902587890625,-0.09211063385009766,-0.06380915641784668,0.02699074149131775
1772725616578419500,0.85341943359375,-0.10889530181884766,-0.021847963333129883,0.06309697031974792
1772725616587936500,0.8629365234375,-0.02668285369873047,0.03869032859802246,0.09761574864387512
1772725616597453300,0.872453369140625,0.04012584686279297,0.025206804275512695,0.06645414233207703
1772725616606970400,0.881970458984375,0.05412578582763672,0.011858940124511719,-0.0357992947101593
1772725616616487200,0.891487060546875,0.04677772521972656,0.010297060012817383,-0.004381358623504639
1772725616626004000,0.90100390625,0.07977962493896484,0.05499148368835449,0.041759103536605835
1772725616635520800,0.910520751953125,0.11246871948242188,0.020406484603881836,0.06487277150154114
1772725616645037800,0.920037841796875,0.0976409912109375,-0.004621982574462891,0.011361747980117798
1772725616654554600,0.9295546875,0.08069801330566406,-0.003386259078979492,-0.0335407555103302
1772725616664071700,0.93907177734375,0.0945892333984375,0.01906728744506836,-0.023086726665496826
1772725616673588500,0.94858837890625,0.1907644271850586,0.03840351104736328,0.026211798191070557
1772725616683105300,0.958105224609375,0.18682289123535156,0.0025849342346191406,0.0394095778465271
1772725616692622300,0.967622314453125,0.17620086669921875,-0.03579521179199219,-0.05273079872131348
1772725616702139100,0.97713916015625,0.1707315444946289,-0.015555143356323242,-0.06345048546791077
1772725616711656000,0.986656005859375,0.18454551696777344,0.007830619812011719,-0.03821477293968201
1772725616721173000,0.996173095703125,0.18213939666748047,-0.012983322143554688,-0.0375039279460907
1772725616730689800,1.005689697265625,0.16607666015625,-0.018105030059814453,-0.050391316413879395
1772725616740206600,1.01520654296875,0.058663368225097656,-0.0045778751373291016,-0.05297863483428955
1772725616749723600,1.0247236328125,-0.09201526641845703,-0.02318286895751953,-0.031250059604644775
1772725616759240400,1.034240478515625,-0.14665699005126953,0.023613929748535156,0.046908438205718994
1772725616768757200,1.04375732421875,-0.13973426818847656,0.030951499938964844,0.14063549041748047
1772725616778274300,1.0532744140625,-0.10023880004882812,0.01748490333557129,0.13648930191993713
1772725616787791000,1.062791015625,-0.05436420440673828,-0.03578758239746094,0.10267797112464905
1772725616797308200,1.07230810546875,0.01683330535888672,-0.022941112518310547,0.015366286039352417
1772725616806825000,1.081824951171875,0.10605144500732422,0.04274630546569824,-0.05529406666755676
1772725616816341800,1.091341796875,0.1258840560913086,0.05710721015930176,-0.1315227746963501
1772725616825858800,1.10085888671875,0.08206558227539062,0.05197906494140625,-0.1849500834941864
1772725616835375600,1.110375732421875,0.04855918884277344,0.07719111442565918,-0.18041691184043884
1772725616844892700,1.119892578125,0.053318023681640625,0.06425046920776367,-0.09211254119873047
1772725616854409500,1.129409423828125,0.025094985961914062,0.03725028038024902,-0.01899850368499756
1772725616863926300,1.13892626953125,0.004305839538574219,-0.005675315856933594,0.04523444175720215
1772725616873443000,1.148443115234375,0.0048770904541015625,-0.03346371650695801,0.09369039535522461
1772725616882960100,1.157960205078125,-0.03717231750488281,-0.0671241283416748,0.0974321961402893
1772725616892477000,1.167476806640625,-0.05288410186767578,-0.0570371150970459,0.0911245346069336
1772725616901993700,1.17699365234375,-0.033225059509277344,-0.04173135757446289,0.04880344867706299
1772725616911510800,1.1865107421875,-0.037509918212890625,-0.031119346618652344,-0.002135336399078369
1772725616921027600,1.196027587890625,-0.07464981079101562,-0.001961231231689453,-0.021162986755371094
1772725616930544600,1.205544677734375,-0.08988380432128906,-0.011359453201293945,-0.03224954009056091
1772725616940061400,1.2150615234375,-0.07653045654296875,-0.016215085983276367,-0.04774615168571472
1772725616949578200,1.224578125,-0.096343994140625,-0.04928112030029297,-0.034189373254776
1772725616959095000,1.234094970703125,-0.14199256896972656,-0.05043768882751465,-0.02221277356147766
1772725616968612000,1.243612060546875,-0.1425933837890625,-0.040920257568359375,-0.005044907331466675
1772725616978129000,1.25312890625,-0.1341238021850586,-0.035146474838256836,0.018779069185256958
1772725616987646000,1.26264599609375,-0.0859842300415039,-0.04518890380859375,0.012737423181533813
1772725616997162800,1.272162841796875,-0.07415771484375,-0.014246463775634766,-0.008440345525741577
1772725617006679600,1.281679443359375,-0.06273078918457031,0.002669095993041992,-0.007740795612335205
1772725617016196600,1.291196533203125,0.00733184814453125,0.03567147254943848,0.024405866861343384
1772725617025713400,1.30071337890625,0.0883474349975586,0.036393165588378906,0.03027719259262085
1772725617035230200,1.310230224609375,0.15195560455322266,0.005331993103027344,-0.01201552152633667
1772725617044747300,1.319747314453125,0.12781238555908203,-0.0426943302154541,-0.06676965951919556
1772725617054264000,1.32926416015625,0.1065359115600586,-0.0031690597534179688,-0.06215837597846985
1772725617063780900,1.33878076171875,0.05957794189453125,0.005449533462524414,-0.009272664785385132
1772725617073298000,1.3482978515625,0.07676410675048828,0.021353483200073242,0.04417484998703003
1772725617082814700,1.357814697265625,0.12425422668457031,-0.017199039459228516,0.09263107180595398
1772725617092331500,1.36733154296875,0.20661544799804688,-0.06798601150512695,0.08797621726989746
1772725617101848600,1.3768486328125,0.26946353912353516,-0.0751345157623291,0.041055649518966675
1772725617111365400,1.386365478515625,0.23783016204833984,-0.10288119316101074,-0.026330024003982544
1772725617120882400,1.39588232421875,0.1365194320678711,-0.0723581314086914,-0.03785347938537598
1772725617130399200,1.405399169921875,0.015733718872070312,-0.04234576225280762,0.007030278444290161
1772725617139916000,1.414916015625,-0.12450027465820312,-0.0026159286499023438,0.040357351303100586
1772725617149433000,1.42443310546875,-0.2041168212890625,0.012130260467529297,0.046390920877456665
1772725617158950000,1.433949951171875,-0.22183704376220703,0.030721187591552734,0.011511057615280151
1772725617168467000,1.443467041015625,-0.21622085571289062,0.029203414916992188,-0.00489458441734314
1772725617177983700,1.452983642578125,-0.08384132385253906,0.03285932540893555,-0.014705657958984375
1772725617187500500,1.46250048828125,0.06540298461914062,0.026232004165649414,-0.007645398378372192
1772725617197017300,1.472017333984375,0.1373748779296875,-0.009993314743041992,-0.016018152236938477
1772725617206534400,1.481534423828125,0.1450653076171875,-0.04450249671936035,-0.046908438205718994
1772725617216051200,1.49105126953125,0.07514572143554688,-0.04593300819396973,-0.03567466139793396
1772725617225568000,1.500568115234375,-0.043152809143066406,-0.04927253723144531,0.00832393765449524
1772725617235085000,1.5100849609375,-0.11049175262451172,-0.009022712707519531,0.029429256916046143
1772725617244601900,1.519601806640625,-0.14898681640625,0.031965017318725586,0.01671549677848816
1772725617254119000,1.529118896484375,-0.14722251892089844,0.03330731391906738,0.03391799330711365
1772725617263635700,1.5386357421875,-0.07969951629638672,0.03249311447143555,0.03740429878234863
1772725617273152500,1.548152587890625,0.005667686462402344,-0.0251617431640625,0.030802994966506958
1772725617282669300,1.55766943359375,0.0451812744140625,-0.04487466812133789,0.015526235103607178
1772725617292186400,1.567186279296875,0.030114173889160156,-0.06229376792907715,0.015033543109893799
1772725617301703200,1.576703125,-0.05774402618408203,-0.04374885559082031,0.009299784898757935
1772725617311220200,1.58622021484375,-0.15638065338134766,-0.007730007171630859,0.01961180567741394
1772725617320737000,1.595737060546875,-0.20929431915283203,0.017499685287475586,0.03337264060974121
1772725617330253800,1.60525390625,-0.19120502471923828,0.0011963844299316406,0.05149540305137634
1772725617339771000,1.61477099609375,-0.07469463348388672,-0.02393484115600586,0.043713778257369995
1772725617349287700,1.62428759765625,0.04695606231689453,-0.025064468383789062,0.02344512939453125
1772725617358804700,1.6338046875,0.10788440704345703,-0.06168961524963379,-0.019185394048690796
1772725617368321500,1.643321533203125,0.17514514923095703,-0.048949480056762695,-0.025780528783798218
1772725617377838300,1.65283837890625,0.2511758804321289,0.016455650329589844,-0.05847117304801941
1772725617387355100,1.662355224609375,0.2842597961425781,0.024783849716186523,-0.1357032060623169
1772725617396872200,1.6718720703125,0.2562541961669922,0.0311124324798584,-0.1687992513179779
1772725617406389000,1.681388916015625,0.1656789779663086,0.0028467178344726562,-0.13584116101264954
1772725617415905800,1.69090576171875,0.034358978271484375,0.042814016342163086,-0.05970793962478638
1772725617425422800,1.7004228515625,-0.06437110900878906,0.02831888198852539,0.02712211012840271
1772725617434939600,1.709939697265625,-0.0934762954711914,0.05940580368041992,0.08836930990219116
1772725617444456700,1.719456787109375,-0.061126708984375,0.03648710250854492,0.09243589639663696
1772725617453973500,1.728973388671875,-0.050688743591308594,0.0005388259887695312,0.04403379559516907
1772725617463490300,1.738490234375,-0.0075931549072265625,0.012687206268310547,0.026285558938980103
1772725617473007400,1.74800732421875,0.0065135955810546875,0.0013117790222167969,0.01975741982460022
1772725617482524200,1.757524169921875,0.039322853088378906,-0.003108501434326172,0.07388409972190857
1772725617492041000,1.767041015625,0.012914657592773438,0.010861396789550781,0.06137797236442566
1772725617501558000,1.77655810546875,-0.010550498962402344,0.007576942443847656,0.03550297021865845
1772725617511074800,1.78607470703125,-0.031236648559570312,0.06762075424194336,0.011338859796524048
1772725617520591600,1.795591552734375,-0.06813430786132812,0.023210525512695312,-0.0013467967510223389
1772725617530108700,1.805108642578125,-0.05749702453613281,0.034006595611572266,0.012963026762008667
1772725617539625500,1.81462548828125,-0.05428314208984375,0.00528717041015625,-0.0016833841800689697
1772725617549142300,1.824142333984375,-0.015845298767089844,-0.02268242835998535,0.007838636636734009
1772725617558659300,1.833659423828125,0.07618427276611328,-0.047896623611450195,0.02168065309524536
1772725617568176000,1.843176025390625,0.08690357208251953,-0.08489203453063965,0.009331732988357544
1772725617577693200,1.852693115234375,0.0787649154663086,-0.10048055648803711,-0.026888936758041382
1772725617587210000,1.8622099609375,0.009532928466796875,-0.08988666534423828,0.03511601686477661
1772725617596726800,1.871726806640625,-0.05166149139404297,-0.08157730102539062,0.12223002314567566
1772725617606243600,1.88124365234375,-0.05790233612060547,-0.03081059455871582,0.10956287384033203
1772725617615760600,1.8907607421875,-0.038227081298828125,-0.018446922302246094,0.06059041619300842
1772725617625277400,1.90027734375,-0.030628204345703125,-0.0439295768737793,0.0025365352630615234
1772725617634794500,1.90979443359375,-0.03961753845214844,-0.04539775848388672,-0.036429643630981445
1772725617644311300,1.919311279296875,-0.043766021728515625,-0.004387617111206055,-0.023403853178024292
1772725617653828000,1.928828125,-0.03373527526855469,0.02426457405090332,0.010026007890701294
1772725617663345200,1.93834521484375,-0.047415733337402344,0.03848671913146973,-0.028630763292312622
1772725617672862000,1.947862060546875,-0.07505321502685547,0.03864860534667969,-0.07672959566116333
1772725617682379000,1.95737890625,-0.11886405944824219,0.037018775939941406,-0.10307303071022034
1772725617691895800,1.966895751953125,-0.13159751892089844,0.0831916332244873,-0.06969428062438965
1772725617701412600,1.97641259765625,-0.13990116119384766,0.11815905570983887,-0.053668856620788574
1772725617710929400,1.985929443359375,-0.09662818908691406,0.11802411079406738,-0.0402887761592865
1772725617720446500,1.995446533203125,0.03059864044189453,0.07318544387817383,-0.0027328133583068848
1772725617729963300,2.00496337890625,0.17006587982177734,0.037856101989746094,-0.009204357862472534
1772725617739480000,2.01447998046875,0.2488718032836914,-0.00048828125,-0.018214285373687744
1772725617748997000,2.0239970703125,0.25391292572021484,-0.030092239379882812,-0.005942165851593018
1772725617758514000,2.033513916015625,0.2263031005859375,0.00553131103515625,-0.008541464805603027
1772725617768031000,2.043031005859375,0.20421791076660156,0.013480424880981445,0.005753248929977417
1772725617777547800,2.0525478515625,0.15690898895263672,0.010842084884643555,0.03940773010253906
1772725617787064600,2.062064697265625,0.08710193634033203,-0.004380941390991211,0.01672583818435669
1772725617796581600,2.07158154296875,-0.0050144195556640625,-0.012498855590820312,0.004021942615509033
1772725617806098400,2.081098388671875,-0.09112930297851562,-0.024470806121826172,-0.0008251667022705078
1772725617815615500,2.090615478515625,-0.15503406524658203,-0.016168832778930664,0.00886961817741394
1772725617825132300,2.10013232421875,-0.18070316314697266,-0.0040853023529052734,0.04646691679954529
1772725617834649000,2.109649169921875,-0.13809490203857422,0.02315807342529297,0.05045485496520996
1772725617844166000,2.119165771484375,-0.07280731201171875,-0.003696918487548828,0.05894485116004944
1772725617853683000,2.128682861328125,0.000858306884765625,-0.049056291580200195,0.019841790199279785
1772725617863199700,2.13819970703125,0.035811424255371094,-0.03298664093017578,0.023588836193084717
1772725617872716500,2.147716552734375,0.02330780029296875,-0.010787248611450195,0.034834474325180054
1772725617882233600,2.157233642578125,0.03238868713378906,0.02203655242919922,0.028115838766098022
1772725617891750400,2.16675048828125,0.04864215850830078,0.011081695556640625,0.0004545748233795166
1772725617901267500,2.176267333984375,-0.017608642578125,0.028240680694580078,-0.05089515447616577
1772725617910784300,2.1857841796875,-0.0970773696899414,0.03633570671081543,-0.09177336096763611
1772725617920301000,2.195301025390625,-0.154510498046875,0.07386589050292969,-0.034103065729141235
1772725617929817900,2.20481787109375,-0.0701446533203125,0.08350038528442383,0.06129518151283264
1772725617939335000,2.2143349609375,-0.0036106109619140625,0.04583263397216797,0.07222455739974976
1772725617948851700,2.223851806640625,0.09963512420654297,-0.06695055961608887,0.013766348361968994
1772725617958368800,2.23336865234375,0.16619205474853516,-0.021127700805664062,-0.02601572871208191
1772725617967885600,2.242885498046875,0.22974109649658203,0.010826587677001953,-0.03558546304702759
1772725617977402400,2.25240234375,0.2197113037109375,0.022125720977783203,-0.03378841280937195
1772725617986919400,2.26191943359375,0.13711929321289062,0.011411905288696289,-0.05576491355895996
1772725617996436200,2.271436279296875,-0.0006284713745117188,0.008043527603149414,-0.02725544571876526
1772725618005953300,2.280953369140625,-0.05631446838378906,0.014732599258422852,0.013989567756652832
1772725618015470000,2.290469970703125,-0.1089324951171875,0.012425422668457031,0.0347752571105957
1772725618024987000,2.29998681640625,-0.09729480743408203,0.001168966293334961,-0.00542527437210083
1772725618034503700,2.309503662109375,-0.10009288787841797,-0.03763628005981445,-0.05525192618370056
1772725618044020700,2.319020751953125,-0.09351444244384766,-0.004697322845458984,-0.08749860525131226
1772725618053537500,2.32853759765625,-0.10358524322509766,0.016332626342773438,-0.10435478389263153
1772725618063054600,2.3380546875,-0.06644725799560547,0.027734756469726562,-0.11687915027141571
1772725618072571400,2.3475712890625,-0.051021575927734375,0.017590045928955078,-0.09224995970726013
1772725618082088200,2.357088134765625,-0.09002208709716797,-0.008649110794067383,-0.12246720492839813
1772725618091605200,2.366605224609375,-0.14752864837646484,-0.040511131286621094,-0.0739956796169281
1772725618101122000,2.3761220703125,-0.1904745101928711,-0.02086925506591797,0.06392312049865723
1772725618110638800,2.385638916015625,-0.18152332305908203,0.007307529449462891,0.16254132986068726
1772725618120156000,2.395156005859375,-0.14021778106689453,-0.015439748764038086,0.17805814743041992
1772725618129672700,2.404672607421875,-0.03385448455810547,-0.025756359100341797,0.16643384099006653
1772725618139189800,2.414189697265625,0.08040523529052734,-0.027495145797729492,0.15654262900352478
1772725618148706600,2.42370654296875,0.1674337387084961,-0.038187265396118164,0.12434116005897522
1772725618158223400,2.433223388671875,0.2442340850830078,-0.057951927185058594,0.10091975331306458
1772725618167740200,2.442740234375,0.2780580520629883,-0.03245282173156738,0.03316357731819153
1772725618177257200,2.45225732421875,0.23416709899902344,-0.011130571365356445,-0.018703192472457886
1772725618186774000,2.46177392578125,0.15590953826904297,-0.0023365020751953125,-0.06686654686927795
1772725618196290800,2.471290771484375,0.08836078643798828,0.013602972030639648,-0.07829320430755615
1772725618205807900,2.480807861328125,0.08312511444091797,0.02950263023376465,-0.08236294984817505
1772725618215324700,2.49032470703125,0.08267688751220703,0.05243968963623047,-0.09286892414093018
1772725618224841700,2.499841796875,0.0681304931640625,0.03737998008728027,-0.12021273374557495
1772725618234358500,2.509358642578125,0.02328777313232422,0.02236771583557129,-0.07373365759849548
1772725618243875300,2.518875244140625,-0.02317047119140625,0.009844303131103516,-0.019721806049346924
1772725618253392100,2.52839208984375,-0.08082866668701172,-0.004453897476196289,0.005407780408859253
1772725618262909200,2.5379091796875,-0.1378946304321289,-0.0059468746185302734,0.0002898275852203369
1772725618272426000,2.547426025390625,-0.12599754333496094,0.0049326419830322266,0.010489195585250854
1772725618281943000,2.556943115234375,-0.09316062927246094,-0.014754295349121094,-0.005953371524810791
1772725618291459800,2.5664599609375,-0.05143451690673828,-0.057591915130615234,-0.04440733790397644
1772725618300976600,2.5759765625,-0.03615283966064453,-0.05762839317321777,-0.07416504621505737
1772725618310493700,2.58549365234375,-0.07050228118896484,-0.03648567199707031,-0.059662431478500366
1772725618320010500,2.595010498046875,-0.12793254852294922,0.0011663436889648438,-0.06890669465065002
1772725618329527600,2.604527587890625,-0.18706703186035156,0.024961233139038086,-0.048880964517593384
1772725618339044400,2.61404443359375,-0.21030902862548828,0.04481053352355957,-0.03556814789772034
1772725618348561200,2.62356103515625,-0.19353199005126953,0.06547164916992188,-0.019706666469573975
1772725618358078000,2.633077880859375,-0.1608753204345703,0.049069881439208984,-0.012920349836349487
1772725618367595000,2.642594970703125,-0.11250114440917969,0.03353619575500488,-0.005632728338241577
1772725618377111800,2.65211181640625,-0.05322456359863281,0.023127317428588867,0.011234045028686523
1772725618386628900,2.66162890625,0.00044345855712890625,-0.0015494823455810547,0.01658192276954651
1772725618396145700,2.671145751953125,0.05099296569824219,-0.005131244659423828,0.02258145809173584
1772725618405662500,2.680662353515625,0.10567378997802734,-0.011890411376953125,0.06872549653053284
1772725618415179500,2.690179443359375,0.10785770416259766,-0.026148319244384766,0.07626709342002869
1772725618424696300,2.6996962890625,0.13834381103515625,-0.033438920974731445,0.053075164556503296
1772725618434213000,2.709213134765625,0.16149330139160156,0.0058002471923828125,0.05302250385284424
1772725618443730200,2.718730224609375,0.2576112747192383,-0.015572547912597656,0.01816841959953308
1772725618453247000,2.7282470703125,0.30792903900146484,-0.03558230400085449,-0.011791586875915527
1772725618462764000,2.737763916015625,0.2897071838378906,-0.05906105041503906,-0.03201401233673096
1772725618472280800,2.74728076171875,0.25333309173583984,-0.055001258850097656,-0.003323167562484741
1772725618481797600,2.756797607421875,0.18723011016845703,-0.049492835998535156,0.07917356491088867
1772725618491314400,2.766314453125,0.07530403137207031,-0.03512740135192871,0.1278069019317627
1772725618500831500,2.77583154296875,-0.027797698974609375,-0.032567501068115234,0.10389238595962524
1772725618510348300,2.785348388671875,-0.10590076446533203,-0.03645634651184082,0.08640733361244202
1772725618519865300,2.794865234375,-0.13589763641357422,-0.015995025634765625,0.04865008592605591
1772725618529382100,2.804382080078125,-0.17508792877197266,-0.009130239486694336,0.04728257656097412
1772725618538899000,2.81389892578125,-0.21632766723632812,-0.027229785919189453,0.027839064598083496
1772725618548416000,2.823416015625,-0.23139667510986328,-0.010949134826660156,0.024030476808547974
1772725618557932800,2.832932861328125,-0.17822837829589844,0.03170156478881836,0.011270672082901001
1772725618567449600,2.84244970703125,-0.19683837890625,0.036989450454711914,-0.06029045581817627
1772725618576966700,2.851966552734375,-0.19899272918701172,0.012598037719726562,-0.08087363839149475
1772725618586483500,2.8614833984375,-0.15421772003173828,0.005524635314941406,-0.09088411927223206
1772725618596000300,2.871000244140625,-0.03476238250732422,0.012301445007324219,-0.03984376788139343
1772725618605517300,2.880517333984375,0.09243297576904297,0.006337642669677734,-0.038121551275253296
1772725618615034000,2.8900341796875,0.12839698791503906,-0.007379055023193359,-0.07791763544082642
1772725618624551000,2.899551025390625,0.12630748748779297,-0.021348237991333008,-0.06178852915763855
1772725618634068000,2.90906787109375,0.08428668975830078,0.009555816650390625,0.026624977588653564
1772725618643584800,2.918584716796875,0.04053688049316406,0.04720139503479004,0.05988791584968567
1772725618653101800,2.928101806640625,-0.0308837890625,0.06582331657409668,0.03700876235961914
1772725618662618600,2.93761865234375,-0.07775306701660156,0.023350238800048828,0.00876396894454956
1772725618672135400,2.947135498046875,-0.06754493713378906,0.05020880699157715,-0.003438204526901245
1772725618681652200,2.95665234375,-0.038651466369628906,0.06475377082824707,0.008133471012115479
1772725618691169300,2.966169189453125,-0.01007080078125,0.026918888092041016,0.006266772747039795
1772725618700686000,2.97568603515625,0.02998065948486328,-0.029534101486206055,-0.0299532413482666
1772725618710203100,2.985203125,0.024654388427734375,-0.056745052337646484,-0.030702859163284302
1772725618719720000,2.994719970703125,0.033550262451171875,-0.0882723331451416,0.003993183374404907
1772725618729236700,3.00423681640625,0.03995513916015625,-0.10286545753479004,0.028929978609085083
1772725618738753800,3.01375390625,0.025078773498535156,-0.11492419242858887,0.04454192519187927
1772725618748270600,3.0232705078125,0.02694988250732422,-0.1080789566040039,0.057750821113586426
1772725618757787400,3.032787353515625,0.050106048583984375,-0.08286833763122559,0.06515228748321533
1772725618767304400,3.042304443359375,0.007060050964355469,-0.044020652770996094,0.04994502663612366
1772725618776821200,3.0518212890625,-0.06599235534667969,-0.007677555084228516,0.039265990257263184
1772725618786338300,3.06133837890625,-0.10521125793457031,0.012410640716552734,0.047142595052719116
1772725618795855000,3.070855224609375,-0.0686941146850586,0.06541705131530762,0.1191721260547638
1772725618805372000,3.080371826171875,0.014260292053222656,0.04911375045776367,0.1119215190410614
1772725618814888700,3.089888671875,0.08430194854736328,0.023000001907348633,0.06177493929862976
1772725618824405800,3.09940576171875,0.12758445739746094,-0.008147716522216797,-0.01257026195526123
1772725618833922600,3.108922607421875,0.12804317474365234,0.017052650451660156,-0.06353580951690674
1772725618843439600,3.118439697265625,0.11685562133789062,0.07216048240661621,-0.03730231523513794
1772725618852956400,3.127956298828125,0.06119728088378906,0.08395671844482422,-0.05249425768852234
1772725618862473200,3.13747314453125,-0.026556015014648438,0.07237672805786133,-0.058658748865127563
1772725618871990300,3.146990234375,-0.054149627685546875,0.09905385971069336,-0.07427242398262024
1772725618881507000,3.156507080078125,-0.04844379425048828,0.08788466453552246,-0.05829480290412903
1772725618891024100,3.166024169921875,0.04192066192626953,0.05541729927062988,-0.034262627363204956
1772725618900541000,3.175541015625,0.13818740844726562,-0.031778812408447266,0.022557377815246582
1772725618910057700,3.1850576171875,0.18390274047851562,-0.10008668899536133,0.042284607887268066
1772725618919574500,3.194574462890625,0.15855121612548828,-0.14687204360961914,0.03945401310920715
1772725618929091600,3.204091552734375,0.044198036193847656,-0.14803099632263184,0.03822973370552063
1772725618938608400,3.2136083984375,-0.044913291931152344,-0.08260536193847656,0.06951725482940674
1772725618948125400,3.22312548828125,-0.16823482513427734,-0.07120800018310547,0.05417680740356445
1772725618957642200,3.232642333984375,-0.25237369537353516,-0.05859184265136719,0.03650471568107605
1772725618967159000,3.242158935546875,-0.30037689208984375,-0.03525209426879883,0.023709237575531006
1772725618976676000,3.251676025390625,-0.24201488494873047,0.009798526763916016,0.04017651081085205
1772725618986193000,3.26119287109375,-0.1918354034423828,0.009994268417358398,0.03664162755012512
1772725618995709700,3.270709716796875,-0.17330169677734375,-0.007869243621826172,-0.016748875379562378
1772725619005226500,3.2802265625,-0.1718463897705078,0.008437156677246094,-0.017118394374847412
1772725619014743600,3.28974365234375,-0.0976552963256836,0.017840862274169922,0.03563597798347473
1772725619024260400,3.29926025390625,0.008321762084960938,0.03615975379943848,0.06699469685554504
1772725619033777400,3.30877734375,0.07986831665039062,0.018071889877319336,0.00782555341720581
1772725619043294200,3.318294189453125,0.1457509994506836,0.01377105712890625,-0.03490641713142395
1772725619052811000,3.32781103515625,0.12598133087158203,0.023239612579345703,-0.03512465953826904
1772725619062328000,3.337328125,0.13257598876953125,0.017938852310180664,-0.018818140029907227
1772725619071844900,3.346844970703125,0.17694759368896484,0.02372264862060547,0.013537049293518066
1772725619081362000,3.35636181640625,0.2045125961303711,0.03050851821899414,0.01666206121444702
1772725619090878700,3.365878662109375,0.18963241577148438,-0.006307840347290039,0.00042635202407836914
1772725619100395500,3.3753955078125,0.1305255889892578,-0.03146171569824219,0.02420184016227722
1772725619109912300,3.384912353515625,0.14086532592773438,-0.007459402084350586,0.03288581967353821
1772725619119429400,3.394429443359375,0.12064838409423828,0.010993003845214844,0.0114060640335083
1772725619128946200,3.4039462890625,0.08200359344482422,0.03386044502258301,-0.07262197136878967
1772725619138463200,3.413463134765625,-0.021999359130859375,-0.002013683319091797,-0.11351282894611359
1772725619147980000,3.42297998046875,-0.09160423278808594,0.01289677619934082,-0.05380097031593323
1772725619157496800,3.432496826171875,-0.10848426818847656,0.04450082778930664,0.00407564640045166
1772725619167014000,3.442013916015625,-0.12762165069580078,0.014873504638671875,0.010245651006698608
1772725619176530700,3.45153076171875,-0.16785812377929688,0.005268573760986328,-0.034781843423843384
1772725619186047500,3.461047607421875,-0.193634033203125,0.006220817565917969,-0.06439334154129028
1772725619195564500,3.470564453125,-0.2099609375,0.02712869644165039,-0.04065540432929993
1772725619205081300,3.480081298828125,-0.1675252914428711,0.04856157302856445,-0.046195924282073975
1772725619214598400,3.489598388671875,-0.09997081756591797,0.020345687866210938,-0.05579933524131775
1772725619224115200,3.499115234375,-0.02396392822265625,-0.00781702995300293,-0.0732681155204773
1772725619233632000,3.508632080078125,-0.0008783340454101562,-0.035720109939575195,-0.07283040881156921
1772725619243148800,3.518148681640625,0.017175674438476562,-0.02556896209716797,-0.06880176067352295
1772725619252665900,3.527665771484375,0.0632181167602539,0.012644767761230469,-0.031088948249816895
1772725619262182700,3.5371826171875,0.08264827728271484,0.019695520401000977,-0.044951558113098145
1772725619271699700,3.54669970703125,0.0993967056274414,0.005414247512817383,-0.07223665714263916
1772725619281216500,3.556216552734375,0.1325244903564453,0.030615806579589844,-0.03187507390975952
1772725619290733300,3.5657333984375,0.19135284423828125,0.051737070083618164,0.02511712908744812
1772725619300250400,3.57525048828125,0.24733352661132812,0.04269695281982422,0.017542153596878052
1772725619309767200,3.58476708984375,0.218109130859375,0.016031265258789062,-0.004912257194519043
1772725619319284000,3.594283935546875,0.14955425262451172,-0.013033390045166016,-0.025511443614959717
1772725619328801000,3.603801025390625,0.06335639953613281,-0.00644230842590332,0.022475719451904297
1772725619338317800,3.61331787109375,-0.04983711242675781,0.021796464920043945,0.0419597327709198
1772725619347834600,3.622834716796875,-0.1426544189453125,0.015181303024291992,0.03437969088554382
1772725619357351700,3.6323515625,-0.17079448699951172,0.021576881408691406,0.02829986810684204
1772725619366868500,3.641868408203125,-0.1587982177734375,0.05008673667907715,-0.010377556085586548
1772725619376385300,3.65138525390625,-0.1000356674194336,0.029166698455810547,-0.08497786521911621
1772725619385902300,3.66090234375,0.00014209747314453125,-0.007840871810913086,-0.1174810528755188
1772725619395419100,3.670419189453125,0.025946617126464844,-0.02367258071899414,-0.14131194353103638
1772725619404936200,3.679936279296875,0.08229351043701172,-0.06620526313781738,-0.07439160346984863
1772725619414453000,3.689452880859375,0.03443336486816406,-0.10410618782043457,0.009713679552078247
1772725619423969800,3.6989697265625,-0.09045886993408203,-0.0914926528930664,0.039392441511154175
1772725619433486600,3.708486572265625,-0.18552017211914062,-0.05187058448791504,0.09645625948905945
1772725619443003600,3.718003662109375,-0.2278308868408203,0.0005197525024414062,0.1196354329586029
1772725619452520400,3.7275205078125,-0.18053627014160156,0.04402279853820801,0.09992226958274841
1772725619462037500,3.73703759765625,-0.08478927612304688,0.023741722106933594,0.10722216963768005
1772725619471554300,3.74655419921875,0.025905609130859375,0.010626554489135742,0.06258904933929443
1772725619481071000,3.756071044921875,0.08086585998535156,-0.007631540298461914,0.0463162362575531
1772725619490588200,3.765588134765625,0.1328868865966797,0.025201797485351562,-0.010500878095626831
1772725619500105000,3.77510498046875,0.17029190063476562,0.04229426383972168,-0.03450855612754822
1772725619509622000,3.7846220703125,0.21921348571777344,0.04861950874328613,-0.052349627017974854
1772725619519138800,3.794138916015625,0.17114734649658203,0.04693436622619629,-0.10632944107055664
1772725619528655600,3.803655517578125,0.11688423156738281,0.04985237121582031,-0.11290666460990906
1772725619538172700,3.813172607421875,0.08226299285888672,0.07874560356140137,-0.06171688437461853
1772725619547689500,3.822689453125,0.1470794677734375,0.08340787887573242,0.0012722909450531006
1772725619557206300,3.832206298828125,0.24419116973876953,0.04201936721801758,0.04308810830116272
1772725619566723000,3.84172314453125,0.24602890014648438,-0.03518509864807129,0.006341755390167236
1772725619576240000,3.851240234375,0.16810989379882812,-0.08587074279785156,-0.04590749740600586
1772725619585757000,3.8607568359375,0.06329536437988281,-0.06512951850891113,0.02643325924873352
1772725619595274000,3.87027392578125,-0.046957969665527344,-0.03966522216796875,0.07228982448577881
1772725619604790800,3.879790771484375,-0.12978363037109375,-0.028049230575561523,0.06076550483703613
1772725619614307600,3.8893076171875,-0.1974325180053711,-0.013404607772827148,0.03441423177719116
1772725619623824600,3.89882470703125,-0.21955490112304688,-0.021609067916870117,0.02553495764732361
1772725619633341400,3.908341552734375,-0.2675619125366211,-0.03800678253173828,0.02015012502670288
1772725619642858500,3.9178583984375,-0.25872230529785156,-0.024663209915161133,0.04657447338104248
1772725619652375300,3.927375244140625,-0.22679424285888672,-0.01779961585998535,0.0690578818321228
1772725619661892000,3.93689208984375,-0.18378543853759766,-0.003671884536743164,0.09257587790489197
1772725619671409000,3.946408935546875,-0.1345386505126953,-0.031862735748291016,0.06449663639068604
1772725619680926000,3.955926025390625,-0.11444759368896484,-0.0027871131896972656,0.05811533331871033
1772725619690442800,3.96544287109375,-0.12320232391357422,-0.003918170928955078,0.0474390983581543
1772725619699959800,3.974959716796875,-0.04726123809814453,0.02838587760925293,0.10074958205223083
1772725619709476600,3.9844765625,0.0675363540649414,0.019872665405273438,0.07466676831245422
1772725619718993400,3.993993408203125,0.12421703338623047,0.008503198623657227,0.01658618450164795
1772725619728510500,4.003510498046875,0.16141605377197266,-0.053002119064331055,-0.019487619400024414
1772725619738027300,4.01302734375,0.22658061981201172,-0.008854389190673828,0.009582072496414185
1772725619747544000,4.0225439453125,0.28881168365478516,-0.007142305374145508,0.0644938051700592
1772725619757061000,4.03206103515625,0.32930755615234375,0.009541749954223633,0.002380847930908203
1772725619766578000,4.041577880859375,0.294219970703125,-0.010307073593139648,-0.05657029151916504
1772725619776094700,4.0510947265625,0.24832725524902344,-0.01651310920715332,-0.07108518481254578
1772725619785611800,4.06061181640625,0.2105875015258789,-0.00925898551940918,-0.08565640449523926
1772725619795128600,4.070128662109375,0.12424278259277344,0.02333688735961914,-0.0987650603055954
1772725619804645400,4.079645263671875,-0.0124359130859375,0.03424501419067383,-0.09972286224365234
1772725619814162400,4.089162353515625,-0.14704513549804688,0.05254197120666504,-0.08267086744308472
1772725619823679200,4.09867919921875,-0.2327117919921875,0.040772199630737305,-0.044185519218444824
1772725619833196300,4.1081962890625,-0.2797508239746094,0.04445385932922363,-0.010826408863067627
1772725619842713000,4.117713134765625,-0.3075990676879883,0.04221034049987793,-0.007325917482376099
1772725619852230000,4.12722998046875,-0.3331565856933594,0.013400077819824219,-0.01043689250946045
1772725619861747000,4.136746826171875,-0.34464359283447266,-0.03222918510437012,-0.0416947603225708
1772725619871263700,4.146263671875,-0.3258514404296875,0.01159048080444336,-0.01377183198928833
1772725619880780500,4.155780517578125,-0.19939327239990234,0.022597789764404297,0.03695625066757202
1772725619890297600,4.165297607421875,-0.09150218963623047,-0.008875608444213867,0.015527725219726562
1772725619899814400,4.174814453125,-0.022957801818847656,-0.04473161697387695,-0.022963106632232666
1772725619909331200,4.184331298828125,-0.004932403564453125,-0.03767275810241699,-0.04957836866378784
1772725619918848300,4.19384814453125,0.06226158142089844,-0.023889541625976562,0.028051704168319702
1772725619928365000,4.203364990234375,0.08375263214111328,0.005730867385864258,0.10918658971786499
1772725619937881900,4.2128818359375,0.08623027801513672,-0.017421722412109375,0.09463426470756531
1772725619947399000,4.22239892578125,0.05579185485839844,-0.03801608085632324,0.08009406924247742
1772725619956915700,4.231915771484375,0.023508071899414062,-0.03010272979736328,0.12518790364265442
1772725619966432800,4.241432861328125,0.017548561096191406,-0.001163482666015625,0.15105915069580078
1772725619975949600,4.250949462890625,0.06103801727294922,0.02951979637145996,0.16032716631889343
1772725619985466400,4.26046630859375,0.12989521026611328,0.026035308837890625,0.11555325984954834
1772725619994983200,4.269983154296875,0.15322589874267578,0.014739513397216797,0.0530640184879303
1772725620004500200,4.279500244140625,0.18126964569091797,-0.025524377822875977,-0.018523067235946655
1772725620014017000,4.28901708984375,0.1856088638305664,-0.006892681121826172,-0.03297924995422363
1772725620023534000,4.2985341796875,0.124176025390625,0.02982783317565918,-0.05090072751045227
1772725620033051000,4.30805078125,0.047341346740722656,0.021011829376220703,-0.020866036415100098
1772725620042567700,4.317567626953125,-0.0024280548095703125,0.009985685348510742,0.004202783107757568
1772725620052084700,4.327084716796875,-0.07967185974121094,0.01084280014038086,0.0005278587341308594
1772725620061601500,4.3366015625,-0.06380939483642578,0.02793288230895996,-0.0003014802932739258
1772725620071118600,4.34611865234375,-0.08817195892333984,0.007037162780761719,-0.013480395078659058
1772725620080635400,4.355635498046875,-0.11699867248535156,0.0036220550537109375,-0.02743169665336609
1772725620090152200,4.365152099609375,-0.16684818267822266,0.0391085147857666,0.0024671554565429688
1772725620099669000,4.3746689453125,-0.22107410430908203,0.06386065483093262,0.03200593590736389
1772725620109186000,4.38418603515625,-0.22544384002685547,0.10367870330810547,0.01982516050338745
1772725620118702800,4.393702880859375,-0.1759347915649414,0.12013769149780273,-0.021314024925231934
1772725620128220000,4.403219970703125,-0.08260440826416016,0.13869595527648926,-0.07447549700737
1772725620137736700,4.41273681640625,0.061217308044433594,0.10657691955566406,-0.09580239653587341
1772725620147253500,4.42225341796875,0.14666271209716797,0.06412672996520996,-0.11090195178985596
1772725620156770600,4.4317705078125,0.18166065216064453,0.0283205509185791,-0.1245962530374527
1772725620166287400,4.441287353515625,0.16919231414794922,0.01140284538269043,-0.1054927408695221
1772725620175804200,4.45080419921875,0.1475992202758789,0.025189638137817383,-0.04980573058128357
1772725620185321200,4.4603212890625,0.09104728698730469,-0.0034492015838623047,-0.033351778984069824
1772725620194838000,4.469838134765625,0.04238700866699219,0.0017178058624267578,-0.03385603427886963
1772725620204355000,4.47935498046875,0.02040863037109375,-0.019016742706298828,-0.0346696674823761
1772725620213871900,4.488871826171875,0.015288352966308594,-0.05827188491821289,-0.028565138578414917
1772725620223388700,4.498388671875,0.017385482788085938,-0.06891560554504395,-0.012828201055526733
1772725620232905500,4.507905517578125,-0.006397247314453125,-0.09843730926513672,0.043580055236816406
1772725620242422500,4.517422607421875,-0.0015344619750976562,-0.1228940486907959,0.06679677963256836
1772725620251939300,4.526939208984375,-0.034515380859375,-0.12306070327758789,0.07098120450973511
1772725620261456400,4.536456298828125,-0.10018730163574219,-0.12697601318359375,0.021302759647369385
1772725620270973200,4.54597314453125,-0.10161495208740234,-0.09909844398498535,-0.00787469744682312
1772725620280490000,4.555489990234375,-0.04676532745361328,-0.06397533416748047,-0.005417168140411377
1772725620290007000,4.565007080078125,0.011934280395507812,-0.050766706466674805,-0.03383532166481018
1772725620299523800,4.57452392578125,0.06760787963867188,-0.03397822380065918,-0.04853537678718567
1772725620309040600,4.58404052734375,0.06621456146240234,-0.049024105072021484,-0.05461996793746948
1772725620318557700,4.5935576171875,0.015563011169433594,-0.028956890106201172,-0.04881691932678223
1772725620328074500,4.603074462890625,-0.06263923645019531,0.007678031921386719,0.011802732944488525
1772725620337591300,4.61259130859375,-0.10686302185058594,0.06333565711975098,0.05325359106063843
1772725620347108400,4.6221083984375,-0.13893795013427734,0.0933232307434082,0.025974363088607788
1772725620356625200,4.631625244140625,-0.1354999542236328,0.09085512161254883,-0.03324195742607117
1772725620366142000,4.641141845703125,-0.07822608947753906,0.08432126045227051,-0.026689738035202026
1772725620375659000,4.650658935546875,-0.0031213760375976562,0.0873098373413086,-0.00018709897994995117
1772725620385175800,4.66017578125,0.10386276245117188,0.1060171127319336,-0.013412296772003174
1772725620394692900,4.66969287109375,0.18581676483154297,0.09767675399780273,-0.0811164379119873
1772725620404209700,4.679209716796875,0.22449779510498047,0.0883033275604248,-0.1386784017086029
1772725620413726500,4.6887265625,0.26529693603515625,0.09920501708984375,-0.16278918087482452
1772725620423243300,4.6982431640625,0.24926280975341797,0.07843327522277832,-0.17616359889507294
1772725620432760300,4.70776025390625,0.21977710723876953,0.07093143463134766,-0.0869985818862915
1772725620442277000,4.717277099609375,0.1887378692626953,0.03668975830078125,-0.053821295499801636
1772725620451794200,4.726794189453125,0.104248046875,0.00012183189392089844,-0.025375038385391235
1772725620461311000,4.73631103515625,0.07303810119628906,-0.0033423900604248047,0.034047484397888184
1772725620470827800,4.745827880859375,0.044864654541015625,-0.0002536773681640625,0.07628205418586731
1772725620480344800,4.7553447265625,0.010189056396484375,-0.02808213233947754,0.05663016438484192
1772725620489861600,4.764861572265625,-0.0616302490234375,-0.07400131225585938,0.048900991678237915
1772725620499378700,4.774378662109375,-0.1608266830444336,-0.09924745559692383,0.06053423881530762
1772725620508895500,4.7838955078125,-0.24483966827392578,-0.09170341491699219,0.06389018893241882
1772725620518412300,4.793412353515625,-0.2857856750488281,-0.06571078300476074,0.10860556364059448
1772725620527929300,4.802929443359375,-0.3291206359863281,-0.04269576072692871,0.07913663983345032
1772725620537446100,4.812446044921875,-0.27811527252197266,-0.03978395462036133,0.06361818313598633
1772725620546963000,4.821962890625,-0.15748119354248047,-0.0106658935546875,0.03430494666099548
1772725620556479700,4.831479736328125,0.0037965774536132812,0.014809608459472656,0.006192117929458618
1772725620565996800,4.840996826171875,0.14171886444091797,0.007834672927856445,-0.06124699115753174
1772725620575513600,4.850513671875,0.17667579650878906,-0.02404308319091797,-0.1011805385351181
1772725620585030700,4.86003076171875,0.1525115966796875,-0.05624127388000488,-0.06369051337242126
1772725620594547500,4.86954736328125,0.11002063751220703,-0.008238554000854492,0.025184988975524902
1772725620604064300,4.879064208984375,0.08938217163085938,0.008341550827026367,0.13034304976463318
1772725620613581300,4.888581298828125,0.05018806457519531,0.0035996437072753906,0.15951335430145264
1772725620623098000,4.89809814453125,0.04927635192871094,-0.01750636100769043,0.12732172012329102
1772725620632615200,4.907615234375,0.03663063049316406,-0.01945042610168457,0.07652151584625244
1772725620642132000,4.917132080078125,0.012380599975585938,-0.0024271011352539062,0.034155964851379395
1772725620651648800,4.926648681640625,0.009631156921386719,0.0285031795501709,0.0012464821338653564
1772725620661165600,4.93616552734375,0.06589221954345703,0.05838131904602051,0.0025087296962738037
1772725620670682600,4.9456826171875,0.13801193237304688,0.004489898681640625,-0.014221161603927612
1772725620680199400,4.955199462890625,0.1410236358642578,-0.03519582748413086,-0.08267650008201599
1772725620689716500,4.964716552734375,0.10887718200683594,-0.07224416732788086,-0.0839340090751648
1772725620699233300,4.9742333984375,0.060843467712402344,-0.04520750045776367,-0.024856775999069214
1772725620708750000,4.98375,0.0065059661865234375,-0.006763458251953125,-0.0038811862468719482
1772725620718267100,4.99326708984375,-0.049365997314453125,-0.03238248825073242,-0.016840249300003052
1772725620727784000,5.002783935546875,-0.09968852996826172,-0.03393244743347168,-0.035037219524383545
1772725620737300700,5.01230078125,-0.11159801483154297,-0.03294062614440918,-0.024024397134780884
1772725620746817800,5.02181787109375,-0.15178394317626953,-0.03586173057556152,0.0008411109447479248
1772725620756334600,5.03133447265625,-0.18455791473388672,-0.009418249130249023,0.008538424968719482
1772725620765851400,5.040851318359375,-0.22200679779052734,-0.01943063735961914,0.019092947244644165
1772725620775368400,5.050368408203125,-0.19573402404785156,0.004967689514160156,0.028312206268310547
1772725620784885200,5.05988525390625,-0.09944915771484375,0.024623870849609375,0.04994878172874451
1772725620794402000,5.069402099609375,-0.014094352722167969,0.008328437805175781,0.019928276538848877
1772725620803919000,5.078919189453125,0.034819602966308594,-0.0038595199584960938,-0.00522950291633606
1772725620813436000,5.088435791015625,0.06673908233642578,-0.014306306838989258,-0.012523442506790161
1772725620822953000,5.097952880859375,0.08652687072753906,0.010292768478393555,-0.07268185913562775
1772725620832469800,5.1074697265625,0.06124401092529297,0.06284713745117188,-0.07545465230941772
1772725620841986600,5.116986572265625,0.07873058319091797,0.09337210655212402,-0.0641130805015564
1772725620851503600,5.126503662109375,0.09600448608398438,0.09260010719299316,-0.07240064442157745
1772725620861020400,5.1360205078125,0.10136127471923828,0.06318473815917969,-0.05727739632129669
1772725620870537200,5.145537109375,0.12796974182128906,0.03372550010681152,-0.0472816526889801
1772725620880054300,5.15505419921875,0.14954376220703125,0.016144752502441406,-0.032795995473861694
1772725620889571000,5.164571044921875,0.11899375915527344,-0.005855560302734375,0.019160836935043335
1772725620899088000,5.174087890625,0.09604072570800781,-0.03932666778564453,0.06063839793205261
1772725620908605000,5.18360498046875,0.049922943115234375,-0.04391932487487793,0.07292783260345459
1772725620918121700,5.193121826171875,0.021056175231933594,-0.04380297660827637,0.059419840574264526
1772725620927638800,5.202638671875,-0.019104957580566406,-0.04845547676086426,0.06830751895904541
1772725620937155600,5.212155517578125,-0.013856887817382812,-0.048546791076660156,0.06153753399848938
1772725620946672400,5.22167236328125,0.0055866241455078125,-0.04206538200378418,0.04499894380569458
1772725620956189400,5.231189453125,-0.02928924560546875,-0.0641939640045166,0.01083463430404663
1772725620965706200,5.240706298828125,-0.089508056640625,-0.06925392150878906,-0.009450823068618774
1772725620975223000,5.25022314453125,-0.1159982681274414,-0.08528804779052734,0.06956765055656433
1772725620984740000,5.259739990234375,-0.08807754516601562,-0.06300163269042969,0.1503545045852661
1772725620994257000,5.2692568359375,-0.08655548095703125,-0.08566856384277344,0.18320652842521667
1772725621003773700,5.278773681640625,-0.040386199951171875,-0.08193826675415039,0.12590870261192322
1772725621013290800,5.288290771484375,-0.051560401916503906,-0.04736614227294922,0.06977304816246033
1772725621022807600,5.2978076171875,-0.07683277130126953,-0.010528326034545898,0.048130184412002563
1772725621032324400,5.307324462890625,-0.054793357849121094,0.05436539649963379,0.02330353856086731
1772725621041841400,5.31684130859375,-0.016813278198242188,0.07151174545288086,-0.0067941248416900635
1772725621051358200,5.326358154296875,0.025214195251464844,0.06250357627868652,-0.03798523545265198
1772725621060875300,5.335875244140625,0.07377052307128906,0.05551767349243164,-0.06003551185131073
1772725621070392000,5.34539208984375,0.13828372955322266,0.04324030876159668,-0.0985741913318634
1772725621079908900,5.354908935546875,0.15732669830322266,0.05400371551513672,-0.125556081533432
1772725621089425700,5.36442578125,0.1315622329711914,0.04524540901184082,-0.17521962523460388
1772725621098942700,5.373942626953125,0.10174369812011719,0.06418228149414062,-0.1374453604221344
1772725621108459500,5.38345947265625,0.1127462387084961,0.07691097259521484,-0.11334922909736633
1772725621117976600,5.3929765625,0.09090423583984375,0.05069994926452637,-0.07872049510478973
1772725621127493400,5.402493408203125,0.053109169006347656,0.005445241928100586,-0.031523197889328
1772725621137010200,5.41201025390625,-0.03116321563720703,-0.010717153549194336,-0.003269761800765991
1772725621146527200,5.42152734375,-0.11202430725097656,0.0027136802673339844,0.008620977401733398
1772725621156044000,5.4310439453125,-0.1378765106201172,-0.01085209846496582,0.023109495639801025
1772725621165561000,5.44056103515625,-0.13308429718017578,-0.02289295196533203,0.0414523184299469
1772725621175078000,5.450077880859375,-0.1027669906616211,-0.005522251129150391,0.021253973245620728
1772725621184594700,5.4595947265625,-0.08007335662841797,-0.023517370223999023,-0.0223006010055542
1772725621194111500,5.469111572265625,-0.012918472290039062,-0.02051997184753418,0.017648369073867798
1772725621203628500,5.478628662109375,0.008554458618164062,-0.051111459732055664,-0.005469322204589844
1772725621213145300,5.488145263671875,0.04402923583984375,-0.051593780517578125,0.018315255641937256
1772725621222662100,5.497662109375,0.03673076629638672,-0.0997917652130127,0.03091055154800415
1772725621232179200,5.50717919921875,0.06740093231201172,-0.08891630172729492,0.02351909875869751
1772725621241696000,5.516696044921875,0.062378883361816406,-0.09481191635131836,-0.002628803253173828
1772725621251213000,5.526213134765625,0.02216053009033203,-0.08628082275390625,-0.028430193662643433
1772725621260729900,5.535729736328125,-0.05041027069091797,-0.053984642028808594,-0.0007411539554595947
1772725621270246700,5.54524658203125,-0.10313987731933594,0.006616830825805664,-0.03439047932624817
1772725621279763700,5.554763671875,-0.1528921127319336,0.045761823654174805,-0.05000704526901245
1772725621289280500,5.564280517578125,-0.18091773986816406,0.05921292304992676,-0.05047953128814697
1772725621298797600,5.573797607421875,-0.1852588653564453,0.08508133888244629,-0.01663583517074585
1772725621308314400,5.583314453125,-0.16859149932861328,0.02870631217956543,-0.004619508981704712
1772725621317831200,5.5928310546875,-0.09582138061523438,0.018074989318847656,0.03267616033554077
1772725621327348000,5.602347900390625,-0.031244277954101562,-0.023309946060180664,0.07961839437484741
1772725621336865000,5.611864990234375,-0.0006580352783203125,-0.04529714584350586,0.041410624980926514
1772725621346381800,5.6213818359375,0.02471160888671875,-0.02916431427001953,0.0029473304748535156
1772725621355899000,5.63089892578125,0.05444812774658203,0.012524843215942383,0.0029802024364471436
1772725621365415700,5.640415771484375,0.08152580261230469,-0.0009729862213134766,-0.011214345693588257
1772725621374932500,5.649932373046875,0.05420398712158203,0.004227876663208008,-0.08140167593955994
1772725621384449500,5.659449462890625,0.001575469970703125,0.016110897064208984,-0.08549979329109192
1772725621393966300,5.66896630859375,-0.040775299072265625,-0.016941070556640625,-0.03247326612472534
1772725621403483100,5.678483154296875,-0.08029842376708984,-0.011197328567504883,0.00014385581016540527
1772725621413000200,5.688000244140625,-0.10770320892333984,-0.030520915985107422,0.06847742199897766
1772725621422517000,5.69751708984375,-0.10196399688720703,-0.022802114486694336,0.1027345061302185
1772725621432033800,5.70703369140625,-0.08006668090820312,-0.021586894989013672,0.12028977274894714
1772725621441550800,5.71655078125,-0.046898841857910156,0.0011532306671142578,0.07462817430496216
1772725621451067600,5.726067626953125,0.021097183227539062,0.02077341079711914,0.04954227805137634
1772725621460584400,5.73558447265625,0.09772396087646484,0.017643451690673828,0.037515729665756226
1772725621470101500,5.7451015625,0.11697769165039062,0.010970830917358398,0.004524171352386475
1772725621479618300,5.754618408203125,0.11502361297607422,0.0223844051361084,-0.01730838418006897
1772725621489135400,5.76413525390625,0.10620307922363281,0.04977822303771973,-0.06217789649963379
1772725621498652200,5.773652099609375,0.07171154022216797,0.03207874298095703,-0.0337696373462677
1772725621508169000,5.7831689453125,-0.02114582061767578,-0.0036020278930664062,0.002033740282058716
1772725621517685800,5.792685791015625,-0.10101890563964844,-0.014120101928710938,0.02600458264350891
1772725621527202800,5.802202880859375,-0.1092996597290039,-0.00012969970703125,0.08997133374214172
1772725621536719600,5.8117197265625,-0.06818771362304688,0.0021092891693115234,0.1696338951587677
1772725621546236700,5.821236572265625,-0.023092269897460938,-0.03336191177368164,0.15994727611541748
1772725621555753500,5.83075341796875,-0.04234123229980469,-0.07750105857849121,0.12042257189750671
1772725621565270300,5.840270263671875,-0.06619739532470703,-0.0755002498626709,0.08668732643127441
1772725621574787300,5.849787353515625,-0.05693626403808594,-0.03043389320373535,0.08880782127380371
1772725621584304000,5.85930419921875,-0.03377819061279297,0.0024302005767822266,0.08068454265594482
1772725621593821200,5.8688212890625,0.08571147918701172,0.012865543365478516,0.017510265111923218
1772725621603338000,5.878337890625,0.19423389434814453,-0.04174399375915527,-0.04102742671966553
1772725621612854800,5.887854736328125,0.2733287811279297,-0.04798007011413574,-0.06916762888431549
1772725621622371800,5.897371826171875,0.28105735778808594,-0.06285929679870605,-0.05090409517288208
1772725621631888600,5.906888671875,0.2396392822265625,-0.05281972885131836,-0.026935487985610962
1772725621641405400,5.916405517578125,0.13082599639892578,-0.005690574645996094,0.016782432794570923
1772725621650922500,5.925922607421875,0.030683517456054688,-0.0010437965393066406,-0.003555804491043091
1772725621660439300,5.935439208984375,-0.070526123046875,0.03755617141723633,-0.009862422943115234
1772725621669956000,5.9449560546875,-0.12098979949951172,0.07413458824157715,0.028118222951889038
1772725621679473200,5.95447314453125,-0.1355743408203125,0.09668779373168945,0.02459770441055298
1772725621688990000,5.963989990234375,-0.09354496002197266,0.06732487678527832,-0.020229101181030273
1772725621698506800,5.9735068359375,-0.02151203155517578,0.06867504119873047,-0.07623709738254547
1772725621708023800,5.98302392578125,0.037811279296875,0.06225728988647461,-0.09759390354156494
1772725621717540600,5.99254052734375,0.032738685607910156,0.02270197868347168,-0.12664636969566345
1772725621727057700,6.0020576171875,0.025458335876464844,0.030663251876831055,-0.12457171082496643
1772725621736574500,6.011574462890625,0.07251930236816406,0.0029311180114746094,-0.0809537023305893
1772725621746091300,6.02109130859375,0.10017776489257812,-0.008408308029174805,-0.07001005113124847
1772725621755608000,6.030608154296875,0.09689903259277344,-0.0362396240234375,-0.07262404263019562
1772725621765125000,6.040125,0.03961372375488281,-0.07776999473571777,-0.09530140459537506
1772725621774642000,6.049641845703125,-0.05449676513671875,-0.06170368194580078,-0.037458956241607666
1772725621784159000,6.059158935546875,-0.1308002471923828,-0.03583931922912598,-0.0005393326282501221
1772725621793675800,6.06867578125,-0.16141986846923828,0.00923466682434082,0.03019651770591736
1772725621803192600,6.078192626953125,-0.2083892822265625,-0.0017566680908203125,0.026391685009002686
1772725621812709600,6.087709716796875,-0.24563312530517578,-0.02061319351196289,0.026857614517211914
1772725621822226400,6.097226318359375,-0.20494747161865234,-0.026430130004882812,0.073510080575943
1772725621831743500,6.106743408203125,-0.11325263977050781,-0.05309104919433594,0.11965745687484741
1772725621841260300,6.11626025390625,-0.056054115295410156,-0.05568695068359375,0.061560481786727905
1772725621850777000,6.125777099609375,0.014386177062988281,-0.060868263244628906,-0.00007808208465576172
1772725621860294000,6.1352939453125,0.09332942962646484,-0.0431365966796875,-0.02237287163734436
1772725621869811000,6.14481103515625,0.16664600372314453,-0.007952690124511719,-0.025375425815582275
1772725621879327700,6.15432763671875,0.166107177734375,-0.01891040802001953,-0.08407491445541382
1772725621888844800,6.1638447265625,0.09273433685302734,0.019480466842651367,-0.08376231789588928
1772725621898361600,6.173361572265625,0.04405975341796875,0.03140377998352051,0.023572653532028198
1772725621907878400,6.18287841796875,0.04079723358154297,0.029098987579345703,0.08454623818397522
1772725621917395200,6.192395263671875,0.06818485260009766,0.03363800048828125,0.1582847535610199
1772725621926912300,6.201912353515625,0.0881967544555664,0.016408443450927734,0.13482436537742615
1772725621936429000,6.211428955078125,0.14098358154296875,-0.010447502136230469,0.0852610170841217
1772725621945946000,6.220946044921875,0.14841175079345703,-0.004525899887084961,0.04691246151924133
1772725621955463000,6.230462890625,0.13948917388916016,-0.01818394660949707,0.003094017505645752
1772725621964980000,6.23997998046875,0.0861501693725586,-0.024981975555419922,-0.03336054086685181
1772725621974496800,6.249496826171875,0.017218589782714844,0.008234739303588867,-0.034998565912246704
1772725621984013600,6.259013671875,-0.034058570861816406,0.005341291427612305,-0.030580997467041016
1772725621993530400,6.2685302734375,-0.034946441650390625,0.016231775283813477,-0.024102598428726196
1772725622003047400,6.27804736328125,-0.05233287811279297,-0.02689218521118164,-0.05897688865661621
1772725622012564200,6.287564208984375,-0.13800048828125,-0.025665998458862305,-0.10414981842041016
1772725622022081300,6.297081298828125,-0.22038936614990234,-0.003935813903808594,-0.08528563380241394
1772725622031598000,6.30659814453125,-0.2336292266845703,0.014142990112304688,-0.028035223484039307
1772725622041115000,6.316114990234375,-0.19282054901123047,-0.009569168090820312,0.026917099952697754
1772725622050632000,6.3256318359375,-0.13390827178955078,-0.0374445915222168,0.054945528507232666
1772725622060148700,6.335148681640625,-0.05714988708496094,-0.02951836585998535,0.053769707679748535
1772725622069665800,6.344665771484375,-0.06870555877685547,-0.03355717658996582,0.09723162651062012
1772725622079182600,6.3541826171875,-0.07785987854003906,0.00760197639465332,0.09579673409461975
1772725622088699400,6.363699462890625,-0.10822391510009766,0.02743816375732422,0.05990314483642578
1772725622098216200,6.37321630859375,-0.08886528015136719,0.045139312744140625,0.06090456247329712
1772725622107733200,6.382733154296875,-0.01572418212890625,0.07190775871276855,0.029771089553833008
1772725622117250000,6.39225,0.07287120819091797,0.05287432670593262,0.003666490316390991
1772725622126766800,6.401766845703125,0.14614200592041016,0.06629681587219238,-0.018189549446105957
1772725622136284000,6.411283935546875,0.1996011734008789,0.017682790756225586,-0.05516010522842407
1772725622145800700,6.42080078125,0.2053050994873047,0.03057575225830078,-0.050840675830841064
1772725622155317800,6.43031787109375,0.21819114685058594,0.04030966758728027,-0.04552236199378967
1772725622164834600,6.43983447265625,0.21695613861083984,0.006819009780883789,0.009063631296157837
1772725622174351400,6.449351318359375,0.2089557647705078,-0.01293635368347168,0.034726083278656006
1772725622183868200,6.4588681640625,0.2084970474243164,-0.02175617218017578,0.040960341691970825
1772725622193385200,6.46838525390625,0.14482975006103516,-0.03381943702697754,0.03279215097427368
1772725622202902000,6.477902099609375,0.06586933135986328,-0.029593944549560547,0.01999908685684204
1772725622212419000,6.487419189453125,-0.009501457214355469,-0.015811681747436523,0.0009394586086273193
1772725622221935900,6.496935791015625,-0.08135604858398438,0.00035452842712402344,0.05798822641372681
1772725622231452700,6.50645263671875,-0.11925601959228516,-0.01615595817565918,0.04897382855415344
1772725622240969700,6.5159697265625,-0.16855812072753906,-0.043404340744018555,0.020249396562576294
1772725622250486500,6.525486572265625,-0.1607961654663086,-0.008316993713378906,-0.0074013471603393555
1772725622260003600,6.535003662109375,-0.16748523712158203,0.008130550384521484,-0.035333603620529175
1772725622269520400,6.544520263671875,-0.17669010162353516,0.018294811248779297,-0.08042177557945251
1772725622279037200,6.554037109375,-0.20255088806152344,0.02715587615966797,-0.080760657787323
1772725622288554200,6.56355419921875,-0.18590068817138672,0.027390241622924805,-0.04354965686798096
1772725622298071000,6.573071044921875,-0.17914581298828125,0.02821063995361328,0.0033524930477142334
1772725622307587800,6.582587890625,-0.10194873809814453,0.04071545600891113,0.034571945667266846
1772725622317105000,6.59210498046875,-0.03542804718017578,0.02221083641052246,-0.004111975431442261
1772725622326635000,6.601635009765625,0.004143714904785156,0.029700517654418945,-0.029874563217163086
1772725622336138500,6.611138427734375,0.038410186767578125,0.03926277160644531,-0.020283222198486328
1772725622345655600,6.620655517578125,0.09575176239013672,0.005984783172607422,-0.011345386505126953
1772725622355172400,6.63017236328125,0.12167739868164062,-0.010665655136108398,0.011270463466644287
1772725622364689200,6.639689208984375,0.12143230438232422,-0.008722305297851562,0.036062419414520264
1772725622374206200,6.649206298828125,0.11891651153564453,-0.007139682769775391,0.021057873964309692
1772725622383723000,6.658722900390625,0.0812234878540039,0.020029783248901367,0.006489932537078857
1772725622393240000,6.668239990234375,0.10073375701904297,0.013477802276611328,0.02007278800010681
1772725622402756900,6.6777568359375,0.17425251007080078,-0.0053844451904296875,0.006891816854476929
1772725622412273700,6.687273681640625,0.1857156753540039,-0.017910003662109375,-0.01204770803451538
1772725622421790500,6.69679052734375,0.17851638793945312,-0.0571444034576416,-0.02971711754798889
1772725622431307500,6.7063076171875,0.13638591766357422,-0.03520607948303223,-0.025022774934768677
1772725622440824300,6.71582421875,0.05503654479980469,-0.002033233642578125,-0.040159910917282104
1772725622450341400,6.72534130859375,-0.07689666748046875,0.01942276954650879,-0.031460583209991455
1772725622459858200,6.734858154296875,-0.1834716796875,0.03226518630981445,-0.03851133584976196
1772725622469375000,6.744375,-0.24400615692138672,0.07209300994873047,-0.04626035690307617
1772725622478892000,6.75389208984375,-0.25450801849365234,0.09353137016296387,-0.04731053113937378
1772725622488408800,6.763408935546875,-0.21577930450439453,0.08972501754760742,-0.0653144121170044
1772725622497926000,6.77292578125,-0.12839221954345703,0.06974172592163086,-0.04417493939399719
1772725622507442700,6.782442626953125,-0.023504257202148438,0.04730510711669922,-0.0728868693113327
1772725622516959500,6.79195947265625,0.053931236267089844,0.0011754035949707031,-0.07810793817043304
1772725622526476300,6.801476318359375,0.10668087005615234,-0.018616914749145508,-0.08216369152069092
1772725622535993300,6.810993408203125,0.15636253356933594,-0.003167390823364258,-0.07596975564956665
1772725622545510100,6.82051025390625,0.17485618591308594,-0.01917290687561035,-0.04325595498085022
1772725622555027200,6.830027099609375,0.16973400115966797,-0.023751497268676758,-0.03824895620346069
1772725622564544000,6.8395439453125,0.12256145477294922,-0.012433052062988281,-0.01996713876724243
1772725622574060800,6.849060791015625,0.047989845275878906,0.010246753692626953,-0.010942816734313965
1772725622583577900,6.858577880859375,-0.05610179901123047,0.021228790283203125,0.043938636779785156
1772725622593094700,6.8680947265625,-0.10215187072753906,0.03239798545837402,0.06901511549949646
1772725622602611500,6.877611572265625,-0.06759262084960938,0.04144930839538574,0.08057528734207153
1772725622612128500,6.88712841796875,-0.014749526977539062,0.03846144676208496,0.08490359783172607
1772725622621645300,6.896645263671875,0.06796073913574219,-0.0003173351287841797,0.02333196997642517
1772725622631162000,6.906162109375,0.11187171936035156,-0.006264448165893555,-0.013764679431915283
1772725622640679200,6.91567919921875,0.13417720794677734,-0.0060269832611083984,-0.020079582929611206
1772725622650196000,6.925196044921875,0.12337493896484375,-0.006396770477294922,-0.001265406608581543
1772725622659712800,6.934712646484375,0.09643077850341797,-0.035388946533203125,0.0068817138671875
1772725622669229800,6.944229736328125,0.0534820556640625,-0.03796863555908203,-0.00008943676948547363
1772725622678746600,6.95374658203125,-0.014786720275878906,-0.004663944244384766,-0.014276653528213501
1772725622688263700,6.963263671875,-0.10103321075439453,-0.015786170959472656,-0.019767791032791138
1772725622697780500,6.972780517578125,-0.12256622314453125,0.018696069717407227,-0.016867786645889282
1772725622707297300,6.98229736328125,-0.11079692840576172,-0.02975153923034668,0.01647886633872986
1772725622716814300,6.991814453125,-0.0850677490234375,-0.04450225830078125,-0.003112226724624634
1772725622726331100,7.0013310546875,-0.08801746368408203,-0.07295560836791992,-0.014051437377929688
1772725622735848200,7.01084814453125,-0.12167072296142578,-0.04145359992980957,-0.004575997591018677
1772725622745365000,7.020364990234375,-0.15271377563476562,-0.028209686279296875,0.06068304181098938
1772725622754881800,7.0298818359375,-0.16711902618408203,0.00006246566772460938,0.07584628462791443
1772725622764398600,7.039398681640625,-0.15806198120117188,0.014654159545898438,0.10361188650131226
1772725622773915600,7.04891552734375,-0.12586307525634766,-0.0009524822235107422,0.09240254759788513
1772725622783432400,7.058432373046875,-0.08016014099121094,0.002570629119873047,0.08083721995353699
1772725622792949500,7.067949462890625,0.016676902770996094,0.0054204463958740234,0.06154558062553406
1772725622802466300,7.07746630859375,0.07210731506347656,-0.0066072940826416016,0.030952125787734985
1772725622811983000,7.086983154296875,0.09863090515136719,0.002049684524536133,-0.021653175354003906
1772725622821500200,7.096500244140625,0.11544036865234375,0.015014886856079102,-0.06823036074638367
1772725622831017000,7.106016845703125,0.14148902893066406,0.013443231582641602,-0.05653765797615051
1772725622840533800,7.11553369140625,0.16257762908935547,0.03259634971618652,-0.060308098793029785
1772725622850050800,7.12505078125,0.18835926055908203,0.024519681930541992,-0.03679019212722778
1772725622859567600,7.134567626953125,0.22347259521484375,-0.0033309459686279297,-0.0379694402217865
1772725622869084400,7.14408447265625,0.15941429138183594,-0.019762754440307617,-0.022576630115509033
1772725622878601500,7.1536015625,0.11298465728759766,-0.03159141540527344,-0.002073317766189575
1772725622888118300,7.1631181640625,0.055545806884765625,-0.010354280471801758,0.035687804222106934
1772725622897635000,7.172635009765625,0.046166419982910156,-0.0037860870361328125,0.08272472023963928
1772725622907152100,7.182152099609375,0.0016527175903320312,-0.030174970626831055,0.050476282835006714
1772725622916669000,7.1916689453125,-0.07988643646240234,-0.05328702926635742,-0.0029473602771759033
1772725622926186000,7.20118603515625,-0.13439464569091797,-0.007124662399291992,-0.02443811297416687
1772725622935702800,7.210702880859375,-0.16462993621826172,-0.0012998580932617188,0.002521216869354248
1772725622945219600,7.220219482421875,-0.18277549743652344,-0.011605978012084961,-0.01441773772239685
1772725622954736400,7.229736328125,-0.2007884979248047,0.021114826202392578,-0.042264848947525024
1772725622964253400,7.23925341796875,-0.19289588928222656,0.011822938919067383,-0.03631284832954407
1772725622973770200,7.248770263671875,-0.19253158569335938,0.022616863250732422,-0.02085098624229431
1772725622983287300,7.258287353515625,-0.13363933563232422,0.02474832534790039,-0.01704612374305725
1772725622992804000,7.26780419921875,-0.08055305480957031,0.008456230163574219,0.0005402266979217529
1772725623002321000,7.27732080078125,-0.007137298583984375,-0.005257844924926758,0.005458652973175049
1772725623011838000,7.286837890625,0.022745132446289062,0.002332448959350586,-0.01121857762336731
1772725623021354800,7.296354736328125,0.02631855010986328,-0.0021865367889404297,-0.03484010696411133
1772725623030871800,7.305871826171875,0.058157920837402344,0.019026517868041992,0.002518683671951294
1772725623040388600,7.315388671875,0.023555755615234375,0.004760026931762695,0.003382772207260132
1772725623049905400,7.324905517578125,-0.01768779754638672,0.010110855102539062,-0.002961486577987671
1772725623059422500,7.33442236328125,-0.032497406005859375,0.013458490371704102,-0.001884162425994873
1772725623068939300,7.343939208984375,-0.026056289672851562,0.0007672309875488281,0.011736422777175903
1772725623078456000,7.3534560546875,0.0037899017333984375,-0.00007128715515136719,0.04072490334510803
1772725623087973000,7.36297314453125,0.087432861328125,-0.006423473358154297,0.049778372049331665
1772725623097490000,7.372489990234375,0.2055044174194336,-0.014475822448730469,0.018822938203811646
1772725623107006700,7.3820068359375,0.25634002685546875,-0.0572359561920166,-0.0037586092948913574
1772725623116523800,7.391523681640625,0.2408924102783203,-0.10529088973999023,-0.022976785898208618
1772725623126040600,7.40104052734375,0.1576395034790039,-0.10122418403625488,-0.007735103368759155
1772725623135557400,7.410557373046875,0.09688568115234375,-0.061621665954589844,0.03951755166053772
1772725623145074400,7.420074462890625,0.003978729248046875,-0.007757902145385742,0.04096728563308716
1772725623154591200,7.42959130859375,-0.049991607666015625,-0.008041143417358398,0.014315187931060791
1772725623164108300,7.4391083984375,-0.051433563232421875,0.041478872299194336,0.009907960891723633
1772725623173625000,7.448625,0.008473396301269531,0.04492497444152832,0.005815684795379639
1772725623183142000,7.458141845703125,0.020569801330566406,0.0357356071472168,0.02040305733680725
1772725623192658700,7.46765869140625,-0.014497756958007812,0.028684616088867188,-0.018990784883499146
1772725623202175700,7.47717578125,-0.05373382568359375,0.03128242492675781,-0.0244845449924469
1772725623211692500,7.486692626953125,-0.06656551361083984,0.03433346748352051,-0.025540947914123535
1772725623221209600,7.496209716796875,-0.09351730346679688,0.061742305755615234,-0.011179476976394653
1772725623230726400,7.505726318359375,-0.12269306182861328,0.009789228439331055,-0.05119079351425171
1772725623240243200,7.5152431640625,-0.11873722076416016,0.02075052261352539,-0.019001781940460205
1772725623249760300,7.52476025390625,-0.044327735900878906,0.029330968856811523,0.006202816963195801
1772725623259277000,7.534277099609375,0.02427959442138672,0.03498053550720215,-0.014116883277893066
1772725623268794000,7.543794189453125,0.028349876403808594,-0.0022902488708496094,-0.05989044904708862
1772725623278311000,7.553310791015625,0.0584259033203125,-0.006646394729614258,-0.046032607555389404
1772725623287827700,7.56282763671875,0.055187225341796875,-0.013786792755126953,0.03160247206687927
1772725623297344500,7.572344482421875,0.05911731719970703,-0.009334325790405273,0.04514363408088684
1772725623306861600,7.581861572265625,0.034714698791503906,-0.009504318237304688,0.04865846037864685
1772725623316378400,7.59137841796875,0.008275985717773438,0.004992485046386719,0.03630325198173523
1772725623325895400,7.6008955078125,-0.0508270263671875,0.005890369415283203,0.017950087785720825
1772725623335412200,7.610412109375,-0.057404518127441406,0.023999929428100586,0.0400221049785614
1772725623344929000,7.619928955078125,-0.061615943908691406,0.03731799125671387,0.0343267023563385
1772725623354446000,7.629446044921875,-0.013968467712402344,0.04079318046569824,0.01788085699081421
1772725623363963000,7.638962890625,0.01655101776123047,0.010625123977661133,0.028822392225265503
1772725623373479700,7.648479736328125,0.06563568115234375,-0.015336275100708008,0.021869778633117676
1772725623382996700,7.657996826171875,0.06233406066894531,-0.027476072311401367,0.04361531138420105
1772725623392513500,7.667513427734375,0.01675128936767578,-0.023056745529174805,0.025413095951080322
1772725623402030600,7.677030517578125,0.00002574920654296875,-0.025389432907104492,-0.015397965908050537
1772725623411547400,7.68654736328125,0.03063201904296875,0.08774757385253906,-0.19279314577579498
1772725623421064200,7.696064208984375,0.049137115478515625,-0.32610297203063965,0.3678600490093231
1772725623430581000,7.7055810546875,0.04395008087158203,0.27387309074401855,-0.5563634634017944
1772725623440098000,7.71509814453125,-0.04106712341308594,-0.3902757167816162,0.44343140721321106
1772725623449614800,7.72461474609375,-0.06598949432373047,0.3243720531463623,-0.5015050172805786
1772725623459132000,7.7341318359375,-0.15666961669921875,-0.3156723976135254,0.5308964252471924
1772725623468648700,7.743648681640625,-0.15683460235595703,0.35945677757263184,-0.4321962296962738
1772725623478165500,7.75316552734375,-0.14316082000732422,-0.2679588794708252,0.56293785572052
1772725623487682600,7.7626826171875,-0.0545806884765625,0.357694149017334,-0.40485242009162903
1772725623497199400,7.772199462890625,0.02077007293701172,-0.2554292678833008,0.4793604612350464
1772725623506716200,7.781716064453125,0.10916519165039062,0.31058621406555176,-0.4779205024242401
1772725623516233200,7.791233154296875,0.19877910614013672,-0.24416089057922363,0.37321263551712036
1772725623525750000,7.80075,0.22379493713378906,0.2752799987792969,-0.48042601346969604
1772725623535266800,7.810266845703125,0.14515304565429688,-0.24755644798278809,0.2756175994873047
1772725623544784000,7.819783935546875,0.03018665313720703,0.22645282745361328,-0.4463086724281311
1772725623554300700,7.82930078125,-0.04535865783691406,-0.11662864685058594,0.26440802216529846
1772725623563817700,7.838817626953125,-0.07044410705566406,0.2662780284881592,-0.34656819701194763
1772725623573334500,7.84833447265625,-0.001010894775390625,-0.11033034324645996,0.28500208258628845
1772725623582851300,7.857851318359375,0.06512641906738281,0.12334656715393066,-0.23774181306362152
1772725623592368400,7.867368408203125,0.0809488296508789,-0.19780826568603516,0.21772810816764832
1772725623601885200,7.87688525390625,0.03770732879638672,0.0065076351165771484,-0.23459085822105408
1772725623611402000,7.886402099609375,0.013987541198730469,-0.1451878547668457,0.18471363186836243
1772725623620919000,7.8959189453125,-0.042374610900878906,0.021251678466796875,-0.09217464923858643
1772725623630435800,7.905435791015625,-0.09568500518798828,-0.07091403007507324,0.12853682041168213
1772725623639952600,7.91495263671875,-0.1130056381225586,0.019925355911254883,-0.0614151656627655
1772725623649469700,7.9244697265625,-0.0664825439453125,0.0008559226989746094,0.060562580823898315
1772725623658986500,7.933986572265625,-0.004109382629394531,-0.03966116905212402,-0.04733040928840637
1772725623668503300,7.94350341796875,0.04804515838623047,0.009307384490966797,-0.039428651332855225
1772725623678020400,7.953020263671875,0.012482643127441406,-0.12190985679626465,0.03306245803833008
1772725623687537200,7.962537109375,0.0034322738647460938,0.05270099639892578,-0.07371225953102112
1772725623697054200,7.97205419921875,-0.10698127746582031,-0.12288832664489746,0.09323033690452576
1772725623706571000,7.981571044921875,-0.1571817398071289,0.04935884475708008,0.027853578329086304
1772725623716087800,7.991087890625,-0.16463375091552734,0.02478480339050293,0.11522752046585083
1772725623725604900,8.00060498046875,-0.1322498321533203,0.07447981834411621,0.06041496992111206
1772725623735121700,8.01012158203125,-0.07698440551757812,0.02014946937561035,0.056168586015701294
1772725623744638500,8.019638427734375,0.029233932495117188,0.022817611694335938,0.0026583969593048096
1772725623754155500,8.029155517578126,0.10570812225341797,0.022276639938354492,-0.017557859420776367
1772725623763672300,8.03867236328125,0.1671600341796875,0.022960662841796875,-0.019441813230514526
1772725623773189000,8.048189208984375,0.20212745666503906,-0.0035009384155273438,-0.022582799196243286
1772725623782706200,8.0577060546875,0.1780242919921875,-0.004674673080444336,-0.02880588173866272
1772725623792223000,8.067222900390625,0.13578414916992188,-0.016222476959228516,-0.006597161293029785
1772725623801740000,8.076739990234374,0.08495044708251953,-0.01624584197998047,0.006125301122665405
1772725623811256800,8.0862568359375,0.011393547058105469,-0.04439949989318848,0.028297901153564453
1772725623820773600,8.095773681640624,-0.05173206329345703,-0.05971550941467285,0.031917423009872437
1772725623830290700,8.105290771484375,-0.06706428527832031,-0.03374910354614258,0.05470830202102661
1772725623839807500,8.114807373046874,-0.10122871398925781,-0.01442408561706543,0.05156111717224121
1772725623849324300,8.12432421875,-0.05723094940185547,-0.03993988037109375,0.06492659449577332
1772725623858841300,8.13384130859375,-0.018627166748046875,-0.04634284973144531,0.05444273352622986
1772725623868358100,8.143358154296875,-0.008851051330566406,-0.04569721221923828,0.013156205415725708
1772725623877875000,8.152875,-0.02738189697265625,-0.0053310394287109375,-0.008869320154190063
1772725623887392000,8.16239208984375,-0.06919670104980469,0.02748703956604004,-0.04209262132644653
1772725623896908800,8.17190869140625,-0.09405994415283203,0.0673832893371582,-0.052511751651763916
1772725623906425600,8.181425537109375,-0.07393169403076172,0.09280204772949219,-0.06181839108467102
1772725623915942700,8.190942626953126,-0.02587127685546875,-0.07762646675109863,0.15028005838394165
1772725623925459500,8.20045947265625,0.040337562561035156,0.23223304748535156,-0.32967913150787354
1772725623934976500,8.2099765625,0.03958702087402344,-0.24675750732421875,0.25995126366615295
1772725623944493300,8.219493408203125,0.05531597137451172,0.24697113037109375,-0.3320932686328888
1772725623954010000,8.229010009765625,0.07083606719970703,-0.23488187789916992,0.4040922522544861
1772725623963527000,8.23852685546875,0.1238555908203125,0.3004782199859619,-0.34357941150665283
1772725623973044000,8.2480439453125,0.08679771423339844,-0.30313587188720703,0.41230297088623047
1772725623982560800,8.257560791015624,0.09995460510253906,0.2887539863586426,-0.46216583251953125
1772725623992077800,8.267077880859375,0.03065967559814453,-0.33434200286865234,0.4309258759021759
1772725624001594600,8.2765947265625,0.0072689056396484375,0.34241628646850586,-0.44746020436286926
1772725624011111400,8.286111328125,-0.07472610473632812,-0.3161163330078125,0.4597800672054291
1772725624020628500,8.29562841796875,-0.10151958465576172,0.36923933029174805,-0.5244963765144348
1772725624030145300,8.305145263671875,-0.16578292846679688,-0.3299980163574219,0.4908950626850128
1772725624039662300,8.314662353515626,-0.12096023559570312,0.35485363006591797,-0.4605390429496765
1772725624049179100,8.32417919921875,-0.11939716339111328,-0.3152930736541748,0.5793730616569519
1772725624058696000,8.333696044921876,-0.06859779357910156,0.3480262756347656,-0.4109521806240082
1772725624068212700,8.343212646484375,-0.046840667724609375,-0.33907127380371094,0.5825712084770203
1772725624077729800,8.352729736328126,0.049999237060546875,0.31425046920776367,-0.45037537813186646
1772725624087246600,8.36224658203125,0.08196830749511719,-0.3686399459838867,0.5061051249504089
1772725624096763600,8.371763671875,0.115966796875,0.2654728889465332,-0.5398063659667969
1772725624106280400,8.381280517578125,0.05536842346191406,-0.3510277271270752,0.3924199342727661
1772725624115797200,8.39079736328125,0.0333404541015625,0.3420395851135254,-0.5743273496627808
1772725624125314300,8.400314208984375,-0.00009250640869140625,-0.2539997100830078,0.3898736834526062
1772725624134831000,8.4098310546875,0.009386062622070312,0.3128080368041992,-0.4805968105792999
1772725624144348200,8.41934814453125,-0.033087730407714844,-0.28055477142333984,0.3895929157733917
1772725624153865000,8.428864990234375,-0.011330604553222656,0.2157895565032959,-0.3910372257232666
1772725624163381800,8.4383818359375,-0.008708953857421875,-0.2963235378265381,0.4908285439014435
1772725624172898800,8.44789892578125,0.005652427673339844,0.14826393127441406,-0.25840848684310913
1772725624182415600,8.45741552734375,-0.02039623260498047,-0.300961971282959,0.4490567445755005
1772725624191932400,8.466932373046875,-0.05561542510986328,0.16860651969909668,-0.253284752368927
1772725624201449200,8.47644921875,-0.048076629638671875,-0.2043321132659912,0.3596389889717102
1772725624210966300,8.48596630859375,-0.050208091735839844,0.04570722579956055,-0.05308142304420471
1772725624220483000,8.495483154296876,-0.02642536163330078,0.023299455642700195,0.012038260698318481
1772725624230000000,8.505000244140625,-0.0052509307861328125,0.04553937911987305,-0.006585597991943359
1772725624239517000,8.514516845703126,-0.010237693786621094,0.06720781326293945,-0.058170437812805176
1772725624249033700,8.52403369140625,-0.01749706268310547,0.06500411033630371,-0.08777603507041931
1772725624258550800,8.53355078125,-0.008275032043457031,0.08436703681945801,-0.1026022732257843
1772725624268067600,8.543067626953125,0.03604412078857422,0.08937954902648926,-0.09568178653717041
1772725624277584400,8.55258447265625,0.08917713165283203,0.06320953369140625,-0.10278037190437317
1772725624287101400,8.562101318359375,0.16050148010253906,0.0412752628326416,-0.07893314957618713
1772725624296618200,8.5716181640625,0.20744705200195312,-0.023737668991088867,-0.037112802267074585
1772725624306135000,8.581135009765624,0.21399974822998047,-0.05348396301269531,0.0025913119316101074
1772725624315652000,8.590652099609375,0.19242477416992188,-0.05501437187194824,0.0025438666343688965
1772725624325169000,8.6001689453125,0.10065650939941406,-0.06589460372924805,-0.0031917989253997803
1772725624334686000,8.60968603515625,0.06217002868652344,-0.04355764389038086,0.019115984439849854
1772725624344202800,8.61920263671875,-0.0063495635986328125,-0.009672164916992188,0.0042733848094940186
1772725624353719600,8.628719482421875,-0.031462669372558594,0.004887580871582031,-0.022900760173797607
1772725624363236600,8.638236572265624,-0.02313995361328125,0.014012336730957031,0.017705410718917847
1772725624372753400,8.64775341796875,-0.012475967407226562,-0.019917726516723633,0.025420397520065308
1772725624382270500,8.6572705078125,-0.013551712036132812,-0.05153512954711914,-0.016920030117034912
1772725624391787300,8.666787353515625,-0.03805732727050781,-0.05444979667663574,-0.017536848783493042
1772725624401304000,8.676303955078126,-0.1282787322998047,-0.030506134033203125,-0.014077425003051758
1772725624410820900,8.68582080078125,-0.19861125946044922,-0.017207860946655273,0.005657196044921875
1772725624420338000,8.695337890625,-0.2212839126586914,0.018895387649536133,0.035015255212783813
1772725624429854700,8.704854736328125,-0.2064800262451172,0.04427337646484375,0.027641236782073975
1772725624439371800,8.714371826171876,-0.14515972137451172,0.022940635681152344,0.01711013913154602
1772725624448888600,8.723888671875,-0.033074378967285156,0.02999091148376465,-0.015911400318145752
1772725624458405400,8.7334052734375,0.08686542510986328,0.02406907081604004,0.008290499448776245
1772725624467922400,8.74292236328125,0.16763973236083984,0.02147531509399414,-0.00652429461479187
1772725624477439200,8.752439208984375,0.1675558090209961,0.0010941028594970703,-0.032392531633377075
1772725624486956000,8.7619560546875,0.1254129409790039,-0.03388714790344238,-0.05890625715255737
1772725624496473000,8.77147314453125,0.07229804992675781,-0.016739845275878906,-0.04081881046295166
1772725624505990000,8.780989990234374,-0.0012445449829101562,0.014621496200561523,0.003341168165206909
1772725624515507000,8.7905068359375,-0.06908321380615234,0.027292966842651367,-0.013646364212036133
1772725624525023700,8.800023681640624,-0.10547828674316406,-0.0018374919891357422,-0.00100669264793396
1772725624534540500,8.80954052734375,-0.07787799835205078,0.0028409957885742188,0.01667425036430359
1772725624544057300,8.819057373046874,-0.050765037536621094,0.014565706253051758,0.006033748388290405
1772725624553574400,8.828574462890625,-0.0123443603515625,-0.004467964172363281,-0.03506961464881897
1772725624563091200,8.83809130859375,0.051352500915527344,-0.0020873546600341797,-0.059265077114105225
1772725624572608300,8.847608154296875,0.11888504028320312,-0.023775339126586914,-0.003991931676864624
1772725624582125000,8.857125,0.14084529876708984,-0.06696891784667969,0.027988851070404053
1772725624591641900,8.866641845703125,0.110809326171875,-0.09569096565246582,0.03768196702003479
1772725624601159000,8.876158935546876,0.07196235656738281,-0.034883975982666016,0.08501511812210083
1772725624610675700,8.88567578125,0.014962196350097656,-0.019980907440185547,0.06635239720344543
1772725624620192800,8.89519287109375,-0.017556190490722656,0.006326436996459961,0.027496337890625
1772725624629709600,8.90470947265625,-0.04717445373535156,0.034507036209106445,0.00589674711227417
1772725624639226400,8.914226318359376,-0.06219196319580078,0.03405261039733887,-0.015548646450042725
1772725624648743200,8.9237431640625,-0.1005859375,0.04107546806335449,-0.025322645902633667
1772725624658260200,8.93326025390625,-0.11741828918457031,0.013574361801147461,0.0025234222412109375
1772725624667777000,8.942777099609375,-0.15790271759033203,0.0230712890625,0.032978355884552
1772725624677294000,8.952294189453125,-0.1416168212890625,0.0005972385406494141,0.07321488857269287
1772725624686811000,8.961810791015624,-0.06935882568359375,0.0027174949645996094,0.059158146381378174
1772725624696327700,8.97132763671875,-0.012437820434570312,-0.006967067718505859,0.057405322790145874
1772725624705844700,8.9808447265625,0.04846000671386719,-0.03133273124694824,0.05561470985412598
1772725624715361500,8.990361572265625,0.06631946563720703,-0.05163860321044922,0.029930174350738525
1772725624724878300,8.99987841796875,0.08647632598876953,-0.03483748435974121,0.01679810881614685
1772725624734395400,9.0093955078125,0.07113361358642578,0.0071451663970947266,-0.02444705367088318
1772725624743912200,9.018912109375,0.04909515380859375,0.0364832878112793,-0.044998377561569214
1772725624753429000,9.028428955078125,0.032082557678222656,0.030339479446411133,-0.05903562903404236
1772725624762946000,9.037946044921876,0.005832672119140625,0.027032852172851562,-0.0423053503036499
1772725624772462800,9.047462890625,0.015284538269042969,0.009685516357421875,0.02874690294265747
1772725624781979600,9.056979736328126,0.005848884582519531,0.025319337844848633,0.0699731707572937
1772725624791496700,9.06649658203125,-0.008093833923339844,0.019393444061279297,0.025669068098068237
1772725624801013500,9.076013427734376,-0.0784158706665039,0.02565598487854004,0.00427892804145813
1772725624810530600,9.085530517578125,-0.08898448944091797,0.07242536544799805,-0.024920880794525146
1772725624820047400,9.09504736328125,-0.07127857208251953,0.07405996322631836,-0.03172996640205383
1772725624829564200,9.104564208984375,-0.011454582214355469,0.06846308708190918,-0.07640442252159119
1772725624839081200,9.114081298828125,0.0051403045654296875,0.027474641799926758,-0.09112486243247986
1772725624848598000,9.123597900390624,0.021529197692871094,0.022374391555786133,-0.07601460814476013
1772725624858115000,9.133114990234375,-0.028287887573242188,0.010514020919799805,-0.042573124170303345
1772725624867631600,9.142631591796874,-0.03264904022216797,0.0202333927154541,0.0024842023849487305
1772725624877148700,9.152148681640625,-0.041800498962402344,-0.007531642913818359,0.010469526052474976
1772725624886665500,9.16166552734375,-0.04147148132324219,-0.0394899845123291,0.0033569931983947754
1772725624896182500,9.1711826171875,-0.001110076904296875,-0.06638145446777344,0.017860770225524902
1772725624905699300,9.18069921875,0.04810142517089844,-0.07892727851867676,0.016984522342681885
1772725624915216400,9.19021630859375,0.06840324401855469,-0.06319260597229004,0.011641472578048706
1772725624924733200,9.199733154296876,0.06254196166992188,-0.021787643432617188,-0.0022766292095184326
1772725624934250000,9.20925,0.04505443572998047,0.0048062801361083984,0.004356205463409424
1772725624943767000,9.21876708984375,-0.005084037780761719,0.02623915672302246,0.036895930767059326
1772725624953283800,9.228283935546875,-0.045105934143066406,0.02639031410217285,0.05834972858428955
1772725624962800600,9.237800537109376,-0.08456134796142578,0.038394927978515625,0.031621336936950684
1772725624972317700,9.247317626953125,-0.10467147827148438,0.06218981742858887,0.027994811534881592
1772725624981834500,9.25683447265625,-0.08229255676269531,0.07433295249938965,-0.012130916118621826
1772725624991351300,9.266351318359375,-0.03217506408691406,0.060845136642456055,-0.06592795252799988
1772725625000868400,9.275868408203126,0.012411117553710938,0.08067536354064941,-0.08003059029579163
1772725625010385200,9.28538525390625,0.07288360595703125,0.05513191223144531,-0.081053227186203
1772725625019902000,9.29490185546875,0.12554168701171875,0.012804031372070312,-0.05223235487937927
1772725625029419000,9.3044189453125,0.13759803771972656,-0.032059669494628906,-0.0030007362365722656
1772725625038935800,9.313935791015625,0.09784317016601562,-0.034273624420166016,0.01437273621559143
1772725625048452900,9.323452880859374,0.049285888671875,-0.036240339279174805,0.0006435215473175049
1772725625057969700,9.3329697265625,0.006117820739746094,-0.016515731811523438,-0.015527695417404175
1772725625067486500,9.342486572265624,0.001216888427734375,-0.013175725936889648,0.024530857801437378
1772725625077003300,9.352003173828125,-0.0035619735717773438,-0.0029070377349853516,0.03767669200897217
1772725625086520300,9.361520263671874,-0.04825782775878906,-0.04233098030090332,0.0018471479415893555
1772725625096037000,9.371037109375,-0.06872367858886719,-0.0012462139129638672,-0.04092705249786377
1772725625105554200,9.38055419921875,-0.09363365173339844,0.024999380111694336,-0.031668514013290405
1772725625115071000,9.390071044921875,-0.07589912414550781,0.020296573638916016,-0.006243586540222168
1772725625124587800,9.399587890625,-0.023146629333496094,-0.00802469253540039,0.007663756608963013
1772725625134104800,9.409104736328125,0.0477752685546875,-0.06227231025695801,0.0127488374710083
1772725625143621600,9.41862158203125,0.06600761413574219,-0.10196042060852051,0.04095327854156494
1772725625153138700,9.428138671875,0.032256126403808594,-0.07270956039428711,0.005407214164733887
1772725625162655500,9.437655517578126,-0.022258758544921875,-0.03404545783996582,-0.00353887677192688
1772725625172172300,9.44717236328125,-0.07144451141357422,0.02350783348083496,0.019890785217285156
1772725625181689300,9.456689453125,-0.07527446746826172,0.04989314079284668,0.05596667528152466
1772725625191206100,9.4662060546875,-0.05556964874267578,0.04772019386291504,0.016699403524398804
1772725625200723000,9.475722900390625,-0.0033111572265625,0.048169612884521484,-0.01746794581413269
1772725625210240000,9.485239990234374,0.031737327575683594,0.0059833526611328125,-0.04508286714553833
1772725625219756800,9.4947568359375,-0.013780593872070312,-0.0003006458282470703,-0.022594541311264038
1772725625229273600,9.504273681640624,-0.03988075256347656,-0.0015401840209960938,-0.021868079900741577
1772725625238790700,9.513790771484375,-0.0020503997802734375,-0.005240917205810547,0.055743277072906494
1772725625248307500,9.523307373046874,0.04938697814941406,-0.0186464786529541,0.06351116299629211
1772725625257824500,9.532824462890625,0.10254764556884766,-0.03702044486999512,-0.0248565673828125
1772725625267341300,9.54234130859375,0.10564136505126953,-0.029676198959350586,-0.05268552899360657
1772725625276858000,9.551858154296875,0.09477424621582031,-0.022919654846191406,-0.06988292932510376
1772725625286375200,9.561375244140624,0.053643226623535156,-0.0072438716888427734,-0.05687737464904785
1772725625295892000,9.57089208984375,0.034454345703125,0.007935285568237305,0.007405906915664673
1772725625305408800,9.58040869140625,-0.055075645446777344,-0.007575273513793945,0.024185597896575928
1772725625314925800,9.58992578125,-0.1551809310913086,-0.0007808208465576172,0.015873730182647705
1772725625324442600,9.599442626953126,-0.21408843994140625,0.014490842819213867,0.0010626018047332764
1772725625333959400,9.60895947265625,-0.2538795471191406,0.01763606071472168,-0.04107514023780823
1772725625343476500,9.6184765625,-0.25591564178466797,0.027130126953125,-0.07887968420982361
1772725625352993300,9.6279931640625,-0.17579174041748047,0.03931879997253418,-0.043565601110458374
1772725625362510000,9.637510009765625,-0.06158256530761719,0.025067567825317383,0.004812777042388916
1772725625372027100,9.647027099609375,-0.003154754638671875,-0.024947404861450195,0.018828272819519043
1772725625381544000,9.6565439453125,0.052031517028808594,-0.07213568687438965,0.0448172390460968
1772725625391061000,9.66606103515625,0.01454925537109375,-0.0692746639251709,0.05466499924659729
1772725625400577800,9.675577880859375,-0.012996673583984375,-0.0002524852752685547,0.04805806279182434
1772725625410094600,9.685094482421874,0.025717735290527344,0.07997465133666992,0.004273772239685059
1772725625419611400,9.694611328125,0.054412841796875,0.01813054084777832,0.004424035549163818
1772725625429128400,9.70412841796875,0.06156635284423828,-0.045085906982421875,-0.03292325139045715
1772725625438645200,9.713645263671875,0.06406593322753906,-0.05146145820617676,0.015738099813461304
1772725625448162300,9.723162353515624,0.14679241180419922,0.014033079147338867,0.08414599299430847
1772725625457679000,9.73267919921875,0.2451944351196289,0.03168916702270508,0.059773921966552734
1772725625467196000,9.74219580078125,0.32898426055908203,0.014834880828857422,-0.06768336892127991
1772725625476713000,9.751712890625,0.2733478546142578,-0.042124271392822266,-0.15781483054161072
1772725625486229800,9.761229736328126,0.15052032470703125,-0.004760026931762695,-0.09597885608673096
1772725625495746800,9.770746826171875,0.06243610382080078,0.022969722747802734,0.0972101092338562
1772725625505263600,9.780263671875,0.02727985382080078,-0.017164945602416992,0.22510245442390442
1772725625514780400,9.789780517578125,0.0018634796142578125,-0.06014370918273926,0.20310932397842407
1772725625524297200,9.799297119140626,-0.05861949920654297,-0.12007284164428711,0.1501556634902954
1772725625533814300,9.808814208984375,-0.08065319061279297,-0.08865976333618164,0.12495705485343933
1772725625543331000,9.8183310546875,-0.14478397369384766,-0.0880126953125,0.1451617181301117
1772725625552848100,9.82784814453125,-0.19625473022460938,-0.014051675796508789,0.10526034235954285
1772725625562365000,9.837364990234375,-0.22584915161132812,-0.01867198944091797,0.032212674617767334
1772725625571881700,9.8468818359375,-0.31884288787841797,-0.041023969650268555,-0.019289463758468628
1772725625581398800,9.856398681640625,-0.3992319107055664,-0.021068334579467773,-0.057441651821136475
1772725625590915600,9.86591552734375,-0.4155855178833008,0.045542240142822266,-0.03231114149093628
1772725625600432400,9.875432373046875,-0.26767444610595703,0.05191779136657715,-0.00947466492652893
1772725625609949400,9.884949462890624,-0.08237934112548828,-0.009181499481201172,-0.01237383484840393
1772725625619466200,9.89446630859375,0.0718994140625,-0.10492086410522461,-0.026669591665267944
1772725625628983300,9.9039833984375,0.1675872802734375,-0.14600205421447754,-0.10739022493362427
