time,seconds_elapsed,z,y,x
1772725615817068300,0.092068359375,-0.019242240116000175,0.053756099194288254,-0.02306014485657215
1772725615826585300,0.10158544921875,-0.023518294095993042,0.036651886999607086,-0.024892739951610565
1772725615836102100,0.11110205078125,-0.022296564653515816,0.009773836471140385,-0.01511890348047018
1772725615845619000,0.120618896484375,-0.012522728182375431,-0.009162971749901772,0.0007635809597559273
1772725615855136000,0.130135986328125,0.000305432389723137,-0.024434590712189674,0.019700389355421066
1772725615864652800,0.13965283203125,0.012522728182375431,-0.03543015569448471,0.03802633285522461
1772725615874169600,0.149169677734375,0.019853105768561363,-0.028099779039621353,0.049632761627435684
1772725615883686700,0.158686767578125,0.02779434807598591,-0.006719512399286032,0.05513054504990578
1772725615893203500,0.168203369140625,0.032070402055978775,0.001832594396546483,0.058795735239982605
1772725615902720300,0.17772021484375,0.035124726593494415,-0.001832594396546483,0.058795735239982605
1772725615912237300,0.1872373046875,0.03695731982588768,-0.006108647678047419,0.05085449293255806
1772725615921754000,0.196754150390625,0.03329212963581085,-0.007941242307424545,0.036804601550102234
1772725615931271000,0.20627099609375,0.023518294095993042,-0.007941242307424545,0.020922118797898293
1772725615940788000,0.2157880859375,0.015577051788568497,-0.001832594396546483,0.0038179049734026194
1772725615950304800,0.2253046875,0.014966187067329884,0.030543239787220955,-0.009621120058000088
1772725615959821800,0.23482177734375,0.018631376326084137,0.05742128938436508,-0.014508038759231567
1772725615969338600,0.244338623046875,0.025350889191031456,0.05070177838206291,-0.010842849500477314
1772725615978855400,0.25385546875,0.03390299528837204,0.040317077189683914,-0.009010255336761475
1772725615988372200,0.263372314453125,0.03634645417332649,0.036651886999607086,-0.01206457894295454
1772725615997889300,0.27288916015625,0.03329212963581085,0.01649334840476513,-0.01206457894295454
1772725616007406000,0.282406005859375,0.032681263983249664,-0.009162971749901772,-0.013286309316754341
1772725616016923100,0.291923095703125,0.03451386094093323,-0.024434590712189674,-0.018173227086663246
1772725616026440000,0.30143994140625,0.032070402055978775,-0.029932374134659767,-0.031001387163996696
1772725616035956700,0.310956787109375,0.024740023538470268,-0.013439024798572063,-0.0487164668738842
1772725616045473800,0.320473876953125,0.01802051067352295,0.0256563201546669,-0.064598947763443
1772725616054990600,0.329990478515625,0.01435532234609127,0.06230820715427399,-0.0694858655333519
1772725616064507400,0.33950732421875,0.018631376326084137,0.0824667438864708,-0.060322895646095276
1772725616074024400,0.3490244140625,0.022907428443431854,0.07024945318698883,-0.03711003437638283
1772725616083541200,0.358541259765625,0.025350889191031456,0.037262752652168274,-0.008399390615522861
1772725616093058000,0.36805810546875,0.024740023538470268,-0.001832594396546483,0.017867794260382652
1772725616102575000,0.3775751953125,0.019853105768561363,-0.033597562462091446,0.036804601550102234
1772725616112092000,0.387091796875,0.012522728182375431,-0.053756099194288254,0.04535670951008797
1772725616121608700,0.396608642578125,0.004581485874950886,-0.05864302068948746,0.04413498193025589
1772725616131125800,0.406125732421875,0.0009162971982732415,-0.056199558079242706,0.039248060435056686
1772725616140642600,0.415642578125,0.0027488914784044027,-0.05864302068948746,0.033139415085315704
1772725616150159600,0.42515966796875,0.010079269297420979,-0.05436696484684944,0.02153298258781433
1772725616159676400,0.434676513671875,0.019853105768561363,-0.0409279391169548,0.008704823441803455
1772725616169193200,0.444193115234375,0.022907428443431854,-0.01588248461484909,-0.0010690133785828948
1772725616178710300,0.453710205078125,0.016798781231045723,0.01893680728971958,-0.00045814859913662076
1772725616188227000,0.46322705078125,0.010690134018659592,0.036651886999607086,0.010537417605519295
1772725616207261000,0.482260986328125,0.015577051788568497,0.015271619893610477,0.03436114266514778
1772725616216777700,0.49177783203125,0.026572618633508682,0.001832594396546483,0.03252854943275452
1772725616226294500,0.50129443359375,0.03634645417332649,-0.010384701192378998,0.020922118797898293
1772725616235811600,0.5108115234375,0.03940077871084213,-0.010995565913617611,0.004428769461810589
1772725616245328400,0.520328369140625,0.035735588520765305,0.003665188793092966,-0.01206457894295454
1772725616254845200,0.52984521484375,0.029626941308379173,0.024434590712189674,-0.024892739951610565
1772725616264362200,0.5393623046875,0.024740023538470268,0.04764745384454727,-0.03527744114398956
1772725616273879000,0.548879150390625,0.019853105768561363,0.059864748269319534,-0.040775224566459656
1772725616283396000,0.55839599609375,0.014966187067329884,0.05558869615197182,-0.04260781779885292
1772725616292913000,0.567912841796875,0.011911863461136818,0.05070177838206291,-0.04016435891389847
1772725616302429700,0.5774296875,0.00946840364485979,0.04520399495959282,-0.03894263133406639
1772725616311946500,0.586946533203125,0.008857538923621178,0.04520399495959282,-0.04199695214629173
1772725616321463600,0.596463623046875,0.008857538923621178,0.04886918142437935,-0.051159925758838654
1772725616330980400,0.60598046875,0.008857538923621178,0.04764745384454727,-0.06215549260377884
1772725616340497400,0.615497314453125,0.008857538923621178,0.049480047076940536,-0.0694858655333519
1772725616350014200,0.62501416015625,0.00946840364485979,0.053145237267017365,-0.07131846249103546
1772725616359531000,0.634531005859375,0.011911863461136818,0.047036588191986084,-0.064598947763443
1772725616369048000,0.644048095703125,0.014966187067329884,0.025045456364750862,-0.04993819445371628
1772725616378564900,0.65356494140625,0.011300998739898205,0.002443459117785096,-0.02977965772151947
1772725616388081700,0.66308154296875,0.005192350596189499,-0.01954767294228077,-0.005955931730568409
1772725616397598700,0.6725986328125,0.0027488914784044027,-0.028099779039621353,0.016035201027989388
1772725616407115500,0.682115478515625,0.005803215317428112,-0.0256563201546669,0.03191768378019333
1772725616416632300,0.69163232421875,0.005803215317428112,-0.017104214057326317,0.04169152304530144
1772725616426149400,0.7011494140625,0.005192350596189499,-0.010995565913617611,0.04780016839504242
1772725616435666200,0.710666259765625,0.003970621153712273,-0.01649334840476513,0.05451968312263489
1772725616445183000,0.720182861328125,0.0027488914784044027,-0.029932374134659767,0.06062832847237587
1772725616454700000,0.729699951171875,0.0027488914784044027,-0.040317077189683914,0.06490438431501389
1772725616464216800,0.739216796875,0.0009162971982732415,-0.05070177838206291,0.0691804364323616
1772725616473734000,0.74873388671875,-0.005803215317428112,-0.053756099194288254,0.06551524996757507
1772725616483250700,0.758250732421875,-0.00946840364485979,-0.03481929376721382,0.05329795181751251
1772725616492767500,0.767767578125,-0.008857538923621178,-0.006719512399286032,0.03191768378019333
1772725616502284500,0.777284423828125,-0.005192350596189499,0.014049889519810677,0.006872228812426329
1772725616511801300,0.78680126953125,-0.0021380267571657896,0.0256563201546669,-0.01511890348047018
1772725616521318400,0.796318359375,0.0027488914784044027,0.029932374134659767,-0.0334448479115963
1772725616530835200,0.805835205078125,0.006414080038666725,0.03298669680953026,-0.04505127668380737
1772725616540352000,0.81535205078125,0.006414080038666725,0.03237583488225937,-0.04932733252644539
1772725616549868800,0.824868896484375,0.0015271619195118546,0.01893680728971958,-0.04566214233636856
1772725616559385900,0.8343857421875,0.0015271619195118546,0.007941242307424545,-0.04566214233636856
1772725616568902700,0.843902587890625,0.000305432389723137,0.009162971749901772,-0.05238165333867073
1772725616578419500,0.85341943359375,-0.0027488914784044027,0.013439024798572063,-0.06337722390890121
1772725616587936500,0.8629365234375,-0.013744457624852657,-0.001221729558892548,-0.06887500733137131
1772725616597453300,0.872453369140625,-0.019242240116000175,-0.020769402384757996,-0.06826414167881012
1772725616606970400,0.881970458984375,-0.013744457624852657,-0.030543239787220955,-0.06704241037368774
1772725616616487200,0.891487060546875,-0.00946840364485979,-0.026878049597144127,-0.064598947763443
1772725616626004000,0.90100390625,-0.014966187067329884,-0.01588248461484909,-0.05543597787618637
1772725616635520800,0.910520751953125,-0.021685699000954628,-0.003665188793092966,-0.04566214233636856
1772725616645037800,0.920037841796875,-0.021685699000954628,0.012217295356094837,-0.040775224566459656
1772725616654554600,0.9295546875,-0.016187917441129684,0.021380268037319183,-0.04016435891389847
1772725616664071700,0.93907177734375,-0.01435532234609127,0.027488915249705315,-0.040775224566459656
1772725616673588500,0.94858837890625,-0.01802051067352295,0.015271619893610477,-0.03649916872382164
1772725616683105300,0.958105224609375,-0.021685699000954628,-0.012217295356094837,-0.028557928279042244
1772725616692622300,0.967622314453125,-0.019242240116000175,-0.02932151034474373,-0.019394956529140472
1772725616702139100,0.97713916015625,-0.011300998739898205,-0.028099779039621353,-0.009621120058000088
1772725616711656000,0.986656005859375,-0.003359756199643016,-0.020158538594841957,0.004428769461810589
1772725616721173000,0.996173095703125,-0.000305432389723137,-0.0256563201546669,0.020922118797898293
1772725616730689800,1.005689697265625,0.004581485874950886,-0.04459312930703163,0.03375028073787689
1772725616740206600,1.01520654296875,0.008246674202382565,-0.06230820715427399,0.036804601550102234
1772725616749723600,1.0247236328125,0.008857538923621178,-0.053756099194288254,0.02519817277789116
1772725616759240400,1.034240478515625,0.004581485874950886,-0.025045456364750862,0.007483093533664942
1772725616768757200,1.04375732421875,-0.006414080038666725,0.002443459117785096,-0.007788525894284248
1772725616778274300,1.0532744140625,-0.0204639695584774,0.02626718580722809,-0.013897174037992954
1772725616787791000,1.062791015625,-0.029626941308379173,0.03298669680953026,-0.013897174037992954
1772725616797308200,1.07230810546875,-0.029626941308379173,0.033597562462091446,-0.006566796451807022
1772725616806825000,1.081824951171875,-0.022907428443431854,0.021380268037319183,0.005650499369949102
1772725616816341800,1.091341796875,-0.008246674202382565,0.0030543238390237093,0.0154243353754282
1772725616825858800,1.10085888671875,0.010690134018659592,-0.013439024798572063,0.020922118797898293
1772725616835375600,1.110375732421875,0.024740023538470268,-0.02871064469218254,0.02519817277789116
1772725616844892700,1.119892578125,0.032070402055978775,-0.0360410213470459,0.026419902220368385
1772725616854409500,1.129409423828125,0.03329212963581085,-0.031154103577136993,0.02825249545276165
1772725616863926300,1.13892626953125,0.029016077518463135,-0.01282816007733345,0.027030766010284424
1772725616873443000,1.148443115234375,0.022296564653515816,0.004886918235570192,0.023365577682852745
1772725616882960100,1.157960205078125,0.011300998739898205,0.010384701192378998,0.014813470654189587
1772725616892477000,1.167476806640625,0.0009162971982732415,0.000610864779446274,0.005039634648710489
1772725616901993700,1.17699365234375,-0.006414080038666725,-0.010995565913617611,-0.002901607658714056
1772725616911510800,1.1865107421875,-0.007635809946805239,-0.010384701192378998,-0.005955931730568409
1772725616921027600,1.196027587890625,-0.005192350596189499,-0.004276053514331579,-0.004734201822429895
1772725616930544600,1.205544677734375,-0.0021380267571657896,0.0030543238390237093,0.0001527161948615685
1772725616940061400,1.2150615234375,-0.000305432389723137,0.004886918235570192,0.0038179049734026194
1772725616949578200,1.224578125,-0.0009162971982732415,0.010995565913617611,0.004428769461810589
1772725616959095000,1.234094970703125,0.0021380267571657896,0.023212861269712448,-0.004123337101191282
1772725616968612000,1.243612060546875,0.0009162971982732415,0.030543239787220955,-0.018173227086663246
1772725616978129000,1.25312890625,-0.004581485874950886,0.027488915249705315,-0.031001387163996696
1772725616987646000,1.26264599609375,-0.007024944759905338,0.01282816007733345,-0.03955349326133728
1772725616997162800,1.272162841796875,-0.005803215317428112,0.000610864779446274,-0.0487164668738842
1772725617006679600,1.281679443359375,-0.0027488914784044027,0.0054977829568088055,-0.05543597787618637
1772725617016196600,1.291196533203125,-0.0009162971982732415,0.01588248461484909,-0.054214250296354294
1772725617025713400,1.30071337890625,-0.0021380267571657896,0.017104214057326317,-0.041386090219020844
1772725617035230200,1.310230224609375,0.0009162971982732415,0.006719512399286032,-0.027947064489126205
1772725617044747300,1.319747314453125,0.006414080038666725,-0.007330377586185932,-0.016340631991624832
1772725617054264000,1.32926416015625,0.011911863461136818,-0.009773836471140385,-0.012675444595515728
1772725617063780900,1.33878076171875,0.016187917441129684,0.006108647678047419,-0.016340631991624832
1772725617073298000,1.3482978515625,0.013133592903614044,0.021380268037319183,-0.0206166859716177
1772725617082814700,1.357814697265625,0.007024944759905338,0.02626718580722809,-0.02000582218170166
1772725617092331500,1.36733154296875,-0.0009162971982732415,0.017715077847242355,-0.007788525894284248
1772725617101848600,1.3768486328125,-0.004581485874950886,-0.009773836471140385,0.01359174121171236
1772725617111365400,1.386365478515625,-0.0015271619195118546,-0.0360410213470459,0.03497200831770897
1772725617120882400,1.39588232421875,0.003970621153712273,-0.053756099194288254,0.04657844081521034
1772725617130399200,1.405399169921875,0.003359756199643016,-0.056810423731803894,0.04657844081521034
1772725617139916000,1.414916015625,0.000305432389723137,-0.047036588191986084,0.03741546720266342
1772725617149433000,1.42443310546875,-0.004581485874950886,-0.03176496922969818,0.019700389355421066
1772725617158950000,1.433949951171875,-0.005192350596189499,-0.014660755172371864,0.0001527161948615685
1772725617168467000,1.443467041015625,0.000305432389723137,0.0030543238390237093,-0.01511890348047018
1772725617177983700,1.452983642578125,0.0027488914784044027,0.021991131827235222,-0.02000582218170166
1772725617187500500,1.46250048828125,0.003970621153712273,0.025045456364750862,-0.010842849500477314
1772725617197017300,1.472017333984375,0.0021380267571657896,0.010995565913617611,0.005650499369949102
1772725617206534400,1.481534423828125,0.004581485874950886,-0.004886918235570192,0.019700389355421066
1772725617216051200,1.49105126953125,0.003970621153712273,-0.013439024798572063,0.02458730712532997
1772725617225568000,1.500568115234375,-0.000305432389723137,-0.014660755172371864,0.019700389355421066
1772725617235085000,1.5100849609375,-0.004581485874950886,-0.000610864779446274,0.0062613640911877155
1772725617244601900,1.519601806640625,-0.005803215317428112,0.01954767294228077,-0.009621120058000088
1772725617254119000,1.529118896484375,-0.003970621153712273,0.036651886999607086,-0.021227551624178886
1772725617263635700,1.5386357421875,-0.003359756199643016,0.04459312930703163,-0.02367101050913334
1772725617273152500,1.548152587890625,-0.004581485874950886,0.037262752652168274,-0.019394956529140472
1772725617282669300,1.55766943359375,-0.008857538923621178,0.01649334840476513,-0.01206457894295454
1772725617292186400,1.567186279296875,-0.011300998739898205,-0.006108647678047419,-0.007788525894284248
1772725617301703200,1.576703125,-0.011300998739898205,-0.012217295356094837,-0.01206457894295454
1772725617311220200,1.58622021484375,-0.008857538923621178,0.009162971749901772,-0.02672533318400383
1772725617320737000,1.595737060546875,-0.008246674202382565,0.050090912729501724,-0.044440411031246185
1772725617330253800,1.60525390625,-0.010690134018659592,0.07452550530433655,-0.05849030241370201
1772725617339771000,1.61477099609375,-0.014966187067329884,0.07635809481143951,-0.06215549260377884
1772725617349287700,1.62428759765625,-0.015577051788568497,0.0665842592716217,-0.06276635825634003
1772725617358804700,1.6338046875,-0.01740964688360691,0.04886918142437935,-0.060322895646095276
1772725617368321500,1.643321533203125,-0.019853105768561363,0.021991131827235222,-0.05299251899123192
1772725617377838300,1.65283837890625,-0.01740964688360691,-0.007330377586185932,-0.03894263133406639
1772725617387355100,1.662355224609375,-0.007024944759905338,-0.03481929376721382,-0.017562363296747208
1772725617396872200,1.6718720703125,0.007024944759905338,-0.0513126403093338,0.0038179049734026194
1772725617406389000,1.681388916015625,0.016798781231045723,-0.05253437161445618,0.02153298258781433
1772725617415905800,1.69090576171875,0.022296564653515816,-0.03543015569448471,0.027030766010284424
1772725617425422800,1.7004228515625,0.0204639695584774,-0.007330377586185932,0.023365577682852745
1772725617434939600,1.709939697265625,0.01435532234609127,0.010384701192378998,0.016035201027989388
1772725617444456700,1.719456787109375,0.007024944759905338,0.011606430634856224,0.008704823441803455
1772725617453973500,1.728973388671875,0.006414080038666725,0.004276053514331579,0.0007635809597559273
1772725617463490300,1.738490234375,0.007635809946805239,-0.003665188793092966,-0.004123337101191282
1772725617473007400,1.74800732421875,0.004581485874950886,-0.014049889519810677,-0.006566796451807022
1772725617482524200,1.757524169921875,-0.0021380267571657896,-0.023212861269712448,-0.003512472379952669
1772725617492041000,1.767041015625,-0.007635809946805239,-0.023212861269712448,0.0019853105768561363
1772725617501558000,1.77655810546875,-0.00946840364485979,-0.017715077847242355,0.008093958720564842
1772725617511074800,1.78607470703125,-0.004581485874950886,-0.001832594396546483,0.011148282326757908
1772725617520591600,1.795591552734375,0.0021380267571657896,0.01893680728971958,0.010537417605519295
1772725617530108700,1.805108642578125,0.008857538923621178,0.031154103577136993,0.006872228812426329
1772725617539625500,1.81462548828125,0.012522728182375431,0.026878049597144127,-0.00045814859913662076
1772725617549142300,1.824142333984375,0.012522728182375431,0.004886918235570192,-0.003512472379952669
1772725617558659300,1.833659423828125,0.00946840364485979,-0.025045456364750862,-0.002901607658714056
1772725617568176000,1.843176025390625,0.008857538923621178,-0.05253437161445618,0.0019853105768561363
1772725617577693200,1.852693115234375,0.007024944759905338,-0.05925388261675835,0.0062613640911877155
1772725617587210000,1.8622099609375,0.0027488914784044027,-0.04764745384454727,0.005650499369949102
1772725617596726800,1.871726806640625,-0.005192350596189499,-0.020769402384757996,0.0025961752980947495
1772725617606243600,1.88124365234375,-0.013744457624852657,0.008552107028663158,-0.00045814859913662076
1772725617615760600,1.8907607421875,-0.019242240116000175,0.01954767294228077,-0.001679878099821508
1772725617625277400,1.90027734375,-0.01740964688360691,0.014660755172371864,-0.001679878099821508
1772725617634794500,1.90979443359375,-0.015577051788568497,0.007330377586185932,-0.002290742937475443
1772725617644311300,1.919311279296875,-0.01802051067352295,0.001832594396546483,-0.003512472379952669
1772725617653828000,1.928828125,-0.023518294095993042,-0.006108647678047419,-0.004734201822429895
1772725617663345200,1.93834521484375,-0.022907428443431854,-0.01649334840476513,-0.006566796451807022
1772725617672862000,1.947862060546875,-0.016187917441129684,-0.021991131827235222,-0.009621120058000088
1772725617682379000,1.95737890625,-0.010079269297420979,-0.02260199747979641,-0.015729768201708794
1772725617691895800,1.966895751953125,-0.007024944759905338,-0.01649334840476513,-0.02367101050913334
1772725617701412600,1.97641259765625,0.000305432389723137,0.008552107028663158,-0.0383317656815052
1772725617710929400,1.985929443359375,0.004581485874950886,0.0360410213470459,-0.046883873641490936
1772725617720446500,1.995446533203125,0.004581485874950886,0.04581485688686371,-0.046883873641490936
1772725617729963300,2.00496337890625,0.005192350596189499,0.034208428114652634,-0.03955349326133728
1772725617739480000,2.01447998046875,0.004581485874950886,0.004276053514331579,-0.025503603741526604
1772725617748997000,2.0239970703125,0.0027488914784044027,-0.023212861269712448,-0.010842849500477314
1772725617758514000,2.033513916015625,0.0009162971982732415,-0.029932374134659767,0.0019853105768561363
1772725617768031000,2.043031005859375,0.0009162971982732415,-0.0256563201546669,0.0154243353754282
1772725617777547800,2.0525478515625,-0.0015271619195118546,-0.017715077847242355,0.027030766010284424
1772725617787064600,2.062064697265625,0.0009162971982732415,-0.009162971749901772,0.036804601550102234
1772725617796581600,2.07158154296875,0.003970621153712273,-0.006108647678047419,0.039248060435056686
1772725617806098400,2.081098388671875,0.006414080038666725,0.001221729558892548,0.03130681812763214
1772725617815615500,2.090615478515625,0.005803215317428112,0.004886918235570192,0.017256930470466614
1772725617825132300,2.10013232421875,0.0021380267571657896,0.001832594396546483,-0.00045814859913662076
1772725617834649000,2.109649169921875,-0.000305432389723137,0.000610864779446274,-0.014508038759231567
1772725617844166000,2.119165771484375,-0.005192350596189499,-0.002443459117785096,-0.02000582218170166
1772725617853683000,2.128682861328125,-0.010690134018659592,-0.008552107028663158,-0.018784092739224434
1772725617863199700,2.13819970703125,-0.014966187067329884,-0.011606430634856224,-0.013286309316754341
1772725617872716500,2.147716552734375,-0.01740964688360691,-0.006719512399286032,-0.005955931730568409
1772725617882233600,2.157233642578125,-0.019853105768561363,0.004276053514331579,0.0025961752980947495
1772725617891750400,2.16675048828125,-0.022296564653515816,0.004886918235570192,0.012370011769235134
1772725617901267500,2.176267333984375,-0.015577051788568497,0,0.016035201027989388
1772725617910784300,2.1857841796875,-0.005192350596189499,0.0054977829568088055,0.009315688163042068
1772725617920301000,2.195301025390625,0.003359756199643016,0.023823726922273636,-0.005345067009329796
1772725617929817900,2.20481787109375,-0.0009162971982732415,0.034208428114652634,-0.016340631991624832
1772725617939335000,2.2143349609375,-0.00946840364485979,0.0256563201546669,-0.015729768201708794
1772725617948851700,2.223851806640625,-0.013744457624852657,0.013439024798572063,-0.010842849500477314
1772725617958368800,2.23336865234375,-0.012522728182375431,0.001221729558892548,-0.00045814859913662076
1772725617967885600,2.242885498046875,-0.006414080038666725,-0.008552107028663158,0.014813470654189587
1772725617977402400,2.25240234375,-0.003970621153712273,-0.014049889519810677,0.029474224895238876
1772725617986919400,2.26191943359375,-0.0021380267571657896,-0.01588248461484909,0.036804601550102234
1772725617996436200,2.271436279296875,-0.0021380267571657896,-0.007941242307424545,0.03558287397027016
1772725618005953300,2.280953369140625,-0.005192350596189499,0.007330377586185932,0.028863361105322838
1772725618015470000,2.290469970703125,-0.010690134018659592,0.021380268037319183,0.022754713892936707
1772725618024987000,2.29998681640625,-0.01435532234609127,0.02626718580722809,0.017867794260382652
1772725618034503700,2.309503662109375,-0.011911863461136818,0.017104214057326317,0.012370011769235134
1772725618044020700,2.319020751953125,-0.005803215317428112,-0.004276053514331579,0.006872228812426329
1772725618053537500,2.32853759765625,0.0015271619195118546,-0.020158538594841957,0.0025961752980947495
1772725618063054600,2.3380546875,0.00946840364485979,-0.025045456364750862,0.0013744457392022014
1772725618072571400,2.3475712890625,0.02107483521103859,-0.02932151034474373,0.0038179049734026194
1772725618082088200,2.357088134765625,0.03451386094093323,-0.02871064469218254,0.0019853105768561363
1772725618091605200,2.366605224609375,0.04062250629067421,-0.020769402384757996,-0.009010255336761475
1772725618101122000,2.3761220703125,0.035735588520765305,-0.01282816007733345,-0.02672533318400383
1772725618110638800,2.385638916015625,0.022296564653515816,-0.009773836471140385,-0.047494735568761826
1772725618120156000,2.395156005859375,0.007635809946805239,-0.004276053514331579,-0.06276635825634003
1772725618129672700,2.404672607421875,-0.003970621153712273,0.007330377586185932,-0.06643154472112656
1772725618139189800,2.414189697265625,-0.012522728182375431,0.021991131827235222,-0.05543597787618637
1772725618148706600,2.42370654296875,-0.019242240116000175,0.03176496922969818,-0.03405570983886719
1772725618158223400,2.433223388671875,-0.024740023538470268,0.043371398001909256,-0.009621120058000088
1772725618167740200,2.442740234375,-0.025961752980947495,0.04276053607463837,0.014202605932950974
1772725618177257200,2.45225732421875,-0.02107483521103859,0.025045456364750862,0.030085090547800064
1772725618186774000,2.46177392578125,-0.012522728182375431,0.006719512399286032,0.03497200831770897
1772725618196290800,2.471290771484375,-0.007635809946805239,-0.010995565913617611,0.03252854943275452
1772725618205807900,2.480807861328125,-0.005192350596189499,-0.03543015569448471,0.030085090547800064
1772725618215324700,2.49032470703125,0.0027488914784044027,-0.053145237267017365,0.02764163166284561
1772725618224841700,2.499841796875,0.012522728182375431,-0.056199558079242706,0.02764163166284561
1772725618234358500,2.509358642578125,0.016798781231045723,-0.050090912729501724,0.030085090547800064
1772725618243875300,2.518875244140625,0.014966187067329884,-0.036651886999607086,0.03130681812763214
1772725618253392100,2.52839208984375,0.011300998739898205,-0.008552107028663158,0.027030766010284424
1772725618262909200,2.5379091796875,0.007024944759905338,0.025045456364750862,0.017867794260382652
1772725618272426000,2.547426025390625,0.0021380267571657896,0.0360410213470459,0.011148282326757908
1772725618281943000,2.556943115234375,-0.0021380267571657896,0.028099779039621353,0.008704823441803455
1772725618291459800,2.5664599609375,-0.003359756199643016,0.015271619893610477,0.008093958720564842
1772725618300976600,2.5759765625,-0.0015271619195118546,0.000610864779446274,0.011148282326757908
1772725618310493700,2.58549365234375,-0.0009162971982732415,-0.009773836471140385,0.011148282326757908
1772725618320010500,2.595010498046875,0.0021380267571657896,-0.008552107028663158,0.006872228812426329
1772725618329527600,2.604527587890625,0.007635809946805239,0.0030543238390237093,-0.002901607658714056
1772725618339044400,2.61404443359375,0.012522728182375431,0.012217295356094837,-0.015729768201708794
1772725618348561200,2.62356103515625,0.013133592903614044,0.017104214057326317,-0.028557928279042244
1772725618358078000,2.633077880859375,0.014966187067329884,0.024434590712189674,-0.03894263133406639
1772725618367595000,2.642594970703125,0.01435532234609127,0.031154103577136993,-0.04566214233636856
1772725618377111800,2.65211181640625,0.013744457624852657,0.034208428114652634,-0.047494735568761826
1772725618386628900,2.66162890625,0.01435532234609127,0.040317077189683914,-0.043829549103975296
1772725618396145700,2.671145751953125,0.013133592903614044,0.04825831577181816,-0.0383317656815052
1772725618405662500,2.680662353515625,0.008246674202382565,0.049480047076940536,-0.028557928279042244
1772725618415179500,2.690179443359375,0.005192350596189499,0.046425722539424896,-0.022449281066656113
1772725618424696300,2.6996962890625,0.003970621153712273,0.04581485688686371,-0.018784092739224434
1772725618434213000,2.709213134765625,0.004581485874950886,0.037262752652168274,-0.011453714221715927
1772725618443730200,2.718730224609375,0.007024944759905338,0.017104214057326317,0.0013744457392022014
1772725618453247000,2.7282470703125,0.011911863461136818,-0.012217295356094837,0.016646064817905426
1772725618462764000,2.737763916015625,0.018631376326084137,-0.03848448023200035,0.033139415085315704
1772725618472280800,2.74728076171875,0.019242240116000175,-0.04764745384454727,0.04535670951008797
1772725618481797600,2.756797607421875,0.013133592903614044,-0.04764745384454727,0.05451968312263489
1772725618491314400,2.766314453125,0.004581485874950886,-0.04520399495959282,0.05940660089254379
1772725618500831500,2.77583154296875,-0.0015271619195118546,-0.033597562462091446,0.05696314200758934
1772725618510348300,2.785348388671875,-0.0021380267571657896,-0.01893680728971958,0.049632761627435684
1772725618519865300,2.794865234375,-0.004581485874950886,-0.01282816007733345,0.04108065739274025
1772725618529382100,2.804382080078125,-0.007635809946805239,-0.008552107028663158,0.03130681812763214
1772725618538899000,2.81389892578125,-0.008246674202382565,-0.000610864779446274,0.019700389355421066
1772725618548416000,2.823416015625,-0.010079269297420979,0.012217295356094837,0.006872228812426329
1772725618557932800,2.832932861328125,-0.010690134018659592,0.01649334840476513,-0.001679878099821508
1772725618567449600,2.84244970703125,-0.005803215317428112,0.01588248461484909,-0.012675444595515728
1772725618576966700,2.851966552734375,0.000305432389723137,0.021991131827235222,-0.02367101050913334
1772725618586483500,2.8614833984375,0.0021380267571657896,0.03176496922969818,-0.028557928279042244
1772725618596000300,2.871000244140625,0.0009162971982732415,0.028099779039621353,-0.024281874299049377
1772725618605517300,2.880517333984375,0.0027488914784044027,0.01282816007733345,-0.014508038759231567
1772725618615034000,2.8900341796875,0.00946840364485979,-0.001832594396546483,-0.005345067009329796
1772725618624551000,2.899551025390625,0.011911863461136818,-0.014660755172371864,0.0001527161948615685
1772725618634068000,2.90906787109375,0.008246674202382565,-0.020158538594841957,0.0007635809597559273
1772725618643584800,2.918584716796875,0.0021380267571657896,-0.017104214057326317,-0.001679878099821508
1772725618653101800,2.928101806640625,-0.000305432389723137,-0.007941242307424545,-0.006566796451807022
1772725618662618600,2.93761865234375,0.003359756199643016,0.007941242307424545,-0.010842849500477314
1772725618672135400,2.947135498046875,0.005803215317428112,0.025045456364750862,-0.01511890348047018
1772725618681652200,2.95665234375,0.008246674202382565,0.02626718580722809,-0.013897174037992954
1772725618691169300,2.966169189453125,0.010690134018659592,0.010384701192378998,-0.009621120058000088
1772725618700686000,2.97568603515625,0.013744457624852657,-0.004886918235570192,-0.004734201822429895
1772725618710203100,2.985203125,0.01740964688360691,-0.008552107028663158,-0.005345067009329796
1772725618719720000,2.994719970703125,0.01435532234609127,-0.007941242307424545,-0.004734201822429895
1772725618729236700,3.00423681640625,0.011911863461136818,-0.006108647678047419,-0.004123337101191282
1772725618738753800,3.01375390625,0.00946840364485979,-0.001221729558892548,-0.003512472379952669
1772725618748270600,3.0232705078125,0.005803215317428112,0,-0.002290742937475443
1772725618757787400,3.032787353515625,0.000305432389723137,-0.011606430634856224,0.0013744457392022014
1772725618767304400,3.042304443359375,-0.0015271619195118546,-0.026878049597144127,0.0019853105768561363
1772725618776821200,3.0518212890625,0.000305432389723137,-0.031154103577136993,-0.003512472379952669
1772725618786338300,3.06133837890625,0.0021380267571657896,-0.009162971749901772,-0.012675444595515728
1772725618795855000,3.070855224609375,-0.0021380267571657896,0.024434590712189674,-0.016340631991624832
1772725618805372000,3.080371826171875,-0.010690134018659592,0.043371398001909256,-0.014508038759231567
1772725618814888700,3.089888671875,-0.016187917441129684,0.034208428114652634,-0.007177661173045635
1772725618824405800,3.09940576171875,-0.016798781231045723,0.017104214057326317,0.0013744457392022014
1772725618833922600,3.108922607421875,-0.013744457624852657,0.002443459117785096,0.008704823441803455
1772725618843439600,3.118439697265625,-0.010079269297420979,-0.010995565913617611,0.011759147047996521
1772725618852956400,3.127956298828125,-0.005803215317428112,-0.020769402384757996,0.012370011769235134
1772725618862473200,3.13747314453125,0.0015271619195118546,-0.0256563201546669,0.008704823441803455
1772725618871990300,3.146990234375,0.012522728182375431,-0.023823726922273636,0.004428769461810589
1772725618881507000,3.156507080078125,0.02107483521103859,-0.01282816007733345,0.0019853105768561363
1772725618891024100,3.166024169921875,0.026572618633508682,0.0030543238390237093,0.005650499369949102
1772725618900541000,3.175541015625,0.023518294095993042,0.004886918235570192,0.01847865991294384
1772725618910057700,3.1850576171875,0.014966187067329884,-0.007330377586185932,0.03375028073787689
1772725618919574500,3.194574462890625,0.005803215317428112,-0.021991131827235222,0.04230238497257233
1772725618929091600,3.204091552734375,-0.0009162971982732415,-0.03298669680953026,0.04046979174017906
1772725618938608400,3.2136083984375,-0.008246674202382565,-0.040317077189683914,0.03252854943275452
1772725618948125400,3.22312548828125,-0.013133592903614044,-0.031154103577136993,0.01908952370285988
1772725618957642200,3.232642333984375,-0.014966187067329884,-0.007941242307424545,0.0032070400193333626
1772725618967159000,3.242158935546875,-0.014966187067329884,0.017104214057326317,-0.013897174037992954
1772725618976676000,3.251676025390625,-0.014966187067329884,0.02626718580722809,-0.024281874299049377
1772725618986193000,3.26119287109375,-0.013744457624852657,0.01649334840476513,-0.031001387163996696
1772725618995709700,3.270709716796875,-0.011300998739898205,0.011606430634856224,-0.03955349326133728
1772725619005226500,3.2802265625,-0.008857538923621178,0.01649334840476513,-0.04993819445371628
1772725619014743600,3.28974365234375,-0.010690134018659592,0.031154103577136993,-0.05482511222362518
1772725619024260400,3.29926025390625,-0.014966187067329884,0.037262752652168274,-0.051159925758838654
1772725619033777400,3.30877734375,-0.013133592903614044,0.031154103577136993,-0.04199695214629173
1772725619043294200,3.318294189453125,-0.007635809946805239,0.021380268037319183,-0.034666575491428375
1772725619052811000,3.32781103515625,-0.003359756199643016,0.01649334840476513,-0.02977965772151947
1772725619062328000,3.337328125,-0.005192350596189499,0.01649334840476513,-0.024281874299049377
1772725619071844900,3.346844970703125,-0.007635809946805239,0.014049889519810677,-0.015729768201708794
1772725619081362000,3.35636181640625,-0.008857538923621178,0.008552107028663158,-0.001679878099821508
1772725619090878700,3.365878662109375,-0.007024944759905338,0.003665188793092966,0.011148282326757908
1772725619100395500,3.3753955078125,-0.00946840364485979,0,0.01908952370285988
1772725619109912300,3.384912353515625,-0.016187917441129684,-0.008552107028663158,0.026419902220368385
1772725619119429400,3.394429443359375,-0.018631376326084137,-0.02932151034474373,0.03130681812763214
1772725619128946200,3.4039462890625,-0.013133592903614044,-0.047036588191986084,0.03130681812763214
1772725619138463200,3.413463134765625,-0.004581485874950886,-0.0513126403093338,0.026419902220368385
1772725619147980000,3.42297998046875,-0.0009162971982732415,-0.03787361457943916,0.017867794260382652
1772725619157496800,3.432496826171875,-0.006414080038666725,-0.02260199747979641,0.012370011769235134
1772725619167014000,3.442013916015625,-0.011911863461136818,-0.01282816007733345,0.006872228812426329
1772725619176530700,3.45153076171875,-0.012522728182375431,-0.0054977829568088055,-0.0010690133785828948
1772725619186047500,3.461047607421875,-0.010690134018659592,0.001221729558892548,-0.01206457894295454
1772725619195564500,3.470564453125,-0.008857538923621178,0.014049889519810677,-0.024892739951610565
1772725619205081300,3.480081298828125,-0.007635809946805239,0.033597562462091446,-0.034666575491428375
1772725619214598400,3.489598388671875,-0.003970621153712273,0.0409279391169548,-0.03588830679655075
1772725619224115200,3.499115234375,0.0015271619195118546,0.03176496922969818,-0.031001387163996696
1772725619233632000,3.508632080078125,0.003970621153712273,0.01893680728971958,-0.028557928279042244
1772725619243148800,3.518148681640625,0.0027488914784044027,0.006108647678047419,-0.027947064489126205
1772725619252665900,3.527665771484375,0.0015271619195118546,-0.011606430634856224,-0.027947064489126205
1772725619262182700,3.5371826171875,0.003970621153712273,-0.028099779039621353,-0.028557928279042244
1772725619271699700,3.54669970703125,0.008857538923621178,-0.021380268037319183,-0.027947064489126205
1772725619281216500,3.556216552734375,0.010690134018659592,-0.006108647678047419,-0.019394956529140472
1772725619290733300,3.5657333984375,0.010079269297420979,0.0030543238390237093,-0.004734201822429895
1772725619300250400,3.57525048828125,0.011300998739898205,0.002443459117785096,0.012980876490473747
1772725619309767200,3.58476708984375,0.011911863461136818,-0.007330377586185932,0.02764163166284561
1772725619319284000,3.594283935546875,0.011911863461136818,-0.017104214057326317,0.033139415085315704
1772725619328801000,3.603801025390625,0.007635809946805239,-0.018325943499803543,0.03436114266514778
1772725619338317800,3.61331787109375,0.0021380267571657896,-0.014049889519810677,0.02764163166284561
1772725619347834600,3.622834716796875,-0.0027488914784044027,0.001221729558892548,0.017256930470466614
1772725619357351700,3.6323515625,-0.005192350596189499,0.01588248461484909,0.004428769461810589
1772725619366868500,3.641868408203125,-0.0021380267571657896,0.01954767294228077,-0.007177661173045635
1772725619376385300,3.65138525390625,0.004581485874950886,0.007330377586185932,-0.01206457894295454
1772725619385902300,3.66090234375,0.015577051788568497,-0.006108647678047419,-0.01206457894295454
1772725619395419100,3.670419189453125,0.026572618633508682,-0.017104214057326317,-0.004734201822429895
1772725619404936200,3.679936279296875,0.028405211865901947,-0.03237583488225937,0.007483093533664942
1772725619414453000,3.689452880859375,0.021685699000954628,-0.040317077189683914,0.016035201027989388
1772725619423969800,3.6989697265625,0.015577051788568497,-0.029932374134659767,0.010537417605519295
1772725619433486600,3.708486572265625,0.008246674202382565,-0.009773836471140385,-0.004734201822429895
1772725619443003600,3.718003662109375,0.0015271619195118546,0.014660755172371864,-0.02367101050913334
1772725619452520400,3.7275205078125,-0.003359756199643016,0.03787361457943916,-0.03955349326133728
1772725619462037500,3.73703759765625,-0.008857538923621178,0.04520399495959282,-0.04505127668380737
1772725619471554300,3.74655419921875,-0.013133592903614044,0.043371398001909256,-0.04260781779885292
1772725619481071000,3.756071044921875,-0.01435532234609127,0.0360410213470459,-0.03527744114398956
1772725619490588200,3.765588134765625,-0.01435532234609127,0.026878049597144127,-0.024281874299049377
1772725619500105000,3.77510498046875,-0.010690134018659592,0.01588248461484909,-0.01206457894295454
1772725619509622000,3.7846220703125,-0.005192350596189499,0.0030543238390237093,0.0001527161948615685
1772725619519138800,3.794138916015625,0.0027488914784044027,-0.007330377586185932,0.009926552884280682
1772725619528655600,3.803655517578125,0.013133592903614044,-0.010384701192378998,0.011759147047996521
1772725619538172700,3.813172607421875,0.023518294095993042,0.006108647678047419,0.010537417605519295
1772725619547689500,3.822689453125,0.022907428443431854,0.01588248461484909,0.012980876490473747
1772725619557206300,3.832206298828125,0.018631376326084137,0,0.027030766010284424
1772725619566723000,3.84172314453125,0.014966187067329884,-0.029932374134659767,0.04046979174017906
1772725619576240000,3.851240234375,0.016187917441129684,-0.05192350596189499,0.04780016839504242
1772725619585757000,3.8607568359375,0.01435532234609127,-0.06352993845939636,0.04780016839504242
1772725619595274000,3.87027392578125,0.008246674202382565,-0.05864302068948746,0.0435241162776947
1772725619604790800,3.879790771484375,0.003359756199643016,-0.03543015569448471,0.03558287397027016
1772725619614307600,3.8893076171875,0.0021380267571657896,-0.01954767294228077,0.025809036567807198
1772725619623824600,3.89882470703125,0.0015271619195118546,-0.013439024798572063,0.0154243353754282
1772725619633341400,3.908341552734375,-0.0009162971982732415,-0.0030543238390237093,0.0032070400193333626
1772725619642858500,3.9178583984375,-0.006414080038666725,0.007941242307424545,-0.010842849500477314
1772725619652375300,3.927375244140625,-0.010690134018659592,0.020158538594841957,-0.02000582218170166
1772725619661892000,3.93689208984375,-0.012522728182375431,0.03543015569448471,-0.02367101050913334
1772725619671409000,3.946408935546875,-0.013133592903614044,0.04153880476951599,-0.02672533318400383
1772725619680926000,3.955926025390625,-0.013133592903614044,0.04214967042207718,-0.030390523374080658
1772725619690442800,3.96544287109375,-0.01435532234609127,0.04520399495959282,-0.04016435891389847
1772725619699959800,3.974959716796875,-0.018631376326084137,0.047036588191986084,-0.04566214233636856
1772725619709476600,3.9844765625,-0.02107483521103859,0.036651886999607086,-0.04260781779885292
1772725619718993400,3.993993408203125,-0.019242240116000175,0.01649334840476513,-0.03527744114398956
1772725619728510500,4.003510498046875,-0.016187917441129684,0.01588248461484909,-0.024892739951610565
1772725619738027300,4.01302734375,-0.01740964688360691,0.026878049597144127,-0.010842849500477314
1772725619747544000,4.0225439453125,-0.021685699000954628,0.030543239787220955,0.008093958720564842
1772725619757061000,4.03206103515625,-0.021685699000954628,0.021380268037319183,0.02458730712532997
1772725619766578000,4.041577880859375,-0.014966187067329884,-0.0054977829568088055,0.03558287397027016
1772725619776094700,4.0510947265625,-0.010690134018659592,-0.04459312930703163,0.04474584385752678
1772725619785611800,4.06061181640625,-0.00946840364485979,-0.07391463965177536,0.05329795181751251
1772725619795128600,4.070128662109375,-0.003970621153712273,-0.08491020649671555,0.05818486958742142
1772725619804645400,4.079645263671875,0.005803215317428112,-0.08002328872680664,0.05818486958742142
1772725619814162400,4.089162353515625,0.011911863461136818,-0.06108647957444191,0.052687086164951324
1772725619823679200,4.09867919921875,0.013744457624852657,-0.028099779039621353,0.0435241162776947
1772725619833196300,4.1081962890625,0.011300998739898205,0,0.030695954337716103
1772725619842713000,4.117713134765625,0.010079269297420979,0.014049889519810677,0.017256930470466614
1772725619852230000,4.12722998046875,0.00946840364485979,0.01954767294228077,-0.0010690133785828948
1772725619861747000,4.136746826171875,0.010079269297420979,0.020158538594841957,-0.018173227086663246
1772725619871263700,4.146263671875,0.010079269297420979,0.018325943499803543,-0.03649916872382164
1772725619880780500,4.155780517578125,0.007635809946805239,0.014660755172371864,-0.04627300798892975
1772725619890297600,4.165297607421875,0.008246674202382565,0.006719512399286032,-0.046883873641490936
1772725619899814400,4.174814453125,0.013133592903614044,-0.002443459117785096,-0.044440411031246185
1772725619909331200,4.184331298828125,0.018631376326084137,-0.006719512399286032,-0.043829549103975296
1772725619918848300,4.19384814453125,0.018631376326084137,-0.003665188793092966,-0.041386090219020844
1772725619928365000,4.203364990234375,0.011300998739898205,-0.004886918235570192,-0.03711003437638283
1772725619937881900,4.2128818359375,0.003359756199643016,-0.009773836471140385,-0.031612250953912735
1772725619947399000,4.22239892578125,-0.0021380267571657896,-0.014049889519810677,-0.02977965772151947
1772725619956915700,4.231915771484375,-0.007024944759905338,-0.009162971749901772,-0.02916879393160343
1772725619966432800,4.241432861328125,-0.012522728182375431,0.01954767294228077,-0.02916879393160343
1772725619975949600,4.250949462890625,-0.01802051067352295,0.04764745384454727,-0.027947064489126205
1772725619985466400,4.26046630859375,-0.0204639695584774,0.049480047076940536,-0.02000582218170166
1772725619994983200,4.269983154296875,-0.019242240116000175,0.027488915249705315,-0.010842849500477314
1772725620004500200,4.279500244140625,-0.01802051067352295,-0.006719512399286032,-0.00045814859913662076
1772725620014017000,4.28901708984375,-0.01802051067352295,-0.03909534588456154,0.0062613640911877155
1772725620023534000,4.2985341796875,-0.01435532234609127,-0.053145237267017365,0.011148282326757908
1772725620033051000,4.30805078125,-0.01435532234609127,-0.046425722539424896,0.01359174121171236
1772725620042567700,4.317567626953125,-0.015577051788568497,-0.017715077847242355,0.01359174121171236
1772725620052084700,4.327084716796875,-0.018631376326084137,0.006719512399286032,0.014202605932950974
1772725620061601500,4.3366015625,-0.0204639695584774,0.010995565913617611,0.016646064817905426
1772725620071118600,4.34611865234375,-0.0204639695584774,0.004276053514331579,0.017256930470466614
1772725620080635400,4.355635498046875,-0.01802051067352295,-0.006108647678047419,0.009926552884280682
1772725620090152200,4.365152099609375,-0.01802051067352295,-0.018325943499803543,-0.003512472379952669
1772725620099669000,4.3746689453125,-0.02107483521103859,-0.017715077847242355,-0.021838415414094925
1772725620109186000,4.38418603515625,-0.0204639695584774,-0.004886918235570192,-0.03711003437638283
1772725620118702800,4.393702880859375,-0.014966187067329884,0.01282816007733345,-0.04627300798892975
1772725620128220000,4.403219970703125,-0.008857538923621178,0.030543239787220955,-0.04627300798892975
1772725620137736700,4.41273681640625,-0.0021380267571657896,0.036651886999607086,-0.03527744114398956
1772725620147253500,4.42225341796875,0.0015271619195118546,0.024434590712189674,-0.018784092739224434
1772725620156770600,4.4317705078125,0.007635809946805239,0.01282816007733345,-0.005955931730568409
1772725620166287400,4.441287353515625,0.011300998739898205,0.009773836471140385,0.0001527161948615685
1772725620175804200,4.45080419921875,0.010690134018659592,0.001221729558892548,0.0019853105768561363
1772725620185321200,4.4603212890625,0.008857538923621178,-0.006719512399286032,0.0001527161948615685
1772725620194838000,4.469838134765625,0.010690134018659592,-0.008552107028663158,-0.004123337101191282
1772725620204355000,4.47935498046875,0.01435532234609127,-0.010995565913617611,-0.004734201822429895
1772725620213871900,4.488871826171875,0.01802051067352295,-0.011606430634856224,-0.004123337101191282
1772725620223388700,4.498388671875,0.016187917441129684,-0.008552107028663158,-0.0010690133785828948
1772725620232905500,4.507905517578125,0.011911863461136818,0.000610864779446274,0.0013744457392022014
1772725620242422500,4.517422607421875,0.004581485874950886,0.006108647678047419,0.0025961752980947495
1772725620251939300,4.526939208984375,-0.003970621153712273,0.0054977829568088055,-0.001679878099821508
1772725620261456400,4.536456298828125,-0.011911863461136818,0.006719512399286032,-0.012675444595515728
1772725620270973200,4.54597314453125,-0.013133592903614044,0.01588248461484909,-0.025503603741526604
1772725620280490000,4.555489990234375,-0.013744457624852657,0.021991131827235222,-0.03283398225903511
1772725620290007000,4.565007080078125,-0.010690134018659592,0.020158538594841957,-0.031001387163996696
1772725620299523800,4.57452392578125,-0.004581485874950886,0.012217295356094837,-0.0206166859716177
1772725620309040600,4.58404052734375,-0.000305432389723137,0.001832594396546483,-0.009621120058000088
1772725620318557700,4.5935576171875,0.0009162971982732415,0.002443459117785096,-0.004734201822429895
1772725620328074500,4.603074462890625,-0.000305432389723137,0.010995565913617611,-0.009621120058000088
1772725620337591300,4.61259130859375,-0.0027488914784044027,0.017715077847242355,-0.018784092739224434
1772725620347108400,4.6221083984375,-0.003970621153712273,0.01954767294228077,-0.031612250953912735
1772725620356625200,4.631625244140625,-0.0021380267571657896,0.02626718580722809,-0.04260781779885292
1772725620366142000,4.641141845703125,-0.0021380267571657896,0.040317077189683914,-0.04932733252644539
1772725620375659000,4.650658935546875,-0.0015271619195118546,0.05436696484684944,-0.04932733252644539
1772725620385175800,4.66017578125,0.000305432389723137,0.06291907280683517,-0.041386090219020844
1772725620394692900,4.66969287109375,0.005803215317428112,0.05803215503692627,-0.031612250953912735
1772725620404209700,4.679209716796875,0.014966187067329884,0.029932374134659767,-0.018173227086663246
1772725620413726500,4.6887265625,0.025961752980947495,0.001832594396546483,-0.005955931730568409
1772725620423243300,4.6982431640625,0.03451386094093323,-0.011606430634856224,0.004428769461810589
1772725620432760300,4.70776025390625,0.03695731982588768,-0.024434590712189674,0.017867794260382652
1772725620442277000,4.717277099609375,0.03695731982588768,-0.02871064469218254,0.028863361105322838
1772725620451794200,4.726794189453125,0.03756818547844887,-0.02260199747979641,0.03497200831770897
1772725620461311000,4.73631103515625,0.03390299528837204,-0.014049889519810677,0.039858926087617874
1772725620470827800,4.745827880859375,0.02779434807598591,-0.01282816007733345,0.045967575162649155
1772725620480344800,4.7553447265625,0.025961752980947495,-0.013439024798572063,0.049021899700164795
1772725620489861600,4.764861572265625,0.02412915788590908,-0.01588248461484909,0.045967575162649155
1772725620499378700,4.774378662109375,0.02107483521103859,-0.012217295356094837,0.03375028073787689
1772725620508895500,4.7838955078125,0.01435532234609127,0.000610864779446274,0.01359174121171236
1772725620518412300,4.793412353515625,0.006414080038666725,0.014049889519810677,-0.0102319847792387
1772725620527929300,4.802929443359375,0.000305432389723137,0.03298669680953026,-0.034666575491428375
1772725620537446100,4.812446044921875,-0.003970621153712273,0.05070177838206291,-0.051159925758838654
1772725620546963000,4.821962890625,-0.006414080038666725,0.05070177838206291,-0.05543597787618637
1772725620556479700,4.831479736328125,-0.0021380267571657896,0.033597562462091446,-0.04627300798892975
1772725620565996800,4.840996826171875,0.008857538923621178,0.01282816007733345,-0.02977965772151947
1772725620575513600,4.850513671875,0.02107483521103859,-0.004276053514331579,-0.012675444595515728
1772725620585030700,4.86003076171875,0.02779434807598591,-0.012217295356094837,-0.002901607658714056
1772725620594547500,4.86954736328125,0.024740023538470268,-0.010384701192378998,0.0007635809597559273
1772725620604064300,4.879064208984375,0.013133592903614044,0.000610864779446274,0.0007635809597559273
1772725620613581300,4.888581298828125,0.0021380267571657896,0.009162971749901772,-0.0010690133785828948
1772725620623098000,4.89809814453125,-0.007024944759905338,0.009773836471140385,-0.001679878099821508
1772725620632615200,4.907615234375,-0.011300998739898205,0.004886918235570192,-0.001679878099821508
1772725620642132000,4.917132080078125,-0.010690134018659592,0.010995565913617611,-0.002901607658714056
1772725620651648800,4.926648681640625,-0.004581485874950886,0.03176496922969818,-0.003512472379952669
1772725620661165600,4.93616552734375,-0.0015271619195118546,0.040317077189683914,0.0025961752980947495
1772725620670682600,4.9456826171875,0.0015271619195118546,0.024434590712189674,0.012980876490473747
1772725620680199400,4.955199462890625,0.004581485874950886,-0.003665188793092966,0.02214384824037552
1772725620689716500,4.964716552734375,0.006414080038666725,-0.027488915249705315,0.026419902220368385
1772725620699233300,4.9742333984375,0.003970621153712273,-0.03787361457943916,0.027030766010284424
1772725620708750000,4.98375,-0.0015271619195118546,-0.033597562462091446,0.025809036567807198
1772725620718267100,4.99326708984375,-0.0021380267571657896,-0.014660755172371864,0.02458730712532997
1772725620727784000,5.002783935546875,-0.0009162971982732415,0.003665188793092966,0.023365577682852745
1772725620737300700,5.01230078125,-0.0015271619195118546,0.010995565913617611,0.02153298258781433
1772725620746817800,5.02181787109375,-0.004581485874950886,0.009162971749901772,0.012370011769235134
1772725620756334600,5.03133447265625,-0.008246674202382565,0.004886918235570192,0.0001527161948615685
1772725620765851400,5.040851318359375,-0.00946840364485979,0.011606430634856224,-0.018173227086663246
1772725620775368400,5.050368408203125,-0.011300998739898205,0.024434590712189674,-0.03283398225903511
1772725620784885200,5.05988525390625,-0.014966187067329884,0.03237583488225937,-0.03711003437638283
1772725620794402000,5.069402099609375,-0.016187917441129684,0.037262752652168274,-0.0334448479115963
1772725620803919000,5.078919189453125,-0.015577051788568497,0.033597562462091446,-0.02367101050913334
1772725620813436000,5.088435791015625,-0.014966187067329884,0.018325943499803543,-0.014508038759231567
1772725620822953000,5.097952880859375,-0.010079269297420979,0.006108647678047419,-0.009621120058000088
1772725620832469800,5.1074697265625,-0.0027488914784044027,0.007330377586185932,-0.010842849500477314
1772725620841986600,5.116986572265625,0.005192350596189499,0.009162971749901772,-0.010842849500477314
1772725620851503600,5.126503662109375,0.011911863461136818,0.004276053514331579,-0.008399390615522861
1772725620861020400,5.1360205078125,0.01740964688360691,0.0030543238390237093,-0.003512472379952669
1772725620870537200,5.145537109375,0.021685699000954628,0.002443459117785096,0.0025961752980947495
1772725620880054300,5.15505419921875,0.023518294095993042,0.002443459117785096,0.006872228812426329
1772725620889571000,5.164571044921875,0.02107483521103859,0.002443459117785096,0.006872228812426329
1772725620899088000,5.174087890625,0.01435532234609127,-0.001832594396546483,0.007483093533664942
1772725620908605000,5.18360498046875,0.005803215317428112,-0.007330377586185932,0.0062613640911877155
1772725620918121700,5.193121826171875,-0.0009162971982732415,-0.006108647678047419,0.006872228812426329
1772725620927638800,5.202638671875,-0.003359756199643016,0.004276053514331579,0.007483093533664942
1772725620937155600,5.212155517578125,-0.004581485874950886,0.014660755172371864,0.009926552884280682
1772725620946672400,5.22167236328125,-0.003359756199643016,0.009773836471140385,0.0154243353754282
1772725620956189400,5.231189453125,-0.0009162971982732415,-0.0054977829568088055,0.01847865991294384
1772725620965706200,5.240706298828125,0.0027488914784044027,-0.013439024798572063,0.016035201027989388
1772725620975223000,5.25022314453125,0.0015271619195118546,-0.012217295356094837,0.008093958720564842
1772725620984740000,5.259739990234375,-0.00946840364485979,-0.007330377586185932,0.0032070400193333626
1772725620994257000,5.2692568359375,-0.022907428443431854,-0.006108647678047419,0.0013744457392022014
1772725621003773700,5.278773681640625,-0.032070402055978775,-0.010995565913617611,-0.00045814859913662076
1772725621013290800,5.288290771484375,-0.035735588520765305,-0.009773836471140385,-0.004123337101191282
1772725621022807600,5.2978076171875,-0.03634645417332649,-0.0030543238390237093,-0.009621120058000088
1772725621032324400,5.307324462890625,-0.03695731982588768,0.009773836471140385,-0.014508038759231567
1772725621041841400,5.31684130859375,-0.03329212963581085,0.02626718580722809,-0.018784092739224434
1772725621051358200,5.326358154296875,-0.029016077518463135,0.0360410213470459,-0.018784092739224434
1772725621060875300,5.335875244140625,-0.025961752980947495,0.028099779039621353,-0.013286309316754341
1772725621070392000,5.34539208984375,-0.023518294095993042,-0.001832594396546483,-0.005345067009329796
1772725621079908900,5.354908935546875,-0.01802051067352295,-0.0360410213470459,0.0025961752980947495
1772725621089425700,5.36442578125,-0.008246674202382565,-0.05497783049941063,0.008704823441803455
1772725621098942700,5.373942626953125,0.000305432389723137,-0.05742128938436508,0.016646064817905426
1772725621108459500,5.38345947265625,0.005192350596189499,-0.043982263654470444,0.030085090547800064
1772725621117976600,5.3929765625,0.00946840364485979,-0.0256563201546669,0.04230238497257233
1772725621127493400,5.402493408203125,0.008857538923621178,-0.010384701192378998,0.049632761627435684
1772725621137010200,5.41201025390625,0.006414080038666725,-0.003665188793092966,0.04841103404760361
1772725621146527200,5.42152734375,0.005192350596189499,0.002443459117785096,0.036193739622831345
1772725621156044000,5.4310439453125,0.0009162971982732415,0.006108647678047419,0.019700389355421066
1772725621165561000,5.44056103515625,-0.0027488914784044027,-0.001832594396546483,0.005039634648710489
1772725621175078000,5.450077880859375,-0.005192350596189499,-0.009162971749901772,-0.005955931730568409
1772725621184594700,5.4595947265625,-0.005192350596189499,-0.010995565913617611,-0.008399390615522861
1772725621194111500,5.469111572265625,-0.0027488914784044027,-0.0054977829568088055,-0.002901607658714056
1772725621203628500,5.478628662109375,-0.0021380267571657896,0.007330377586185932,0.0038179049734026194
1772725621213145300,5.488145263671875,-0.004581485874950886,0.026878049597144127,0.014813470654189587
1772725621222662100,5.497662109375,-0.008246674202382565,0.036651886999607086,0.02214384824037552
1772725621232179200,5.50717919921875,-0.011300998739898205,0.025045456364750862,0.02825249545276165
1772725621241696000,5.516696044921875,-0.014966187067329884,-0.0030543238390237093,0.029474224895238876
1772725621251213000,5.526213134765625,-0.01740964688360691,-0.031154103577136993,0.027030766010284424
1772725621260729900,5.535729736328125,-0.018631376326084137,-0.043371398001909256,0.022754713892936707
1772725621270246700,5.54524658203125,-0.015577051788568497,-0.03909534588456154,0.016035201027989388
1772725621279763700,5.554763671875,-0.008246674202382565,-0.0256563201546669,0.008093958720564842
1772725621289280500,5.564280517578125,-0.000305432389723137,-0.014660755172371864,-0.0010690133785828948
1772725621298797600,5.573797607421875,0.0015271619195118546,0.001221729558892548,-0.010842849500477314
1772725621308314400,5.583314453125,0.000305432389723137,0.02626718580722809,-0.01695149764418602
1772725621317831200,5.5928310546875,-0.003359756199643016,0.047036588191986084,-0.018173227086663246
1772725621327348000,5.602347900390625,-0.008857538923621178,0.05497783049941063,-0.014508038759231567
1772725621336865000,5.611864990234375,-0.011300998739898205,0.05803215503692627,-0.013286309316754341
1772725621346381800,5.6213818359375,-0.012522728182375431,0.04764745384454727,-0.014508038759231567
1772725621355899000,5.63089892578125,-0.013744457624852657,0.023212861269712448,-0.013897174037992954
1772725621365415700,5.640415771484375,-0.011300998739898205,-0.003665188793092966,-0.009621120058000088
1772725621374932500,5.649932373046875,0.000305432389723137,-0.023823726922273636,-0.005345067009329796
1772725621384449500,5.659449462890625,0.013744457624852657,-0.030543239787220955,-0.001679878099821508
1772725621393966300,5.66896630859375,0.022296564653515816,-0.021380268037319183,-0.0010690133785828948
1772725621403483100,5.678483154296875,0.021685699000954628,-0.0030543238390237093,-0.007788525894284248
1772725621413000200,5.688000244140625,0.016187917441129684,0.006108647678047419,-0.018173227086663246
1772725621422517000,5.69751708984375,0.003970621153712273,0.002443459117785096,-0.027947064489126205
1772725621432033800,5.70703369140625,-0.004581485874950886,0.003665188793092966,-0.03588830679655075
1772725621441550800,5.71655078125,-0.008857538923621178,0.009162971749901772,-0.04016435891389847
1772725621451067600,5.726067626953125,-0.011300998739898205,0.01954767294228077,-0.03588830679655075
1772725621460584400,5.73558447265625,-0.00946840364485979,0.029932374134659767,-0.021838415414094925
1772725621470101500,5.7451015625,-0.005803215317428112,0.031154103577136993,-0.007788525894284248
1772725621479618300,5.754618408203125,0.0027488914784044027,0.020769402384757996,0.0019853105768561363
1772725621489135400,5.76413525390625,0.012522728182375431,-0.001221729558892548,0.005650499369949102
1772725621498652200,5.773652099609375,0.01802051067352295,-0.030543239787220955,0.005039634648710489
1772725621508169000,5.7831689453125,0.018631376326084137,-0.04764745384454727,-0.0010690133785828948
1772725621517685800,5.792685791015625,0.019242240116000175,-0.04153880476951599,-0.012675444595515728
1772725621527202800,5.802202880859375,0.01435532234609127,-0.012217295356094837,-0.021838415414094925
1772725621536719600,5.8117197265625,0.005192350596189499,0.014660755172371864,-0.024892739951610565
1772725621546236700,5.821236572265625,-0.003970621153712273,0.027488915249705315,-0.024892739951610565
1772725621555753500,5.83075341796875,-0.007635809946805239,0.03298669680953026,-0.02672533318400383
1772725621565270300,5.840270263671875,-0.011300998739898205,0.036651886999607086,-0.034666575491428375
1772725621574787300,5.849787353515625,-0.01740964688360691,0.03481929376721382,-0.04321868345141411
1772725621584304000,5.85930419921875,-0.022296564653515816,0.024434590712189674,-0.046883873641490936
1772725621593821200,5.8688212890625,-0.02107483521103859,0.01282816007733345,-0.03894263133406639
1772725621603338000,5.878337890625,-0.013744457624852657,0.002443459117785096,-0.02367101050913334
1772725621612854800,5.887854736328125,-0.008857538923621178,-0.009162971749901772,-0.001679878099821508
1772725621622371800,5.897371826171875,-0.007635809946805239,-0.021380268037319183,0.017256930470466614
1772725621631888600,5.906888671875,-0.011300998739898205,-0.034208428114652634,0.030695954337716103
1772725621641405400,5.916405517578125,-0.013744457624852657,-0.046425722539424896,0.03497200831770897
1772725621650922500,5.925922607421875,-0.013133592903614044,-0.043982263654470444,0.02764163166284561
1772725621660439300,5.935439208984375,-0.013744457624852657,-0.02260199747979641,0.0154243353754282
1772725621669956000,5.9449560546875,-0.016798781231045723,-0.0030543238390237093,0.004428769461810589
1772725621679473200,5.95447314453125,-0.019242240116000175,0.01282816007733345,-0.003512472379952669
1772725621688990000,5.963989990234375,-0.01740964688360691,0.024434590712189674,-0.005955931730568409
1772725621698506800,5.9735068359375,-0.011300998739898205,0.024434590712189674,-0.001679878099821508
1772725621708023800,5.98302392578125,-0.003359756199643016,0.009162971749901772,0.0062613640911877155
1772725621717540600,5.99254052734375,0.005192350596189499,0.000610864779446274,0.009926552884280682
1772725621727057700,6.0020576171875,0.011300998739898205,0.0030543238390237093,0.012370011769235134
1772725621736574500,6.011574462890625,0.013744457624852657,-0.004886918235570192,0.0154243353754282
1772725621746091300,6.02109130859375,0.015577051788568497,-0.01954767294228077,0.02153298258781433
1772725621755608000,6.030608154296875,0.018631376326084137,-0.036651886999607086,0.023976443335413933
1772725621765125000,6.040125,0.021685699000954628,-0.050090912729501724,0.02458730712532997
1772725621774642000,6.049641845703125,0.0204639695584774,-0.04886918142437935,0.019700389355421066
1772725621784159000,6.059158935546875,0.019853105768561363,-0.03543015569448471,0.012370011769235134
1772725621793675800,6.06867578125,0.019242240116000175,-0.01893680728971958,0.0032070400193333626
1772725621803192600,6.078192626953125,0.022907428443431854,-0.003665188793092966,-0.009621120058000088
1772725621812709600,6.087709716796875,0.022907428443431854,0.017104214057326317,-0.024892739951610565
1772725621822226400,6.097226318359375,0.016187917441129684,0.03176496922969818,-0.03588830679655075
1772725621831743500,6.106743408203125,0.003970621153712273,0.031154103577136993,-0.03894263133406639
1772725621841260300,6.11626025390625,-0.0021380267571657896,0.029932374134659767,-0.04016435891389847
1772725621850777000,6.125777099609375,-0.003359756199643016,0.03176496922969818,-0.03711003437638283
1772725621860294000,6.1352939453125,-0.0015271619195118546,0.013439024798572063,-0.02916879393160343
1772725621869811000,6.14481103515625,0.003359756199643016,-0.010384701192378998,-0.01695149764418602
1772725621879327700,6.15432763671875,0.011300998739898205,-0.02626718580722809,-0.007177661173045635
1772725621888844800,6.1638447265625,0.0204639695584774,-0.03237583488225937,-0.004123337101191282
1772725621898361600,6.173361572265625,0.0204639695584774,-0.01954767294228077,-0.004734201822429895
1772725621907878400,6.18287841796875,0.013133592903614044,0.006108647678047419,-0.005955931730568409
1772725621917395200,6.192395263671875,0.0009162971982732415,0.025045456364750862,-0.003512472379952669
1772725621926912300,6.201912353515625,-0.007635809946805239,0.028099779039621353,0.0019853105768561363
1772725621936429000,6.211428955078125,-0.011300998739898205,0.020158538594841957,0.007483093533664942
1772725621945946000,6.220946044921875,-0.014966187067329884,0.003665188793092966,0.014202605932950974
1772725621955463000,6.230462890625,-0.015577051788568497,-0.012217295356094837,0.02153298258781433
1772725621964980000,6.23997998046875,-0.011911863461136818,-0.01588248461484909,0.026419902220368385
1772725621974496800,6.249496826171875,-0.008246674202382565,-0.000610864779446274,0.02764163166284561
1772725621984013600,6.259013671875,-0.004581485874950886,0.015271619893610477,0.030695954337716103
1772725621993530400,6.2685302734375,-0.004581485874950886,0.01282816007733345,0.03497200831770897
1772725622003047400,6.27804736328125,-0.0009162971982732415,0,0.03191768378019333
1772725622012564200,6.287564208984375,0.007024944759905338,-0.014049889519810677,0.017867794260382652
1772725622022081300,6.297081298828125,0.010079269297420979,-0.01588248461484909,-0.0010690133785828948
1772725622031598000,6.30659814453125,0.00946840364485979,-0.004276053514331579,-0.01695149764418602
1772725622041115000,6.316114990234375,0.006414080038666725,0.006108647678047419,-0.02672533318400383
1772725622050632000,6.3256318359375,0.0009162971982732415,0.0030543238390237093,-0.028557928279042244
1772725622060148700,6.335148681640625,-0.0027488914784044027,-0.003665188793092966,-0.02916879393160343
1772725622069665800,6.344665771484375,-0.007635809946805239,-0.006108647678047419,-0.028557928279042244
1772725622079182600,6.3541826171875,-0.011300998739898205,-0.001221729558892548,-0.0334448479115963
1772725622088699400,6.363699462890625,-0.013133592903614044,0.007330377586185932,-0.03955349326133728
1772725622098216200,6.37321630859375,-0.011911863461136818,0.01893680728971958,-0.04566214233636856
1772725622107733200,6.382733154296875,-0.010079269297420979,0.02871064469218254,-0.04505127668380737
1772725622117250000,6.39225,-0.008857538923621178,0.026878049597144127,-0.037720900028944016
1772725622126766800,6.401766845703125,-0.003970621153712273,0.018325943499803543,-0.028557928279042244
1772725622136284000,6.411283935546875,0.0021380267571657896,0.004886918235570192,-0.021227551624178886
1772725622145800700,6.42080078125,0.005803215317428112,-0.01282816007733345,-0.015729768201708794
1772725622155317800,6.43031787109375,0.008857538923621178,-0.02626718580722809,-0.009010255336761475
1772725622164834600,6.43983447265625,0.008857538923621178,-0.026878049597144127,-0.0010690133785828948
1772725622174351400,6.449351318359375,0.004581485874950886,-0.0256563201546669,0.009315688163042068
1772725622183868200,6.4588681640625,0.0009162971982732415,-0.02871064469218254,0.02214384824037552
1772725622193385200,6.46838525390625,0.0015271619195118546,-0.030543239787220955,0.03375028073787689
1772725622202902000,6.477902099609375,0.0015271619195118546,-0.031154103577136993,0.03802633285522461
1772725622212419000,6.487419189453125,0.000305432389723137,-0.025045456364750862,0.03558287397027016
1772725622221935900,6.496935791015625,-0.003970621153712273,-0.020769402384757996,0.03252854943275452
1772725622231452700,6.50645263671875,-0.008246674202382565,-0.013439024798572063,0.026419902220368385
1772725622240969700,6.5159697265625,-0.012522728182375431,0,0.017867794260382652
1772725622250486500,6.525486572265625,-0.01435532234609127,0.006108647678047419,0.009926552884280682
1772725622260003600,6.535003662109375,-0.013133592903614044,-0.001832594396546483,0.0013744457392022014
1772725622269520400,6.544520263671875,-0.008857538923621178,-0.013439024798572063,-0.0102319847792387
1772725622279037200,6.554037109375,-0.0027488914784044027,-0.01954767294228077,-0.02367101050913334
1772725622288554200,6.56355419921875,-0.0009162971982732415,-0.020158538594841957,-0.03405570983886719
1772725622298071000,6.573071044921875,-0.003970621153712273,-0.010995565913617611,-0.040775224566459656
1772725622307587800,6.582587890625,-0.007635809946805239,0.0054977829568088055,-0.04016435891389847
1772725622317105000,6.59210498046875,-0.005803215317428112,0.01954767294228077,-0.037720900028944016
1772725622326635000,6.601635009765625,-0.000305432389723137,0.026878049597144127,-0.03527744114398956
1772725622336138500,6.611138427734375,0.005192350596189499,0.024434590712189674,-0.0334448479115963
1772725622345655600,6.620655517578125,0.003359756199643016,0.018325943499803543,-0.02977965772151947
1772725622355172400,6.63017236328125,-0.0021380267571657896,0.013439024798572063,-0.025503603741526604
1772725622364689200,6.639689208984375,-0.007635809946805239,0.014049889519810677,-0.02000582218170166
1772725622374206200,6.649206298828125,-0.008246674202382565,0.020769402384757996,-0.016340631991624832
1772725622383723000,6.658722900390625,-0.007024944759905338,0.023212861269712448,-0.013286309316754341
1772725622393240000,6.668239990234375,-0.007024944759905338,0.01954767294228077,-0.009621120058000088
1772725622402756900,6.6777568359375,-0.007024944759905338,0.012217295356094837,-0.002290742937475443
1772725622412273700,6.687273681640625,-0.006414080038666725,-0.001832594396546483,0.009315688163042068
1772725622421790500,6.69679052734375,-0.005192350596189499,-0.017104214057326317,0.020922118797898293
1772725622431307500,6.7063076171875,-0.005803215317428112,-0.033597562462091446,0.02825249545276165
1772725622440824300,6.71582421875,-0.005803215317428112,-0.043982263654470444,0.030085090547800064
1772725622450341400,6.72534130859375,-0.005803215317428112,-0.043371398001909256,0.023365577682852745
1772725622459858200,6.734858154296875,-0.003359756199643016,-0.03298669680953026,0.010537417605519295
1772725622469375000,6.744375,-0.0015271619195118546,-0.015271619893610477,-0.004123337101191282
1772725622478892000,6.75389208984375,0.000305432389723137,0.006108647678047419,-0.016340631991624832
1772725622488408800,6.763408935546875,0.004581485874950886,0.028099779039621353,-0.027336198836565018
1772725622497926000,6.77292578125,0.008857538923621178,0.04276053607463837,-0.02977965772151947
1772725622507442700,6.782442626953125,0.010079269297420979,0.04214967042207718,-0.024892739951610565
1772725622516959500,6.79195947265625,0.013133592903614044,0.037262752652168274,-0.018784092739224434
1772725622526476300,6.801476318359375,0.01802051067352295,0.024434590712189674,-0.01511890348047018
1772725622535993300,6.810993408203125,0.01802051067352295,0.006719512399286032,-0.010842849500477314
1772725622545510100,6.82051025390625,0.014966187067329884,-0.012217295356094837,-0.004123337101191282
1772725622555027200,6.830027099609375,0.013744457624852657,-0.026878049597144127,0.0025961752980947495
1772725622564544000,6.8395439453125,0.015577051788568497,-0.03481929376721382,0.009926552884280682
1772725622574060800,6.849060791015625,0.016798781231045723,-0.02932151034474373,0.012370011769235134
1772725622583577900,6.858577880859375,0.019242240116000175,-0.014049889519810677,0.007483093533664942
1772725622593094700,6.8680947265625,0.014966187067329884,0.003665188793092966,0.0032070400193333626
1772725622602611500,6.877611572265625,0.00946840364485979,0.013439024798572063,-0.001679878099821508
1772725622612128500,6.88712841796875,0.004581485874950886,0.012217295356094837,-0.00045814859913662076
1772725622621645300,6.896645263671875,0.004581485874950886,0.01282816007733345,0.005650499369949102
1772725622631162000,6.906162109375,0.007635809946805239,0.01282816007733345,0.014202605932950974
1772725622640679200,6.91567919921875,0.011300998739898205,0.009162971749901772,0.02519817277789116
1772725622650196000,6.925196044921875,0.010690134018659592,-0.000610864779446274,0.03191768378019333
1772725622659712800,6.934712646484375,0.007024944759905338,-0.012217295356094837,0.036193739622831345
1772725622669229800,6.944229736328125,0.004581485874950886,-0.02260199747979641,0.03558287397027016
1772725622678746600,6.95374658203125,0.004581485874950886,-0.0256563201546669,0.029474224895238876
1772725622688263700,6.963263671875,0.00946840364485979,-0.008552107028663158,0.020311253145337105
1772725622697780500,6.972780517578125,0.010079269297420979,0.0054977829568088055,0.012370011769235134
1772725622707297300,6.98229736328125,0.00946840364485979,0.004276053514331579,0.012370011769235134
1772725622716814300,6.991814453125,0.010079269297420979,-0.002443459117785096,0.012980876490473747
1772725622726331100,7.0013310546875,0.011911863461136818,-0.014049889519810677,0.011148282326757908
1772725622735848200,7.01084814453125,0.012522728182375431,-0.024434590712189674,0.0038179049734026194
1772725622745365000,7.020364990234375,0.011911863461136818,-0.030543239787220955,-0.008399390615522861
1772725622754881800,7.0298818359375,0.007024944759905338,-0.027488915249705315,-0.021227551624178886
1772725622764398600,7.039398681640625,0.0009162971982732415,-0.017104214057326317,-0.031612250953912735
1772725622773915600,7.04891552734375,-0.005803215317428112,-0.002443459117785096,-0.03894263133406639
1772725622783432400,7.058432373046875,-0.008246674202382565,0.017104214057326317,-0.03955349326133728
1772725622792949500,7.067949462890625,-0.013133592903614044,0.03237583488225937,-0.03283398225903511
1772725622802466300,7.07746630859375,-0.01435532234609127,0.033597562462091446,-0.024892739951610565
1772725622811983000,7.086983154296875,-0.008857538923621178,0.020158538594841957,-0.01695149764418602
1772725622821500200,7.096500244140625,-0.0027488914784044027,0.000610864779446274,-0.013897174037992954
1772725622831017000,7.106016845703125,0.0021380267571657896,-0.01282816007733345,-0.011453714221715927
1772725622840533800,7.11553369140625,0.006414080038666725,-0.024434590712189674,-0.005955931730568409
1772725622850050800,7.12505078125,0.00946840364485979,-0.03481929376721382,0.005650499369949102
1772725622859567600,7.134567626953125,0.011911863461136818,-0.04276053607463837,0.017867794260382652
1772725622869084400,7.14408447265625,0.014966187067329884,-0.0409279391169548,0.027030766010284424
1772725622878601500,7.1536015625,0.016798781231045723,-0.03298669680953026,0.03130681812763214
1772725622888118300,7.1631181640625,0.011300998739898205,-0.021991131827235222,0.03191768378019333
1772725622897635000,7.172635009765625,0.0009162971982732415,-0.01954767294228077,0.03375028073787689
1772725622907152100,7.182152099609375,-0.003970621153712273,-0.030543239787220955,0.03252854943275452
1772725622916669000,7.1916689453125,-0.006414080038666725,-0.037262752652168274,0.027030766010284424
1772725622926186000,7.20118603515625,-0.007024944759905338,-0.03237583488225937,0.019700389355421066
1772725622935702800,7.210702880859375,-0.008857538923621178,-0.021380268037319183,0.014813470654189587
1772725622945219600,7.220219482421875,-0.008857538923621178,-0.007330377586185932,0.009926552884280682
1772725622954736400,7.229736328125,-0.005803215317428112,0,0.004428769461810589
1772725622964253400,7.23925341796875,-0.0021380267571657896,0.0054977829568088055,-0.005345067009329796
1772725622973770200,7.248770263671875,0.0027488914784044027,0.009162971749901772,-0.017562363296747208
1772725622983287300,7.258287353515625,0.003359756199643016,0.013439024798572063,-0.027947064489126205
1772725622992804000,7.26780419921875,0.003359756199643016,0.010384701192378998,-0.03283398225903511
1772725623002321000,7.27732080078125,0.005803215317428112,0.004276053514331579,-0.03222311660647392
1772725623011838000,7.286837890625,0.008246674202382565,0.001221729558892548,-0.031001387163996696
1772725623021354800,7.296354736328125,0.008246674202382565,-0.000610864779446274,-0.028557928279042244
1772725623040388600,7.315388671875,0.007024944759905338,-0.014049889519810677,-0.027947064489126205
1772725623049905400,7.324905517578125,0.010079269297420979,-0.014660755172371864,-0.03405570983886719
1772725623059422500,7.33442236328125,0.010690134018659592,-0.011606430634856224,-0.03894263133406639
1772725623068939300,7.343939208984375,0.00946840364485979,-0.0030543238390237093,-0.044440411031246185
1772725623078456000,7.3534560546875,0.005192350596189499,0.012217295356094837,-0.04321868345141411
1772725623087973000,7.36297314453125,0.003970621153712273,0.031154103577136993,-0.03405570983886719
1772725623097490000,7.372489990234375,0.0027488914784044027,0.03237583488225937,-0.013897174037992954
1772725623107006700,7.3820068359375,0.005803215317428112,0.01588248461484909,0.007483093533664942
1772725623116523800,7.391523681640625,0.008857538923621178,-0.002443459117785096,0.02214384824037552
1772725623126040600,7.40104052734375,0.007024944759905338,-0.01588248461484909,0.027030766010284424
1772725623135557400,7.410557373046875,0.0015271619195118546,-0.025045456364750862,0.023365577682852745
1772725623145074400,7.420074462890625,-0.003359756199643016,-0.029932374134659767,0.014202605932950974
1772725623154591200,7.42959130859375,-0.005192350596189499,-0.02871064469218254,0.004428769461810589
1772725623164108300,7.4391083984375,-0.003970621153712273,-0.021380268037319183,0.0001527161948615685
1772725623173625000,7.448625,-0.0027488914784044027,-0.018325943499803543,0.0062613640911877155
1772725623183142000,7.458141845703125,-0.0009162971982732415,-0.020158538594841957,0.0154243353754282
1772725623192658700,7.46765869140625,0.003359756199643016,-0.014660755172371864,0.019700389355421066
1772725623202175700,7.47717578125,0.006414080038666725,-0.010384701192378998,0.01847865991294384
1772725623211692500,7.486692626953125,0.007635809946805239,-0.014049889519810677,0.012980876490473747
1772725623221209600,7.496209716796875,0.008857538923621178,-0.0256563201546669,0.0032070400193333626
1772725623230726400,7.505726318359375,0.00946840364485979,-0.0256563201546669,-0.009010255336761475
1772725623240243200,7.5152431640625,0.008857538923621178,-0.015271619893610477,-0.018784092739224434
1772725623249760300,7.52476025390625,0.006414080038666725,-0.009162971749901772,-0.0206166859716177
1772725623259277000,7.534277099609375,0.007024944759905338,-0.013439024798572063,-0.015729768201708794
1772725623268794000,7.543794189453125,0.011911863461136818,-0.010995565913617611,-0.0102319847792387
1772725623278311000,7.553310791015625,0.01435532234609127,-0.009773836471140385,-0.002901607658714056
1772725623287827700,7.56282763671875,0.010690134018659592,-0.0054977829568088055,0.0025961752980947495
1772725623297344500,7.572344482421875,0.005803215317428112,0.001221729558892548,0.005650499369949102
1772725623306861600,7.581861572265625,0.003970621153712273,-0.003665188793092966,0.0038179049734026194
1772725623316378400,7.59137841796875,0.003970621153712273,-0.02260199747979641,-0.002290742937475443
1772725623325895400,7.6008955078125,0.0027488914784044027,-0.039706211537122726,-0.010842849500477314
1772725623335412200,7.610412109375,0.000305432389723137,-0.03909534588456154,-0.019394956529140472
1772725623344929000,7.619928955078125,-0.000305432389723137,-0.029932374134659767,-0.021838415414094925
1772725623354446000,7.629446044921875,0.0021380267571657896,-0.01893680728971958,-0.019394956529140472
1772725623363963000,7.638962890625,0.005192350596189499,-0.004276053514331579,-0.01206457894295454
1772725623373479700,7.648479736328125,0.000305432389723137,0.006719512399286032,-0.0010690133785828948
1772725623382996700,7.657996826171875,-0.004581485874950886,0.009162971749901772,0.006872228812426329
1772725623392513500,7.667513427734375,-0.005803215317428112,0.013439024798572063,0.008093958720564842
1772725623402030600,7.677030517578125,-0.006414080038666725,0.020158538594841957,0.0038179049734026194
1772725623411547400,7.68654736328125,0.0009162971982732415,0.013439024798572063,0.0025961752980947495
1772725623421064200,7.696064208984375,-0.0027488914784044027,-0.0030543238390237093,0.006872228812426329
1772725623430581000,7.7055810546875,0.006414080038666725,-0.02932151034474373,0.008704823441803455
1772725623440098000,7.71509814453125,0.004581485874950886,-0.05192350596189499,0.008704823441803455
1772725623449614800,7.72461474609375,0.007635809946805239,-0.06230820715427399,0.0013744457392022014
1772725623459132000,7.7341318359375,0.003359756199643016,-0.04581485688686371,-0.007177661173045635
1772725623468648700,7.743648681640625,0.0015271619195118546,-0.014049889519810677,-0.018173227086663246
1772725623478165500,7.75316552734375,-0.003359756199643016,0.021991131827235222,-0.02367101050913334
1772725623487682600,7.7626826171875,-0.007024944759905338,0.04214967042207718,-0.02672533318400383
1772725623497199400,7.772199462890625,-0.008246674202382565,0.04825831577181816,-0.025503603741526604
1772725623506716200,7.781716064453125,-0.008246674202382565,0.03848448023200035,-0.02000582218170166
1772725623516233200,7.791233154296875,-0.0021380267571657896,0.008552107028663158,-0.011453714221715927
1772725623525750000,7.80075,-0.005192350596189499,-0.03176496922969818,-0.0010690133785828948
1772725623535266800,7.810266845703125,0.003359756199643016,-0.053756099194288254,0.006872228812426329
1772725623544784000,7.819783935546875,0.004581485874950886,-0.04764745384454727,0.008093958720564842
1772725623554300700,7.82930078125,0.019853105768561363,-0.023212861269712448,0.0062613640911877155
1772725623563817700,7.838817626953125,0.018631376326084137,0.010995565913617611,0.0032070400193333626
1772725623573334500,7.84833447265625,0.025961752980947495,0.03298669680953026,0.005650499369949102
1772725623582851300,7.857851318359375,0.014966187067329884,0.026878049597144127,0.012980876490473747
1772725623592368400,7.867368408203125,0.02412915788590908,0.004276053514331579,0.017256930470466614
1772725623601885200,7.87688525390625,0.011911863461136818,-0.014660755172371864,0.0154243353754282
1772725623611402000,7.886402099609375,0.013744457624852657,-0.034208428114652634,0.011759147047996521
1772725623620919000,7.8959189453125,-0.004581485874950886,-0.037262752652168274,0.007483093533664942
1772725623630435800,7.905435791015625,0.005192350596189499,-0.020769402384757996,0.0007635809597559273
1772725623639952600,7.91495263671875,-0.003970621153712273,0.003665188793092966,-0.002901607658714056
1772725623649469700,7.9244697265625,0.011300998739898205,0.014049889519810677,-0.00045814859913662076
1772725623658986500,7.933986572265625,0.000305432389723137,0.015271619893610477,0.005650499369949102
1772725623668503300,7.94350341796875,0.01435532234609127,0.004886918235570192,0.012980876490473747
1772725623678020400,7.953020263671875,0.000305432389723137,-0.012217295356094837,0.01847865991294384
1772725623687537200,7.962537109375,0.014966187067329884,-0.0256563201546669,0.017867794260382652
1772725623697054200,7.97205419921875,0.005192350596189499,-0.013439024798572063,0.006872228812426329
1772725623706571000,7.981571044921875,0.008857538923621178,-0.000610864779446274,-0.008399390615522861
1772725623716087800,7.991087890625,0.003359756199643016,0.009773836471140385,-0.02367101050913334
1772725623725604900,8.00060498046875,0.0009162971982732415,0.014049889519810677,-0.03405570983886719
1772725623735121700,8.01012158203125,0.0021380267571657896,0.017104214057326317,-0.037720900028944016
1772725623744638500,8.019638427734375,0.003359756199643016,0.018325943499803543,-0.0334448479115963
1772725623754155500,8.029155517578126,0.005192350596189499,0.01282816007733345,-0.024281874299049377
1772725623763672300,8.03867236328125,0.007635809946805239,0.004276053514331579,-0.011453714221715927
1772725623773189000,8.048189208984375,0.008857538923621178,-0.009773836471140385,0.0025961752980947495
1772725623782706200,8.0577060546875,0.00946840364485979,-0.018325943499803543,0.014202605932950974
1772725623792223000,8.067222900390625,0.010079269297420979,-0.017104214057326317,0.02519817277789116
1772725623801740000,8.076739990234374,0.011300998739898205,-0.013439024798572063,0.030085090547800064
1772725623811256800,8.0862568359375,0.010079269297420979,-0.010995565913617611,0.028863361105322838
1772725623820773600,8.095773681640624,0.010690134018659592,-0.003665188793092966,0.02214384824037552
1772725623830290700,8.105290771484375,0.007635809946805239,0,0.010537417605519295
1772725623839807500,8.114807373046874,0.0015271619195118546,0.001832594396546483,0.0007635809597559273
1772725623849324300,8.12432421875,-0.006414080038666725,-0.000610864779446274,-0.001679878099821508
1772725623858841300,8.13384130859375,-0.013133592903614044,-0.003665188793092966,-0.00045814859913662076
1772725623868358100,8.143358154296875,-0.014966187067329884,-0.008552107028663158,0.0007635809597559273
1772725623877875000,8.152875,-0.013744457624852657,-0.010995565913617611,0.0038179049734026194
1772725623887392000,8.16239208984375,-0.008857538923621178,-0.007330377586185932,0.0019853105768561363
1772725623896908800,8.17190869140625,-0.003970621153712273,0.006108647678047419,-0.004123337101191282
1772725623906425600,8.181425537109375,0.003970621153712273,0.01893680728971958,-0.007177661173045635
1772725623915942700,8.190942626953126,-0.0009162971982732415,0.018325943499803543,-0.005955931730568409
1772725623925459500,8.20045947265625,0.01740964688360691,0.007330377586185932,-0.002901607658714056
1772725623934976500,8.2099765625,0.005803215317428112,0.008552107028663158,-0.001679878099821508
1772725623944493300,8.219493408203125,0.013133592903614044,0.009773836471140385,-0.001679878099821508
1772725623954010000,8.229010009765625,-0.005803215317428112,0.012217295356094837,0.0007635809597559273
1772725623963527000,8.23852685546875,0.005192350596189499,0.004276053514331579,0.0038179049734026194
1772725623973044000,8.2480439453125,-0.004581485874950886,-0.006108647678047419,0.010537417605519295
1772725623982560800,8.257560791015624,0.008857538923621178,-0.01649334840476513,0.016035201027989388
1772725623992077800,8.267077880859375,0.0009162971982732415,-0.018325943499803543,0.020311253145337105
1772725624001594600,8.2765947265625,0.014966187067329884,-0.02871064469218254,0.020311253145337105
1772725624011111400,8.286111328125,0.011300998739898205,-0.03848448023200035,0.012370011769235134
1772725624020628500,8.29562841796875,0.02412915788590908,-0.047036588191986084,0.0001527161948615685
1772725624030145300,8.305145263671875,0.015577051788568497,-0.05253437161445618,-0.010842849500477314
1772725624039662300,8.314662353515626,0.018631376326084137,-0.043982263654470444,-0.018173227086663246
1772725624049179100,8.32417919921875,0.005803215317428112,-0.006108647678047419,-0.018173227086663246
1772725624058696000,8.333696044921876,0.005192350596189499,0.033597562462091446,-0.017562363296747208
1772725624068212700,8.343212646484375,-0.005803215317428112,0.059864748269319534,-0.01206457894295454
1772725624077729800,8.352729736328126,-0.007635809946805239,0.053756099194288254,-0.007177661173045635
1772725624087246600,8.36224658203125,-0.011911863461136818,0.031154103577136993,-0.00045814859913662076
1772725624096763600,8.371763671875,-0.008857538923621178,-0.000610864779446274,0.0025961752980947495
1772725624106280400,8.381280517578125,-0.006414080038666725,-0.018325943499803543,0.0032070400193333626
1772725624115797200,8.39079736328125,0.0015271619195118546,-0.028099779039621353,-0.001679878099821508
1772725624125314300,8.400314208984375,0.010690134018659592,-0.030543239787220955,-0.002290742937475443
1772725624134831000,8.4098310546875,0.016798781231045723,-0.02626718580722809,-0.001679878099821508
1772725624144348200,8.41934814453125,0.02412915788590908,-0.007941242307424545,0.0001527161948615685
1772725624153865000,8.428864990234375,0.019242240116000175,0.0054977829568088055,0.0019853105768561363
1772725624163381800,8.4383818359375,0.01435532234609127,0.004886918235570192,0.0038179049734026194
1772725624172898800,8.44789892578125,-0.0027488914784044027,0.000610864779446274,0.0038179049734026194
1772725624182415600,8.45741552734375,-0.0027488914784044027,-0.004886918235570192,-0.003512472379952669
1772725624191932400,8.466932373046875,-0.013744457624852657,-0.012217295356094837,-0.01206457894295454
1772725624201449200,8.47644921875,-0.010690134018659592,-0.010995565913617611,-0.018784092739224434
1772725624210966300,8.48596630859375,-0.019242240116000175,-0.001832594396546483,-0.022449281066656113
1772725624220483000,8.495483154296876,-0.016798781231045723,0.0030543238390237093,-0.021838415414094925
1772725624230000000,8.505000244140625,-0.015577051788568497,0,-0.01695149764418602
1772725624239517000,8.514516845703126,-0.011300998739898205,-0.002443459117785096,-0.014508038759231567
1772725624249033700,8.52403369140625,-0.007024944759905338,-0.001832594396546483,-0.014508038759231567
1772725624258550800,8.53355078125,-0.0009162971982732415,0.001832594396546483,-0.018173227086663246
1772725624268067600,8.543067626953125,0.007635809946805239,0.007941242307424545,-0.018784092739224434
1772725624277584400,8.55258447265625,0.016187917441129684,0.01282816007733345,-0.012675444595515728
1772725624287101400,8.562101318359375,0.021685699000954628,0.017104214057326317,-0.002290742937475443
1772725624296618200,8.5716181640625,0.022296564653515816,0.012217295356094837,0.009926552884280682
1772725624306135000,8.581135009765624,0.01802051067352295,-0.004886918235570192,0.02214384824037552
1772725624315652000,8.590652099609375,0.012522728182375431,-0.02260199747979641,0.02764163166284561
1772725624325169000,8.6001689453125,0.008246674202382565,-0.03481929376721382,0.027030766010284424
1772725624334686000,8.60968603515625,0.004581485874950886,-0.03909534588456154,0.025809036567807198
1772725624344202800,8.61920263671875,0.0027488914784044027,-0.029932374134659767,0.023976443335413933
1772725624353719600,8.628719482421875,0.004581485874950886,-0.012217295356094837,0.023365577682852745
1772725624363236600,8.638236572265624,0.005803215317428112,0.004276053514331579,0.028863361105322838
1772725624372753400,8.64775341796875,0.005192350596189499,0.012217295356094837,0.03497200831770897
1772725624382270500,8.6572705078125,0.003970621153712273,0.006108647678047419,0.04169152304530144
1772725624391787300,8.666787353515625,0.0027488914784044027,-0.009162971749901772,0.04230238497257233
1772725624401304000,8.676303955078126,0.0021380267571657896,-0.01649334840476513,0.03191768378019333
1772725624410820900,8.68582080078125,-0.0009162971982732415,-0.01893680728971958,0.014813470654189587
1772725624420338000,8.695337890625,-0.0027488914784044027,-0.013439024798572063,-0.005955931730568409
1772725624429854700,8.704854736328125,-0.0021380267571657896,0.002443459117785096,-0.024281874299049377
1772725624439371800,8.714371826171876,-0.000305432389723137,0.01893680728971958,-0.03283398225903511
1772725624448888600,8.723888671875,0.0021380267571657896,0.02932151034474373,-0.030390523374080658
1772725624458405400,8.7334052734375,0.0027488914784044027,0.03176496922969818,-0.018173227086663246
1772725624467922400,8.74292236328125,0.0021380267571657896,0.020769402384757996,-0.001679878099821508
1772725624477439200,8.752439208984375,0.003359756199643016,0,0.01359174121171236
1772725624486956000,8.7619560546875,0.0027488914784044027,-0.012217295356094837,0.022754713892936707
1772725624496473000,8.77147314453125,0.0027488914784044027,-0.018325943499803543,0.02519817277789116
1772725624505990000,8.780989990234374,0.0027488914784044027,-0.01282816007733345,0.020922118797898293
1772725624515507000,8.7905068359375,0.0027488914784044027,-0.004276053514331579,0.01359174121171236
1772725624525023700,8.800023681640624,0.0021380267571657896,0.007941242307424545,0.005039634648710489
1772725624534540500,8.80954052734375,0.0021380267571657896,0.014049889519810677,0.0007635809597559273
1772725624544057300,8.819057373046874,0.004581485874950886,0.017104214057326317,0.0001527161948615685
1772725624553574400,8.828574462890625,0.010690134018659592,0.018325943499803543,0.0001527161948615685
1772725624563091200,8.83809130859375,0.01802051067352295,0.017715077847242355,0.0013744457392022014
1772725624572608300,8.847608154296875,0.016187917441129684,0.006719512399286032,0.006872228812426329
1772725624582125000,8.857125,0.007635809946805239,-0.009162971749901772,0.014202605932950974
1772725624591641900,8.866641845703125,-0.0015271619195118546,-0.018325943499803543,0.017867794260382652
1772725624601159000,8.876158935546876,-0.00946840364485979,-0.01893680728971958,0.02153298258781433
1772725624610675700,8.88567578125,-0.01435532234609127,-0.01282816007733345,0.023365577682852745
1772725624620192800,8.89519287109375,-0.014966187067329884,-0.0054977829568088055,0.02458730712532997
1772725624629709600,8.90470947265625,-0.011911863461136818,-0.0030543238390237093,0.02519817277789116
1772725624639226400,8.914226318359376,-0.008246674202382565,-0.004276053514331579,0.02458730712532997
1772725624648743200,8.9237431640625,-0.0015271619195118546,-0.007330377586185932,0.020311253145337105
1772725624658260200,8.93326025390625,0.0015271619195118546,-0.008552107028663158,0.010537417605519295
1772725624667777000,8.942777099609375,-0.0009162971982732415,-0.001221729558892548,-0.003512472379952669
1772725624677294000,8.952294189453125,-0.005192350596189499,0.007330377586185932,-0.016340631991624832
1772725624686811000,8.961810791015624,-0.00946840364485979,0.011606430634856224,-0.024281874299049377
1772725624696327700,8.97132763671875,-0.010690134018659592,0.014660755172371864,-0.024281874299049377
1772725624705844700,8.9808447265625,-0.01435532234609127,0.01282816007733345,-0.016340631991624832
1772725624715361500,8.990361572265625,-0.01802051067352295,0.007330377586185932,-0.004734201822429895
1772725624724878300,8.99987841796875,-0.019242240116000175,0.010995565913617611,0.005039634648710489
1772725624734395400,9.0093955078125,-0.015577051788568497,0.010995565913617611,0.009926552884280682
1772725624743912200,9.018912109375,-0.006414080038666725,0.000610864779446274,0.012370011769235134
1772725624753429000,9.028428955078125,0.000305432389723137,-0.007330377586185932,0.009315688163042068
1772725624762946000,9.037946044921876,0.000305432389723137,-0.007941242307424545,0.005039634648710489
1772725624772462800,9.047462890625,-0.007635809946805239,-0.004886918235570192,0.004428769461810589
1772725624781979600,9.056979736328126,-0.014966187067329884,-0.011606430634856224,0.006872228812426329
1772725624791496700,9.06649658203125,-0.01802051067352295,-0.014049889519810677,0.008093958720564842
1772725624801013500,9.076013427734376,-0.018631376326084137,-0.0030543238390237093,0.004428769461810589
1772725624810530600,9.085530517578125,-0.016187917441129684,0.011606430634856224,-0.002290742937475443
1772725624820047400,9.09504736328125,-0.010690134018659592,0.021380268037319183,-0.005955931730568409
1772725624829564200,9.104564208984375,-0.006414080038666725,0.01893680728971958,-0.004123337101191282
1772725624839081200,9.114081298828125,0.000305432389723137,0.0054977829568088055,-0.001679878099821508
1772725624848598000,9.123597900390624,0.005192350596189499,-0.004276053514331579,-0.00045814859913662076
1772725624858115000,9.133114990234375,0.003970621153712273,-0.007330377586185932,-0.002901607658714056
1772725624867631600,9.142631591796874,0.0009162971982732415,-0.003665188793092966,-0.005345067009329796
1772725624877148700,9.152148681640625,0.000305432389723137,0.010995565913617611,-0.009010255336761475
1772725624886665500,9.16166552734375,-0.0009162971982732415,0.027488915249705315,-0.009621120058000088
1772725624896182500,9.1711826171875,-0.0027488914784044027,0.030543239787220955,-0.007788525894284248
1772725624905699300,9.18069921875,-0.003359756199643016,0.01893680728971958,-0.005345067009329796
1772725624915216400,9.19021630859375,-0.003359756199643016,-0.004886918235570192,-0.003512472379952669
1772725624924733200,9.199733154296876,-0.004581485874950886,-0.023212861269712448,-0.004123337101191282
1772725624934250000,9.20925,-0.005192350596189499,-0.03298669680953026,-0.004123337101191282
1772725624943767000,9.21876708984375,-0.008246674202382565,-0.03237583488225937,-0.004123337101191282
1772725624953283800,9.228283935546875,-0.013133592903614044,-0.020158538594841957,-0.007177661173045635
1772725624962800600,9.237800537109376,-0.01740964688360691,-0.003665188793092966,-0.008399390615522861
1772725624972317700,9.247317626953125,-0.015577051788568497,0.013439024798572063,-0.010842849500477314
1772725624981834500,9.25683447265625,-0.011300998739898205,0.026878049597144127,-0.016340631991624832
1772725624991351300,9.266351318359375,-0.007024944759905338,0.0256563201546669,-0.021227551624178886
1772725625000868400,9.275868408203126,0.003359756199643016,0.015271619893610477,-0.022449281066656113
1772725625010385200,9.28538525390625,0.01435532234609127,0.004276053514331579,-0.018173227086663246
1772725625019902000,9.29490185546875,0.0204639695584774,-0.002443459117785096,-0.009621120058000088
1772725625029419000,9.3044189453125,0.016798781231045723,-0.006719512399286032,0.0001527161948615685
1772725625038935800,9.313935791015625,0.013133592903614044,-0.01282816007733345,0.005039634648710489
1772725625048452900,9.323452880859374,0.011300998739898205,-0.01588248461484909,0.0025961752980947495
1772725625057969700,9.3329697265625,0.008857538923621178,-0.020158538594841957,-0.002901607658714056
1772725625067486500,9.342486572265624,0.003359756199643016,-0.027488915249705315,-0.007788525894284248
1772725625077003300,9.352003173828125,-0.0015271619195118546,-0.03298669680953026,-0.007177661173045635
1772725625086520300,9.361520263671874,-0.0015271619195118546,-0.0256563201546669,-0.005955931730568409
1772725625096037000,9.371037109375,0.0021380267571657896,-0.003665188793092966,-0.004123337101191282
1772725625105554200,9.38055419921875,0.006414080038666725,0.01893680728971958,-0.003512472379952669
1772725625115071000,9.390071044921875,0.011911863461136818,0.04520399495959282,-0.004123337101191282
1772725625124587800,9.399587890625,0.011300998739898205,0.05253437161445618,-0.002290742937475443
1772725625134104800,9.409104736328125,0.005192350596189499,0.033597562462091446,0.0032070400193333626
1772725625143621600,9.41862158203125,-0.0009162971982732415,0.001832594396546483,0.008093958720564842
1772725625153138700,9.428138671875,-0.003970621153712273,-0.02260199747979641,0.007483093533664942
1772725625162655500,9.437655517578126,-0.004581485874950886,-0.021380268037319183,0.0019853105768561363
1772725625172172300,9.44717236328125,-0.004581485874950886,-0.0030543238390237093,-0.005955931730568409
1772725625181689300,9.456689453125,-0.005192350596189499,0.010995565913617611,-0.0102319847792387
1772725625191206100,9.4662060546875,-0.003359756199643016,0.017715077847242355,-0.011453714221715927
1772725625200723000,9.475722900390625,0.000305432389723137,0.01588248461484909,-0.013897174037992954
1772725625210240000,9.485239990234374,-0.000305432389723137,0.003665188793092966,-0.010842849500477314
1772725625219756800,9.4947568359375,0.003359756199643016,0.007330377586185932,-0.009621120058000088
1772725625229273600,9.504273681640624,0.007024944759905338,0.03237583488225937,-0.01206457894295454
1772725625238790700,9.513790771484375,0.0021380267571657896,0.04886918142437935,-0.010842849500477314
1772725625248307500,9.523307373046874,-0.004581485874950886,0.043371398001909256,-0.007177661173045635
1772725625257824500,9.532824462890625,-0.003359756199643016,0.02260199747979641,-0.001679878099821508
1772725625267341300,9.54234130859375,0.0021380267571657896,0.000610864779446274,0.0038179049734026194
1772725625276858000,9.551858154296875,0.008857538923621178,-0.015271619893610477,0.009315688163042068
1772725625286375200,9.561375244140624,0.00946840364485979,-0.02260199747979641,0.01359174121171236
1772725625295892000,9.57089208984375,0.005192350596189499,-0.026878049597144127,0.016035201027989388
1772725625305408800,9.58040869140625,0.0021380267571657896,-0.020769402384757996,0.014202605932950974
1772725625314925800,9.58992578125,0.0009162971982732415,-0.009162971749901772,0.004428769461810589
1772725625324442600,9.599442626953126,0.0015271619195118546,-0.004276053514331579,-0.012675444595515728
1772725625333959400,9.60895947265625,0.003359756199643016,0.003665188793092966,-0.037720900028944016
1772725625343476500,9.6184765625,0.004581485874950886,0.018325943499803543,-0.056657709181308746
1772725625352993300,9.6279931640625,0.007024944759905338,0.040317077189683914,-0.06215549260377884
1772725625362510000,9.637510009765625,0.01435532234609127,0.037262752652168274,-0.05787943676114082
1772725625372027100,9.647027099609375,0.014966187067329884,0.030543239787220955,-0.04993819445371628
1772725625381544000,9.6565439453125,0.006414080038666725,0.03298669680953026,-0.04627300798892975
1772725625391061000,9.66606103515625,-0.003970621153712273,0.03848448023200035,-0.04505127668380737
1772725625400577800,9.675577880859375,-0.004581485874950886,0.040317077189683914,-0.0487164668738842
1772725625410094600,9.685094482421874,0.007024944759905338,0.021380268037319183,-0.05482511222362518
1772725625419611400,9.694611328125,0.008246674202382565,-0.021380268037319183,-0.05971203371882439
1772725625429128400,9.70412841796875,0.008857538923621178,-0.04581485688686371,-0.0591011680662632
1772725625438645200,9.713645263671875,0.0015271619195118546,-0.040317077189683914,-0.05177079141139984
1772725625448162300,9.723162353515624,-0.006414080038666725,-0.023212861269712448,-0.03894263133406639
1772725625457679000,9.73267919921875,-0.011300998739898205,-0.023212861269712448,-0.016340631991624832
1772725625467196000,9.74219580078125,-0.0021380267571657896,-0.046425722539424896,0.02458730712532997
1772725625476713000,9.751712890625,0.024740023538470268,-0.039706211537122726,0.05635227635502815
1772725625486229800,9.761229736328126,0.04428769648075104,-0.009162971749901772,0.06551524996757507
1772725625495746800,9.770746826171875,0.035124726593494415,0.021380268037319183,0.06062832847237587
1772725625505263600,9.780263671875,0.010690134018659592,0.030543239787220955,0.05024362727999687
1772725625514780400,9.789780517578125,-0.005803215317428112,0.004886918235570192,0.036193739622831345
1772725625524297200,9.799297119140626,-0.01740964688360691,-0.03298669680953026,0.022754713892936707
1772725625533814300,9.808814208984375,-0.03023780696094036,-0.05192350596189499,0.011759147047996521
1772725625543331000,9.8183310546875,-0.038789913058280945,-0.0513126403093338,0.007483093533664942
1772725625552848100,9.82784814453125,-0.03817904740571976,-0.03543015569448471,0.0032070400193333626
1772725625562365000,9.837364990234375,-0.032070402055978775,-0.017104214057326317,0.0001527161948615685
1772725625571881700,9.8468818359375,-0.024740023538470268,0.001832594396546483,-0.010842849500477314
1772725625581398800,9.856398681640625,-0.019242240116000175,0.03787361457943916,-0.03222311660647392
1772725625590915600,9.86591552734375,-0.008857538923621178,0.08368847519159317,-0.057268574833869934
1772725625600432400,9.875432373046875,-0.000305432389723137,0.1178968995809555,-0.0798705667257309
1772725625609949400,9.884949462890624,-0.0015271619195118546,0.09712749719619751,-0.0896444097161293
1772725625619466200,9.89446630859375,-0.011300998739898205,0.04520399495959282,-0.08597921580076218
1772725625628983300,9.9039833984375,-0.016798781231045723,0.008552107028663158,-0.0743727833032608
