time,seconds_elapsed,z,y,x
1772725615818178300,0.09317822265625,9.540184020996094,3.0891339778900146,0.32542386651039124
1772725615827695400,0.1026953125,9.614361763000488,3.081955671310425,0.2847459018230438
1772725615837212200,0.112212158203125,9.659825325012207,3.0556344985961914,0.20578274130821228
1772725615846729000,0.12172900390625,9.681360244750977,3.091526746749878,0.15553347766399384
1772725615856245800,0.131245849609375,9.686145782470703,3.108276605606079,0.14117653667926788
1772725615865762800,0.1407626953125,9.645467758178711,3.1250264644622803,0.1818545162677765
1772725615875279600,0.150279541015625,9.56889820098877,3.1274192333221436,0.23449662327766418
1772725615884796700,0.159796630859375,9.595218658447266,3.1561331748962402,0.28235307335853577
1772725615894313500,0.1693134765625,9.542576789855957,3.146561861038208,0.31106695532798767
1772725615903830300,0.178830322265625,9.454042434692383,3.0891339778900146,0.3086741268634796
1772725615913347300,0.188347412109375,9.343972206115723,3.0652058124542236,0.363709032535553
1772725615922864000,0.197864013671875,9.293723106384277,3.081955671310425,0.42831525206565857
1772725615932381000,0.207380859375,9.20997428894043,3.0795626640319824,0.4259224236011505
1772725615941898000,0.21689794921875,9.200403213500977,3.06999135017395,0.4019941985607147
1772725615951414800,0.226414794921875,9.255437850952148,3.077169895172119,0.35413774847984314
1772725615960931800,0.235931884765625,9.343972206115723,3.0891339778900146,0.3565305769443512
1772725615970448600,0.24544873046875,9.358329772949219,3.053241729736328,0.3038884699344635
1772725615979965400,0.25496533203125,9.363115310668945,3.0317063331604004,0.2919243574142456
1772725615989482200,0.264482177734375,9.43489933013916,3.06999135017395,0.3278166949748993
1772725615998999300,0.273999267578125,9.456435203552246,3.0556344985961914,0.34695929288864136
1772725616008516000,0.28351611328125,9.391828536987305,2.9790642261505127,0.3278166949748993
1772725616018033200,0.293033203125,9.322437286376953,2.9718856811523438,0.39481574296951294
1772725616027550000,0.302550048828125,9.243474006652832,3.022135019302368,0.4378865361213684
1772725616037066800,0.312066650390625,9.265008926391602,3.0795626640319824,0.4953143000602722
1772725616046583800,0.321583740234375,9.375079154968262,3.098705291748047,0.5120640397071838
1772725616056100600,0.3311005859375,9.540184020996094,3.10109806060791,0.4666004180908203
1772725616065617400,0.340617431640625,9.729216575622559,3.0652058124542236,0.380458801984787
1772725616075134500,0.350134521484375,9.872786521911621,3.036491870880127,0.32542386651039124
1772725616084651300,0.3596513671875,9.908679008483887,2.9934210777282715,0.2871387302875519
1772725616094168000,0.36916796875,9.872786521911621,3.019742250442505,0.3397808074951172
1772725616103685000,0.37868505859375,9.745966911315918,3.043670415878296,0.37806597352027893
1772725616113202000,0.388201904296875,9.623932838439941,3.0556344985961914,0.3900300860404968
1772725616122718700,0.39771875,9.535398483276367,3.077169895172119,0.3852444589138031
1772725616132235800,0.40723583984375,9.468399047851562,3.105883836746216,0.3613162338733673
1772725616141752600,0.416752685546875,9.377471923828125,3.115455150604248,0.33020952343940735
1772725616151269600,0.42626953125,9.324830055236816,3.1274192333221436,0.3158525824546814
1772725616160786400,0.435786376953125,9.317651748657227,3.1274192333221436,0.37088751792907715
1772725616170303200,0.44530322265625,9.372686386108398,3.098705291748047,0.40677985548973083
1772725616179820000,0.454820068359375,9.42054271697998,3.091526746749878,0.4139583110809326
1772725616189337000,0.464337158203125,9.454042434692383,3.0580272674560547,0.39960137009620667
1772725616198854000,0.47385400390625,9.468399047851562,3.046063184738159,0.2991028428077698
1772725616208371000,0.483370849609375,9.408578872680664,3.091526746749878,0.2512463629245758
1772725616217887700,0.4928876953125,9.360722541809082,3.1178479194641113,0.2584248483181
1772725616227404500,0.502404541015625,9.276973724365234,3.10109806060791,0.28953152894973755
1772725616236921600,0.511921630859375,9.253045082092285,3.0963125228881836,0.32542386651039124
1772725616246438400,0.5214384765625,9.260223388671875,3.105883836746216,0.4043870270252228
1772725616255955200,0.530955078125,9.291330337524414,3.0795626640319824,0.4450650215148926
1772725616265472300,0.54047216796875,9.343972206115723,3.074777126312256,0.4378865361213684
1772725616274989000,0.549989013671875,9.379864692687988,3.06999135017395,0.42352959513664246
1772725616284506000,0.559506103515625,9.41336441040039,3.06999135017395,0.38285163044929504
1772725616294023000,0.56902294921875,9.4061861038208,3.0556344985961914,0.38285163044929504
1772725616303539700,0.578539794921875,9.372686386108398,3.06999135017395,0.37088751792907715
1772725616313056500,0.588056396484375,9.31047248840332,3.0939197540283203,0.3613162338733673
1772725616322573600,0.597573486328125,9.33440113067627,3.1202406883239746,0.37088751792907715
1772725616332090400,0.60709033203125,9.41336441040039,3.105883836746216,0.380458801984787
1772725616341607400,0.616607421875,9.525827407836914,3.0795626640319824,0.349352091550827
1772725616351124200,0.626124267578125,9.647860527038574,3.046063184738159,0.34217363595962524
1772725616360641000,0.63564111328125,9.762716293334961,3.014956474304199,0.33020952343940735
1772725616370158000,0.645157958984375,9.832108497619629,3.0029923915863037,0.34217363595962524
1772725616379675000,0.6546748046875,9.875179290771484,3.0029923915863037,0.3517449200153351
1772725616389191700,0.664191650390625,9.846465110778809,3.0029923915863037,0.3613162338733673
1772725616398708700,0.673708740234375,9.772287368774414,3.0101709365844727,0.3613162338733673
1772725616408225500,0.6832255859375,9.719645500183105,3.036491870880127,0.3613162338733673
1772725616417742300,0.692742431640625,9.66939640045166,3.0556344985961914,0.37088751792907715
1772725616427259400,0.70225927734375,9.638289451599121,3.046063184738159,0.3613162338733673
1772725616436776200,0.711776123046875,9.628718376159668,3.0412776470184326,0.35413774847984314
1772725616446293000,0.72129296875,9.571290969848633,3.0245277881622314,0.31106695532798767
1772725616455810000,0.73081005859375,9.497113227844238,3.0077781677246094,0.3445664644241333
1772725616465326800,0.740326904296875,9.379864692687988,3.0077781677246094,0.4019941985607147
1772725616474844000,0.749843994140625,9.255437850952148,3.043670415878296,0.3900300860404968
1772725616484360700,0.759360595703125,9.159725189208984,3.108276605606079,0.3900300860404968
1772725616493877500,0.76887744140625,9.08554744720459,3.122633457183838,0.39960137009620667
1772725616503394300,0.778394287109375,9.080761909484863,3.1441688537597656,0.37806597352027893
1772725616512911400,0.787911376953125,9.10229778289795,3.091526746749878,0.33738797903060913
1772725616522428200,0.79742822265625,9.150154113769531,3.043670415878296,0.2991028428077698
1772725616531945200,0.8069453125,9.286544799804688,3.029313564300537,0.3278166949748993
1772725616541462000,0.8164619140625,9.389435768127441,3.0101709365844727,0.35892340540885925
1772725616550978800,0.825978759765625,9.399007797241211,2.9838497638702393,0.35892340540885925
1772725616560495900,0.835495849609375,9.367900848388672,2.9838497638702393,0.36610186100006104
1772725616570012700,0.8450126953125,9.351150512695312,3.019742250442505,0.4019941985607147
1772725616579529500,0.854529541015625,9.43489933013916,3.074777126312256,0.4378865361213684
1772725616589046500,0.864046630859375,9.504291534423828,3.0556344985961914,0.4091726839542389
1772725616598563300,0.873563232421875,9.521040916442871,3.036491870880127,0.3086741268634796
1772725616608080400,0.883080322265625,9.516255378723145,3.029313564300537,0.34217363595962524
1772725616617597200,0.89259716796875,9.55214786529541,3.06999135017395,0.3900300860404968
1772725616627114000,0.902114013671875,9.588040351867676,3.0317063331604004,0.4139583110809326
1772725616636630800,0.911630859375,9.57607650756836,3.0029923915863037,0.35892340540885925
1772725616646147800,0.92114794921875,9.561718940734863,3.0005996227264404,0.31106695532798767
1772725616655664600,0.93066455078125,9.578469276428223,3.019742250442505,0.31824541091918945
1772725616665181700,0.940181640625,9.678967475891113,3.036491870880127,0.36610186100006104
1772725616674698500,0.949698486328125,9.678967475891113,2.998206853866577,0.380458801984787
1772725616684215300,0.95921533203125,9.671789169311523,2.957528829574585,0.28953152894973755
1772725616693732400,0.968732421875,9.66939640045166,2.9766714572906494,0.2799602448940277
1772725616703249200,0.978249267578125,9.686145782470703,3.0005996227264404,0.30628129839897156
1772725616712766000,0.987765869140625,9.686145782470703,2.981456995010376,0.3086741268634796
1772725616722283000,0.997282958984375,9.671789169311523,2.9790642261505127,0.2991028428077698
1772725616731799800,1.0067998046875,9.564111709594727,2.9958138465881348,0.30149564146995544
1772725616741316600,1.016316650390625,9.410971641540527,2.9790642261505127,0.3278166949748993
1772725616750833700,1.025833740234375,9.353543281555176,3.0269205570220947,0.4091726839542389
1772725616760350500,1.0353505859375,9.358329772949219,3.0340991020202637,0.5048855543136597
1772725616769867300,1.0448671875,9.396614074707031,3.019742250442505,0.5000999569892883
1772725616779384300,1.05438427734375,9.442078590393066,2.964707374572754,0.46420758962631226
1772725616788901000,1.063901123046875,9.513862609863281,2.9766714572906494,0.3732803463935852
1772725616798418200,1.073418212890625,9.604789733886719,3.043670415878296,0.2991028428077698
1772725616807935000,1.08293505859375,9.626325607299805,3.060420274734497,0.22013968229293823
1772725616817451800,1.09245166015625,9.58325481414795,3.0580272674560547,0.16510476171970367
1772725616826968600,1.101968505859375,9.549755096435547,3.0867412090301514,0.1698904037475586
1772725616836485600,1.111485595703125,9.554540634155273,3.077169895172119,0.26081767678260803
1772725616846002400,1.12100244140625,9.525827407836914,3.053241729736328,0.33738797903060913
1772725616855519500,1.13051953125,9.504291534423828,3.012563705444336,0.4043870270252228
1772725616865036300,1.140036376953125,9.504291534423828,2.9862427711486816,0.4546363055706024
1772725616874553000,1.149552978515625,9.461220741271973,2.9527430534362793,0.45942193269729614
1772725616884070100,1.159070068359375,9.44447135925293,2.9623143672943115,0.4546363055706024
1772725616893587000,1.1685869140625,9.463613510131836,2.9766714572906494,0.4139583110809326
1772725616903103700,1.178103759765625,9.45882797241211,2.9862427711486816,0.363709032535553
1772725616912620800,1.187620849609375,9.42054271697998,3.014956474304199,0.3445664644241333
1772725616922137600,1.1971376953125,9.403793334960938,3.005385160446167,0.3326023519039154
1772725616931654700,1.206654541015625,9.415757179260254,3.0005996227264404,0.3158525824546814
1772725616941171500,1.21617138671875,9.394221305847168,2.967100143432617,0.3278166949748993
1772725616950688300,1.225688232421875,9.346364974975586,2.964707374572754,0.33738797903060913
1772725616960205000,1.235205078125,9.343972206115723,2.9718856811523438,0.3517449200153351
1772725616969722000,1.24472216796875,9.351150512695312,2.974278450012207,0.3732803463935852
1772725616979239000,1.254239013671875,9.399007797241211,2.9599215984344482,0.36610186100006104
1772725616988756000,1.263755859375,9.410971641540527,2.9862427711486816,0.3445664644241333
1772725616998272800,1.273272705078125,9.422935485839844,2.998206853866577,0.3445664644241333
1772725617007789600,1.28278955078125,9.494720458984375,3.0269205570220947,0.3756731450557709
1772725617017306600,1.292306640625,9.578469276428223,3.0245277881622314,0.380458801984787
1772725617026823400,1.301823486328125,9.645467758178711,2.991028308868408,0.33738797903060913
1772725617036340200,1.31134033203125,9.623932838439941,2.940778970718384,0.28235307335853577
1772725617045857300,1.320857177734375,9.604789733886719,2.9790642261505127,0.2871387302875519
1772725617055374000,1.3303740234375,9.559326171875,2.9862427711486816,0.3397808074951172
1772725617064891000,1.339890869140625,9.578469276428223,3.0005996227264404,0.3924229145050049
1772725617074408000,1.349407958984375,9.628718376159668,2.9599215984344482,0.44027936458587646
1772725617083924700,1.3589248046875,9.714859962463379,2.9072794914245605,0.43549370765686035
1772725617093441500,1.368441650390625,9.781859397888184,2.9001009464263916,0.3900300860404968
1772725617102958600,1.37795849609375,9.753145217895508,2.8737800121307373,0.32542386651039124
1772725617112475400,1.387475341796875,9.652647018432617,2.9072794914245605,0.31824541091918945
1772725617121992400,1.396992431640625,9.53061294555664,2.940778970718384,0.3684946894645691
1772725617131509200,1.40650927734375,9.387042999267578,2.9838497638702393,0.40677985548973083
1772725617141026000,1.416026123046875,9.30329418182373,3.0005996227264404,0.4163511395454407
1772725617150542800,1.42554296875,9.281759262084961,3.019742250442505,0.38285163044929504
1772725617160060000,1.435059814453125,9.284152030944824,3.0173492431640625,0.36610186100006104
1772725617169576700,1.44457666015625,9.415757179260254,3.019742250442505,0.35413774847984314
1772725617179093800,1.45409375,9.56650447845459,3.012563705444336,0.35892340540885925
1772725617188610600,1.463610595703125,9.640682220458984,2.9766714572906494,0.349352091550827
1772725617198127400,1.47312744140625,9.650253295898438,2.943171739578247,0.31824541091918945
1772725617207644400,1.48264453125,9.580862045288086,2.943171739578247,0.33020952343940735
1772725617217161200,1.4921611328125,9.461220741271973,2.940778970718384,0.3756731450557709
1772725617226678000,1.501677978515625,9.391828536987305,2.981456995010376,0.397208571434021
1772725617236195000,1.511195068359375,9.351150512695312,3.022135019302368,0.38285163044929504
1772725617245712000,1.5207119140625,9.351150512695312,3.022135019302368,0.397208571434021
1772725617255229000,1.53022900390625,9.418149948120117,3.019742250442505,0.397208571434021
1772725617264745700,1.539745849609375,9.504291534423828,2.9599215984344482,0.38763725757598877
1772725617274262500,1.549262451171875,9.54496955871582,2.9383862018585205,0.37088751792907715
1772725617283779300,1.558779296875,9.53061294555664,2.919243574142456,0.37088751792907715
1772725617293296400,1.56829638671875,9.442078590393066,2.9359934329986572,0.36610186100006104
1772725617302813200,1.577813232421875,9.34157943725586,2.9694929122924805,0.3756731450557709
1772725617312330200,1.587330322265625,9.286544799804688,2.991028308868408,0.3852444589138031
1772725617321847000,1.596846923828125,9.30329418182373,2.9694929122924805,0.397208571434021
1772725617331363800,1.60636376953125,9.42054271697998,2.9383862018585205,0.38285163044929504
1772725617340881000,1.615880859375,9.54496955871582,2.9312076568603516,0.3565305769443512
1772725617350397700,1.625397705078125,9.609575271606445,2.888136863708496,0.3086741268634796
1772725617359914800,1.634914794921875,9.681360244750977,2.895315408706665,0.2991028428077698
1772725617369431600,1.644431640625,9.762716293334961,2.957528829574585,0.26560330390930176
1772725617378948400,1.6539482421875,9.80100154876709,2.964707374572754,0.18903298676013947
1772725617388465200,1.663465087890625,9.77707290649414,2.9718856811523438,0.1579262912273407
1772725617397982200,1.672982177734375,9.688538551330566,2.9455647468566895,0.19381862878799438
1772725617407499000,1.6824990234375,9.556933403015137,2.988635540008545,0.2727817893028259
1772725617417015800,1.692015869140625,9.456435203552246,2.9766714572906494,0.3613162338733673
1772725617426532900,1.701532958984375,9.425328254699707,3.0101709365844727,0.42352959513664246
1772725617436049700,1.711049560546875,9.456435203552246,2.988635540008545,0.42831525206565857
1772725617445566700,1.720566650390625,9.4660062789917,2.9527430534362793,0.380458801984787
1772725617455083500,1.73008349609375,9.509077072143555,2.964707374572754,0.363709032535553
1772725617464600300,1.739600341796875,9.523433685302734,2.9527430534362793,0.35892340540885925
1772725617474117000,1.7491171875,9.556933403015137,2.9479575157165527,0.4163511395454407
1772725617483634200,1.75863427734375,9.53061294555664,2.9623143672943115,0.40677985548973083
1772725617493151000,1.76815087890625,9.506684303283691,2.9599215984344482,0.38285163044929504
1772725617502668000,1.77766796875,9.485149383544922,3.022135019302368,0.35892340540885925
1772725617512184800,1.787184814453125,9.446864128112793,2.9790642261505127,0.3445664644241333
1772725617521701600,1.79670166015625,9.456435203552246,2.991028308868408,0.3565305769443512
1772725617531218700,1.80621875,9.45882797241211,2.9623143672943115,0.3397808074951172
1772725617540735500,1.815735595703125,9.497113227844238,2.933600664138794,0.349352091550827
1772725617550252300,1.825252197265625,9.590433120727539,2.9072794914245605,0.36610186100006104
1772725617559769300,1.834769287109375,9.602396965026855,2.8689942359924316,0.35892340540885925
1772725617569286100,1.8442861328125,9.595218658447266,2.8522446155548096,0.3278166949748993
1772725617578803000,1.853802978515625,9.525827407836914,2.861815929412842,0.39481574296951294
1772725617588320000,1.863320068359375,9.463613510131836,2.8689942359924316,0.48574298620224
1772725617597836800,1.8728369140625,9.456435203552246,2.919243574142456,0.4737788736820221
1772725617607353600,1.882353515625,9.475577354431152,2.9312076568603516,0.42352959513664246
1772725617616870700,1.89187060546875,9.482755661010742,2.9048867225646973,0.363709032535553
1772725617626387500,1.901387451171875,9.473184585571289,2.902493953704834,0.32303106784820557
1772725617635904500,1.910904541015625,9.468399047851562,2.943171739578247,0.33499518036842346
1772725617645421300,1.92042138671875,9.477970123291016,2.9718856811523438,0.3684946894645691
1772725617654938000,1.929938232421875,9.463613510131836,2.9862427711486816,0.33020952343940735
1772725617664455200,1.939455078125,9.43489933013916,2.9862427711486816,0.28235307335853577
1772725617673972000,1.948971923828125,9.389435768127441,2.9838497638702393,0.2560320198535919
1772725617683489000,1.958489013671875,9.375079154968262,3.029313564300537,0.28953152894973755
1772725617693005800,1.968005859375,9.365508079528809,3.0628130435943604,0.3038884699344635
1772725617702522600,1.977522705078125,9.408578872680664,3.060420274734497,0.31345975399017334
1772725617712039400,1.987039306640625,9.53779125213623,3.012563705444336,0.34695929288864136
1772725617721556500,1.996556396484375,9.681360244750977,2.974278450012207,0.33738797903060913
1772725617731073300,2.0060732421875,9.765109062194824,2.933600664138794,0.3278166949748993
1772725617740590000,2.015590087890625,9.774680137634277,2.902493953704834,0.34217363595962524
1772725617750107100,2.025107177734375,9.750752449035645,2.9383862018585205,0.34217363595962524
1772725617759624000,2.0346240234375,9.731609344482422,2.9479575157165527,0.35892340540885925
1772725617769141000,2.04414111328125,9.686145782470703,2.9479575157165527,0.39481574296951294
1772725617778657800,2.05365771484375,9.616754531860352,2.9359934329986572,0.3732803463935852
1772725617788174600,2.063174560546875,9.523433685302734,2.9312076568603516,0.3613162338733673
1772725617797691400,2.07269140625,9.43489933013916,2.9216363430023193,0.3565305769443512
1772725617807208400,2.08220849609375,9.367900848388672,2.9312076568603516,0.36610186100006104
1772725617816725200,2.091725341796875,9.339186668395996,2.943171739578247,0.4043870270252228
1772725617826242300,2.1012421875,9.379864692687988,2.9694929122924805,0.4091726839542389
1772725617835759000,2.110759033203125,9.44447135925293,2.940778970718384,0.41874396800994873
1772725617845276000,2.12027587890625,9.518648147583008,2.8929226398468018,0.380458801984787
1772725617854793000,2.12979296875,9.554540634155273,2.9072794914245605,0.3852444589138031
1772725617864309800,2.139309814453125,9.542576789855957,2.9288148880004883,0.397208571434021
1772725617873826600,2.14882666015625,9.55214786529541,2.9623143672943115,0.3900300860404968
1772725617883343600,2.158343505859375,9.56889820098877,2.9527430534362793,0.3613162338733673
1772725617892860400,2.1678603515625,9.501898765563965,2.9718856811523438,0.3086741268634796
1772725617902377200,2.177377197265625,9.42054271697998,2.981456995010376,0.26560330390930176
1772725617911894300,2.186894287109375,9.360722541809082,3.019742250442505,0.3206382393836975
1772725617921411000,2.1964111328125,9.44447135925293,3.029313564300537,0.4139583110809326
1772725617930927900,2.205927978515625,9.511469841003418,2.991028308868408,0.42352959513664246
1772725617940445000,2.21544482421875,9.616754531860352,2.8761727809906006,0.363709032535553
1772725617949961700,2.224961669921875,9.686145782470703,2.9216363430023193,0.32303106784820557
1772725617959478800,2.234478759765625,9.753145217895508,2.9551360607147217,0.31345975399017334
1772725617968995600,2.24399560546875,9.745966911315918,2.9694929122924805,0.3158525824546814
1772725617978512400,2.253512451171875,9.664610862731934,2.9623143672943115,0.29431718587875366
1772725617988029400,2.263029541015625,9.525827407836914,2.9623143672943115,0.32303106784820557
1772725617997546200,2.272546142578125,9.468399047851562,2.9718856811523438,0.363709032535553
1772725618007063300,2.282063232421875,9.41336441040039,2.9718856811523438,0.38285163044929504
1772725618016580000,2.291580078125,9.422935485839844,2.9623143672943115,0.3397808074951172
1772725618026097000,2.301096923828125,9.418149948120117,2.9240293502807617,0.2871387302875519
1772725618035613700,2.31061376953125,9.422935485839844,2.957528829574585,0.25363919138908386
1772725618045130800,2.320130859375,9.410971641540527,2.9790642261505127,0.23688943684101105
1772725618054647600,2.3296474609375,9.446864128112793,2.991028308868408,0.22492532432079315
1772725618064164600,2.33916455078125,9.461220741271973,2.981456995010376,0.2512463629245758
1772725618073681400,2.348681396484375,9.42054271697998,2.9551360607147217,0.2225325107574463
1772725618083198200,2.3581982421875,9.360722541809082,2.9216363430023193,0.2727817893028259
1772725618092715300,2.36771533203125,9.315258979797363,2.9383862018585205,0.4139583110809326
1772725618102232000,2.377232177734375,9.322437286376953,2.9623143672943115,0.5168496966362
1772725618111748900,2.386748779296875,9.363115310668945,2.933600664138794,0.5359922647476196
1772725618121265700,2.396265625,9.470791816711426,2.9168508052825928,0.5264210104942322
1772725618130782700,2.40578271484375,9.588040351867676,2.909672260284424,0.5168496966362
1772725618140299500,2.415299560546875,9.678967475891113,2.895315408706665,0.4833501875400543
1772725618149816600,2.424816650390625,9.760323524475098,2.8737800121307373,0.4570291340351105
1772725618159333400,2.43433349609375,9.798608779907227,2.9001009464263916,0.3852444589138031
1772725618168850200,2.44385009765625,9.757930755615234,2.9240293502807617,0.33020952343940735
1772725618178367200,2.4533671875,9.681360244750977,2.9359934329986572,0.2799602448940277
1772725618187884000,2.462884033203125,9.614361763000488,2.9551360607147217,0.2679961323738098
1772725618197400800,2.47240087890625,9.609575271606445,2.974278450012207,0.26560330390930176
1772725618206918000,2.48191796875,9.609575271606445,3.0005996227264404,0.2584248483181
1772725618216434700,2.4914345703125,9.595218658447266,2.988635540008545,0.23449662327766418
1772725618225951500,2.500951416015625,9.549755096435547,2.9766714572906494,0.2847459018230438
1772725618235468500,2.510468505859375,9.501898765563965,2.967100143432617,0.34217363595962524
1772725618244985300,2.5199853515625,9.442078590393066,2.9551360607147217,0.3684946894645691
1772725618254502100,2.529502197265625,9.382257461547852,2.9551360607147217,0.3613162338733673
1772725618264019200,2.539019287109375,9.391828536987305,2.967100143432617,0.3684946894645691
1772725618273536000,2.548535888671875,9.422935485839844,2.9479575157165527,0.349352091550827
1772725618283053000,2.558052978515625,9.463613510131836,2.9048867225646973,0.3086741268634796
1772725618292569900,2.56756982421875,9.477970123291016,2.9048867225646973,0.27756741642951965
1772725618302086700,2.577086669921875,9.442078590393066,2.926422119140625,0.2919243574142456
1772725618311603700,2.586603759765625,9.382257461547852,2.964707374572754,0.28235307335853577
1772725618321120500,2.59612060546875,9.32004451751709,2.988635540008545,0.30149564146995544
1772725618330637600,2.605637451171875,9.293723106384277,3.0077781677246094,0.31345975399017334
1772725618340154400,2.615154296875,9.308079719543457,3.0269205570220947,0.3278166949748993
1772725618349671200,2.624671142578125,9.339186668395996,3.0077781677246094,0.3326023519039154
1772725618359188000,2.63418798828125,9.387042999267578,2.988635540008545,0.33738797903060913
1772725618368705000,2.643705078125,9.446864128112793,2.974278450012207,0.3517449200153351
1772725618378221800,2.653221923828125,9.501898765563965,2.9455647468566895,0.35413774847984314
1772725618387739000,2.66273876953125,9.554540634155273,2.9383862018585205,0.3565305769443512
1772725618397255700,2.672255615234375,9.611968994140625,2.9288148880004883,0.39960137009620667
1772725618406772500,2.6817724609375,9.616754531860352,2.912065267562866,0.4043870270252228
1772725618416289500,2.69128955078125,9.650253295898438,2.902493953704834,0.37806597352027893
1772725618425806300,2.700806396484375,9.67657470703125,2.940778970718384,0.3756731450557709
1772725618435323100,2.7103232421875,9.77707290649414,2.919243574142456,0.3397808074951172
1772725618444840200,2.719840087890625,9.832108497619629,2.9001009464263916,0.31106695532798767
1772725618454357000,2.72935693359375,9.817750930786133,2.878565549850464,0.29431718587875366
1772725618463873800,2.738873779296875,9.784252166748047,2.885744094848633,0.3278166949748993
1772725618473390800,2.748390869140625,9.719645500183105,2.895315408706665,0.4163511395454407
1772725618482907600,2.75790771484375,9.607182502746582,2.9144580364227295,0.4713860750198364
1772725618492424400,2.767424560546875,9.501898765563965,2.9216363430023193,0.45224347710609436
1772725618501941500,2.77694140625,9.42054271697998,2.9216363430023193,0.4378865361213684
1772725618511458300,2.786458251953125,9.387042999267578,2.9455647468566895,0.4019941985607147
1772725618520975400,2.795975341796875,9.343972206115723,2.9551360607147217,0.4019941985607147
1772725618530492200,2.8054921875,9.298508644104004,2.9383862018585205,0.38285163044929504
1772725618540009000,2.815009033203125,9.279366493225098,2.9551360607147217,0.37806597352027893
1772725618549525800,2.82452587890625,9.329615592956543,2.998206853866577,0.363709032535553
1772725618559042800,2.834042724609375,9.308079719543457,3.0029923915863037,0.28953152894973755
1772725618568559600,2.8435595703125,9.30329418182373,2.9766714572906494,0.26560330390930176
1772725618578076700,2.85307666015625,9.346364974975586,2.967100143432617,0.2512463629245758
1772725618587593500,2.862593505859375,9.4660062789917,2.9718856811523438,0.2991028428077698
1772725618597110300,2.8721103515625,9.595218658447266,2.964707374572754,0.2991028428077698
1772725618606627300,2.88162744140625,9.633503913879395,2.950350284576416,0.2584248483181
1772725618616144100,2.89114404296875,9.633503913879395,2.9359934329986572,0.275174617767334
1772725618625661000,2.900660888671875,9.592825889587402,2.967100143432617,0.36610186100006104
1772725618635178000,2.910177978515625,9.549755096435547,3.005385160446167,0.4019941985607147
1772725618644694800,2.91969482421875,9.477970123291016,3.0245277881622314,0.380458801984787
1772725618654211800,2.9292119140625,9.430113792419434,2.981456995010376,0.3517449200153351
1772725618663728600,2.938728759765625,9.439684867858887,3.0077781677246094,0.33738797903060913
1772725618673245400,2.948245361328125,9.468399047851562,3.022135019302368,0.34695929288864136
1772725618682762200,2.95776220703125,9.497113227844238,2.9838497638702393,0.3445664644241333
1772725618692279300,2.967279296875,9.53779125213623,2.926422119140625,0.3086741268634796
1772725618701796000,2.976796142578125,9.533005714416504,2.8977081775665283,0.3086741268634796
1772725618711313200,2.986313232421875,9.542576789855957,2.864208698272705,0.3445664644241333
1772725618720830000,2.995829833984375,9.549755096435547,2.847458839416504,0.37088751792907715
1772725618730346800,3.0053466796875,9.535398483276367,2.833101987838745,0.38763725757598877
1772725618739863800,3.01486376953125,9.53779125213623,2.837887763977051,0.4019941985607147
1772725618749380600,3.024380615234375,9.561718940734863,2.861815929412842,0.41156548261642456
1772725618758897400,3.0338974609375,9.518648147583008,2.9001009464263916,0.39960137009620667
1772725618768414500,3.04341455078125,9.44447135925293,2.9359934329986572,0.3924229145050049
1772725618777931300,3.05293115234375,9.403793334960938,2.9551360607147217,0.4019941985607147
1772725618787448000,3.062447998046875,9.439684867858887,3.0077781677246094,0.4737788736820221
1772725618796965000,3.071965087890625,9.523433685302734,2.991028308868408,0.46420758962631226
1772725618806482000,3.08148193359375,9.595218658447266,2.964707374572754,0.41156548261642456
1772725618815998700,3.090998779296875,9.640682220458984,2.933600664138794,0.33499518036842346
1772725618825515800,3.100515869140625,9.643074989318848,2.9599215984344482,0.28235307335853577
1772725618835032600,3.110032470703125,9.633503913879395,3.0173492431640625,0.3086741268634796
1772725618844549600,3.119549560546875,9.578469276428223,3.0317063331604004,0.29431718587875366
1772725618854066400,3.12906640625,9.489934921264648,3.022135019302368,0.28953152894973755
1772725618863583200,3.138583251953125,9.461220741271973,3.050848960876465,0.275174617767334
1772725618873100000,3.14810009765625,9.4660062789917,3.0412776470184326,0.2919243574142456
1772725618882617000,3.1576171875,9.556933403015137,3.0101709365844727,0.3158525824546814
1772725618892134000,3.1671337890625,9.65503978729248,2.9240293502807617,0.3732803463935852
1772725618901651000,3.17665087890625,9.702896118164062,2.857030153274536,0.39481574296951294
1772725618911167700,3.186167724609375,9.678967475891113,2.8115665912628174,0.39481574296951294
1772725618920684500,3.1956845703125,9.564111709594727,2.8115665912628174,0.397208571434021
1772725618930201600,3.20520166015625,9.473184585571289,2.878565549850464,0.4331009089946747
1772725618939718400,3.214718505859375,9.346364974975586,2.8905298709869385,0.4211367964744568
1772725618949235500,3.2242353515625,9.257830619812012,2.902493953704834,0.4043870270252228
1772725618958752300,3.233752197265625,9.205188751220703,2.9240293502807617,0.3900300860404968
1772725618968269000,3.24326904296875,9.260223388671875,2.967100143432617,0.4043870270252228
1772725618977786000,3.2527861328125,9.308079719543457,2.964707374572754,0.39960137009620667
1772725618987303000,3.262302978515625,9.324830055236816,2.943171739578247,0.3445664644241333
1772725618996819700,3.27181982421875,9.324830055236816,2.9551360607147217,0.34217363595962524
1772725619006336500,3.28133642578125,9.399007797241211,2.9599215984344482,0.3924229145050049
1772725619015853600,3.290853515625,9.506684303283691,2.974278450012207,0.4211367964744568
1772725619025370400,3.300370361328125,9.580862045288086,2.9527430534362793,0.35892340540885925
1772725619034887400,3.309887451171875,9.650253295898438,2.9455647468566895,0.31345975399017334
1772725619044404200,3.319404296875,9.633503913879395,2.9527430534362793,0.31106695532798767
1772725619053921000,3.328921142578125,9.643074989318848,2.9455647468566895,0.32542386651039124
1772725619063438000,3.33843798828125,9.69093132019043,2.950350284576416,0.3565305769443512
1772725619072955000,3.347954833984375,9.722038269042969,2.957528829574585,0.35892340540885925
1772725619082472000,3.357471923828125,9.710074424743652,2.9216363430023193,0.34217363595962524
1772725619091988700,3.36698876953125,9.652647018432617,2.8977081775665283,0.36610186100006104
1772725619101505500,3.376505615234375,9.664610862731934,2.9240293502807617,0.3756731450557709
1772725619111022300,3.386022216796875,9.645467758178711,2.9455647468566895,0.3565305769443512
1772725619120539400,3.395539306640625,9.607182502746582,2.9718856811523438,0.275174617767334
1772725619130056200,3.40505615234375,9.501898765563965,2.9383862018585205,0.23688943684101105
1772725619139573200,3.4145732421875,9.430113792419434,2.9551360607147217,0.2991028428077698
1772725619149090000,3.424090087890625,9.410971641540527,2.988635540008545,0.35892340540885925
1772725619158606800,3.43360693359375,9.389435768127441,2.9599215984344482,0.36610186100006104
1772725619168124000,3.4431240234375,9.346364974975586,2.950350284576416,0.3206382393836975
1772725619177640700,3.452640625,9.317651748657227,2.950350284576416,0.28953152894973755
1772725619187157500,3.462157470703125,9.298508644104004,2.9694929122924805,0.31106695532798767
1772725619196674600,3.471674560546875,9.339186668395996,2.988635540008545,0.30149564146995544
1772725619206191400,3.48119140625,9.4061861038208,2.957528829574585,0.2871387302875519
1772725619215708200,3.490708251953125,9.482755661010742,2.926422119140625,0.26560330390930176
1772725619225225200,3.50022509765625,9.506684303283691,2.895315408706665,0.2632105052471161
1772725619234742000,3.509741943359375,9.525827407836914,2.902493953704834,0.26560330390930176
1772725619244258800,3.5192587890625,9.573683738708496,2.9383862018585205,0.3038884699344635
1772725619253776000,3.52877587890625,9.595218658447266,2.943171739578247,0.2919243574142456
1772725619263292700,3.538292724609375,9.614361763000488,2.926422119140625,0.26560330390930176
1772725619272809700,3.547809814453125,9.650253295898438,2.950350284576416,0.30628129839897156
1772725619282326500,3.557326416015625,9.712467193603516,2.9718856811523438,0.363709032535553
1772725619291843300,3.56684326171875,9.772287368774414,2.964707374572754,0.3565305769443512
1772725619301360400,3.5763603515625,9.745966911315918,2.940778970718384,0.33499518036842346
1772725619310877200,3.585877197265625,9.678967475891113,2.9144580364227295,0.3158525824546814
1772725619320394000,3.59539404296875,9.592825889587402,2.9240293502807617,0.36610186100006104
1772725619329911000,3.6049111328125,9.477970123291016,2.9551360607147217,0.38763725757598877
1772725619339427800,3.614427734375,9.382257461547852,2.950350284576416,0.380458801984787
1772725619348944600,3.623944580078125,9.351150512695312,2.957528829574585,0.3732803463935852
1772725619358461700,3.633461669921875,9.360722541809082,2.9862427711486816,0.3326023519039154
1772725619367978500,3.642978515625,9.418149948120117,2.964707374572754,0.2560320198535919
1772725619377495300,3.652495361328125,9.518648147583008,2.926422119140625,0.2225325107574463
1772725619387012400,3.662012451171875,9.54496955871582,2.909672260284424,0.1986042857170105
1772725619396529200,3.671529052734375,9.602396965026855,2.8666014671325684,0.2679961323738098
1772725619406046200,3.681046142578125,9.554540634155273,2.8283164501190186,0.3565305769443512
1772725619415563000,3.69056298828125,9.42772102355957,2.840280532836914,0.3900300860404968
1772725619425079800,3.700079833984375,9.329615592956543,2.878565549850464,0.4498506486415863
1772725619434596600,3.7095966796875,9.284152030944824,2.9288148880004883,0.4737788736820221
1772725619444113700,3.71911376953125,9.329615592956543,2.9694929122924805,0.45224347710609436
1772725619453630500,3.72863037109375,9.425328254699707,2.9455647468566895,0.4570291340351105
1772725619463147500,3.7381474609375,9.53779125213623,2.9288148880004883,0.4091726839542389
1772725619472664300,3.747664306640625,9.595218658447266,2.9072794914245605,0.3900300860404968
1772725619482181000,3.75718115234375,9.650253295898438,2.9383862018585205,0.33020952343940735
1772725619491698200,3.7666982421875,9.69093132019043,2.9551360607147217,0.3038884699344635
1772725619501215000,3.776215087890625,9.743574142456055,2.9623143672943115,0.2847459018230438
1772725619510732000,3.78573193359375,9.698110580444336,2.9623143672943115,0.22971096634864807
1772725619520248800,3.795248779296875,9.645467758178711,2.967100143432617,0.2225325107574463
1772725619529765600,3.804765625,9.611968994140625,2.998206853866577,0.2727817893028259
1772725619539282400,3.814282470703125,9.678967475891113,3.005385160446167,0.33499518036842346
1772725619548799500,3.823799560546875,9.779465675354004,2.967100143432617,0.37806597352027893
1772725619558316300,3.83331640625,9.784252166748047,2.8929226398468018,0.3445664644241333
1772725619567833000,3.8428330078125,9.707681655883789,2.8450660705566406,0.2967100143432617
1772725619577350100,3.85235009765625,9.602396965026855,2.8689942359924316,0.3756731450557709
1772725619586867000,3.861866943359375,9.489934921264648,2.8977081775665283,0.42831525206565857
1772725619596384000,3.871384033203125,9.403793334960938,2.912065267562866,0.4211367964744568
1772725619605900800,3.88090087890625,9.332008361816406,2.9288148880004883,0.397208571434021
1772725619615417600,3.89041748046875,9.305686950683594,2.9216363430023193,0.3900300860404968
1772725619624934700,3.8999345703125,9.253045082092285,2.9048867225646973,0.3852444589138031
1772725619634451500,3.909451416015625,9.257830619812012,2.9168508052825928,0.41156548261642456
1772725619643968500,3.918968505859375,9.286544799804688,2.9216363430023193,0.4331009089946747
1772725619653485300,3.9284853515625,9.32722282409668,2.933600664138794,0.4546363055706024
1772725619663002000,3.938002197265625,9.375079154968262,2.902493953704834,0.42352959513664246
1772725619672519000,3.947518798828125,9.394221305847168,2.9288148880004883,0.4139583110809326
1772725619682036000,3.957035888671875,9.384650230407715,2.9240293502807617,0.39960137009620667
1772725619691552800,3.966552734375,9.461220741271973,2.9527430534362793,0.4498506486415863
1772725619701069800,3.97606982421875,9.578469276428223,2.940778970718384,0.4211367964744568
1772725619710586600,3.985586669921875,9.638289451599121,2.926422119140625,0.3613162338733673
1772725619720103400,3.995103515625,9.678967475891113,2.861815929412842,0.32303106784820557
1772725619729620500,4.004620361328125,9.748359680175781,2.9048867225646973,0.349352091550827
1772725619739137300,4.01413720703125,9.81535816192627,2.9072794914245605,0.4019941985607147
1772725619748654000,4.023654052734375,9.860821723937988,2.926422119140625,0.33738797903060913
1772725619758171100,4.033171142578125,9.829715728759766,2.909672260284424,0.27756741642951965
1772725619767688000,4.04268798828125,9.78664493560791,2.9072794914245605,0.26560330390930176
1772725619777204700,4.052204833984375,9.750752449035645,2.919243574142456,0.2560320198535919
1772725619786721800,4.0617216796875,9.664610862731934,2.957528829574585,0.24885354936122894
1772725619796238600,4.071238525390625,9.525827407836914,2.974278450012207,0.25363919138908386
1772725619805755400,4.08075537109375,9.387042999267578,2.998206853866577,0.275174617767334
1772725619815272400,4.0902724609375,9.29611587524414,2.991028308868408,0.3158525824546814
1772725619824789200,4.099789306640625,9.243474006652832,2.998206853866577,0.349352091550827
1772725619834306300,4.109306396484375,9.20997428894043,2.998206853866577,0.3517449200153351
1772725619843823000,4.118822998046875,9.17886734008789,2.9694929122924805,0.34695929288864136
1772725619853340000,4.12833984375,9.162117958068848,2.9216363430023193,0.31345975399017334
1772725619862856700,4.137856689453125,9.176474571228027,2.9623143672943115,0.3397808074951172
1772725619872373800,4.147373779296875,9.300901412963867,2.9694929122924805,0.3900300860404968
1772725619881890600,4.156890625,9.408578872680664,2.933600664138794,0.3684946894645691
1772725619891407600,4.16640771484375,9.477970123291016,2.8929226398468018,0.33020952343940735
1772725619900924400,4.17592431640625,9.497113227844238,2.895315408706665,0.3038884699344635
1772725619910441200,4.185441162109375,9.56650447845459,2.9048867225646973,0.38285163044929504
1772725619919958300,4.194958251953125,9.590433120727539,2.9312076568603516,0.4666004180908203
1772725619929475000,4.20447509765625,9.595218658447266,2.9048867225646973,0.4546363055706024
1772725619938991900,4.213991943359375,9.56650447845459,2.8809585571289062,0.4426721930503845
1772725619948509000,4.223509033203125,9.535398483276367,2.885744094848633,0.4905286431312561
1772725619958025700,4.233025634765625,9.53061294555664,2.912065267562866,0.5168496966362
1772725619967542500,4.24254248046875,9.57607650756836,2.940778970718384,0.5240281820297241
1772725619977059600,4.2520595703125,9.647860527038574,2.9359934329986572,0.47617170214653015
1772725619986576400,4.261576416015625,9.674181938171387,2.9240293502807617,0.41156548261642456
1772725619996093200,4.27109326171875,9.705288887023926,2.8833513259887695,0.3397808074951172
1772725620005610200,4.2806103515625,9.712467193603516,2.902493953704834,0.3278166949748993
1772725620015127000,4.290126953125,9.652647018432617,2.940778970718384,0.31345975399017334
1772725620024644000,4.29964404296875,9.57607650756836,2.933600664138794,0.34695929288864136
1772725620034161000,4.309160888671875,9.525827407836914,2.9240293502807617,0.3732803463935852
1772725620043677700,4.318677734375,9.446864128112793,2.926422119140625,0.3684946894645691
1772725620053194800,4.32819482421875,9.461220741271973,2.9455647468566895,0.36610186100006104
1772725620062711600,4.337711669921875,9.43489933013916,2.926422119140625,0.3517449200153351
1772725620072228600,4.347228515625,9.403793334960938,2.9240293502807617,0.33738797903060913
1772725620081745400,4.356745361328125,9.351150512695312,2.9599215984344482,0.3684946894645691
1772725620091262200,4.36626220703125,9.293723106384277,2.9838497638702393,0.39960137009620667
1772725620100779000,4.375779052734375,9.286544799804688,3.022135019302368,0.38763725757598877
1772725620110296000,4.385296142578125,9.33440113067627,3.036491870880127,0.3445664644241333
1772725620119812900,4.394812744140625,9.42772102355957,3.053241729736328,0.2871387302875519
1772725620129330000,4.404329833984375,9.573683738708496,3.019742250442505,0.26081767678260803
1772725620138846700,4.4138466796875,9.66221809387207,2.9766714572906494,0.24167509377002716
1772725620148363500,4.423363525390625,9.7005033493042,2.940778970718384,0.22492532432079315
1772725620157880600,4.432880615234375,9.69093132019043,2.9240293502807617,0.24167509377002716
1772725620167397400,4.4423974609375,9.671789169311523,2.9383862018585205,0.2967100143432617
1772725620176914200,4.4519140625,9.616754531860352,2.909672260284424,0.31345975399017334
1772725620186431000,4.461430908203125,9.56889820098877,2.9144580364227295,0.31345975399017334
1772725620195948000,4.470947998046875,9.547362327575684,2.8929226398468018,0.31345975399017334
1772725620205464800,4.48046484375,9.542576789855957,2.8522446155548096,0.3206382393836975
1772725620214982000,4.48998193359375,9.54496955871582,2.840280532836914,0.33738797903060913
1772725620224498700,4.499498779296875,9.521040916442871,2.809173822402954,0.39481574296951294
1772725620234015500,4.509015380859375,9.525827407836914,2.7828526496887207,0.41874396800994873
1772725620243532500,4.518532470703125,9.492327690124512,2.7804598808288574,0.42352959513664246
1772725620253049300,4.52804931640625,9.425328254699707,2.7732813358306885,0.3732803463935852
1772725620262566400,4.53756640625,9.422935485839844,2.7972097396850586,0.34217363595962524
1772725620272083200,4.547083251953125,9.477970123291016,2.8283164501190186,0.34217363595962524
1772725620281600000,4.55660009765625,9.53779125213623,2.837887763977051,0.31106695532798767
1772725620291116800,4.56611669921875,9.595218658447266,2.8522446155548096,0.29431718587875366
1772725620300633900,4.5756337890625,9.595218658447266,2.8354947566986084,0.2871387302875519
1772725620310150700,4.585150634765625,9.54496955871582,2.854637384414673,0.2919243574142456
1772725620319667700,4.594667724609375,9.4660062789917,2.8905298709869385,0.3517449200153351
1772725620329184500,4.6041845703125,9.42054271697998,2.9455647468566895,0.3924229145050049
1772725620338701300,4.613701416015625,9.387042999267578,2.974278450012207,0.363709032535553
1772725620348218400,4.62321826171875,9.389435768127441,2.9694929122924805,0.30149564146995544
1772725620357735200,4.632735107421875,9.446864128112793,2.9599215984344482,0.3038884699344635
1772725620367252000,4.642251953125,9.523433685302734,2.9599215984344482,0.32542386651039124
1772725620376769000,4.65176904296875,9.633503913879395,2.9766714572906494,0.30628129839897156
1772725620386285800,4.661285888671875,9.719645500183105,2.967100143432617,0.23210379481315613
1772725620395803000,4.670802978515625,9.762716293334961,2.957528829574585,0.1698904037475586
1772725620405319700,4.680319580078125,9.80817985534668,2.9694929122924805,0.14356936514377594
1772725620414836500,4.68983642578125,9.796216011047363,2.950350284576416,0.12921242415905
1772725620424353300,4.699353271484375,9.76989459991455,2.9455647468566895,0.22013968229293823
1772725620433870300,4.708870361328125,9.741181373596191,2.9144580364227295,0.2560320198535919
1772725620443387100,4.71838720703125,9.657432556152344,2.8809585571289062,0.2871387302875519
1772725620452904200,4.727904296875,9.626325607299805,2.8809585571289062,0.349352091550827
1772725620462421000,4.7374208984375,9.597611427307129,2.888136863708496,0.39481574296951294
1772725620471937800,4.746937744140625,9.561718940734863,2.864208698272705,0.37806597352027893
1772725620481454800,4.756454833984375,9.487542152404785,2.8211379051208496,0.3732803463935852
1772725620490971600,4.7659716796875,9.384650230407715,2.7972097396850586,0.38763725757598877
1772725620500488700,4.77548876953125,9.29611587524414,2.8043880462646484,0.3924229145050049
1772725620510005500,4.785005615234375,9.250652313232422,2.8283164501190186,0.4378865361213684
1772725620519522300,4.794522216796875,9.20279598236084,2.847458839416504,0.40677985548973083
1772725620529039000,4.8040390625,9.250652313232422,2.8450660705566406,0.38763725757598877
1772725620538556200,4.81355615234375,9.370293617248535,2.8689942359924316,0.35413774847984314
1772725620548073000,4.823072998046875,9.533005714416504,2.8905298709869385,0.32303106784820557
1772725620557589800,4.83258984375,9.674181938171387,2.8809585571289062,0.25363919138908386
1772725620567106800,4.84210693359375,9.712467193603516,2.847458839416504,0.21296121180057526
1772725620576623600,4.85162353515625,9.69093132019043,2.8139593601226807,0.2512463629245758
1772725620586140700,4.861140625,9.650253295898438,2.861815929412842,0.34217363595962524
1772725620595657500,4.870657470703125,9.631111145019531,2.878565549850464,0.4498506486415863
1772725620605174300,4.88017431640625,9.592825889587402,2.8737800121307373,0.48095735907554626
1772725620614691000,4.889691162109375,9.592825889587402,2.8522446155548096,0.4498506486415863
1772725620624208100,4.8992080078125,9.580862045288086,2.8498518466949463,0.39960137009620667
1772725620633725000,4.908724853515625,9.556933403015137,2.8666014671325684,0.3565305769443512
1772725620643242000,4.918241943359375,9.554540634155273,2.8977081775665283,0.3206382393836975
1772725620652758800,4.9277587890625,9.611968994140625,2.9288148880004883,0.31824541091918945
1772725620662275600,4.937275634765625,9.686145782470703,2.8761727809906006,0.2991028428077698
1772725620671792600,4.946792724609375,9.69093132019043,2.837887763977051,0.22971096634864807
1772725620681309400,4.956309326171875,9.659825325012207,2.801995277404785,0.22971096634864807
1772725620690826500,4.965826416015625,9.611968994140625,2.830709218978882,0.2919243574142456
1772725620700343300,4.97534326171875,9.556933403015137,2.871387243270874,0.3158525824546814
1772725620709860000,4.984860107421875,9.499505996704102,2.847458839416504,0.3038884699344635
1772725620719377200,4.994377197265625,9.446864128112793,2.847458839416504,0.2847459018230438
1772725620728894000,5.00389404296875,9.432506561279297,2.8498518466949463,0.29431718587875366
1772725620738410800,5.01341064453125,9.389435768127441,2.847458839416504,0.31824541091918945
1772725620747927800,5.022927734375,9.353543281555176,2.8737800121307373,0.32542386651039124
1772725620757444600,5.032444580078125,9.312865257263184,2.861815929412842,0.33499518036842346
1772725620766961400,5.04196142578125,9.336793899536133,2.8833513259887695,0.34217363595962524
1772725620776478500,5.051478515625,9.432506561279297,2.9001009464263916,0.3613162338733673
1772725620785995300,5.060995361328125,9.518648147583008,2.8809585571289062,0.3278166949748993
1772725620795512000,5.070511962890625,9.56889820098877,2.8666014671325684,0.2991028428077698
1772725620805029000,5.080029052734375,9.602396965026855,2.854637384414673,0.28953152894973755
1772725620814546000,5.0895458984375,9.623932838439941,2.878565549850464,0.2273181527853012
1772725620824063000,5.09906298828125,9.600004196166992,2.9312076568603516,0.2225325107574463
1772725620833579800,5.108579833984375,9.619147300720215,2.9623143672943115,0.23210379481315613
1772725620843096600,5.1180966796875,9.638289451599121,2.9623143672943115,0.2225325107574463
1772725620852613400,5.12761328125,9.645467758178711,2.933600664138794,0.23688943684101105
1772725620862130400,5.13713037109375,9.674181938171387,2.9048867225646973,0.24646073579788208
1772725620871647200,5.146647216796875,9.698110580444336,2.888136863708496,0.26081767678260803
1772725620881164300,5.156164306640625,9.66939640045166,2.8666014671325684,0.31345975399017334
1772725620890681000,5.16568115234375,9.647860527038574,2.833101987838745,0.3565305769443512
1772725620900198000,5.175197998046875,9.602396965026855,2.8283164501190186,0.37088751792907715
1772725620909715000,5.18471484375,9.573683738708496,2.8283164501190186,0.35892340540885925
1772725620919231700,5.194231689453125,9.533005714416504,2.823530673980713,0.3684946894645691
1772725620928748800,5.203748779296875,9.53779125213623,2.823530673980713,0.3613162338733673
1772725620938265600,5.213265625,9.556933403015137,2.830709218978882,0.3445664644241333
1772725620947782400,5.222782470703125,9.521040916442871,2.809173822402954,0.31106695532798767
1772725620957299200,5.23229931640625,9.45882797241211,2.8043880462646484,0.2919243574142456
1772725620966816300,5.241816162109375,9.430113792419434,2.7876384258270264,0.3732803463935852
1772725620976333000,5.2513330078125,9.456435203552246,2.809173822402954,0.4570291340351105
1772725620985850000,5.26085009765625,9.456435203552246,2.785245656967163,0.49292147159576416
1772725620995367000,5.270366943359375,9.501898765563965,2.7876384258270264,0.4378865361213684
1772725621004883700,5.2798837890625,9.489934921264648,2.8211379051208496,0.38285163044929504
1772725621014400800,5.28940087890625,9.463613510131836,2.857030153274536,0.3613162338733673
1772725621023917600,5.29891748046875,9.485149383544922,2.9216363430023193,0.33499518036842346
1772725621033434400,5.308434326171875,9.523433685302734,2.9383862018585205,0.30149564146995544
1772725621042951400,5.317951416015625,9.56650447845459,2.9288148880004883,0.26560330390930176
1772725621052468200,5.32746826171875,9.616754531860352,2.9216363430023193,0.2392822653055191
1772725621061985300,5.3369853515625,9.68375301361084,2.909672260284424,0.1986042857170105
1772725621071502000,5.346502197265625,9.705288887023926,2.9216363430023193,0.17228323221206665
1772725621081019000,5.356018798828125,9.681360244750977,2.9144580364227295,0.12442677468061447
1772725621090535700,5.36553564453125,9.652647018432617,2.9359934329986572,0.16510476171970367
1772725621100052700,5.375052734375,9.664610862731934,2.9527430534362793,0.19142581522464752
1772725621109569500,5.384569580078125,9.643074989318848,2.9312076568603516,0.2273181527853012
1772725621119086600,5.394086669921875,9.604789733886719,2.8905298709869385,0.275174617767334
1772725621128603400,5.403603271484375,9.518648147583008,2.878565549850464,0.3038884699344635
1772725621138120200,5.4131201171875,9.43489933013916,2.895315408706665,0.3158525824546814
1772725621147637200,5.42263720703125,9.4061861038208,2.8833513259887695,0.33020952343940735
1772725621157154000,5.432154052734375,9.408578872680664,2.871387243270874,0.349352091550827
1772725621166671000,5.441671142578125,9.437292098999023,2.888136863708496,0.33020952343940735
1772725621176188000,5.45118798828125,9.45882797241211,2.8689942359924316,0.2871387302875519
1772725621185704700,5.46070458984375,9.525827407836914,2.871387243270874,0.3278166949748993
1772725621195221500,5.470221435546875,9.547362327575684,2.840280532836914,0.3038884699344635
1772725621204738600,5.479738525390625,9.58325481414795,2.840280532836914,0.32542386651039124
1772725621214255400,5.48925537109375,9.57607650756836,2.792423963546753,0.33499518036842346
1772725621223772200,5.498772216796875,9.607182502746582,2.8043880462646484,0.32542386651039124
1772725621233289200,5.508289306640625,9.602396965026855,2.799602508544922,0.2991028428077698
1772725621242806000,5.517805908203125,9.561718940734863,2.809173822402954,0.275174617767334
1772725621252323000,5.527322998046875,9.487542152404785,2.8426733016967773,0.30628129839897156
1772725621261840000,5.53683984375,9.432506561279297,2.9048867225646973,0.275174617767334
1772725621271356700,5.546356689453125,9.379864692687988,2.9455647468566895,0.26081767678260803
1772725621280873500,5.55587353515625,9.34875774383545,2.9599215984344482,0.26081767678260803
1772725621290390500,5.565390625,9.34157943725586,2.9862427711486816,0.29431718587875366
1772725621299907300,5.5749072265625,9.355937004089355,2.9288148880004883,0.3038884699344635
1772725621309424400,5.58442431640625,9.42772102355957,2.9168508052825928,0.33738797903060913
1772725621318941200,5.593941162109375,9.492327690124512,2.8737800121307373,0.380458801984787
1772725621328458000,5.6034580078125,9.523433685302734,2.8498518466949463,0.33738797903060913
1772725621337975000,5.61297509765625,9.549755096435547,2.864208698272705,0.29431718587875366
1772725621347491800,5.622491943359375,9.580862045288086,2.9048867225646973,0.2919243574142456
1772725621357009000,5.6320087890625,9.609575271606445,2.8905298709869385,0.27756741642951965
1772725621366525700,5.641525634765625,9.58325481414795,2.895315408706665,0.20817556977272034
1772725621376042500,5.65104248046875,9.53061294555664,2.9072794914245605,0.20578274130821228
1772725621385559600,5.6605595703125,9.487542152404785,2.8737800121307373,0.26081767678260803
1772725621395076400,5.670076416015625,9.446864128112793,2.878565549850464,0.29431718587875366
1772725621404593200,5.67959326171875,9.418149948120117,2.857030153274536,0.363709032535553
1772725621414110200,5.689110107421875,9.422935485839844,2.861815929412842,0.39960137009620667
1772725621423627000,5.698626953125,9.44447135925293,2.8594231605529785,0.41874396800994873
1772725621433143800,5.708143798828125,9.477970123291016,2.878565549850464,0.3732803463935852
1772725621442660900,5.717660888671875,9.547362327575684,2.895315408706665,0.34695929288864136
1772725621452177700,5.727177734375,9.626325607299805,2.8905298709869385,0.3326023519039154
1772725621461694500,5.736694580078125,9.647860527038574,2.8833513259887695,0.2967100143432617
1772725621471211500,5.74621142578125,9.647860527038574,2.895315408706665,0.2727817893028259
1772725621480728300,5.755728271484375,9.640682220458984,2.9240293502807617,0.2273181527853012
1772725621490245400,5.765245361328125,9.607182502746582,2.9072794914245605,0.2584248483181
1772725621499762200,5.77476220703125,9.513862609863281,2.871387243270874,0.2991028428077698
1772725621509279000,5.784279052734375,9.432506561279297,2.8594231605529785,0.3278166949748993
1772725621518795800,5.793795654296875,9.422935485839844,2.871387243270874,0.39481574296951294
1772725621528312800,5.803312744140625,9.463613510131836,2.871387243270874,0.47617170214653015
1772725621537829600,5.81282958984375,9.509077072143555,2.833101987838745,0.4666004180908203
1772725621547346700,5.8223466796875,9.489934921264648,2.785245656967163,0.4259224236011505
1772725621556863500,5.831863525390625,9.4660062789917,2.7828526496887207,0.3900300860404968
1772725621566380300,5.84138037109375,9.475577354431152,2.823530673980713,0.3900300860404968
1772725621575897300,5.8508974609375,9.499505996704102,2.8522446155548096,0.380458801984787
1772725621585414100,5.8604140625,9.621540069580078,2.8594231605529785,0.3158525824546814
1772725621594931200,5.86993115234375,9.734002113342285,2.801995277404785,0.2560320198535919
1772725621604448000,5.879447998046875,9.817750930786133,2.794816732406616,0.2273181527853012
1772725621613964800,5.88896484375,9.829715728759766,2.7804598808288574,0.24646073579788208
1772725621623481600,5.898481689453125,9.791430473327637,2.792423963546753,0.2727817893028259
1772725621632998700,5.90799853515625,9.68375301361084,2.8426733016967773,0.3206382393836975
1772725621642515500,5.917515380859375,9.58325481414795,2.8498518466949463,0.3038884699344635
1772725621652032500,5.927032470703125,9.480362892150879,2.8905298709869385,0.2991028428077698
1772725621661549300,5.93654931640625,9.42772102355957,2.9288148880004883,0.33738797903060913
1772725621671066000,5.946066162109375,9.410971641540527,2.9527430534362793,0.3326023519039154
1772725621680583200,5.955583251953125,9.45164966583252,2.9240293502807617,0.2847459018230438
1772725621690100000,5.965099853515625,9.523433685302734,2.926422119140625,0.22492532432079315
1772725621699616800,5.97461669921875,9.58325481414795,2.9216363430023193,0.20099709928035736
1772725621709133800,5.9841337890625,9.578469276428223,2.8833513259887695,0.1698904037475586
1772725621718650600,5.993650634765625,9.571290969848633,2.8929226398468018,0.1698904037475586
1772725621728167400,6.00316748046875,9.619147300720215,2.8666014671325684,0.21296121180057526
1772725621737684500,6.0126845703125,9.647860527038574,2.857030153274536,0.22492532432079315
1772725621747201300,6.022201171875,9.645467758178711,2.830709218978882,0.22492532432079315
1772725621756718000,6.031718017578125,9.588040351867676,2.7900311946868896,0.20578274130821228
1772725621766235100,6.041235107421875,9.492327690124512,2.806781053543091,0.2679961323738098
1772725621775752000,6.050751953125,9.41336441040039,2.833101987838745,0.3086741268634796
1772725621785269000,6.06026904296875,9.379864692687988,2.878565549850464,0.34217363595962524
1772725621794785800,6.069785888671875,9.329615592956543,2.8666014671325684,0.3397808074951172
1772725621804302600,6.079302490234375,9.28893756866455,2.8450660705566406,0.3397808074951172
1772725621813819600,6.088819580078125,9.32722282409668,2.8354947566986084,0.3852444589138031
1772725621823336400,6.09833642578125,9.418149948120117,2.8043880462646484,0.4307080805301666
1772725621832853500,6.107853515625,9.475577354431152,2.7972097396850586,0.37088751792907715
1772725621842370300,6.117370361328125,9.547362327575684,2.7876384258270264,0.30628129839897156
1772725621851887000,6.12688720703125,9.628718376159668,2.801995277404785,0.28235307335853577
1772725621861404000,6.13640380859375,9.705288887023926,2.8354947566986084,0.2799602448940277
1772725621870921000,6.1459208984375,9.707681655883789,2.823530673980713,0.2225325107574463
1772725621880437800,6.155437744140625,9.635896682739258,2.861815929412842,0.22492532432079315
1772725621889954800,6.164954833984375,9.588040351867676,2.8737800121307373,0.33499518036842346
1772725621899471600,6.1744716796875,9.585647583007812,2.871387243270874,0.397208571434021
1772725621908988400,6.183988525390625,9.614361763000488,2.8761727809906006,0.4713860750198364
1772725621918505200,6.193505126953125,9.635896682739258,2.8594231605529785,0.44745782017707825
1772725621928022300,6.203022216796875,9.69093132019043,2.833101987838745,0.397208571434021
1772725621937539000,6.2125390625,9.7005033493042,2.840280532836914,0.35892340540885925
1772725621947055900,6.222055908203125,9.693324089050293,2.8283164501190186,0.3158525824546814
1772725621956573000,6.231572998046875,9.640682220458984,2.823530673980713,0.2799602448940277
1772725621966089700,6.24108984375,9.571290969848633,2.8594231605529785,0.27756741642951965
1772725621975606800,6.250606689453125,9.518648147583008,2.8594231605529785,0.2799602448940277
1772725621985123600,6.26012353515625,9.516255378723145,2.8737800121307373,0.2847459018230438
1772725621994640400,6.269640380859375,9.497113227844238,2.833101987838745,0.24885354936122894
1772725622004157400,6.279157470703125,9.408578872680664,2.8354947566986084,0.20338992774486542
1772725622013674200,6.28867431640625,9.322437286376953,2.857030153274536,0.2225325107574463
1772725622023191300,6.29819140625,9.305686950683594,2.8737800121307373,0.2799602448940277
1772725622032708000,6.3077080078125,9.343972206115723,2.847458839416504,0.33499518036842346
1772725622042225000,6.317224853515625,9.401400566101074,2.816352367401123,0.363709032535553
1772725622051741700,6.32674169921875,9.477970123291016,2.8211379051208496,0.363709032535553
1772725622061258800,6.3362587890625,9.4660062789917,2.8139593601226807,0.4091726839542389
1772725622070775600,6.345775634765625,9.456435203552246,2.8522446155548096,0.4091726839542389
1772725622080292600,6.355292724609375,9.425328254699707,2.8689942359924316,0.3732803463935852
1772725622089809400,6.364809326171875,9.44447135925293,2.8833513259887695,0.3732803463935852
1772725622099326200,6.374326171875,9.518648147583008,2.9072794914245605,0.3397808074951172
1772725622108843300,6.38384326171875,9.609575271606445,2.885744094848633,0.31106695532798767
1772725622118360000,6.393360107421875,9.686145782470703,2.8977081775665283,0.2871387302875519
1772725622127876900,6.402876953125,9.743574142456055,2.847458839416504,0.24885354936122894
1772725622137394000,6.412393798828125,9.753145217895508,2.8594231605529785,0.25363919138908386
1772725622146910700,6.42191064453125,9.76989459991455,2.8689942359924316,0.26081767678260803
1772725622156427800,6.431427734375,9.772287368774414,2.8354947566986084,0.31824541091918945
1772725622165944600,6.440944580078125,9.767501831054688,2.816352367401123,0.34695929288864136
1772725622175461400,6.45046142578125,9.76989459991455,2.809173822402954,0.3565305769443512
1772725622184978200,6.459978271484375,9.707681655883789,2.799602508544922,0.3517449200153351
1772725622194495200,6.4694951171875,9.628718376159668,2.806781053543091,0.34217363595962524
1772725622204012000,6.479011962890625,9.55214786529541,2.823530673980713,0.32542386651039124
1772725622213529000,6.488529052734375,9.477970123291016,2.8426733016967773,0.3852444589138031
1772725622223046000,6.4980458984375,9.437292098999023,2.8283164501190186,0.37806597352027893
1772725622232562700,6.507562744140625,9.384650230407715,2.801995277404785,0.349352091550827
1772725622242079700,6.517079833984375,9.389435768127441,2.837887763977051,0.3206382393836975
1772725622251596500,6.526596435546875,9.379864692687988,2.854637384414673,0.2919243574142456
1772725622261113600,6.536113525390625,9.367900848388672,2.864208698272705,0.24646073579788208
1772725622270630400,6.54563037109375,9.339186668395996,2.871387243270874,0.24646073579788208
1772725622280147200,6.555147216796875,9.353543281555176,2.8689942359924316,0.2847459018230438
1772725622289664000,6.5646640625,9.358329772949219,2.8666014671325684,0.3326023519039154
1772725622299181000,6.57418115234375,9.43489933013916,2.8761727809906006,0.363709032535553
1772725622308697900,6.58369775390625,9.501898765563965,2.854637384414673,0.32303106784820557
1772725622318215000,6.59321484375,9.542576789855957,2.8594231605529785,0.29431718587875366
1772725622327745000,6.6027451171875,9.578469276428223,2.8666014671325684,0.30149564146995544
1772725622337248500,6.61224853515625,9.638289451599121,2.830709218978882,0.3086741268634796
1772725622346765600,6.621765625,9.667003631591797,2.8115665912628174,0.33020952343940735
1772725622356282400,6.631282470703125,9.66939640045166,2.8115665912628174,0.35413774847984314
1772725622365799200,6.640799072265625,9.66939640045166,2.8115665912628174,0.33738797903060913
1772725622375316200,6.650316162109375,9.633503913879395,2.837887763977051,0.3206382393836975
1772725622384833000,6.6598330078125,9.65503978729248,2.830709218978882,0.3326023519039154
1772725622394349800,6.669349853515625,9.731609344482422,2.8115665912628174,0.31824541091918945
1772725622403867000,6.678866943359375,9.745966911315918,2.799602508544922,0.2991028428077698
1772725622413383700,6.6883837890625,9.741181373596191,2.761317253112793,0.28235307335853577
1772725622422900500,6.697900390625,9.7005033493042,2.785245656967163,0.28953152894973755
1772725622432417500,6.70741748046875,9.619147300720215,2.8211379051208496,0.27756741642951965
1772725622441934300,6.716934326171875,9.485149383544922,2.8450660705566406,0.28953152894973755
1772725622451451400,6.726451416015625,9.375079154968262,2.8594231605529785,0.2847459018230438
1772725622460968200,6.73596826171875,9.31047248840332,2.9001009464263916,0.27756741642951965
1772725622470485000,6.745485107421875,9.29611587524414,2.9216363430023193,0.275174617767334
1772725622480002000,6.755001953125,9.332008361816406,2.9168508052825928,0.25363919138908386
1772725622489518800,6.764518798828125,9.418149948120117,2.895315408706665,0.27038896083831787
1772725622499036000,6.774035888671875,9.523433685302734,2.871387243270874,0.23688943684101105
1772725622508552700,6.783552734375,9.602396965026855,2.823530673980713,0.2273181527853012
1772725622518069500,6.793069580078125,9.657432556152344,2.801995277404785,0.22013968229293823
1772725622527586300,6.80258642578125,9.710074424743652,2.816352367401123,0.22492532432079315
1772725622537103400,6.812103271484375,9.731609344482422,2.799602508544922,0.2584248483181
1772725622546620200,6.8216201171875,9.729216575622559,2.794816732406616,0.26560330390930176
1772725622556137200,6.83113720703125,9.68375301361084,2.806781053543091,0.2871387302875519
1772725622565654000,6.840654052734375,9.609575271606445,2.830709218978882,0.2991028428077698
1772725622575170800,6.8501708984375,9.504291534423828,2.8426733016967773,0.3565305769443512
1772725622584687900,6.85968798828125,9.456435203552246,2.854637384414673,0.38285163044929504
1772725622594204700,6.86920458984375,9.489934921264648,2.864208698272705,0.39481574296951294
1772725622603721500,6.878721435546875,9.542576789855957,2.861815929412842,0.39960137009620667
1772725622613238500,6.888238525390625,9.626325607299805,2.823530673980713,0.33738797903060913
1772725622622755300,6.89775537109375,9.671789169311523,2.8187451362609863,0.2991028428077698
1772725622632272100,6.907272216796875,9.695717811584473,2.8211379051208496,0.2919243574142456
1772725622641789200,6.9167890625,9.686145782470703,2.823530673980713,0.31106695532798767
1772725622651306000,6.926305908203125,9.659825325012207,2.7972097396850586,0.3206382393836975
1772725622660822800,6.93582275390625,9.616754531860352,2.7972097396850586,0.3158525824546814
1772725622670339800,6.94533984375,9.547362327575684,2.833101987838745,0.3038884699344635
1772725622679856600,6.954856689453125,9.45882797241211,2.823530673980713,0.2991028428077698
1772725622689373700,6.964373779296875,9.43489933013916,2.8594231605529785,0.30149564146995544
1772725622698890500,6.973890380859375,9.44447135925293,2.8115665912628174,0.33499518036842346
1772725622708407300,6.9834072265625,9.468399047851562,2.7972097396850586,0.3158525824546814
1772725622717924000,6.992924072265625,9.463613510131836,2.768495798110962,0.30628129839897156
1772725622727441200,7.002441162109375,9.42772102355957,2.799602508544922,0.31824541091918945
1772725622736958000,7.0119580078125,9.394221305847168,2.8115665912628174,0.38763725757598877
1772725622746475000,7.02147509765625,9.377471923828125,2.837887763977051,0.40677985548973083
1772725622755991800,7.03099169921875,9.384650230407715,2.8498518466949463,0.4378865361213684
1772725622765508600,7.040508544921875,9.415757179260254,2.830709218978882,0.42831525206565857
1772725622775025700,7.050025634765625,9.461220741271973,2.830709218978882,0.4163511395454407
1772725622784542500,7.05954248046875,9.559326171875,2.830709218978882,0.39481574296951294
1772725622794059500,7.0690595703125,9.616754531860352,2.816352367401123,0.3613162338733673
1772725622803576300,7.078576416015625,9.645467758178711,2.823530673980713,0.30628129839897156
1772725622813093000,7.088093017578125,9.664610862731934,2.8354947566986084,0.2584248483181
1772725622822610200,7.097610107421875,9.693324089050293,2.833101987838745,0.27038896083831787
1772725622832127000,7.107126953125,9.717252731323242,2.8522446155548096,0.2679961323738098
1772725622841643800,7.116643798828125,9.745966911315918,2.8450660705566406,0.29431718587875366
1772725622851160800,7.126160888671875,9.784252166748047,2.8187451362609863,0.2967100143432617
1772725622860677600,7.135677734375,9.722038269042969,2.8043880462646484,0.3158525824546814
1772725622870194400,7.1451943359375,9.67657470703125,2.794816732406616,0.3397808074951172
1772725622879711500,7.15471142578125,9.619147300720215,2.8187451362609863,0.380458801984787
1772725622889228300,7.164228271484375,9.609575271606445,2.8283164501190186,0.4307080805301666
1772725622898745000,7.1737451171875,9.564111709594727,2.8043880462646484,0.4019941985607147
1772725622908262100,7.18326220703125,9.480362892150879,2.7828526496887207,0.3517449200153351
1772725622917779000,7.192779052734375,9.422935485839844,2.830709218978882,0.3326023519039154
1772725622927296000,7.2022958984375,9.389435768127441,2.837887763977051,0.3613162338733673
1772725622936812800,7.211812744140625,9.367900848388672,2.8283164501190186,0.3445664644241333
1772725622946329600,7.22132958984375,9.346364974975586,2.861815929412842,0.3158525824546814
1772725622955846400,7.230846435546875,9.351150512695312,2.8522446155548096,0.3206382393836975
1772725622965363500,7.240363525390625,9.34875774383545,2.861815929412842,0.33499518036842346
1772725622974880300,7.24988037109375,9.4061861038208,2.861815929412842,0.33738797903060913
1772725622984397300,7.259397216796875,9.45882797241211,2.8426733016967773,0.35413774847984314
1772725622993914000,7.2689140625,9.533005714416504,2.825923442840576,0.35892340540885925
1772725623003431000,7.278430908203125,9.564111709594727,2.830709218978882,0.34217363595962524
1772725623012948000,7.287947998046875,9.56889820098877,2.823530673980713,0.31824541091918945
1772725623022464800,7.29746484375,9.602396965026855,2.8426733016967773,0.3565305769443512
1772725623031981800,7.30698193359375,9.56889820098877,2.825923442840576,0.35892340540885925
1772725623041498600,7.31649853515625,9.528220176696777,2.8283164501190186,0.35413774847984314
1772725623051015400,7.326015380859375,9.513862609863281,2.8283164501190186,0.3565305769443512
1772725623060532200,7.3355322265625,9.521040916442871,2.8115665912628174,0.37088751792907715
1772725623070049300,7.34504931640625,9.55214786529541,2.806781053543091,0.39960137009620667
1772725623079566000,7.354566162109375,9.638289451599121,2.7972097396850586,0.40677985548973083
1772725623089083100,7.364083251953125,9.760323524475098,2.7876384258270264,0.3732803463935852
1772725623098600000,7.373599853515625,9.81535816192627,2.744567632675171,0.349352091550827
1772725623108116700,7.38311669921875,9.803394317626953,2.6967110633850098,0.33020952343940735
1772725623117633800,7.3926337890625,9.722038269042969,2.7014968395233154,0.34695929288864136
1772725623127150600,7.402150634765625,9.66221809387207,2.7421748638153076,0.397208571434021
1772725623136667400,7.41166748046875,9.56889820098877,2.7972097396850586,0.4019941985607147
1772725623146184400,7.421184326171875,9.513862609863281,2.7972097396850586,0.37806597352027893
1772725623155701200,7.430701171875,9.511469841003418,2.847458839416504,0.3756731450557709
1772725623165218300,7.44021826171875,9.571290969848633,2.8522446155548096,0.3732803463935852
1772725623174735000,7.449735107421875,9.58325481414795,2.8450660705566406,0.3900300860404968
1772725623184252000,7.459251953125,9.547362327575684,2.840280532836914,0.3517449200153351
1772725623193768700,7.468768798828125,9.506684303283691,2.8450660705566406,0.34695929288864136
1772725623203285800,7.47828564453125,9.492327690124512,2.8498518466949463,0.34695929288864136
1772725623212802600,7.487802490234375,9.463613510131836,2.878565549850464,0.363709032535553
1772725623222319600,7.497319580078125,9.432506561279297,2.825923442840576,0.32542386651039124
1772725623231836400,7.50683642578125,9.43489933013916,2.8354947566986084,0.35892340540885925
1772725623241353200,7.516353271484375,9.509077072143555,2.8426733016967773,0.3852444589138031
1772725623250870300,7.525870361328125,9.578469276428223,2.847458839416504,0.36610186100006104
1772725623260387000,7.535386962890625,9.58325481414795,2.809173822402954,0.3206382393836975
1772725623269904100,7.544904052734375,9.614361763000488,2.8043880462646484,0.33499518036842346
1772725623279421000,7.5544208984375,9.611968994140625,2.7972097396850586,0.4139583110809326
1772725623288937700,7.563937744140625,9.616754531860352,2.801995277404785,0.42831525206565857
1772725623298454500,7.57345458984375,9.592825889587402,2.801995277404785,0.4331009089946747
1772725623307971600,7.5829716796875,9.56650447845459,2.816352367401123,0.42352959513664246
1772725623317488400,7.59248828125,9.506684303283691,2.816352367401123,0.4091726839542389
1772725623327005400,7.60200537109375,9.499505996704102,2.833101987838745,0.43549370765686035
1772725623336522200,7.611522216796875,9.494720458984375,2.8450660705566406,0.4331009089946747
1772725623346039000,7.6210390625,9.542576789855957,2.847458839416504,0.41874396800994873
1772725623355556000,7.63055615234375,9.573683738708496,2.816352367401123,0.4307080805301666
1772725623365073000,7.640072998046875,9.623932838439941,2.7900311946868896,0.42352959513664246
1772725623374589700,7.649589599609375,9.621540069580078,2.778067111968994,0.4450650215148926
1772725623384106800,7.659106689453125,9.57607650756836,2.7828526496887207,0.4259224236011505
1772725623393623600,7.66862353515625,9.559326171875,2.7804598808288574,0.38285163044929504
1772725623403140400,7.678140380859375,9.590433120727539,2.895315408706665,0.20099709928035736
1772725623412657400,7.687657470703125,9.609575271606445,2.4765713214874268,0.7680960893630981
1772725623422174200,7.69717431640625,9.604789733886719,3.081955671310425,-0.16271193325519562
1772725623431691000,7.70669091796875,9.518648147583008,2.4119651317596436,0.849452018737793
1772725623441208000,7.7162080078125,9.492327690124512,3.13220477104187,-0.09810572862625122
1772725623450724900,7.725724853515625,9.399007797241211,2.486142635345459,0.9475577473640442
1772725623460242000,7.735241943359375,9.396614074707031,3.1657042503356934,-0.02153540402650833
1772725623469758700,7.7447587890625,9.408578872680664,2.531606435775757,0.9810572862625122
1772725623479275500,7.754275634765625,9.497113227844238,3.160918712615967,0.0023928226437419653
1772725623488792300,7.763792236328125,9.573683738708496,2.541177749633789,0.8901300430297852
1772725623498309400,7.773309326171875,9.664610862731934,3.1106693744659424,-0.07896314561367035
1772725623507826200,7.782826171875,9.757930755615234,2.550748825073242,0.7776673436164856
1772725623517343200,7.79234326171875,9.78664493560791,3.074777126312256,-0.08135596662759781
1772725623526860000,7.801860107421875,9.710074424743652,2.548356056213379,0.6843472719192505
1772725623536376800,7.811376953125,9.595218658447266,3.0269205570220947,-0.040677983313798904
1772725623545894000,7.820893798828125,9.518648147583008,2.682354211807251,0.6771687865257263
1772725623555410700,7.83041064453125,9.492327690124512,3.06999135017395,0.059820566326379776
1772725623564927700,7.839927734375,9.561718940734863,2.691925525665283,0.6939185857772827
1772725623574444500,7.849444580078125,9.628718376159668,2.9288148880004883,0.16510476171970367
1772725623583961300,7.85896142578125,9.645467758178711,2.6057839393615723,0.6245267391204834
1772725623593478400,7.868478515625,9.602396965026855,2.8115665912628174,0.1698904037475586
1772725623602995200,7.8779951171875,9.578469276428223,2.65842604637146,0.5958128571510315
1772725623612512000,7.887511962890625,9.521040916442871,2.825923442840576,0.3206382393836975
1772725623622029000,7.897029052734375,9.4660062789917,2.7326035499572754,0.5455635786056519
1772725623631545900,7.9065458984375,9.446864128112793,2.823530673980713,0.35413774847984314
1772725623641062700,7.916062744140625,9.492327690124512,2.8043880462646484,0.47617170214653015
1772725623650579700,7.925579833984375,9.554540634155273,2.7637102603912354,0.36610186100006104
1772725623660096500,7.935096435546875,9.607182502746582,2.8139593601226807,0.3732803463935852
1772725623669613300,7.94461328125,9.571290969848633,2.682354211807251,0.44745782017707825
1772725623679130400,7.95413037109375,9.561718940734863,2.8594231605529785,0.34217363595962524
1772725623688647200,7.963647216796875,9.449256896972656,2.682354211807251,0.5120640397071838
1772725623698164200,7.973164306640625,9.396614074707031,2.854637384414673,0.44745782017707825
1772725623707681000,7.982680908203125,9.387042999267578,2.8283164501190186,0.5359922647476196
1772725623717197800,7.99219775390625,9.418149948120117,2.8761727809906006,0.48095735907554626
1772725623726714600,8.001714599609375,9.473184585571289,2.8187451362609863,0.47617170214653015
1772725623736231700,8.011231689453124,9.580862045288086,2.8187451362609863,0.4211367964744568
1772725623745748500,8.02074853515625,9.659825325012207,2.816352367401123,0.39960137009620667
1772725623755265500,8.030265625,9.724431037902832,2.816352367401123,0.397208571434021
1772725623764782300,8.0397822265625,9.762716293334961,2.7900311946868896,0.39481574296951294
1772725623774299100,8.049299072265624,9.741181373596191,2.7900311946868896,0.3900300860404968
1772725623783816200,8.058816162109375,9.7005033493042,2.7804598808288574,0.4139583110809326
1772725623793333000,8.0683330078125,9.650253295898438,2.7828526496887207,0.42831525206565857
1772725623802850000,8.07785009765625,9.57607650756836,2.7565317153930664,0.45224347710609436
1772725623812366800,8.087366943359376,9.511469841003418,2.7421748638153076,0.4570291340351105
1772725623821883600,8.096883544921875,9.494720458984375,2.768495798110962,0.48095735907554626
1772725623831400400,8.106400390625,9.45882797241211,2.7876384258270264,0.4785645306110382
1772725623840917500,8.11591748046875,9.501898765563965,2.761317253112793,0.49292147159576416
1772725623850434300,8.125434326171876,9.540184020996094,2.754138946533203,0.4833501875400543
1772725623859951400,8.134951416015625,9.549755096435547,2.754138946533203,0.4426721930503845
1772725623869468200,8.14446826171875,9.53061294555664,2.794816732406616,0.4211367964744568
1772725623878985000,8.15398486328125,9.487542152404785,2.8283164501190186,0.38763725757598877
1772725623888502000,8.163501953125,9.461220741271973,2.8689942359924316,0.3756731450557709
1772725623898018800,8.173018798828124,9.480362892150879,2.895315408706665,0.363709032535553
1772725623907535600,8.18253564453125,9.528220176696777,2.723032236099243,0.576670229434967
1772725623917052700,8.192052734375,9.595218658447266,3.036491870880127,0.09092725813388824
1772725623926569500,8.201569580078125,9.595218658447266,2.5531418323516846,0.6843472719192505
1772725623936086500,8.21108642578125,9.611968994140625,3.050848960876465,0.08614161610603333
1772725623945603300,8.220603271484375,9.628718376159668,2.56510591506958,0.8279166221618652
1772725623955120000,8.2301201171875,9.68375301361084,3.105883836746216,0.07417750358581543
1772725623964637000,8.239636962890625,9.647860527038574,2.4981069564819336,0.8374879360198975
1772725623974154000,8.249154052734376,9.66221809387207,3.0963125228881836,-0.04307080805301666
1772725623983670800,8.2586708984375,9.592825889587402,2.469393014907837,0.8590233325958252
1772725623993187800,8.268187744140626,9.56889820098877,3.153740167617798,-0.02392822690308094
1772725624002704600,8.27770458984375,9.485149383544922,2.4909284114837646,0.8949156403541565
1772725624012221400,8.287221435546876,9.456435203552246,3.1824541091918945,-0.0933200865983963
1772725624021738500,8.296738525390625,9.389435768127441,2.4765713214874268,0.9355936646461487
1772725624031255300,8.30625537109375,9.432506561279297,3.1657042503356934,-0.019142581149935722
1772725624040772400,8.3157724609375,9.432506561279297,2.4885356426239014,1.031306505203247
1772725624050289200,8.3252890625,9.482755661010742,3.1561331748962402,0.031106693670153618
1772725624059806000,8.334805908203125,9.504291534423828,2.462214469909668,1.0289137363433838
1772725624069322800,8.34432275390625,9.602396965026855,3.1202406883239746,-0.016749758273363113
1772725624078839800,8.35383984375,9.635896682739258,2.431107759475708,0.9451649188995361
1772725624088356600,8.363356689453125,9.671789169311523,3.06999135017395,-0.11006984114646912
1772725624097873700,8.372873779296874,9.611968994140625,2.447857618331909,0.8303094506263733
1772725624107390500,8.382390380859375,9.590433120727539,3.146561861038208,-0.14356936514377594
1772725624116907300,8.3919072265625,9.556933403015137,2.5459632873535156,0.8303094506263733
1772725624126424300,8.40142431640625,9.56650447845459,3.1178479194641113,-0.04546362906694412
1772725624135941000,8.410941162109374,9.523433685302734,2.5196423530578613,0.8327022790908813
1772725624145458200,8.420458251953125,9.54496955871582,3.019742250442505,0.04546362906694412
1772725624154974700,8.429974609375,9.547362327575684,2.50289249420166,0.9355936646461487
1772725624164491800,8.43949169921875,9.561718940734863,2.950350284576416,0.1818545162677765
1772725624174008600,8.449008544921876,9.535398483276367,2.495713949203491,0.8973084688186646
1772725624183525600,8.458525634765625,9.499505996704102,2.967100143432617,0.19142581522464752
1772725624193042400,8.46804248046875,9.506684303283691,2.589034080505371,0.8111668825149536
1772725624202559200,8.477559326171875,9.504291534423828,2.837887763977051,0.397208571434021
1772725624212076300,8.487076171875,9.528220176696777,2.8139593601226807,0.4618147611618042
1772725624221593000,8.496593017578125,9.549755096435547,2.8354947566986084,0.4426721930503845
1772725624231110100,8.506110107421875,9.54496955871582,2.857030153274536,0.3900300860404968
1772725624240627000,8.515626953125,9.53779125213623,2.854637384414673,0.35892340540885925
1772725624250143700,8.525143798828125,9.547362327575684,2.8737800121307373,0.34217363595962524
1772725624259660800,8.534660888671874,9.592825889587402,2.878565549850464,0.34695929288864136
1772725624269177600,8.544177490234375,9.647860527038574,2.8522446155548096,0.33738797903060913
1772725624278694400,8.5536943359375,9.722038269042969,2.830709218978882,0.35892340540885925
1772725624288211500,8.56321142578125,9.772287368774414,2.7661030292510986,0.39960137009620667
1772725624297728300,8.572728271484374,9.781859397888184,2.737389087677002,0.44027936458587646
1772725624307245000,8.5822451171875,9.762716293334961,2.737389087677002,0.4426721930503845
1772725624316762000,8.59176220703125,9.671789169311523,2.7278177738189697,0.44027936458587646
1772725624326279000,8.60127880859375,9.633503913879395,2.7517459392547607,0.4666004180908203
1772725624335796000,8.6107958984375,9.564111709594727,2.7876384258270264,0.4546363055706024
1772725624345312800,8.620312744140625,9.53779125213623,2.8043880462646484,0.42831525206565857
1772725624354829600,8.62982958984375,9.54496955871582,2.816352367401123,0.46899324655532837
1772725624364346600,8.6393466796875,9.554540634155273,2.785245656967163,0.47617170214653015
1772725624373863400,8.648863525390626,9.55214786529541,2.7565317153930664,0.4331009089946747
1772725624383380500,8.65838037109375,9.525827407836914,2.7565317153930664,0.4331009089946747
1772725624392897300,8.667897216796876,9.432506561279297,2.7828526496887207,0.4378865361213684
1772725624402414000,8.6774140625,9.358329772949219,2.7972097396850586,0.45942193269729614
1772725624411931000,8.686930908203125,9.332008361816406,2.833101987838745,0.4905286431312561
1772725624421448000,8.696447998046875,9.343972206115723,2.857030153274536,0.4833501875400543
1772725624430964700,8.70596484375,9.403793334960938,2.833101987838745,0.4713860750198364
1772725624440481800,8.715481689453124,9.516255378723145,2.837887763977051,0.43549370765686035
1772725624449998600,8.72499853515625,9.638289451599121,2.830709218978882,0.4570291340351105
1772725624459515400,8.734515380859374,9.722038269042969,2.8283164501190186,0.44027936458587646
1772725624469032400,8.744032470703125,9.724431037902832,2.809173822402954,0.4139583110809326
1772725624478549200,8.75354931640625,9.68375301361084,2.775674343109131,0.38763725757598877
1772725624488066000,8.763066162109375,9.631111145019531,2.794816732406616,0.40677985548973083
1772725624497582800,8.772582763671876,9.556933403015137,2.8283164501190186,0.45224347710609436
1772725624507100000,8.782099853515625,9.487542152404785,2.8426733016967773,0.43549370765686035
1772725624516616700,8.79161669921875,9.449256896972656,2.8139593601226807,0.44745782017707825
1772725624526133800,8.8011337890625,9.475577354431152,2.8187451362609863,0.46420758962631226
1772725624535650600,8.810650634765626,9.501898765563965,2.830709218978882,0.45224347710609436
1772725624545167400,8.82016748046875,9.540184020996094,2.8115665912628174,0.4091726839542389
1772725624554684400,8.829684326171876,9.604789733886719,2.8139593601226807,0.38285163044929504
1772725624564201200,8.839201171875,9.674181938171387,2.792423963546753,0.4378865361213684
1772725624573718300,8.84871826171875,9.698110580444336,2.7493531703948975,0.4713860750198364
1772725624583235000,8.858235107421875,9.66939640045166,2.720639228820801,0.4833501875400543
1772725624592751900,8.867751953125,9.631111145019531,2.7828526496887207,0.5335994362831116
1772725624602269000,8.87726904296875,9.573683738708496,2.799602508544922,0.5168496966362
1772725624611785700,8.88678564453125,9.540184020996094,2.8283164501190186,0.4785645306110382
1772725624621302500,8.896302490234374,9.509077072143555,2.8594231605529785,0.4570291340351105
1772725624630819600,8.905819580078125,9.492327690124512,2.861815929412842,0.43549370765686035
1772725624640336400,8.91533642578125,9.45164966583252,2.871387243270874,0.4259224236011505
1772725624649853200,8.924853271484375,9.432506561279297,2.8450660705566406,0.4546363055706024
1772725624659370200,8.934370361328124,9.389435768127441,2.854637384414673,0.48574298620224
1772725624668887000,8.943886962890625,9.403793334960938,2.830709218978882,0.5264210104942322
1772725624678404000,8.953404052734374,9.475577354431152,2.830709218978882,0.5120640397071838
1772725624687921000,8.9629208984375,9.533005714416504,2.8187451362609863,0.5096712112426758
1772725624697437700,8.972437744140626,9.595218658447266,2.792423963546753,0.5072783827781677
1772725624706954800,8.981954833984375,9.614361763000488,2.770888566970825,0.48095735907554626
1772725624716471600,8.991471435546876,9.635896682739258,2.7876384258270264,0.4666004180908203
1772725624725988400,9.00098828125,9.621540069580078,2.830709218978882,0.42352959513664246
1772725624735505400,9.01050537109375,9.600004196166992,2.861815929412842,0.4019941985607147
1772725624745022200,9.020022216796875,9.58325481414795,2.857030153274536,0.38763725757598877
1772725624754539000,9.0295390625,9.556933403015137,2.854637384414673,0.4043870270252228
1772725624764056000,9.03905615234375,9.56650447845459,2.837887763977051,0.47617170214653015
1772725624773572900,9.04857275390625,9.556933403015137,2.854637384414673,0.519242525100708
1772725624783089700,9.058089599609374,9.542576789855957,2.8498518466949463,0.47617170214653015
1772725624792606700,9.067606689453125,9.470791816711426,2.857030153274536,0.4546363055706024
1772725624802123500,9.07712353515625,9.45882797241211,2.9048867225646973,0.42352959513664246
1772725624811640600,9.086640625,9.475577354431152,2.9072794914245605,0.4139583110809326
1772725624821157400,9.096157470703124,9.535398483276367,2.902493953704834,0.36610186100006104
1772725624830674200,9.105674072265625,9.55214786529541,2.861815929412842,0.349352091550827
1772725624840191000,9.11519091796875,9.56889820098877,2.857030153274536,0.363709032535553
1772725624849708000,9.1247080078125,9.518648147583008,2.8450660705566406,0.397208571434021
1772725624859224800,9.134224853515626,9.513862609863281,2.854637384414673,0.4426721930503845
1772725624868741600,9.14374169921875,9.504291534423828,2.825923442840576,0.4498506486415863
1772725624878258700,9.1532587890625,9.504291534423828,2.792423963546753,0.44027936458587646
1772725624887775500,9.162775390625,9.54496955871582,2.7637102603912354,0.45224347710609436
1772725624897292500,9.17229248046875,9.595218658447266,2.7493531703948975,0.4498506486415863
1772725624906809300,9.181809326171875,9.616754531860352,2.7637102603912354,0.4450650215148926
1772725624916326400,9.191326416015626,9.611968994140625,2.8043880462646484,0.4331009089946747
1772725624925843200,9.20084326171875,9.595218658447266,2.830709218978882,0.4426721930503845
1772725624935360000,9.210360107421875,9.54496955871582,2.8522446155548096,0.4785645306110382
1772725624944876800,9.219876708984375,9.504291534423828,2.8522446155548096,0.5024927258491516
1772725624954393900,9.229393798828125,9.463613510131836,2.864208698272705,0.47617170214653015
1772725624963910700,9.23891064453125,9.442078590393066,2.888136863708496,0.4713860750198364
1772725624973427700,9.248427734375,9.463613510131836,2.9001009464263916,0.42831525206565857
1772725624982944500,9.257944580078124,9.513862609863281,2.885744094848633,0.37088751792907715
1772725624992461300,9.26746142578125,9.559326171875,2.9048867225646973,0.35413774847984314
1772725625001978400,9.276978271484374,9.621540069580078,2.878565549850464,0.3517449200153351
1772725625011495200,9.2864951171875,9.67657470703125,2.8354947566986084,0.380458801984787
1772725625021012000,9.296011962890624,9.69093132019043,2.7900311946868896,0.4307080805301666
1772725625030529000,9.305529052734375,9.652647018432617,2.7876384258270264,0.4498506486415863
1772725625040045800,9.3150458984375,9.604789733886719,2.785245656967163,0.4378865361213684
1772725625049563000,9.32456298828125,9.561718940734863,2.8043880462646484,0.42352959513664246
1772725625059079700,9.33407958984375,9.556933403015137,2.806781053543091,0.4666004180908203
1772725625068596500,9.343596435546875,9.55214786529541,2.816352367401123,0.4833501875400543
1772725625078113300,9.35311328125,9.506684303283691,2.775674343109131,0.4498506486415863
1772725625087630300,9.36263037109375,9.485149383544922,2.816352367401123,0.40677985548973083
1772725625097147100,9.372147216796876,9.45882797241211,2.8426733016967773,0.4139583110809326
1772725625106664200,9.381664306640625,9.475577354431152,2.837887763977051,0.43549370765686035
1772725625116181000,9.391180908203125,9.528220176696777,2.809173822402954,0.4450650215148926
1772725625125697800,9.40069775390625,9.600004196166992,2.754138946533203,0.44745782017707825
1772725625135214800,9.41021484375,9.619147300720215,2.713460922241211,0.47617170214653015
1772725625144731600,9.419731689453124,9.585647583007812,2.7421748638153076,0.4426721930503845
1772725625154248700,9.429248779296875,9.53061294555664,2.7804598808288574,0.43549370765686035
1772725625163765500,9.438765625,9.480362892150879,2.837887763977051,0.45942193269729614
1772725625173282300,9.4482822265625,9.475577354431152,2.864208698272705,0.4953143000602722
1772725625182799000,9.457799072265624,9.494720458984375,2.861815929412842,0.4546363055706024
1772725625192316200,9.467316162109375,9.547362327575684,2.861815929412842,0.41874396800994873
1772725625201833000,9.4768330078125,9.58325481414795,2.8187451362609863,0.3900300860404968
1772725625211350000,9.48635009765625,9.53779125213623,2.8115665912628174,0.41156548261642456
1772725625220866800,9.49586669921875,9.511469841003418,2.809173822402954,0.4091726839542389
1772725625230383600,9.505383544921875,9.549755096435547,2.8043880462646484,0.4833501875400543
1772725625239900700,9.514900634765626,9.602396965026855,2.7900311946868896,0.48813581466674805
1772725625249417500,9.52441748046875,9.657432556152344,2.770888566970825,0.397208571434021
1772725625258934500,9.5339345703125,9.66221809387207,2.778067111968994,0.3684946894645691
1772725625268451300,9.543451416015625,9.652647018432617,2.785245656967163,0.3517449200153351
1772725625277968100,9.552968017578126,9.611968994140625,2.801995277404785,0.36610186100006104
1772725625287485000,9.56248486328125,9.592825889587402,2.8187451362609863,0.4331009089946747
1772725625297002000,9.572001953125,9.501898765563965,2.8043880462646484,0.45224347710609436
1772725625306518800,9.581518798828125,9.399007797241211,2.8115665912628174,0.4450650215148926
1772725625316035800,9.591035888671875,9.336793899536133,2.825923442840576,0.4307080805301666
1772725625325552600,9.600552734375,9.293723106384277,2.825923442840576,0.38763725757598877
1772725625335069400,9.6100693359375,9.28893756866455,2.830709218978882,0.34695929288864136
1772725625344586500,9.61958642578125,9.367900848388672,2.837887763977051,0.37806597352027893
1772725625354103300,9.629103271484375,9.482755661010742,2.8187451362609863,0.42352959513664246
1772725625363620000,9.6386201171875,9.542576789855957,2.7637102603912354,0.43549370765686035
1772725625373137200,9.64813720703125,9.600004196166992,2.7110681533813477,0.45942193269729614
1772725625382654000,9.657654052734374,9.564111709594727,2.7086751461029053,0.4666004180908203
1772725625392171000,9.6671708984375,9.53779125213623,2.7732813358306885,0.4570291340351105
1772725625401687800,9.676687744140626,9.578469276428223,2.8498518466949463,0.41156548261642456
1772725625411204600,9.68620458984375,9.609575271606445,2.7828526496887207,0.4139583110809326
1772725625420721400,9.695721435546876,9.619147300720215,2.713460922241211,0.380458801984787
1772725625430238500,9.705238525390625,9.623932838439941,2.7014968395233154,0.4331009089946747
1772725625439755300,9.71475537109375,9.710074424743652,2.7637102603912354,0.5048855543136597
1772725625449272300,9.724272216796875,9.812965393066406,2.7804598808288574,0.4833501875400543
1772725625458789000,9.7337890625,9.90149974822998,2.7661030292510986,0.35892340540885925
1772725625468306000,9.743305908203125,9.848857879638672,2.713460922241211,0.27038896083831787
1772725625477823000,9.752822998046875,9.726823806762695,2.7565317153930664,0.3326023519039154
1772725625487339800,9.76233984375,9.638289451599121,2.7900311946868896,0.5264210104942322
1772725625496856800,9.77185693359375,9.602396965026855,2.754138946533203,0.6556333899497986
1772725625506373600,9.78137353515625,9.57607650756836,2.713460922241211,0.6364908218383789
1772725625515890400,9.790890380859375,9.513862609863281,2.6536402702331543,0.5886343717575073
1772725625525407200,9.8004072265625,9.489934921264648,2.6847469806671143,0.5694918036460876
1772725625534924300,9.80992431640625,9.422935485839844,2.6847469806671143,0.5958128571510315
1772725625544441000,9.819441162109374,9.367900848388672,2.7589244842529297,0.5599204897880554
1772725625553958100,9.828958251953125,9.33440113067627,2.754138946533203,0.48813581466674805
1772725625563475000,9.838474853515624,9.236295700073242,2.730210542678833,0.43549370765686035
1772725625572991700,9.84799169921875,9.150154113769531,2.746960401535034,0.3924229145050049
1772725625582508800,9.8575087890625,9.128618240356445,2.809173822402954,0.4091726839542389
1772725625592025600,9.867025634765625,9.274580955505371,2.809173822402954,0.4211367964744568
1772725625601542400,9.87654248046875,9.461220741271973,2.7397818565368652,0.4091726839542389
1772725625611059500,9.8860595703125,9.619147300720215,2.63449764251709,0.3900300860404968
1772725625620576300,9.895576171875,9.719645500183105,2.5842485427856445,0.30628129839897156
1772725625630093000,9.905093017578125,9.767501831054688,2.63449764251709,0.33499518036842346
