time,seconds_elapsed,z,y,x
1772728933491722500,0.071722412109375,0,0,0
1772728933501240600,0.081240478515625,-0.0031414031982421875,-0.09126400947570801,-0.0036011934280395508
1772728933510758400,0.09075830078125,-0.020264625549316406,-0.17201638221740723,-0.037298619747161865
1772728933520276500,0.1002763671875,-0.08760261535644531,-0.23369812965393066,-0.06195622682571411
1772728933529794600,0.109794677734375,-0.1821308135986328,-0.23508954048156738,-0.030354857444763184
1772728933539312600,0.119312744140625,-0.2990732192993164,-0.24282383918762207,-0.04260134696960449
1772728933548830500,0.12883056640625,-0.37785911560058594,-0.2593095302581787,-0.1335064172744751
1772728933558348500,0.1383486328125,-0.30246448516845703,-0.2998676300048828,-0.14407479763031006
1772728933567866600,0.14786669921875,-0.2661323547363281,-0.36092233657836914,-0.10533499717712402
1772728933577384700,0.157384765625,-0.24122047424316406,-0.4073648452758789,-0.004196345806121826
1772728933586902800,0.16690283203125,-0.3101310729980469,-0.45430421829223633,0.08231544494628906
1772728933596420600,0.176420654296875,-0.42163658142089844,-0.4628777503967285,0.1596868634223938
1772728933605938700,0.185938720703125,-0.5382575988769531,-0.44242072105407715,0.2638428211212158
1772728933615456800,0.195456787109375,-0.6585731506347656,-0.43839049339294434,0.32780689001083374
1772728933624974800,0.204974853515625,-0.7946853637695312,-0.49522948265075684,0.44902628660202026
1772728933634492700,0.21449267578125,-0.9130268096923828,-0.4982492923736572,0.5666343569755554
1772728933644010800,0.2240107421875,-1.0017509460449219,-0.49216270446777344,0.5905470848083496
1772728933653528800,0.23352880859375,-1.0290813446044922,-0.5031430721282959,0.6868214011192322
1772728933663047000,0.243046875,-1.0117464065551758,-0.44565510749816895,0.7461101412773132
1772728933672564700,0.252564697265625,-0.9764881134033203,-0.40210914611816406,0.8303689956665039
1772728933682082800,0.262082763671875,-0.9143819808959961,-0.3146803379058838,0.9295917749404907
1772728933691601000,0.271600830078125,-0.7801980972290039,-0.2653341293334961,1.0042848587036133
1772728933701119000,0.281118896484375,-0.5852575302124023,-0.23684453964233398,1.0451664924621582
1772728933710637000,0.290636962890625,-0.35384273529052734,-0.24525094032287598,1.0067280530929565
1772728933720155100,0.300155029296875,-0.18060874938964844,-0.20911741256713867,0.8875224590301514
1772728933729673000,0.3096728515625,-0.06276988983154297,-0.1991419792175293,0.8175764679908752
1772728933739191000,0.31919091796875,-0.0070667266845703125,-0.10644364356994629,0.6867501735687256
1772728933748709000,0.328709228515625,-0.0041961669921875,-0.012327194213867188,0.5041719675064087
1772728933758227200,0.338227294921875,-0.05677223205566406,0.11504197120666504,0.3158899247646332
1772728933767745300,0.347745361328125,-0.21378707885742188,0.21184062957763672,0.1703549027442932
1772728933777263000,0.35726318359375,-0.3771066665649414,0.24632978439331055,0.06899712979793549
1772728933786781200,0.36678125,-0.5281620025634766,0.2686913013458252,0.04054670035839081
1772728933796299300,0.37629931640625,-0.6722383499145508,0.3421053886413574,0.08874361217021942
1772728933805817300,0.3858173828125,-0.7865772247314453,0.4073173999786377,0.12187942862510681
1772728933815335200,0.395335205078125,-0.8653059005737305,0.5161373615264893,0.09168775379657745
1772728933824853200,0.404853271484375,-0.90252685546875,0.5745289325714111,0.04868900775909424
1772728933834371300,0.414371337890625,-0.999664306640625,0.640388011932373,0.018404275178909302
1772728933843889400,0.423889404296875,-1.0695695877075195,0.6522750854492188,0.01714843511581421
1772728933853407200,0.4334072265625,-1.0927228927612305,0.6904497146606445,-0.019456326961517334
1772728933862925300,0.44292529296875,-1.03375244140625,0.7239673137664795,-0.06564870476722717
1772728933872443400,0.452443359375,-0.9464521408081055,0.6613390445709229,-0.12207376956939697
1772728933881961500,0.46196142578125,-0.9152679443359375,0.5931477546691895,-0.13018935918807983
1772728933891479600,0.4714794921875,-0.8073863983154297,0.5926671028137207,-0.09891757369041443
1772728933900997400,0.480997314453125,-0.5581283569335938,0.5670959949493408,-0.03786951303482056
1772728933910515500,0.490515380859375,-0.20458316802978516,0.5212798118591309,-0.027452170848846436
1772728933920033500,0.500033447265625,0.09105682373046875,0.5269773006439209,-0.01730167865753174
1772728933929551600,0.509551513671875,0.37602710723876953,0.651902437210083,0.06341597437858582
1772728933939069400,0.5190693359375,0.5788002014160156,0.8353419303894043,0.15359842777252197
1772728933948587500,0.52858740234375,0.6089649200439453,0.8977813720703125,0.2131195366382599
1772728933958105600,0.538105712890625,0.5494146347045898,0.9200501441955566,0.12529611587524414
1772728933967623700,0.547623779296875,0.5402011871337891,1.0138728618621826,0.04282355308532715
1772728933977141800,0.557141845703125,0.5683803558349609,1.0825746059417725,0.05210396647453308
1772728933986659800,0.566659912109375,0.5978412628173828,1.0944454669952393,0.09651362895965576
1772728933996177700,0.576177734375,0.6754159927368164,1.0463478565216064,0.27635517716407776
1772728934005695700,0.58569580078125,0.5626497268676758,1.0440185070037842,0.32483404874801636
1772728934015213800,0.5952138671875,0.4695587158203125,1.047205924987793,0.3670482337474823
1772728934024732000,0.60473193359375,0.3274860382080078,1.0797483921051025,0.38245242834091187
1772728934034249700,0.614249755859375,0.16484642028808594,1.1306889057159424,0.365048348903656
1772728934043767800,0.623767822265625,0.02828693389892578,1.1377229690551758,0.27866119146347046
1772728934053286000,0.633285888671875,-0.010349273681640625,1.1287109851837158,0.17034953832626343
1772728934062804000,0.642803955078125,-0.08052635192871094,1.1596879959106445,0.07264304161071777
1772728934072322000,0.652322021484375,-0.13738441467285156,1.1671626567840576,-0.03807789087295532
1772728934081839900,0.66183984375,-0.19643020629882812,1.0750129222869873,-0.1122015118598938
1772728934091358000,0.67135791015625,-1.0940914154052734,0.8592140674591064,-0.13523012399673462
1772728934100876000,0.6808759765625,-0.21281909942626953,0.8746368885040283,-0.052840352058410645
1772728934110394000,0.69039404296875,-0.02629852294921875,0.8168871402740479,-0.1622006893157959
1772728934119912000,0.699911865234375,0.4074831008911133,0.7543482780456543,-0.4498024582862854
1772728934129430000,0.709429931640625,1.1621599197387695,0.6811821460723877,-0.6584450602531433
1772728934138948000,0.718947998046875,1.7877864837646484,0.7184607982635498,-0.7195876240730286
1772728934148466200,0.728466064453125,2.081669807434082,0.8470144271850586,-0.8545713424682617
1772728934157984000,0.73798388671875,2.0177717208862305,1.0214614868164062,-0.9993606805801392
1772728934167502000,0.747502197265625,1.684758186340332,0.9611096382141113,-0.9036010503768921
1772728934177020200,0.757020263671875,1.4072895050048828,0.7118496894836426,-0.7483075857162476
1772728934186538200,0.766538330078125,1.2590389251708984,0.5907588005065918,-0.6420270800590515
1772728934196056300,0.776056396484375,0.9954128265380859,0.5941259860992432,-0.6933566331863403
1772728934205574100,0.78557421875,0.7383003234863281,0.6712086200714111,-0.9974254369735718
1772728934215092200,0.79509228515625,0.5540437698364258,0.7070670127868652,-1.4191962480545044
1772728934224610300,0.8046103515625,0.4637937545776367,0.6671159267425537,-1.7496973276138306
1772728934234128400,0.81412841796875,0.49582481384277344,0.5043854713439941,-2.0265872478485107
1772728934243646200,0.823646240234375,0.6693668365478516,0.26542091369628906,-2.2768898010253906
1772728934253164300,0.833164306640625,0.8195600509643555,-0.06380319595336914,-2.4679901599884033
1772728934262682400,0.842682373046875,0.9804267883300781,-0.3780031204223633,-2.5387673377990723
1772728934272200400,0.852200439453125,1.082087516784668,-0.7633659839630127,-2.502044916152954
1772728934281718300,0.86171826171875,1.0416631698608398,-1.1018271446228027,-2.3941149711608887
1772728934291236600,0.871236572265625,0.8628597259521484,-1.404113531112671,-2.1676197052001953
1772728934300754400,0.88075439453125,0.6744394302368164,-1.6658225059509277,-1.8802986145019531
1772728934310272500,0.8902724609375,0.4894418716430664,-1.8154709339141846,-1.5060272216796875
1772728934319790600,0.89979052734375,0.22293949127197266,-1.927947998046875,-1.2371629476547241
1772728934329308700,0.90930859375,-0.06057262420654297,-2.005262851715088,-1.0922703742980957
1772728934338826500,0.918826416015625,-0.25023746490478516,-1.977988600730896,-1.0077811479568481
1772728934348344600,0.928344482421875,-0.3647613525390625,-1.8880741596221924,-0.9006834030151367
1772728934357862700,0.937862548828125,-0.40382957458496094,-1.7081668376922607,-0.8435007333755493
1772728934367380700,0.947380615234375,-0.47585296630859375,-1.5199484825134277,-0.8376142978668213
1772728934376898800,0.95689892578125,-0.6028213500976562,-1.382993221282959,-0.8437495231628418
1772728934386416600,0.966416748046875,-0.7566900253295898,-1.2877006530761719,-0.8105518817901611
1772728934395934700,0.975934814453125,-0.8121881484985352,-1.2276790142059326,-0.7473918199539185
1772728934405452800,0.985452880859375,-0.7989997863769531,-1.183121681213379,-0.6452343463897705
1772728934414971000,0.994970947265625,-0.7296142578125,-1.132753610610962,-0.5237554311752319
1772728934424488700,1.00448876953125,-0.5994386672973633,-1.0467002391815186,-0.40653014183044434
1772728934434006800,1.0140068359375,-0.5055809020996094,-0.9458315372467041,-0.3298388123512268
1772728934443524900,1.02352490234375,-0.4375152587890625,-0.8249266147613525,-0.2585514783859253
1772728934453043000,1.03304296875,-0.5152597427368164,-0.699744462966919,-0.20243549346923828
1772728934462560800,1.042560791015625,-0.6351242065429688,-0.5854568481445312,-0.1282467246055603
1772728934472078800,1.052078857421875,-0.8391971588134766,-0.4987809658050537,-0.0497126579284668
1772728934481597000,1.061596923828125,-0.9867696762084961,-0.4132862091064453,0.058138370513916016
1772728934491115000,1.071114990234375,-1.1090278625488281,-0.3339235782623291,0.14142513275146484
1772728934500633000,1.080633056640625,-1.158581256866455,-0.2846992015838623,0.23925858736038208
1772728934510151000,1.09015087890625,-1.1405487060546875,-0.20431137084960938,0.28103429079055786
1772728934519669000,1.0996689453125,-1.1241984367370605,-0.16687583923339844,0.27176231145858765
1772728934529187000,1.10918701171875,-1.130904197692871,-0.1813511848449707,0.28553926944732666
1772728934538705200,1.118705078125,-1.1894569396972656,-0.17968130111694336,0.2456948161125183
1772728934548223000,1.128222900390625,-1.2122244834899902,-0.18434429168701172,0.1337328553199768
1772728934557741000,1.137740966796875,-1.2379693984985352,-0.15373706817626953,0.07605844736099243
1772728934567259100,1.147259033203125,-1.1649417877197266,-0.044912099838256836,0.09072279930114746
1772728934576777200,1.156777099609375,-1.069934368133545,0.04691767692565918,0.09995090961456299
1772728934586295000,1.166294921875,-0.91754150390625,0.13863348960876465,0.14225643873214722
1772728934595813000,1.175813232421875,-0.7724199295043945,0.1758863925933838,0.13826918601989746
1772728934605331200,1.185331298828125,-0.624908447265625,0.2371354103088379,0.09961777925491333
1772728934614849300,1.194849365234375,-0.508183479309082,0.3148627281188965,0.04238516092300415
1772728934624367400,1.204367431640625,-0.3958244323730469,0.37779736518859863,0.003466188907623291
1772728934633885200,1.21388525390625,-0.2994041442871094,0.4420650005340576,0.010818719863891602
1772728934643403300,1.2234033203125,-0.15902042388916016,0.44973301887512207,0.007537961006164551
1772728934652921300,1.23292138671875,-0.03624153137207031,0.4428384304046631,0.027346134185791016
1772728934662439400,1.242439453125,0.03403282165527344,0.4557192325592041,0.07737559080123901
1772728934671957500,1.25195751953125,0.0885000228881836,0.5293028354644775,0.058508336544036865
1772728934681475600,1.2614755859375,0.1322774887084961,0.6172657012939453,0.0850834846496582
1772728934690993400,1.270993408203125,0.13229084014892578,0.7215886116027832,0.08053064346313477
1772728934700511500,1.280511474609375,0.11499404907226562,0.7661271095275879,0.052191734313964844
1772728934710029600,1.290029541015625,0.1372365951538086,0.8444125652313232,0.036960721015930176
1772728934719547600,1.299547607421875,0.10797595977783203,0.8958449363708496,0.03957629203796387
1772728934729065500,1.3090654296875,-0.0038051605224609375,1.0337719917297363,0.05089688301086426
1772728934738583600,1.31858349609375,-0.07678890228271484,1.1495227813720703,0.07878831028938293
1772728934748101600,1.3281015625,-0.07809257507324219,1.2698907852172852,0.1157599687576294
1772728934757619700,1.33761962890625,0.1988048553466797,1.3844521045684814,0.14937183260917664
1772728934767137800,1.3471376953125,0.5789289474487305,1.3873705863952637,0.12605828046798706
1772728934776655600,1.356655517578125,0.8788471221923828,1.2837135791778564,0.008073627948760986
1772728934786173700,1.366173583984375,1.070730209350586,1.2023541927337646,-0.13991567492485046
1772728934795691500,1.37569140625,1.264674186706543,1.1049540042877197,-0.3113267421722412
1772728934805209900,1.3852099609375,1.4823322296142578,1.0501635074615479,-0.4383307099342346
1772728934814727700,1.394727783203125,1.6287317276000977,0.9989888668060303,-0.4844481945037842
1772728934824245800,1.404245849609375,1.6212635040283203,0.9797451496124268,-0.434697687625885
1772728934833763800,1.413763916015625,1.527109146118164,0.9765799045562744,-0.4072585701942444
1772728934843282000,1.423281982421875,1.3913660049438477,1.0006964206695557,-0.3632349967956543
1772728934852799700,1.4327998046875,1.2539234161376953,0.992398738861084,-0.277092844247818
1772728934862317800,1.44231787109375,1.2254838943481445,0.9616410732269287,-0.20022466778755188
1772728934871836000,1.4518359375,1.2522497177124023,0.9082448482513428,-0.10256984829902649
1772728934881354000,1.46135400390625,1.3951215744018555,0.8123619556427002,-0.10409477353096008
1772728934890871800,1.470871826171875,1.6506271362304688,0.6607415676116943,-0.12603986263275146
1772728934900390000,1.480389892578125,1.968144416809082,0.46774792671203613,-0.10097873210906982
1772728934909908000,1.489907958984375,2.259495735168457,0.17856907844543457,-0.11803865432739258
1772728934919426000,1.499426025390625,2.4896764755249023,-0.15032601356506348,-0.14262264966964722
1772728934928944000,1.508944091796875,2.676910400390625,-0.4909846782684326,-0.20098543167114258
1772728934938462000,1.5184619140625,2.777987480163574,-0.8313281536102295,-0.20759451389312744
1772728934947980000,1.52797998046875,2.6598730087280273,-1.1719114780426025,-0.20025843381881714
1772728934957498000,1.537498046875,2.282827377319336,-1.4480376243591309,-0.041729509830474854
1772728934967016200,1.54701611328125,1.6899089813232422,-1.5981879234313965,0.22341346740722656
1772728934976534000,1.556533935546875,1.023106575012207,-1.6712666749954224,0.545922577381134
1772728934986052000,1.566052001953125,0.41081809997558594,-1.7186497449874878,0.8152087926864624
1772728934995570200,1.575570068359375,-0.2359457015991211,-1.755056619644165,0.9880691766738892
1772728935005088300,1.585088134765625,-0.763209342956543,-1.7282159328460693,0.992530107498169
1772728935014606000,1.594606201171875,-1.2659168243408203,-1.7986117601394653,1.0155466794967651
1772728935024124200,1.604124267578125,-1.5910725593566895,-1.750368595123291,1.0304681062698364
1772728935033642200,1.613642333984375,-1.838724136352539,-1.6925795078277588,1.0072060823440552
1772728935043160300,1.623160400390625,-2.0776314735412598,-1.6285970211029053,0.9210047721862793
1772728935052678400,1.632678466796875,-2.269092082977295,-1.5120935440063477,0.784910261631012
1772728935062196200,1.6421962890625,-2.3292055130004883,-1.371309757232666,0.6580134630203247
1772728935071714300,1.65171435546875,-2.2404117584228516,-1.209826946258545,0.48286885023117065
1772728935081232400,1.661232421875,-1.9036927223205566,-1.1349849700927734,0.3732788562774658
1772728935090750500,1.67075048828125,-1.3839483261108398,-1.1387033462524414,0.22991079092025757
1772728935100268300,1.680268310546875,-0.8686513900756836,-1.147998571395874,0.07523459196090698
1772728935109786400,1.689786376953125,-0.3726482391357422,-1.1480202674865723,-0.10855907201766968
1772728935119304400,1.699304443359375,0.0037622451782226562,-1.1053261756896973,-0.22466737031936646
1772728935128822500,1.708822509765625,0.2748699188232422,-1.0219297409057617,-0.22342771291732788
1772728935138340600,1.718340576171875,0.3543577194213867,-0.8888523578643799,-0.21162980794906616
1772728935147858700,1.727858642578125,0.2581901550292969,-0.7554886341094971,-0.09603649377822876
1772728935157376500,1.73737646484375,-0.015030860900878906,-0.6407129764556885,0.0028365254402160645
1772728935166894600,1.74689453125,-0.3338441848754883,-0.5288231372833252,0.07791030406951904
1772728935176412700,1.75641259765625,-0.5772838592529297,-0.43932604789733887,0.1693117618560791
1772728935185930800,1.7659306640625,-0.7798833847045898,-0.372448205947876,0.17956936359405518
1772728935195448800,1.77544873046875,-0.9547767639160156,-0.313795804977417,0.21295040845870972
1772728935204966700,1.784966552734375,-1.1462736129760742,-0.24606060981750488,0.14878535270690918
1772728935214484700,1.794484619140625,-1.3433475494384766,-0.18846344947814941,0.07523500919342041
1772728935224002800,1.8040029296875,-1.4753570556640625,-0.13922500610351562,0.08445334434509277
1772728935233521000,1.81352099609375,-1.545480728149414,-0.1259610652923584,0.12269425392150879
1772728935243038700,1.823038818359375,-1.5422630310058594,-0.07446980476379395,0.16808092594146729
1772728935252556800,1.832556884765625,-1.4375638961791992,-0.03003978729248047,0.24671536684036255
1772728935262075000,1.842074951171875,-1.2744426727294922,0.07343554496765137,0.2851123809814453
1772728935271593000,1.851593017578125,-1.016942024230957,0.16788053512573242,0.2602812647819519
1772728935281110800,1.86111083984375,-0.700261116027832,0.2605712413787842,0.22268539667129517
1772728935290628900,1.87062890625,-0.38077640533447266,0.2917342185974121,0.1718161702156067
1772728935300147000,1.88014697265625,-0.1551837921142578,0.34056854248046875,0.09711837768554688
1772728935309665000,1.8896650390625,0.044516563415527344,0.4547998905181885,0.0849684476852417
1772728935319183000,1.89918310546875,0.16412639617919922,0.5424923896789551,0.05678713321685791
1772728935328701000,1.908700927734375,0.31639671325683594,0.5810282230377197,0.041130006313323975
1772728935338219000,1.918218994140625,0.3871030807495117,0.5843665599822998,0.03130698204040527
1772728935347737000,1.927737060546875,0.40285205841064453,0.6146371364593506,0.030622541904449463
1772728935357255200,1.937255126953125,0.4019174575805664,0.6625580787658691,0.05197387933731079
1772728935366773000,1.94677294921875,0.35806846618652344,0.7737846374511719,0.14160972833633423
1772728935376291000,1.956291015625,0.22593307495117188,0.8823318481445312,0.1468915045261383
1772728935385809200,1.96580908203125,0.04831123352050781,0.9702973365783691,0.08348602056503296
1772728935395327200,1.9753271484375,-0.06338310241699219,1.065674066543579,0.00024402141571044922
1772728935404845000,1.984844970703125,-0.1028757095336914,1.1341767311096191,-0.09315162897109985
1772728935414363100,1.994363037109375,0.0028505325317382812,1.2197694778442383,-0.14060616493225098
1772728935423881200,2.003881103515625,0.17182254791259766,1.2442004680633545,-0.16595399379730225
1772728935433399300,2.0133994140625,0.3127708435058594,1.246812343597412,-0.18511933088302612
1772728935442917400,2.02291748046875,0.42554378509521484,1.1973826885223389,-0.22473812103271484
1772728935452435200,2.032435302734375,0.6264896392822266,1.0686357021331787,-0.14500248432159424
1772728935461953300,2.041953369140625,0.84820556640625,0.9306521415710449,-0.03289151191711426
1772728935471471400,2.051471435546875,1.062093734741211,0.8334012031555176,0.03795206546783447
1772728935480989400,2.060989501953125,1.197305679321289,0.7540562152862549,0.08766794204711914
1772728935490507300,2.07050732421875,1.2812738418579102,0.6571822166442871,0.09808135032653809
1772728935500025300,2.080025390625,1.3249702453613281,0.6210689544677734,0.06170135736465454
1772728935509543400,2.08954345703125,1.3366518020629883,0.5814604759216309,-0.02623438835144043
1772728935519061500,2.0990615234375,1.2721452713012695,0.6099212169647217,-0.07142436504364014
1772728935528579300,2.108579345703125,1.1822195053100586,0.7242221832275391,-0.1995498538017273
1772728935538097400,2.118097412109375,1.0765037536621094,0.7313380241394043,-0.3061690926551819
1772728935547615500,2.127615478515625,0.987884521484375,0.7166757583618164,-0.3714730143547058
1772728935557133600,2.137133544921875,0.939361572265625,0.7036473751068115,-0.5200865268707275
1772728935566651400,2.1466513671875,0.9704837799072266,0.6296277046203613,-0.6964941620826721
1772728935576169500,2.15616943359375,1.0634279251098633,0.48703765869140625,-0.8268512487411499
1772728935585687600,2.1656875,1.1623554229736328,0.29207563400268555,-0.9183416366577148
1772728935595205600,2.17520556640625,1.2523422241210938,0.09627079963684082,-1.0058119297027588
1772728935604723700,2.1847236328125,1.280451774597168,0.0032186508178710938,-1.0310951471328735
1772728935614241500,2.194241455078125,1.2948741912841797,-0.2884023189544678,-1.1398613452911377
1772728935623759600,2.203759521484375,1.3829965591430664,-0.5765388011932373,-1.1184613704681396
1772728935633277700,2.213277587890625,1.419398307800293,-0.8421545028686523,-1.0498793125152588
1772728935642795800,2.222795654296875,1.2692136764526367,-1.134319543838501,-1.0030534267425537
1772728935652313600,2.232313720703125,0.9928693771362305,-1.4504127502441406,-0.9997310638427734
1772728935661831700,2.241831787109375,0.6310920715332031,-1.6536636352539062,-1.031885027885437
1772728935671349800,2.251349853515625,0.3078460693359375,-1.698725938796997,-0.974105954170227
1772728935680867800,2.260867919921875,-0.0014219284057617188,-1.658862829208374,-0.9966747760772705
1772728935690385700,2.2703857421875,-0.3238105773925781,-1.5660648345947266,-0.994101881980896
1772728935699903700,2.27990380859375,-0.6101722717285156,-1.5233306884765625,-1.0175840854644775
1772728935709421800,2.289421875,-0.8733930587768555,-1.514204740524292,-1.0140208005905151
1772728935718940000,2.29893994140625,-0.9996862411499023,-1.4850289821624756,-0.9570021629333496
1772728935728458000,2.3084580078125,-0.9468975067138672,-1.3949604034423828,-0.8935517072677612
1772728935737975800,2.317975830078125,-0.768101692199707,-1.318385124206543,-0.7666633129119873
1772728935747494000,2.327493896484375,-0.5398893356323242,-1.2486658096313477,-0.6421157121658325
1772728935757012000,2.337011962890625,-0.33614253997802734,-1.1865687370300293,-0.5725454688072205
1772728935766530000,2.346530029296875,-0.1208353042602539,-1.1161587238311768,-0.5079489946365356
1772728935776047900,2.3560478515625,0.053798675537109375,-1.0477702617645264,-0.40709590911865234
1772728935785566000,2.36556591796875,0.18840694427490234,-0.9707016944885254,-0.29017341136932373
1772728935795084000,2.375083984375,0.15498065948486328,-0.9576795101165771,-0.13159281015396118
1772728935804602000,2.38460205078125,-0.045569419860839844,-0.9038832187652588,0.1074017882347107
1772728935814120000,2.394119873046875,-0.3694744110107422,-0.8284158706665039,0.2988879382610321
1772728935823638000,2.403637939453125,-0.7135829925537109,-0.7597935199737549,0.5283085703849792
1772728935833156000,2.413156005859375,-0.9798545837402344,-0.6626811027526855,0.7281695604324341
1772728935842674200,2.422674072265625,-1.149134635925293,-0.5095794200897217,0.813770592212677
1772728935852192300,2.432192138671875,-1.3023967742919922,-0.36608052253723145,0.8302784562110901
1772728935861710000,2.4417099609375,-1.420541763305664,-0.25869274139404297,0.8476405739784241
1772728935871228200,2.451228271484375,-1.460726261138916,-0.1828763484954834,0.858208417892456
1772728935880746200,2.460746337890625,-1.3993539810180664,-0.14115691184997559,0.8524289131164551
1772728935890264300,2.470264404296875,-1.3132190704345703,-0.14272618293762207,0.8152527809143066
1772728935899782100,2.4797822265625,-1.231369972229004,-0.16036152839660645,0.7462531328201294
1772728935909300200,2.48930029296875,-1.0752677917480469,-0.13408350944519043,0.5691602230072021
1772728935918818300,2.498818359375,-0.8191518783569336,-0.11377620697021484,0.44525614380836487
1772728935928336400,2.50833642578125,-0.5925397872924805,-0.08893847465515137,0.27254027128219604
1772728935937854200,2.517854248046875,-0.45282649993896484,-0.07794594764709473,0.09083211421966553
1772728935947372300,2.527372314453125,-0.34507179260253906,-0.09216904640197754,-0.1625148057937622
1772728935956890400,2.536890380859375,-0.28362464904785156,-0.045358896255493164,-0.39515605568885803
1772728935966408400,2.546408447265625,-0.24217796325683594,-0.004278659820556641,-0.5120729804039001
1772728935975926500,2.555926513671875,-0.21100616455078125,0.04508256912231445,-0.5495590567588806
1772728935985444400,2.5654443359375,-0.15420246124267578,0.11914396286010742,-0.5837854146957397
1772728935994962400,2.57496240234375,-0.1455841064453125,0.2221381664276123,-0.6051540970802307
1772728936004480500,2.58448046875,-0.1826152801513672,0.30625104904174805,-0.6502892971038818
1772728936013998600,2.59399853515625,-0.21736526489257812,0.3688173294067383,-0.6963731050491333
1772728936023516400,2.603516357421875,-0.22356605529785156,0.4311037063598633,-0.7968215942382812
1772728936033034500,2.613034423828125,-0.23929786682128906,0.5141465663909912,-0.8155562877655029
1772728936042552600,2.622552490234375,-0.2761869430541992,0.5506026744842529,-0.7994469404220581
1772728936052070700,2.632070556640625,-0.2646331787109375,0.6185364723205566,-0.7324275374412537
1772728936061588500,2.64158837890625,-0.24971389770507812,0.6763932704925537,-0.6754931211471558
1772728936071106600,2.6511064453125,-0.21448802947998047,0.7378287315368652,-0.5711100101470947
1772728936080624600,2.660624755859375,-0.15668296813964844,0.8506269454956055,-0.4813360273838043
1772728936090142700,2.670142822265625,-0.04312324523925781,0.9410274028778076,-0.36557286977767944
1772728936099660800,2.679660888671875,-0.019826889038085938,1.0554826259613037,-0.26651647686958313
1772728936109178600,2.6891787109375,0.041808128356933594,1.140364408493042,-0.14796918630599976
1772728936118696700,2.69869677734375,0.09598541259765625,1.17777419090271,-0.04194018244743347
1772728936128214800,2.70821484375,0.24517154693603516,1.2468862533569336,0.09375457465648651
1772728936137732900,2.71773291015625,0.46515750885009766,1.2285189628601074,0.18638546764850616
1772728936147250700,2.727250732421875,0.7247781753540039,1.1752409934997559,0.11250130832195282
1772728936156768800,2.736768798828125,1.0312414169311523,1.0555598735809326,-0.047699928283691406
1772728936166286800,2.746286865234375,1.4086694717407227,0.939979076385498,-0.22638365626335144
1772728936175805000,2.755804931640625,1.7072086334228516,0.9222345352172852,-0.41966819763183594
1772728936185322800,2.76532275390625,1.8420085906982422,0.9381580352783203,-0.534988284111023
1772728936194840800,2.7748408203125,1.8094120025634766,0.9623944759368896,-0.5830880999565125
1772728936204359000,2.78435888671875,1.7271652221679688,0.8915441036224365,-0.5678998231887817
1772728936213877000,2.793876953125,1.645400047302246,0.8216121196746826,-0.4982779622077942
1772728936223395000,2.80339501953125,1.4990768432617188,0.7591030597686768,-0.4250796139240265
1772728936232913000,2.812912841796875,1.2995548248291016,0.7371826171875,-0.2636657953262329
1772728936242431000,2.822430908203125,1.0100250244140625,0.6753885746002197,-0.04923468828201294
1772728936251949000,2.831948974609375,0.6890716552734375,0.6726241111755371,0.12236186861991882
1772728936261467100,2.841467041015625,0.4594841003417969,0.6532249450683594,0.31569594144821167
1772728936270985000,2.85098486328125,0.31997013092041016,0.6124224662780762,0.43724772334098816
1772728936280503000,2.8605029296875,0.3700580596923828,0.49604320526123047,0.44175517559051514
1772728936290021000,2.870021240234375,0.5591497421264648,0.3085622787475586,0.3511783480644226
1772728936299539200,2.879539306640625,0.8995504379272461,0.07897067070007324,0.23944616317749023
1772728936309057000,2.88905712890625,1.2393293380737305,-0.19808006286621094,0.1061018705368042
1772728936318575000,2.8985751953125,1.5110130310058594,-0.4979710578918457,0.04270106554031372
1772728936328093200,2.90809326171875,1.6377925872802734,-0.7651081085205078,-0.00662541389465332
1772728936337611300,2.917611328125,1.6190824508666992,-0.9672341346740723,0.016159892082214355
1772728936347129300,2.92712939453125,1.3919343948364258,-1.1329410076141357,0.08872589468955994
1772728936356647200,2.936647216796875,1.072209358215332,-1.203939437866211,0.19092264771461487
1772728936366165200,2.946165283203125,0.6648778915405273,-1.2919988632202148,0.4038582742214203
1772728936375683300,2.955683349609375,0.21023273468017578,-1.3430089950561523,0.6257086992263794
1772728936385201400,2.965201416015625,-0.160858154296875,-1.3103296756744385,0.7410740256309509
1772728936394719200,2.97471923828125,-0.5598220825195312,-1.4099204540252686,0.749657392501831
1772728936404237300,2.9842373046875,-0.9618110656738281,-1.4352524280548096,0.7721789479255676
1772728936413755400,2.99375537109375,-1.416428565979004,-1.4037809371948242,0.7556262612342834
1772728936423273500,3.0032734375,-1.7771081924438477,-1.3269672393798828,0.6463828682899475
1772728936432791300,3.012791259765625,-2.016911029815674,-1.2810659408569336,0.5878663063049316
1772728936442309400,3.022309326171875,-2.1087493896484375,-1.2757360935211182,0.5380987524986267
1772728936451827500,3.031827392578125,-2.098822593688965,-1.219414234161377,0.4450201094150543
1772728936461345500,3.041345458984375,-1.956263542175293,-1.1746199131011963,0.3498879075050354
1772728936470863600,3.050863525390625,-1.6809215545654297,-1.1210041046142578,0.28349772095680237
1772728936480381400,3.06038134765625,-1.2486953735351562,-1.1171379089355469,0.22866427898406982
1772728936489899500,3.0698994140625,-0.7807035446166992,-1.176811695098877,0.1613672971725464
1772728936499417600,3.07941748046875,-0.29503536224365234,-1.1517930030822754,0.04331198334693909
1772728936508935700,3.088935791015625,0.20981788635253906,-1.124497413635254,-0.07556575536727905
1772728936518453500,3.09845361328125,0.6424741744995117,-1.0345487594604492,-0.18865114450454712
1772728936527971600,3.1079716796875,0.9260578155517578,-0.9027893543243408,-0.32918834686279297
1772728936537489700,3.11748974609375,1.00518798828125,-0.7758746147155762,-0.41067957878112793
1772728936547007700,3.1270078125,0.9242525100708008,-0.6634035110473633,-0.4222412109375
1772728936556525600,3.136525634765625,0.6383857727050781,-0.5656180381774902,-0.3648308515548706
1772728936566043600,3.146043701171875,0.14738941192626953,-0.4637176990509033,-0.23294025659561157
1772728936575561700,3.155561767578125,-0.380035400390625,-0.3780841827392578,-0.12487930059432983
1772728936585079800,3.165079833984375,-0.8640480041503906,-0.2978198528289795,-0.07211077213287354
1772728936594598000,3.174597900390625,-1.2606735229492188,-0.1673893928527832,-0.05752688646316528
1772728936604115700,3.18411572265625,-1.6308879852294922,-0.07985520362854004,-0.07936739921569824
1772728936613633800,3.1936337890625,-1.8681378364562988,0.011838674545288086,-0.042945921421051025
1772728936623151900,3.20315185546875,-1.9712162017822266,0.040123701095581055,0.049852848052978516
1772728936632670000,3.212669921875,-1.9984197616577148,0.044713497161865234,0.10203903913497925
1772728936642187800,3.222187744140625,-1.9333915710449219,0.07860493659973145,0.13107526302337646
1772728936651705900,3.231705810546875,-1.7069206237792969,0.16737580299377441,0.19691646099090576
1772728936661224000,3.241223876953125,-1.3522419929504395,0.2139582633972168,0.24443426728248596
1772728936670742000,3.250741943359375,-0.9596042633056641,0.2930269241333008,0.2547159194946289
1772728936680259800,3.260259765625,-0.5711345672607422,0.3522031307220459,0.1947421431541443
1772728936689778000,3.26977783203125,-0.2265453338623047,0.40620994567871094,0.13659921288490295
1772728936699296000,3.2792958984375,0.11564159393310547,0.4602622985839844,0.1048833429813385
1772728936708814000,3.28881396484375,0.382171630859375,0.49094462394714355,0.06352174282073975
1772728936718332200,3.298332275390625,0.5783576965332031,0.5568993091583252,0.12173601984977722
1772728936727850000,3.30785009765625,0.7021818161010742,0.631298303604126,0.14372429251670837
1772728936737368000,3.3173681640625,0.7874660491943359,0.7088794708251953,0.1976693868637085
1772728936746886100,3.32688623046875,0.757960319519043,0.7610945701599121,0.24613770842552185
1772728936756404200,3.336404296875,0.5996341705322266,0.8503241539001465,0.27838701009750366
1772728936765922000,3.345922119140625,0.4414529800415039,0.9295151233673096,0.2951560616493225
1772728936775440100,3.355440185546875,0.3067626953125,1.0072617530822754,0.33217179775238037
1772728936784958200,3.364958251953125,0.2521648406982422,1.044631004333496,0.3606198728084564
1772728936794476300,3.374476318359375,0.25049304962158203,1.095923662185669,0.30288565158843994
1772728936803994000,3.383994140625,0.3033914566040039,1.140974998474121,0.19346630573272705
1772728936813512200,3.39351220703125,0.3983478546142578,1.1616432666778564,0.14590471982955933
1772728936823030300,3.4030302734375,0.518305778503418,1.153637170791626,0.12788832187652588
1772728936832548400,3.41254833984375,0.67266845703125,1.1051030158996582,0.12414050102233887
1772728936842066400,3.42206640625,0.832880973815918,1.0059142112731934,0.14070677757263184
1772728936851584300,3.431584228515625,0.9801731109619141,0.8934731483459473,0.170352041721344
1772728936861102300,3.441102294921875,1.0934677124023438,0.8122255802154541,0.21805289387702942
1772728936870620400,3.450620361328125,1.1373968124389648,0.7779335975646973,0.22658425569534302
1772728936880138500,3.460138427734375,1.0934267044067383,0.7991700172424316,0.17760193347930908
1772728936889656300,3.46965625,0.9286556243896484,0.8826043605804443,0.1255812644958496
1772728936899174400,3.47917431640625,0.693791389465332,0.946723222732544,0.04211205244064331
1772728936908692500,3.4886923828125,0.49410533905029297,0.960808515548706,0.0037866830825805664
1772728936918210600,3.49821044921875,0.35305213928222656,0.9331011772155762,-0.048547565937042236
1772728936927728400,3.507728271484375,0.3723287582397461,0.867743730545044,-0.2027134895324707
1772728936937246500,3.51724658203125,0.4840555191040039,0.83528733253479,-0.39853429794311523
1772728936946764500,3.5267646484375,0.6423025131225586,0.7838661670684814,-0.6081386804580688
1772728936956282600,3.53628271484375,0.8637313842773438,0.6869874000549316,-0.7077202796936035
1772728936965800700,3.54580078125,1.153285026550293,0.48436737060546875,-0.730245053768158
1772728936975318500,3.555318603515625,1.4944171905517578,0.24222683906555176,-0.687807023525238
1772728936984836600,3.564836669921875,1.827651023864746,-0.01878809928894043,-0.6455249190330505
1772728936994354700,3.574354736328125,2.1650991439819336,-0.28038883209228516,-0.646111011505127
1772728937003872800,3.583872802734375,2.406744956970215,-0.5650615692138672,-0.6747351884841919
1772728937013390600,3.593390625,2.508075714111328,-0.8147425651550293,-0.6795458197593689
1772728937022908700,3.60290869140625,2.506622314453125,-0.9733636379241943,-0.6366006135940552
1772728937032426800,3.6124267578125,2.1216936111450195,-1.187910795211792,-0.5776618719100952
1772728937041944800,3.62194482421875,1.3564748764038086,-1.3640131950378418,-0.5103462934494019
1772728937051462700,3.631462646484375,0.4643421173095703,-1.4497120380401611,-0.4668351411819458
1772728937060980700,3.640980712890625,-0.2494039535522461,-1.3672378063201904,-0.453083336353302
1772728937070498800,3.650498779296875,-0.8504810333251953,-1.2745590209960938,-0.42238956689834595
1772728937080017000,3.660016845703125,-1.2899589538574219,-1.3028113842010498,-0.33970433473587036
1772728937089535000,3.669534912109375,-1.6002016067504883,-1.310802698135376,-0.28956931829452515
1772728937099052800,3.679052734375,-1.7491064071655273,-1.3321120738983154,-0.2812526822090149
1772728937108571000,3.68857080078125,-1.7162718772888184,-1.3082022666931152,-0.27290380001068115
1772728937118089000,3.6980888671875,-1.4474530220031738,-1.2583670616149902,-0.28087133169174194
1772728937127607000,3.70760693359375,-1.0550546646118164,-1.1601731777191162,-0.30953967571258545
1772728937137124900,3.717124755859375,-0.6536397933959961,-1.0793285369873047,-0.35347163677215576
1772728937146643000,3.726642822265625,-0.3337421417236328,-1.0284476280212402,-0.2755146622657776
1772728937156161000,3.7361611328125,-0.035521507263183594,-1.0124824047088623,-0.18724793195724487
1772728937165679000,3.74567919921875,0.26701927185058594,-1.007211446762085,-0.08844178915023804
1772728937175197000,3.755197021484375,0.43019771575927734,-0.9881112575531006,-0.04106241464614868
1772728937184715000,3.764715087890625,0.4684562683105469,-0.9619834423065186,0.01593071222305298
1772728937194233000,3.774233154296875,0.3896207809448242,-0.9151256084442139,0.08527421951293945
1772728937203751200,3.783751220703125,0.1565694808959961,-0.8630096912384033,0.19347363710403442
1772728937213269200,3.793269287109375,-0.1863994598388672,-0.7878668308258057,0.31831952929496765
1772728937222787000,3.802787109375,-0.48536109924316406,-0.7221214771270752,0.4640381336212158
1772728937232305200,3.81230517578125,-0.7731647491455078,-0.6192386150360107,0.5688196420669556
1772728937241823200,3.8218232421875,-0.9824047088623047,-0.48543596267700195,0.6224552392959595
1772728937251341300,3.83134130859375,-1.1250743865966797,-0.381009578704834,0.6342679858207703
1772728937260859100,3.840859130859375,-1.2419342994689941,-0.3109626770019531,0.6506650447845459
1772728937270377200,3.850377197265625,-1.2921500205993652,-0.2210526466369629,0.5746080279350281
1772728937279895300,3.859895263671875,-1.302445888519287,-0.18469786643981934,0.5513136386871338
1772728937289413400,3.869413330078125,-1.2493853569030762,-0.1607809066772461,0.48511600494384766
1772728937298931200,3.87893115234375,-1.0762510299682617,-0.12734317779541016,0.40604498982429504
1772728937308449300,3.88844921875,-0.9676218032836914,-0.0763249397277832,0.29566818475723267
1772728937317967400,3.89796728515625,-0.9263296127319336,-0.06350827217102051,0.24731427431106567
1772728937327485400,3.9074853515625,-0.9503936767578125,-0.05133819580078125,0.23101577162742615
1772728937337003300,3.917003173828125,-0.946925163269043,-0.01022195816040039,0.23264551162719727
1772728937346521300,3.926521240234375,-0.9377269744873047,0.003171682357788086,0.2237556278705597
1772728937356039400,3.936039306640625,-0.9180812835693359,0.05360674858093262,0.1645025610923767
1772728937365557200,3.94555712890625,-0.9071855545043945,0.04579806327819824,0.14841923117637634
1772728937375075300,3.955075439453125,-0.8594427108764648,0.09160804748535156,0.10172444581985474
1772728937384593400,3.964593505859375,-0.7984237670898438,0.17585158348083496,0.056804001331329346
1772728937394111500,3.974111572265625,-0.6711797714233398,0.25914430618286133,0.049851953983306885
1772728937403629300,3.98362939453125,-0.5418214797973633,0.34009861946105957,-0.008282065391540527
1772728937413147400,3.9931474609375,-0.4004020690917969,0.38158226013183594,-0.06656754016876221
1772728937422665500,4.00266552734375,-0.2634735107421875,0.390178918838501,-0.15217459201812744
1772728937432183600,4.01218359375,-0.15691852569580078,0.4508984088897705,-0.24366134405136108
1772728937441701600,4.02170166015625,-0.039717674255371094,0.5459542274475098,-0.3358047604560852
1772728937451219500,4.031219482421875,-0.01653003692626953,0.6646699905395508,-0.3520984649658203
1772728937460737500,4.040737548828125,-0.029883384704589844,0.7162680625915527,-0.3482649326324463
1772728937470255600,4.050255615234375,-0.12309646606445312,0.8451952934265137,-0.35357367992401123
1772728937479773700,4.059773681640625,-0.21078777313232422,0.9481205940246582,-0.37584376335144043
1772728937489291500,4.06929150390625,-0.3535127639770508,1.0299057960510254,-0.37397122383117676
1772728937498809600,4.0788095703125,-0.44464111328125,1.1121749877929688,-0.3000423312187195
1772728937508327700,4.08832763671875,-0.42519378662109375,1.1892881393432617,-0.21860551834106445
1772728937517845800,4.097845703125,-0.3264656066894531,1.2115206718444824,-0.1727312207221985
1772728937527363600,4.107363525390625,-0.050368309020996094,1.1876764297485352,-0.20149338245391846
1772728937536881700,4.116881591796875,0.2792854309082031,1.120739459991455,-0.2756683826446533
1772728937546399700,4.126399658203125,0.6632099151611328,1.0753083229064941,-0.39794987440109253
1772728937555917800,4.135917724609375,1.0568962097167969,0.9841792583465576,-0.506503701210022
1772728937565436000,4.145435791015625,1.3847837448120117,0.9070456027984619,-0.6286269426345825
1772728937574953700,4.15495361328125,1.6165990829467773,0.8133492469787598,-0.698975145816803
1772728937584471800,4.164471923828125,1.7673406600952148,0.7445247173309326,-0.7035773992538452
1772728937593990000,4.173989990234375,1.6725292205810547,0.805556058883667,-0.7861921787261963
1772728937603508000,4.183508056640625,1.3108797073364258,0.8518831729888916,-0.7766035795211792
1772728937613025800,4.19302587890625,0.8827018737792969,0.8622236251831055,-0.7031859755516052
1772728937622544000,4.2025439453125,0.4729785919189453,0.8542249202728271,-0.5171787738800049
1772728937632062000,4.21206201171875,0.16878414154052734,0.8431029319763184,-0.30906128883361816
1772728937641580000,4.221580078125,-0.1196432113647461,0.8821685314178467,-0.13246268033981323
1772728937651097900,4.231097900390625,-0.3334846496582031,0.9210591316223145,-0.06776851415634155
1772728937660616000,4.240615966796875,-0.4255800247192383,0.9489500522613525,-0.006695657968521118
1772728937670134000,4.250134033203125,-0.3507833480834961,0.8870975971221924,0.0765848457813263
1772728937679652000,4.259652099609375,0.06513595581054688,0.765824556350708,0.20050671696662903
1772728937689170200,4.269170166015625,0.7238264083862305,0.5722672939300537,0.2788045406341553
1772728937698688000,4.27868798828125,1.4432659149169922,0.38030099868774414,0.19669067859649658
1772728937708206000,4.2882060546875,2.0252084732055664,0.16106843948364258,-0.0010100603103637695
1772728937717724200,4.29772412109375,2.530245780944824,-0.13490653038024902,-0.10060104727745056
1772728937727242200,4.3072421875,2.992903709411621,-0.44598984718322754,-0.2531985938549042
1772728937736760000,4.316760009765625,3.2355146408081055,-0.7927801609039307,-0.381987601518631
1772728937746278100,4.326278076171875,3.250284194946289,-1.1453604698181152,-0.3841027617454529
1772728937755796200,4.335796142578125,2.948256492614746,-1.3466858863830566,-0.21692052483558655
1772728937765314300,4.345314208984375,2.472187042236328,-1.485457181930542,0.04095068573951721
1772728937774832000,4.35483203125,1.8156805038452148,-1.5572326183319092,0.3832158148288727
1772728937784350200,4.36435009765625,1.0840396881103516,-1.5968918800354004,0.7151308059692383
1772728937793868300,4.373868408203125,0.4128255844116211,-1.6261907815933228,0.9162483215332031
1772728937803386400,4.383386474609375,-0.22312355041503906,-1.6252171993255615,0.974013090133667
1772728937812904400,4.392904541015625,-0.7032032012939453,-1.6151118278503418,0.9724458456039429
1772728937822422300,4.40242236328125,-1.0645437240600586,-1.5409703254699707,0.9413463473320007
1772728937831940400,4.4119404296875,-1.337207317352295,-1.4622352123260498,0.8644031286239624
1772728937841458400,4.42145849609375,-1.522718906402588,-1.3782501220703125,0.7365661859512329
1772728937850976300,4.430976318359375,-1.6200265884399414,-1.2889809608459473,0.5501183867454529
1772728937860494300,4.440494384765625,-1.6016359329223633,-1.2306959629058838,0.3457810580730438
1772728937870012400,4.450012451171875,-1.4920201301574707,-1.1717274188995361,0.19218295812606812
1772728937879530500,4.459530517578125,-1.3292226791381836,-1.1440846920013428,0.06805074214935303
1772728937889048300,4.46904833984375,-1.114790916442871,-1.121415376663208,-0.05251935124397278
1772728937898566400,4.47856640625,-0.8906850814819336,-1.0563223361968994,-0.1857890784740448
1772728937908084500,4.48808447265625,-0.6676454544067383,-0.9973011016845703,-0.3032592833042145
1772728937917602600,4.4976025390625,-0.49233531951904297,-0.8923156261444092,-0.3946978449821472
1772728937927120400,4.507120361328125,-0.45954418182373047,-0.7956199645996094,-0.4878472685813904
1772728937936638500,4.516638427734375,-0.5925607681274414,-0.6863012313842773,-0.5084414482116699
1772728937946156500,4.526156494140625,-0.8267030715942383,-0.5303668975830078,-0.4526143968105316
1772728937955674600,4.535674560546875,-1.080963134765625,-0.3768637180328369,-0.3616998493671417
1772728937965192400,4.5451923828125,-1.3607597351074219,-0.25964808464050293,-0.3081865906715393
1772728937974710500,4.55471044921875,-1.5521798133850098,-0.15288591384887695,-0.3202572464942932
1772728937984228600,4.564228515625,-1.6821842193603516,-0.0862126350402832,-0.32016390562057495
1772728937993746700,4.57374658203125,-1.6388397216796875,-0.040110111236572266,-0.28106239438056946
1772728938003264800,4.5832646484375,-1.4989380836486816,-0.02429056167602539,-0.28856196999549866
1772728938012782600,4.592782470703125,-1.3436813354492188,-0.008327484130859375,-0.32314804196357727
1772728938022300700,4.60230078125,-1.1872596740722656,0.011913776397705078,-0.28671392798423767
1772728938031818800,4.61181884765625,-1.0463829040527344,0.10549592971801758,-0.18822336196899414
1772728938041336800,4.6213369140625,-0.9234457015991211,0.2008059024810791,-0.08040228486061096
1772728938050854700,4.630854736328125,-0.8018417358398438,0.29833340644836426,-0.02023303508758545
1772728938060372700,4.640372802734375,-0.691131591796875,0.3698265552520752,0.05686908960342407
1772728938069890800,4.649890869140625,-0.5457229614257812,0.44607090950012207,0.11461277306079865
1772728938079409000,4.659408935546875,-0.37712764739990234,0.502009391784668,0.19999337196350098
1772728938088926700,4.6689267578125,-0.18956279754638672,0.5504498481750488,0.23082542419433594
1772728938098444800,4.67844482421875,0.08451461791992188,0.5988504886627197,0.2746078372001648
1772728938107963000,4.687962890625,0.3382740020751953,0.5852210521697998,0.34335455298423767
1772728938117481000,4.69748095703125,0.53656005859375,0.6319222450256348,0.3355894982814789
1772728938126999000,4.7069990234375,0.5653162002563477,0.682703971862793,0.2583834230899811
1772728938136516900,4.716516845703125,0.511042594909668,0.7418410778045654,0.2121666669845581
1772728938146035000,4.726034912109375,0.35214900970458984,0.8245675563812256,0.2284625768661499
1772728938155553000,4.735552978515625,0.1527996063232422,0.8918886184692383,0.2121366560459137
1772728938165071000,4.745071044921875,0.017314910888671875,0.891226053237915,0.2031594067811966
1772728938174589000,4.7545888671875,-0.09353446960449219,0.9469752311706543,0.19872847199440002
1772728938184107000,4.76410693359375,-0.11378192901611328,1.022965669631958,0.17866788804531097
1772728938193625000,4.773625,-0.11837291717529297,1.0183370113372803,0.1317315548658371
1772728938203143200,4.78314306640625,-0.08886146545410156,1.051800012588501,0.08599123358726501
1772728938212661000,4.792660888671875,0.0030918121337890625,1.0521314144134521,0.06703117489814758
1772728938222179000,4.802178955078125,0.17888832092285156,1.035856008529663,0.08645251393318176
1772728938231697200,4.811697265625,0.4125356674194336,1.0065007209777832,0.11098194122314453
1772728938241215000,4.821215087890625,0.7258567810058594,0.8959329128265381,0.15961933135986328
1772728938250733000,4.830733154296875,1.021245002746582,0.7986009120941162,0.21570950746536255
1772728938260251100,4.840251220703125,1.2348270416259766,0.7059004306793213,0.23421797156333923
1772728938269769200,4.849769287109375,1.3507556915283203,0.6447644233703613,0.2139919102191925
1772728938279287000,4.859287109375,1.4009523391723633,0.6492080688476562,0.18478411436080933
1772728938288805000,4.86880517578125,1.4315528869628906,0.6554815769195557,0.14128179848194122
1772728938298323200,4.8783232421875,1.4049978256225586,0.7075207233428955,0.13061347603797913
1772728938307841300,4.88784130859375,1.350480079650879,0.8162140846252441,0.10356107354164124
1772728938317359000,4.897359130859375,1.2489395141601562,0.8765377998352051,-0.029385238885879517
1772728938326877200,4.906877197265625,1.1761484146118164,0.8977694511413574,-0.19790029525756836
1772728938336395300,4.916395263671875,1.1264152526855469,0.8798699378967285,-0.3773609697818756
1772728938345913300,4.925913330078125,1.1201257705688477,0.8232762813568115,-0.5472626090049744
1772728938355431400,4.935431396484375,1.1394119262695312,0.7260100841522217,-0.6103391647338867
1772728938364949200,4.94494921875,1.1951074600219727,0.5477657318115234,-0.6101208329200745
1772728938374467300,4.95446728515625,1.2984237670898438,0.33306455612182617,-0.6670894026756287
1772728938383985400,4.9639853515625,1.451319694519043,0.05860567092895508,-0.6986798644065857
1772728938393503500,4.97350341796875,1.589442253112793,-0.23806023597717285,-0.8132451176643372
1772728938403021300,4.983021240234375,1.7493972778320312,-0.568568229675293,-0.9564541578292847
1772728938412539400,4.992539306640625,1.8419561386108398,-0.8889224529266357,-1.1084837913513184
1772728938422057500,5.002057373046875,1.835881233215332,-1.1848070621490479,-1.17122483253479
1772728938431575600,5.011575439453125,1.546442985534668,-1.5306603908538818,-1.1313629150390625
1772728938441093400,5.02109326171875,1.0535545349121094,-1.7219178676605225,-1.0259850025177002
1772728938450611500,5.030611572265625,0.4939889907836914,-1.708952784538269,-0.9418269991874695
1772728938460129500,5.040129638671875,-0.041553497314453125,-1.610828161239624,-0.8087881207466125
1772728938469647600,5.049647705078125,-0.5444955825805664,-1.518310785293579,-0.691429078578949
1772728938479165700,5.059165771484375,-0.9131746292114258,-1.524263858795166,-0.7052607536315918
1772728938488683500,5.06868359375,-1.1874165534973145,-1.570195198059082,-0.6440955996513367
1772728938498201600,5.07820166015625,-1.3693342208862305,-1.584951400756836,-0.5383080244064331
1772728938507719700,5.0877197265625,-1.4752225875854492,-1.5506470203399658,-0.427987277507782
1772728938517237800,5.09723779296875,-1.4373283386230469,-1.4484868049621582,-0.3472833037376404
1772728938526755600,5.106755615234375,-1.3068647384643555,-1.3181054592132568,-0.30757051706314087
1772728938536273700,5.116273681640625,-1.0961685180664062,-1.2193317413330078,-0.28185778856277466
1772728938545791700,5.125791748046875,-0.7526216506958008,-1.193608283996582,-0.13978660106658936
1772728938555309800,5.135309814453125,-0.4096841812133789,-1.1705317497253418,0.005027949810028076
1772728938564827600,5.14482763671875,-0.07382965087890625,-1.144336462020874,0.15044206380844116
1772728938574345700,5.154345703125,0.15565204620361328,-1.1050608158111572,0.2751736044883728
1772728938583863800,5.16386376953125,0.2753000259399414,-1.0692188739776611,0.3726508617401123
1772728938593381600,5.173381591796875,0.2650718688964844,-1.0438799858093262,0.48054239153862
1772728938602899700,5.182899658203125,0.1646280288696289,-1.009960412979126,0.5598796606063843
1772728938612417800,5.192417724609375,-0.04395484924316406,-0.9671835899353027,0.602631688117981
1772728938621935900,5.201935791015625,-0.3477773666381836,-0.8764376640319824,0.6805992722511292
1772728938631453700,5.21145361328125,-0.6650581359863281,-0.7816557884216309,0.7860887050628662
1772728938640971800,5.2209716796875,-0.8619680404663086,-0.6665489673614502,0.8361809849739075
1772728938650489900,5.23048974609375,-1.08447265625,-0.5764176845550537,0.8721187710762024
1772728938660008000,5.240008056640625,-1.3042688369750977,-0.49836015701293945,0.8507965803146362
1772728938669526000,5.249526123046875,-1.4621191024780273,-0.4432518482208252,0.8200303316116333
1772728938679043800,5.2590439453125,-1.5610589981079102,-0.34540510177612305,0.7387665510177612
1772728938688562000,5.26856201171875,-1.5876693725585938,-0.2557556629180908,0.646007239818573
1772728938698080000,5.278080078125,-1.6073594093322754,-0.19627857208251953,0.5217534899711609
1772728938707598000,5.28759814453125,-1.5897150039672852,-0.13209128379821777,0.4033408463001251
1772728938717116000,5.297115966796875,-1.559154987335205,-0.07890057563781738,0.3160240352153778
1772728938726634000,5.306634033203125,-1.4968795776367188,-0.04801654815673828,0.2185457944869995
1772728938736152000,5.316152099609375,-1.410283088684082,0.008717060089111328,0.13921725749969482
1772728938745670100,5.325670166015625,-1.2850399017333984,0.08155059814453125,0.02054804563522339
1772728938755188000,5.33518798828125,-1.1496047973632812,0.10777783393859863,-0.09640222787857056
1772728938764706000,5.3447060546875,-0.9676523208618164,0.1624598503112793,-0.23830395936965942
1772728938774224100,5.35422412109375,-0.6910123825073242,0.22726702690124512,-0.29605263471603394
1772728938783742200,5.3637421875,-0.44127368927001953,0.3178110122680664,-0.33468079566955566
1772728938793260300,5.37326025390625,-0.24909019470214844,0.4165079593658447,-0.43280941247940063
1772728938802778000,5.382778076171875,-0.11883831024169922,0.5225763320922852,-0.45680856704711914
1772728938812296200,5.392296142578125,-0.019118309020996094,0.5876274108886719,-0.4713706374168396
1772728938821814000,5.40181396484375,0.03348731994628906,0.6593191623687744,-0.4860178828239441
1772728938831332000,5.41133203125,0.0008783340454101562,0.7497043609619141,-0.5384978652000427
1772728938840850200,5.42085009765625,-0.03796863555908203,0.8516800403594971,-0.5755364298820496
1772728938850368300,5.4303681640625,-0.07831764221191406,0.9749445915222168,-0.5539268851280212
1772728938859886000,5.439885986328125,-0.098968505859375,1.0963375568389893,-0.4428878426551819
1772728938869404200,5.449404052734375,-0.1577014923095703,1.162116527557373,-0.33148694038391113
1772728938878922200,5.458922119140625,-0.20234012603759766,1.252479076385498,-0.24083077907562256
1772728938888440300,5.4684404296875,-0.2069540023803711,1.3731720447540283,-0.1912153959274292
1772728938897958400,5.47795849609375,-0.13349437713623047,1.438514232635498,-0.12891727685928345
1772728938907476200,5.487476318359375,0.018117904663085938,1.491128921508789,-0.10240113735198975
1772728938916994300,5.496994384765625,0.22893333435058594,1.5231292247772217,-0.10554462671279907
1772728938926512400,5.506512451171875,0.537449836730957,1.5142991542816162,-0.20895087718963623
1772728938936030500,5.516030517578125,0.8938751220703125,1.4058382511138916,-0.3476412892341614
1772728938945548300,5.52554833984375,1.3274526596069336,1.2960329055786133,-0.48163533210754395
1772728938955066400,5.53506640625,1.810110092163086,1.2131826877593994,-0.6427052617073059
1772728938964584400,5.54458447265625,2.1726980209350586,1.117143154144287,-0.784132719039917
1772728938974102500,5.5541025390625,2.3466596603393555,1.037642002105713,-0.8769716620445251
1772728938983620400,5.563620361328125,2.3087806701660156,0.9931302070617676,-0.9059322476387024
1772728938993138400,5.573138427734375,2.0448598861694336,0.9681503772735596,-0.8359226584434509
1772728939002656500,5.582656494140625,1.585458755493164,0.9255146980285645,-0.6969262361526489
1772728939012174600,5.592174560546875,1.1062202453613281,0.8746964931488037,-0.47960084676742554
1772728939021692700,5.601692626953125,0.7558994293212891,0.8608968257904053,-0.26503318548202515
1772728939031210500,5.61121044921875,0.4516611099243164,0.9186367988586426,-0.14118331670761108
1772728939040728600,5.620728515625,0.20899200439453125,0.9313497543334961,-0.08715680241584778
1772728939050246400,5.630246337890625,0.031932830810546875,0.9245061874389648,-0.010719120502471924
1772728939059764500,5.639764404296875,0.10178661346435547,0.7833914756774902,0.06276866793632507
1772728939069282600,5.649282470703125,0.40654945373535156,0.690676212310791,0.13826406002044678
1772728939078800600,5.658800537109375,0.8626937866210938,0.537151575088501,0.15696687996387482
1772728939088318700,5.668318603515625,1.2772016525268555,0.3186612129211426,0.0788140594959259
1772728939097836500,5.67783642578125,1.6795282363891602,0.0072002410888671875,-0.0046558380126953125
1772728939107354600,5.687354736328125,1.9941701889038086,-0.4015035629272461,0.0019713640213012695
1772728939116872700,5.696872802734375,2.3203229904174805,-0.7956035137176514,0.04560038447380066
1772728939126390800,5.706390869140625,2.578366279602051,-1.1293654441833496,0.10877932608127594
1772728939135908600,5.71590869140625,2.6338558197021484,-1.3952231407165527,0.15845583379268646
1772728939145426700,5.7254267578125,2.369196891784668,-1.6062934398651123,0.2846479117870331
1772728939154944800,5.73494482421875,1.9698591232299805,-1.793614387512207,0.38442525267601013
1772728939164462800,5.744462890625,1.4839553833007812,-1.9237310886383057,0.4979468584060669
1772728939173980700,5.753980712890625,0.9587059020996094,-1.9563463926315308,0.5963325500488281
1772728939183498800,5.763498779296875,0.48630523681640625,-1.90543794631958,0.6630244851112366
1772728939193016800,5.773016845703125,0.03937244415283203,-1.8040804862976074,0.6882431507110596
1772728939202535000,5.782534912109375,-0.23285865783691406,-1.728110671043396,0.6484120488166809
1772728939212053000,5.792052978515625,-0.5445365905761719,-1.676335096359253,0.46562668681144714
1772728939221570800,5.80157080078125,-0.8513450622558594,-1.5669794082641602,0.2865859270095825
1772728939231089000,5.8110888671875,-1.0945634841918945,-1.483780860900879,0.2233889400959015
1772728939240607000,5.82060693359375,-1.2561941146850586,-1.4483404159545898,0.11836974322795868
1772728939250124800,5.830124755859375,-1.351426124572754,-1.4638826847076416,-0.04959626495838165
1772728939259643000,5.839642822265625,-1.3925142288208008,-1.4513969421386719,-0.2613288164138794
1772728939269161000,5.849160888671875,-1.3768978118896484,-1.3928797245025635,-0.4688803553581238
1772728939278679000,5.858678955078125,-1.3425045013427734,-1.3326373100280762,-0.5501706004142761
1772728939288196900,5.86819677734375,-1.331674575805664,-1.2223522663116455,-0.5039623975753784
1772728939297715000,5.87771484375,-1.2313232421875,-1.1287572383880615,-0.44768109917640686
1772728939307233000,5.88723291015625,-1.1267280578613281,-1.0325796604156494,-0.4180009961128235
1772728939316751000,5.896751220703125,-1.1752233505249023,-0.9630250930786133,-0.44108712673187256
1772728939326269000,5.90626904296875,-1.3145909309387207,-0.8787643909454346,-0.44020646810531616
1772728939335787000,5.915787109375,-1.4016880989074707,-0.8123424053192139,-0.381794810295105
1772728939345305000,5.92530517578125,-1.4535937309265137,-0.7225494384765625,-0.3208303451538086
1772728939354823200,5.9348232421875,-1.5398845672607422,-0.6350629329681396,-0.29816487431526184
1772728939364341000,5.944341064453125,-1.63446044921875,-0.4799792766571045,-0.32475754618644714
1772728939373859000,5.953859130859375,-1.6133103370666504,-0.316784143447876,-0.32149040699005127
1772728939383377200,5.963377197265625,-1.5436367988586426,-0.1763753890991211,-0.3229500353336334
1772728939392895200,5.972895263671875,-1.4877710342407227,-0.08452773094177246,-0.29572391510009766
1772728939402413300,5.982413330078125,-1.4387102127075195,-0.03578829765319824,-0.2446461319923401
1772728939411931100,5.99193115234375,-1.3176202774047852,0.015161991119384766,-0.13758885860443115
1772728939421449200,6.00144921875,-1.100541114807129,0.038954973220825195,-0.09542736411094666
1772728939430967300,6.01096728515625,-0.775202751159668,0.09139537811279297,-0.09587004780769348
1772728939440485400,6.0204853515625,-0.41254425048828125,0.1508619785308838,-0.08961835503578186
1772728939450003200,6.030003173828125,-0.09759521484375,0.23153352737426758,-0.016316235065460205
1772728939459521300,6.039521240234375,0.11087512969970703,0.30279970169067383,0.08289766311645508
1772728939469039000,6.0490390625,0.38824462890625,0.3862893581390381,0.1738671362400055
1772728939478557200,6.05855712890625,0.5462579727172852,0.459073543548584,0.2495589554309845
1772728939488075300,6.0680751953125,0.5325937271118164,0.49524426460266113,0.25877171754837036
1772728939497593300,6.07759326171875,0.3781766891479492,0.5680158138275146,0.3273891508579254
1772728939507111400,6.087111328125,0.18314075469970703,0.6572275161743164,0.41438722610473633
1772728939516629200,6.096629150390625,0.009000778198242188,0.712064266204834,0.519808292388916
1772728939526147300,6.106147216796875,-0.1784038543701172,0.7773182392120361,0.5681688785552979
1772728939535665400,6.11566552734375,-0.32234668731689453,0.8234591484069824,0.5589160919189453
1772728939545183500,6.12518359375,-0.4110536575317383,0.8865602016448975,0.5862075090408325
1772728939554701300,6.134701416015625,-0.44000911712646484,1.0051629543304443,0.626801073551178
1772728939564219400,6.144219482421875,-0.3590688705444336,1.1262598037719727,0.6550854444503784
1772728939573737500,6.153737548828125,-0.21362686157226562,1.239767074584961,0.5495867133140564
1772728939583255600,6.163255615234375,-0.04445362091064453,1.2598543167114258,0.3646185100078583
1772728939592773400,6.1727734375,0.18646621704101562,1.2871863842010498,0.20134809613227844
1772728939602291500,6.18229150390625,0.37828731536865234,1.2963602542877197,0.023532092571258545
1772728939611809500,6.1918095703125,0.5736179351806641,1.2884080410003662,-0.1700211763381958
1772728939621327600,6.20132763671875,0.733881950378418,1.2999827861785889,-0.268062561750412
1772728939630845400,6.210845458984375,0.9449939727783203,1.2641973495483398,-0.26276808977127075
1772728939640363500,6.220363525390625,1.1308307647705078,1.1920251846313477,-0.2142648696899414
1772728939649881600,6.229881591796875,1.3257360458374023,1.0740966796875,-0.16577130556106567
1772728939659399400,6.2393994140625,1.468790054321289,0.9744634628295898,-0.15936237573623657
1772728939668917500,6.24891748046875,1.5130634307861328,0.9513087272644043,-0.1331120729446411
1772728939678435600,6.258435546875,1.418416976928711,0.9353563785552979,-0.10684239864349365
1772728939687953700,6.26795361328125,1.2733583450317383,0.8939707279205322,-0.13543087244033813
1772728939697471700,6.2774716796875,1.0701675415039062,0.8888554573059082,-0.12956202030181885
1772728939706989600,6.286989501953125,0.93023681640625,0.9114086627960205,-0.19141602516174316
1772728939716507600,6.296507568359375,0.8844194412231445,0.8589046001434326,-0.2835649251937866
1772728939726025700,6.306025634765625,0.8417596817016602,0.8057568073272705,-0.34324461221694946
1772728939735543800,6.315543701171875,0.8261518478393555,0.740241289138794,-0.35265129804611206
1772728939745061600,6.3250615234375,0.9092607498168945,0.6335625648498535,-0.3429827094078064
1772728939754579700,6.334579833984375,0.9994487762451172,0.5924849510192871,-0.42982983589172363
1772728939764097800,6.344097900390625,1.1681585311889648,0.5903751850128174,-0.6736213564872742
1772728939773615900,6.353615966796875,1.3623123168945312,0.4151957035064697,-0.8515136241912842
1772728939783133700,6.3631337890625,1.5528297424316406,0.1750779151916504,-0.882623553276062
1772728939792651800,6.37265185546875,1.7490310668945312,-0.2704169750213623,-0.7849045991897583
1772728939802169900,6.382169921875,1.8676795959472656,-0.7021586894989014,-0.6162865161895752
1772728939811687700,6.391687744140625,2.046694755554199,-1.1484453678131104,-0.5907836556434631
1772728939821205800,6.401205810546875,1.9671945571899414,-1.5399246215820312,-0.654035210609436
1772728939830723800,6.410723876953125,1.5538854598999023,-1.7866129875183105,-0.6204319596290588
1772728939840242000,6.420241943359375,0.9007635116577148,-1.903022289276123,-0.5251625180244446
1772728939849759700,6.429759765625,0.13919544219970703,-1.9357750415802002,-0.3703128695487976
1772728939859277800,6.43927783203125,-0.5901994705200195,-1.8691306114196777,-0.15921258926391602
1772728939868796000,6.4487958984375,-1.1377153396606445,-1.823296070098877,0.056996703147888184
1772728939878314000,6.45831396484375,-1.6628532409667969,-1.7825629711151123,0.24867302179336548
1772728939887831800,6.467831787109375,-1.9789199829101562,-1.7263154983520508,0.4159907102584839
1772728939897350000,6.477349853515625,-2.2175397872924805,-1.621307373046875,0.38507574796676636
1772728939906868000,6.486867919921875,-2.2221426963806152,-1.528404712677002,0.25624167919158936
1772728939916386000,6.496385986328125,-1.9836645126342773,-1.3934495449066162,0.12586301565170288
1772728939925904100,6.505904052734375,-1.6503543853759766,-1.269944429397583,0.10805422067642212
1772728939935422000,6.515421875,-1.1998906135559082,-1.27227783203125,0.13104921579360962
1772728939944940000,6.52493994140625,-0.6672201156616211,-1.3692011833190918,0.18957126140594482
1772728939954457900,6.534457763671875,-0.2259197235107422,-1.4193611145019531,0.21075034141540527
1772728939963976000,6.543975830078125,0.11537837982177734,-1.4625344276428223,0.270918607711792
1772728939973494000,6.553493896484375,0.4074983596801758,-1.404573917388916,0.246945321559906
1772728939983012000,6.56301220703125,0.6531667709350586,-1.270822286605835,0.1577000617980957
1772728939992530200,6.5725302734375,0.8629922866821289,-1.1044306755065918,0.17428189516067505
1772728940002048000,6.582048095703125,0.8994140625,-0.9669766426086426,0.17464286088943481
1772728940011566000,6.591566162109375,0.6390819549560547,-0.7868738174438477,0.23548829555511475
1772728940021084200,6.601084228515625,0.1737079620361328,-0.6331686973571777,0.3124532103538513
1772728940030602200,6.610602294921875,-0.28867626190185547,-0.5074062347412109,0.3883996605873108
1772728940040120000,6.6201201171875,-0.6291875839233398,-0.3607203960418701,0.42303740978240967
1772728940049638100,6.62963818359375,-0.8535728454589844,-0.2444291114807129,0.44401663541793823
1772728940059156200,6.63915625,-1.0557737350463867,-0.17413711547851562,0.43601733446121216
1772728940068674300,6.64867431640625,-1.2006382942199707,-0.10063695907592773,0.42055171728134155
1772728940078192000,6.658192138671875,-1.2985763549804688,-0.04138779640197754,0.4835260510444641
1772728940087710200,6.667710205078125,-1.412341594696045,-0.014089345932006836,0.5913655757904053
1772728940097228300,6.677228271484375,-1.4922809600830078,0.0016291141510009766,0.6126416921615601
1772728940106746000,6.68674609375,-1.6103239059448242,0.05438685417175293,0.5247116088867188
1772728940116264200,6.69626416015625,-1.630025863647461,0.11304473876953125,0.4593052864074707
1772728940125782300,6.7057822265625,-1.5463142395019531,0.1695384979248047,0.43195387721061707
1772728940135300400,6.71530029296875,-1.3658995628356934,0.23183202743530273,0.3303026556968689
1772728940144818200,6.724818115234375,-1.1119251251220703,0.18051433563232422,0.23719120025634766
1772728940154336300,6.734336181640625,-0.8099365234375,0.17572617530822754,0.1058618426322937
1772728940163854300,6.743854248046875,-0.5667562484741211,0.17951059341430664,-0.009755253791809082
1772728940173372400,6.753372314453125,-0.3888731002807617,0.20226216316223145,-0.14130723476409912
1772728940182890500,6.762890380859375,-0.24004745483398438,0.24302005767822266,-0.20090723037719727
1772728940192408300,6.772408203125,-0.022249221801757812,0.3225560188293457,-0.3356025815010071
1772728940201926400,6.781926513671875,0.08242511749267578,0.4078094959259033,-0.5363754034042358
1772728940211444500,6.791444580078125,0.04743671417236328,0.4784884452819824,-0.7130321860313416
1772728940220962600,6.800962646484375,-0.04385185241699219,0.5507533550262451,-0.792080283164978
1772728940230480400,6.81048046875,-0.1797924041748047,0.5977864265441895,-0.7540431618690491
1772728940239998500,6.81999853515625,-0.2720680236816406,0.629906177520752,-0.6189301609992981
1772728940249516300,6.829516357421875,-0.24446582794189453,0.6997320652008057,-0.4612298607826233
1772728940259034400,6.839034423828125,-0.16650867462158203,0.807154655456543,-0.42193812131881714
1772728940268552400,6.848552490234375,-0.06701469421386719,0.877997875213623,-0.4825543165206909
1772728940278070500,6.858070556640625,0.041812896728515625,0.9745242595672607,-0.5896626710891724
1772728940287588600,6.867588623046875,0.13829612731933594,1.0683436393737793,-0.693501353263855
1772728940297106400,6.8771064453125,0.2388620376586914,1.1747040748596191,-0.7743929624557495
1772728940306624500,6.88662451171875,0.39792728424072266,1.2616026401519775,-0.790667712688446
1772728940316142600,6.896142578125,0.6367368698120117,1.3198354244232178,-0.7803100943565369
1772728940325660700,6.90566064453125,1.000594139099121,1.3417017459869385,-0.7921373844146729
1772728940335178500,6.915178466796875,1.3750600814819336,1.283294916152954,-0.7351844906806946
1772728940344696600,6.924696533203125,1.813298225402832,1.262669563293457,-0.7567815780639648
1772728940354214700,6.934214599609375,2.1418447494506836,1.2631406784057617,-0.8183194398880005
1772728940363732700,6.943732666015625,2.450228691101074,1.2249407768249512,-0.8556655645370483
1772728940373250600,6.95325048828125,2.617363929748535,1.2516505718231201,-0.8812248110771179
1772728940382768600,6.9627685546875,2.6440725326538086,1.2657485008239746,-0.7871721982955933
1772728940392286700,6.97228662109375,2.542633056640625,1.2389349937438965,-0.6280150413513184
1772728940401804500,6.981804443359375,2.379802703857422,1.2753753662109375,-0.5528883934020996
1772728940411322600,6.991322509765625,2.2052812576293945,1.1857948303222656,-0.4600929617881775
1772728940420840700,7.0008408203125,2.0518436431884766,1.0414283275604248,-0.43332135677337646
1772728940430358800,7.01035888671875,1.9162712097167969,0.8824203014373779,-0.3153035044670105
1772728940439876600,7.019876708984375,1.7382545471191406,0.7127399444580078,-0.19156020879745483
1772728940449394700,7.029394775390625,1.4693632125854492,0.5032062530517578,-0.038248419761657715
1772728940458912800,7.038912841796875,1.1232471466064453,0.29605531692504883,0.044847965240478516
1772728940468430800,7.048430908203125,0.8256692886352539,0.11157608032226562,0.10930824279785156
1772728940477949000,7.057948974609375,0.6543483734130859,-0.1302328109741211,0.06854259967803955
1772728940487466800,7.067466796875,0.6178903579711914,-0.40965986251831055,0.03640866279602051
1772728940496984800,7.07698486328125,0.6776046752929688,-0.6742453575134277,-0.03672230243682861
1772728940506503000,7.0865029296875,0.7362127304077148,-0.9564111232757568,-0.04141521453857422
1772728940516020700,7.096020751953125,0.7923297882080078,-1.2509136199951172,0.10877043008804321
1772728940525538800,7.105538818359375,0.622462272644043,-1.499739170074463,0.41855528950691223
1772728940535057000,7.115056884765625,0.16141986846923828,-1.6805081367492676,0.8416445255279541
1772728940544575000,7.124574951171875,-0.36716461181640625,-1.8018598556518555,1.2190361022949219
1772728940554092800,7.1340927734375,-0.8599748611450195,-1.8124547004699707,1.4609742164611816
1772728940563611000,7.14361083984375,-1.1801176071166992,-1.776538610458374,1.5285320281982422
1772728940573129000,7.15312890625,-1.3486213684082031,-1.738978385925293,1.5168988704681396
1772728940582647000,7.16264697265625,-1.4345636367797852,-1.624455451965332,1.49423348903656
1772728940592164900,7.172164794921875,-1.519495964050293,-1.4951317310333252,1.513503909111023
1772728940601683000,7.181682861328125,-1.5369243621826172,-1.3053364753723145,1.3807754516601562
1772728940611201000,7.191200927734375,-1.6822509765625,-1.2110052108764648,1.1097285747528076
1772728940620719000,7.200718994140625,-1.900151252746582,-1.1112470626831055,0.9070377945899963
1772728940630237000,7.21023681640625,-2.039752960205078,-1.003786563873291,0.7958998084068298
1772728940639755000,7.219755126953125,-2.036238670349121,-0.9203102588653564,0.7663558721542358
1772728940649273000,7.229273193359375,-1.8719615936279297,-0.843937873840332,0.7932058572769165
1772728940658791000,7.238791015625,-1.475661277770996,-0.8201766014099121,0.7292960286140442
1772728940668309000,7.24830908203125,-0.9138011932373047,-0.8652558326721191,0.615792989730835
1772728940677827000,7.2578271484375,-0.2776336669921875,-0.9791953563690186,0.4790690541267395
1772728940687345200,7.26734521484375,0.3109397888183594,-0.9784195423126221,0.3885321617126465
1772728940696863000,7.276863037109375,0.6962776184082031,-0.8694963455200195,0.30665698647499084
1772728940706381000,7.286381103515625,0.7871894836425781,-0.7489914894104004,0.2867897152900696
1772728940715899100,7.295899169921875,0.6425962448120117,-0.6431875228881836,0.2926042973995209
1772728940725417200,7.305417236328125,0.4522113800048828,-0.5491557121276855,0.24824336171150208
1772728940734935000,7.31493505859375,0.22077465057373047,-0.42162299156188965,0.16442003846168518
1772728940744453000,7.324453125,-0.045157432556152344,-0.28063178062438965,0.04340893030166626
1772728940753971200,7.33397119140625,-0.26953983306884766,-0.19205999374389648,-0.03801751136779785
1772728940763489000,7.343489013671875,-0.43118858337402344,-0.14824295043945312,-0.0541682243347168
1772728940773007000,7.353007080078125,-0.5331220626831055,-0.18374156951904297,0.006604194641113281
1772728940782525200,7.362525146484375,-0.7624454498291016,-0.21255087852478027,0.10544508695602417
1772728940792043300,7.372043212890625,-1.1151962280273438,-0.1694478988647461,0.21132886409759521
1772728940801561000,7.38156103515625,-1.4489898681640625,-0.03985786437988281,0.2603191137313843
1772728940811079200,7.3910791015625,-1.6048903465270996,0.14694809913635254,0.2846003770828247
1772728940820597200,7.40059716796875,-1.5624518394470215,0.30831313133239746,0.24171823263168335
1772728940830115300,7.410115234375,-1.3936138153076172,0.36734724044799805,0.226318359375
1772728940839633400,7.41963330078125,-1.1150779724121094,0.3615379333496094,0.23011362552642822
1772728940849151200,7.429151123046875,-0.8102931976318359,0.3497319221496582,0.2666724622249603
1772728940858669300,7.43866943359375,-0.5550289154052734,0.34714722633361816,0.26239365339279175
1772728940868187100,7.448187255859375,-0.3435697555541992,0.3923938274383545,0.3057591915130615
1772728940877705200,7.457705322265625,-0.19427776336669922,0.452930212020874,0.380567729473114
1772728940887223300,7.467223388671875,-0.01822376251220703,0.5086696147918701,0.459073543548584
1772728940896741400,7.476741455078125,0.09165477752685547,0.5473222732543945,0.5565299987792969
1772728940906259500,7.486259521484375,0.11926078796386719,0.613478422164917,0.674484372138977
1772728940915777300,7.49577734375,0.16077232360839844,0.6749086380004883,0.6941712498664856
1772728940925295400,7.50529541015625,0.24520206451416016,0.7138333320617676,0.6631626486778259
1772728940934813400,7.5148134765625,0.3603239059448242,0.7686986923217773,0.5921801328659058
1772728940944331500,7.52433154296875,0.34558868408203125,0.8363447189331055,0.5469914674758911
1772728940953849300,7.533849365234375,0.16497325897216797,0.9256727695465088,0.5629286170005798
1772728940963367400,7.543367431640625,-0.004985809326171875,0.9518959522247314,0.5892908573150635
1772728940972885200,7.55288525390625,-0.050312042236328125,0.9947669506072998,0.5874808430671692
1772728940982403300,7.5624033203125,-0.012564659118652344,0.9979910850524902,0.5165631771087646
1772728940991921400,7.57192138671875,0.11710834503173828,0.9936716556549072,0.39510995149612427
1772728941001439500,7.581439453125,0.31689929962158203,0.9511418342590332,0.36956119537353516
1772728941010957600,7.59095751953125,0.5558681488037109,0.8795754909515381,0.43821948766708374
1772728941020475400,7.600475341796875,0.7986116409301758,0.7421002388000488,0.5509802103042603
1772728941029993500,7.609993408203125,1.0575933456420898,0.6281111240386963,0.5755530595779419
1772728941039511600,7.619511474609375,1.2284889221191406,0.4811556339263916,0.5418997406959534
1772728941049029600,7.629029541015625,1.2118034362792969,0.465301513671875,0.41447392106056213
1772728941058547500,7.63854736328125,1.0774297714233398,0.5585308074951172,0.28294891119003296
1772728941068065500,7.6480654296875,0.9498147964477539,0.6698400974273682,0.15922760963439941
1772728941077583600,7.65758349609375,0.790278434753418,0.8005502223968506,0.008457183837890625
1772728941087101400,7.667101318359375,0.6486806869506836,0.8368813991546631,-0.13123315572738647
1772728941096619500,7.67661962890625,0.6581954956054688,0.8536214828491211,-0.3481435179710388
1772728941106137600,7.6861376953125,0.8225278854370117,0.8352031707763672,-0.5893892645835876
1772728941115655700,7.69565576171875,0.9781055450439453,0.8240094184875488,-0.7389858365058899
1772728941125173500,7.705173583984375,1.0569791793823242,0.7506856918334961,-0.7551121115684509
1772728941134691600,7.714691650390625,1.173008918762207,0.5789694786071777,-0.7151041626930237
1772728941144209700,7.724209716796875,1.323404312133789,0.3123440742492676,-0.6706410050392151
1772728941153727700,7.733727783203125,1.5294504165649414,0.037395477294921875,-0.6352280974388123
1772728941163245600,7.74324560546875,1.7198944091796875,-0.26854801177978516,-0.5259700417518616
1772728941172763600,7.752763671875,2.1261491775512695,-0.6417782306671143,-0.49510955810546875
1772728941182281700,7.76228173828125,2.399165153503418,-0.9796261787414551,-0.4930304288864136
1772728941191799800,7.7717998046875,2.1926136016845703,-1.2427301406860352,-0.4070752263069153
1772728941201317600,7.781317626953125,1.5562629699707031,-1.4212594032287598,-0.24926918745040894
1772728941210835700,7.790835693359375,0.6989727020263672,-1.451347827911377,-0.22784173488616943
1772728941220353800,7.800353759765625,-0.09987926483154297,-1.3249611854553223,-0.27491050958633423
1772728941229871600,7.80987158203125,-0.7788295745849609,-1.1625676155090332,-0.40956002473831177
1772728941239389700,7.8193896484375,-1.4059667587280273,-1.090444803237915,-0.45547205209732056
1772728941248907800,7.82890771484375,-1.8420090675354004,-1.0670807361602783,-0.3800833821296692
1772728941258425900,7.83842578125,-2.126905918121338,-1.0579166412353516,-0.290962278842926
1772728941267944000,7.84794384765625,-2.2052154541015625,-1.0142560005187988,-0.20183098316192627
1772728941277461800,7.857461669921875,-2.0789833068847656,-0.9501070976257324,-0.20781230926513672
1772728941286979800,7.866979736328125,-1.8138618469238281,-0.9670724868774414,-0.300645112991333
1772728941296497700,7.87649755859375,-1.4198217391967773,-0.9795012474060059,-0.40636539459228516
1772728941306015700,7.886015625,-0.9873456954956055,-0.9391670227050781,-0.47297823429107666
1772728941315533800,7.895533935546875,-0.6184844970703125,-0.8911521434783936,-0.426239013671875
1772728941325052000,7.905052001953125,-0.3697643280029297,-0.8804402351379395,-0.36922240257263184
1772728941334569700,7.91456982421875,-0.12831783294677734,-0.8416457176208496,-0.28046178817749023
1772728941344087800,7.924087890625,0.15166091918945312,-0.8434457778930664,-0.21293282508850098
1772728941353606000,7.93360595703125,0.4372720718383789,-0.8443679809570312,-0.12691175937652588
1772728941363124000,7.9431240234375,0.5335760116577148,-0.8096168041229248,-0.036760926246643066
1772728941372642000,7.95264208984375,0.34114646911621094,-0.796403169631958,0.12496805191040039
1772728941382160000,7.962159912109375,0.013580322265625,-0.7298645973205566,0.2925153374671936
1772728941391678000,7.971677978515625,-0.29117298126220703,-0.604485034942627,0.48650485277175903
1772728941401195800,7.98119580078125,-0.5565681457519531,-0.5031843185424805,0.6088528037071228
1772728941410713900,7.9907138671875,-0.8380336761474609,-0.3984057903289795,0.7231623530387878
1772728941420232000,8.00023193359375,-1.0474271774291992,-0.31589484214782715,0.7797775268554688
1772728941429750000,8.00975,-1.0966463088989258,-0.17918825149536133,0.814704179763794
1772728941439268000,8.01926806640625,-1.0596179962158203,-0.11828207969665527,0.8094832301139832
1772728941448786000,8.028785888671875,-0.972010612487793,-0.10532093048095703,0.8161760568618774
1772728941458304000,8.038303955078124,-0.8579540252685547,-0.14979767799377441,0.8093461990356445
1772728941467822000,8.047822021484375,-0.7963972091674805,-0.1823263168334961,0.7163892984390259
1772728941477340200,8.057340087890625,-0.715611457824707,-0.1673564910888672,0.5985632538795471
1772728941486858000,8.06685791015625,-0.5202093124389648,-0.13883447647094727,0.45856744050979614
1772728941496376000,8.0763759765625,-0.38967037200927734,-0.13485193252563477,0.3453556299209595
1772728941505894100,8.08589404296875,-0.3499870300292969,-0.09104681015014648,0.16619384288787842
1772728941515412000,8.095411865234375,-0.36020851135253906,-0.07441043853759766,-0.0010783076286315918
1772728941524930000,8.104929931640624,-0.42252159118652344,-0.05385851860046387,-0.04117393493652344
1772728941534448000,8.1144482421875,-0.47695350646972656,0.022998332977294922,-0.05091738700866699
1772728941543966200,8.12396630859375,-0.4587116241455078,0.1312854290008545,-0.01108086109161377
1772728941553484000,8.133484130859374,-0.3654651641845703,0.24387097358703613,-0.014597058296203613
1772728941563002000,8.143002197265625,-0.3217754364013672,0.3320949077606201,-0.05445057153701782
1772728941572520200,8.152520263671875,-0.2945423126220703,0.42056918144226074,-0.08445578813552856
1772728941582038000,8.1620380859375,-0.32474613189697266,0.4699409008026123,-0.06595903635025024
1772728941591556000,8.17155615234375,-0.3265104293823242,0.50480055809021,-0.06061148643493652
1772728941601074200,8.18107421875,-0.36208248138427734,0.5303990840911865,0.01804453134536743
1772728941610592300,8.19059228515625,-0.46747684478759766,0.5954413414001465,0.06800323724746704
1772728941620110000,8.200110107421875,-0.6260232925415039,0.7078063488006592,0.12164849042892456
1772728941629628200,8.209628173828126,-0.7991809844970703,0.8242454528808594,0.13287431001663208
1772728941639146200,8.219146240234375,-0.8097143173217773,0.9006617069244385,0.16295361518859863
1772728941648664300,8.228664306640624,-0.7052688598632812,1.029033899307251,0.22157400846481323
1772728941658182100,8.23818212890625,-0.509770393371582,1.105684757232666,0.22108495235443115
1772728941667700200,8.2477001953125,-0.4095582962036133,1.1902415752410889,0.14967221021652222
1772728941677218300,8.25721826171875,-0.3209037780761719,1.2853360176086426,0.08005917072296143
1772728941686736100,8.266736083984375,-0.11248588562011719,1.3027310371398926,-0.008343338966369629
1772728941696254200,8.276254150390624,0.1794567108154297,1.2382760047912598,-0.1266961693763733
1772728941705772300,8.285772216796875,0.49022674560546875,1.1329197883605957,-0.29354327917099
1772728941715290400,8.295290283203125,0.8198757171630859,1.0414605140686035,-0.4487539529800415
1772728941724808200,8.30480810546875,1.09942626953125,0.9775111675262451,-0.5969078540802002
1772728941734326300,8.314326171875,1.4153785705566406,0.9705445766448975,-0.6615400314331055
1772728941743844400,8.32384423828125,1.7564897537231445,0.9680285453796387,-0.7046272158622742
1772728941753362400,8.333362548828125,1.853729248046875,0.936819314956665,-0.6707147359848022
1772728941762880300,8.34288037109375,1.8035383224487305,0.8903133869171143,-0.5636526346206665
1772728941772398300,8.3523984375,1.5695571899414062,0.823481559753418,-0.5238100290298462
1772728941781916400,8.36191650390625,1.3185348510742188,0.7812108993530273,-0.5186694860458374
1772728941791434200,8.371434326171874,1.0977249145507812,0.7698192596435547,-0.49920135736465454
1772728941800952300,8.380952392578125,0.9255905151367188,0.8053600788116455,-0.3794817328453064
1772728941810470400,8.390470458984375,0.7793407440185547,0.7927553653717041,-0.16865217685699463
1772728941819988500,8.399988525390626,0.6779069900512695,0.8187315464019775,-0.09495705366134644
1772728941829506300,8.40950634765625,0.5957908630371094,0.8129100799560547,-0.09317362308502197
1772728941839024400,8.4190244140625,0.5012540817260742,0.688868522644043,-0.0068642497062683105
1772728941848542500,8.42854248046875,0.5375633239746094,0.48505115509033203,0.18842417001724243
1772728941858060300,8.438060302734375,0.8934602737426758,0.23349380493164062,0.28569483757019043
1772728941867578400,8.447578369140626,1.4956188201904297,-0.02386307716369629,0.14139264822006226
