time,seconds_elapsed,z,y,x
1772728933502350600,0.0823505859375,10.394421577453613,3.0867412090301514,-0.8350951075553894
1772728933511868400,0.091868408203125,10.289137840270996,2.9766714572906494,-0.8733802437782288
1772728933521386500,0.101386474609375,10.140782356262207,2.943171739578247,-0.849452018737793
1772728933530904600,0.110904541015625,9.956535339355469,2.909672260284424,-0.8757730722427368
1772728933540422700,0.120422607421875,9.80817985534668,2.8689942359924316,-0.9978070259094238
1772728933549940500,0.1299404296875,9.834501266479492,2.801995277404785,-1.038485050201416
1772728933559458600,0.13945849609375,9.832108497619629,2.7110681533813477,-1.0217353105545044
1772728933568976600,0.1489765625,9.824930191040039,2.63449764251709,-0.9284151792526245
1772728933578494700,0.15849462890625,9.719645500183105,2.557927370071411,-0.8398807644844055
1772728933588012500,0.168012451171875,9.564111709594727,2.524427890777588,-0.7537391185760498
1772728933597530600,0.177530517578125,9.396614074707031,2.526820659637451,-0.6317051649093628
1772728933607048700,0.187048583984375,9.219545364379883,2.517249345779419,-0.5431707501411438
1772728933616566800,0.19656689453125,9.020941734313965,2.445464849472046,-0.3852444589138031
1772728933626084900,0.2060849609375,8.83669376373291,2.4287149906158447,-0.22013968229293823
1772728933635602700,0.215602783203125,8.681160926818848,2.421536445617676,-0.1459621787071228
1772728933645120800,0.225120849609375,8.590232849121094,2.3952155113220215,0.007178467698395252
1772728933654638800,0.234638916015625,8.549555778503418,2.438286304473877,0.12681959569454193
1772728933664157000,0.244156982421875,8.532805442810059,2.4670002460479736,0.275174617767334
1772728933673674800,0.2536748046875,8.549555778503418,2.541177749633789,0.44027936458587646
1772728933683192800,0.26319287109375,8.647661209106445,2.5770699977874756,0.5790630578994751
1772728933692711000,0.2727109375,8.817551612854004,2.5914268493652344,0.6795616149902344
1772728933702229000,0.28222900390625,9.035298347473145,2.5674986839294434,0.6915257573127747
1772728933711747000,0.2917470703125,9.20279598236084,2.589034080505371,0.6101697683334351
1772728933721265200,0.30126513671875,9.32004451751709,2.5842485427856445,0.5694918036460876
1772728933730783000,0.310782958984375,9.377471923828125,2.66560435295105,0.45942193269729614
1772728933740301000,0.320301025390625,9.382257461547852,2.7517459392547607,0.28953152894973755
1772728933749819100,0.329819091796875,9.329615592956543,2.8761727809906006,0.10767702013254166
1772728933759337200,0.339337158203125,9.166903495788574,2.974278450012207,-0.035892341285943985
1772728933768855000,0.34885498046875,8.992227554321289,3.012563705444336,-0.13878370821475983
1772728933778373000,0.358373046875,8.824729919433594,3.0412776470184326,-0.1698904037475586
1772728933787891200,0.36789111328125,8.659625053405762,3.1250264644622803,-0.12442677468061447
1772728933797409300,0.3774091796875,8.520841598510742,3.2039895057678223,-0.09571290761232376
1772728933806927400,0.38692724609375,8.415556907653809,3.3308091163635254,-0.1339980661869049
1772728933816445200,0.396445068359375,8.350951194763184,3.4097721576690674,-0.18903298676013947
1772728933825963300,0.40596337890625,8.22413158416748,3.4983067512512207,-0.23449662327766418
1772728933835481300,0.4154814453125,8.123632431030273,3.531806230545044,-0.2512463629245758
1772728933844999400,0.42499951171875,8.070990562438965,3.589233875274658,-0.30149564146995544
1772728933854517200,0.434517333984375,8.104490280151367,3.6370904445648193,-0.35892340540885925
1772728933864035300,0.444035400390625,8.171489715576172,3.579662561416626,-0.4259224236011505
1772728933873553400,0.453553466796875,8.185846328735352,3.507878065109253,-0.4450650215148926
1772728933883071500,0.463071533203125,8.281558990478516,3.4983067512512207,-0.4259224236011505
1772728933892589300,0.47258935546875,8.525627136230469,3.460021495819092,-0.37806597352027893
1772728933902107400,0.482107421875,8.882157325744629,3.4002010822296143,-0.38285163044929504
1772728933911625500,0.49162548828125,9.186046600341797,3.3954153060913086,-0.3924229145050049
1772728933921143600,0.5011435546875,9.482755661010742,3.5198421478271484,-0.33499518036842346
1772728933930661600,0.51066162109375,9.698110580444336,3.7160534858703613,-0.27038896083831787
1772728933940179500,0.520179443359375,9.738788604736328,3.799802303314209,-0.23449662327766418
1772728933949697500,0.529697509765625,9.686145782470703,3.8500516414642334,-0.34695929288864136
1772728933959215600,0.539215576171875,9.681360244750977,3.9792640209198,-0.4570291340351105
1772728933968733700,0.548733642578125,9.712467193603516,4.089334011077881,-0.47617170214653015
1772728933978251800,0.558251708984375,9.743574142456055,4.146761417388916,-0.45942193269729614
1772728933987769900,0.567769775390625,9.822537422180176,4.146761417388916,-0.3038884699344635
1772728933997287700,0.57728759765625,9.707681655883789,4.194618225097656,-0.2799602448940277
1772728934006805800,0.5868056640625,9.609575271606445,4.249652862548828,-0.2632105052471161
1772728934016323800,0.59632373046875,9.45882797241211,4.335794448852539,-0.275174617767334
1772728934025842000,0.605842041015625,9.284152030944824,4.4410786628723145,-0.3206382393836975
1772728934035359700,0.61535986328125,9.133403778076172,4.500899314880371,-0.43549370765686035
1772728934044877800,0.6248779296875,9.080761909484863,4.541577339172363,-0.5718846321105957
1772728934054396000,0.63439599609375,8.997013092041016,4.618147850036621,-0.6963114142417908
1772728934063914000,0.6439140625,8.927620887756348,4.666004180908203,-0.8327022790908813
1772728934073431800,0.653431884765625,8.855836868286133,4.60857629776001,-0.9403793215751648
1772728934082950000,0.662949951171875,7.932207107543945,4.419543266296387,-1.00259268283844
1772728934092468000,0.672468017578125,8.805587768554688,4.455435752868652,-0.9403793215751648
1772728934101986000,0.681986083984375,8.992227554321289,4.405186653137207,-1.0671988725662231
1772728934111504100,0.691504150390625,9.437292098999023,4.338187217712402,-1.373480200767517
1772728934121022000,0.70102197265625,10.217352867126465,4.254438877105713,-1.5936198234558105
1772728934130540000,0.7105400390625,10.877771377563477,4.2831525802612305,-1.6558332443237305
1772728934140058000,0.72005810546875,11.20798110961914,4.412364959716797,-1.7874385118484497
1772728934149576200,0.729576171875,11.174481391906738,4.60139799118042,-1.9310078620910645
1772728934159094000,0.739093994140625,10.861021995544434,4.567898273468018,-1.8376877307891846
1772728934168612000,0.748612060546875,10.593026161193848,4.3549370765686035,-1.6893328428268433
1772728934178130200,0.758130126953125,10.447063446044922,4.278367042541504,-1.5960127115249634
1772728934187648300,0.767648193359375,10.179067611694336,4.3310089111328125,-1.667797327041626
1772728934197166000,0.777166015625,9.913464546203613,4.457828521728516,-2.0003998279571533
1772728934206684200,0.78668408203125,9.719645500183105,4.5391845703125,-2.4574289321899414
1772728934216202200,0.7962021484375,9.621540069580078,4.536791801452637,-2.825923442840576
1772728934225720300,0.80572021484375,9.650253295898438,4.400400638580322,-3.139383316040039
1772728934235238400,0.81523828125,9.827322959899902,4.175475597381592,-3.421736478805542
1772728934244756200,0.824756103515625,9.987641334533691,3.84765887260437,-3.6370904445648193
1772728934254274300,0.8342744140625,10.164710998535156,3.524627685546875,-3.720839262008667
1772728934263792400,0.84379248046875,10.286744117736816,3.122633457183838,-3.682554006576538
1772728934273310500,0.853310546875,10.26760196685791,2.7637102603912354,-3.5581271648406982
1772728934282828300,0.862828369140625,10.107282638549805,2.4406790733337402,-3.304488182067871
1772728934292346600,0.8723466796875,9.93260669708252,2.1607189178466797,-2.9862427711486816
1772728934301864400,0.881864501953125,9.755537986755371,1.9980069398880005,-2.581855535507202
1772728934311382500,0.891382568359375,9.489934921264648,1.8783657550811768,-2.287538528442383
1772728934320900600,0.900900634765625,9.200403213500977,1.7994025945663452,-2.124826431274414
1772728934330418700,0.910418701171875,8.999405860900879,1.8305093050003052,-2.0315065383911133
1772728934339936500,0.9199365234375,8.870193481445312,1.9286150932312012,-1.9214365482330322
1772728934349454600,0.92945458984375,8.81515884399414,2.1200408935546875,-1.8640087842941284
1772728934358972700,0.93897265625,8.726624488830566,2.321038007736206,-1.8592232465744019
1772728934368490800,0.94849072265625,8.583054542541504,2.469393014907837,-1.8664016723632812
1772728934378008800,0.9580087890625,8.413164138793945,2.572284460067749,-1.832902193069458
1772728934387526700,0.967526611328125,8.343772888183594,2.63449764251709,-1.7682958841323853
1772728934397044700,0.977044677734375,8.346165657043457,2.675175666809082,-1.6630117893218994
1772728934406562800,0.986562744140625,8.408378601074219,2.715853691101074,-1.5361921787261963
1772728934416081000,0.996080810546875,8.535198211669922,2.7876384258270264,-1.4117653369903564
1772728934425598700,1.0055986328125,8.628518104553223,2.871387243270874,-1.3256237506866455
1772728934435116800,1.01511669921875,8.69791030883789,2.974278450012207,-1.2418749332427979
1772728934444635000,1.024634765625,8.621339797973633,3.081955671310425,-1.1700903177261353
1772728934454153000,1.034153076171875,8.50169849395752,3.1800613403320312,-1.0767701864242554
1772728934463670800,1.0436708984375,8.295916557312012,3.2518460750579834,-0.9762716293334961
1772728934473188900,1.05318896484375,8.14516830444336,3.3236305713653564,-0.8446664214134216
1772728934482707000,1.06270703125,8.018348693847656,3.390629768371582,-0.7369893789291382
1772728934492225000,1.07222509765625,7.963313579559326,3.428914785385132,-0.6149554252624512
1772728934501743000,1.0817431640625,7.975277900695801,3.500699520111084,-0.550349235534668
1772728934511261000,1.091260986328125,7.984848976135254,3.531806230545044,-0.5383850932121277
1772728934520779000,1.100779052734375,7.970492362976074,3.5126636028289795,-0.5048855543136597
1772728934530297000,1.110297119140625,7.903493404388428,3.510270833969116,-0.5264210104942322
1772728934539815200,1.119815185546875,7.872386455535889,3.500699520111084,-0.6221339106559753
1772728934549333000,1.1293330078125,7.8388872146606445,3.524627685546875,-0.6652047038078308
1772728934558851000,1.13885107421875,7.905886173248291,3.625126361846924,-0.6364908218383789
1772728934568369200,1.148369140625,7.9968132972717285,3.706482172012329,-0.6149554252624512
1772728934577887200,1.15788720703125,8.147561073303223,3.78544545173645,-0.5623133182525635
1772728934587405000,1.167405029296875,8.293522834777832,3.806980848312378,-0.5575276613235474
1772728934596923100,1.176923095703125,8.444271087646484,3.8500516414642334,-0.5886343717575073
1772728934606441200,1.186441162109375,8.566305160522461,3.9074792861938477,-0.638883650302887
1772728934615959300,1.195959228515625,8.685946464538574,3.94815731048584,-0.6699903607368469
1772728934625477000,1.20547705078125,8.791230201721191,3.988835334777832,-0.6532405614852905
1772728934634995200,1.2149951171875,8.941978454589844,3.972085475921631,-0.6460621356964111
1772728934644513300,1.22451318359375,9.075976371765137,3.94097900390625,-0.6149554252624512
1772728934654031400,1.23403125,9.157332420349121,3.9314076900482178,-0.5527420043945312
1772728934663549400,1.243549560546875,9.221938133239746,3.9864425659179688,-0.5599204897880554
1772728934673067500,1.253067626953125,9.274580955505371,4.060619831085205,-0.5216353535652161
1772728934682585600,1.262585693359375,9.281759262084961,4.156332969665527,-0.5144568681716919
1772728934692103400,1.272103515625,9.269794464111328,4.1970109939575195,-0.5312066078186035
1772728934701621500,1.28162158203125,9.29611587524414,4.275974273681641,-0.5335994362831116
1772728934711139600,1.2911396484375,9.269794464111328,4.3310089111328125,-0.5168496966362
1772728934720657700,1.30065771484375,9.159725189208984,4.474578380584717,-0.4905286431312561
1772728934730175500,1.310175537109375,9.087940216064453,4.596612453460693,-0.44745782017707825
1772728934739693600,1.319693603515625,9.087940216064453,4.7234320640563965,-0.397208571434021
1772728934749211600,1.329211669921875,9.367900848388672,4.845465660095215,-0.35413774847984314
1772728934758729700,1.338729736328125,9.753145217895508,4.8574299812316895,-0.37088751792907715
1772728934768247600,1.34824755859375,10.059426307678223,4.764110088348389,-0.48574298620224
1772728934777765600,1.357765625,10.258030891418457,4.694717884063721,-0.6340979933738708
1772728934787283700,1.36728369140625,10.459028244018555,4.610969066619873,-0.8087740540504456
1772728934796801500,1.376801513671875,10.683953285217285,4.572684288024902,-0.9403793215751648
1772728934806319900,1.38631982421875,10.837093353271484,4.541577339172363,-0.9906286001205444
1772728934815837700,1.395837646484375,10.834700584411621,4.54636287689209,-0.9427721500396729
1772728934825355800,1.405355712890625,10.743773460388184,4.570291042327881,-0.914058268070221
1772728934834873900,1.414873779296875,10.60977554321289,4.622933387756348,-0.8662018179893494
1772728934844392000,1.424391845703125,10.473384857177734,4.642076015472412,-0.7752745151519775
1772728934853909800,1.43390966796875,10.447063446044922,4.634897232055664,-0.6939185857772827
1772728934863427800,1.443427734375,10.478170394897461,4.599005222320557,-0.5934200286865234
1772728934872946000,1.45294580078125,10.628918647766113,4.512863636016846,-0.5958128571510315
1772728934882464000,1.462464111328125,10.8969144821167,4.362115859985352,-0.6221339106559753
1772728934891981800,1.47198193359375,11.23190975189209,4.161118507385254,-0.6029912829399109
1772728934901500000,1.4815,11.545369148254395,3.85483717918396,-0.6269195079803467
1772728934911018000,1.49101806640625,11.801401138305664,3.500699520111084,-0.6580262184143066
1772728934920536000,1.5005361328125,12.016755104064941,3.129812002182007,-0.7202396392822266
1772728934930054100,1.51005419921875,12.145967483520508,2.7589244842529297,-0.7250252366065979
1772728934939572000,1.519572021484375,12.052647590637207,2.392822742462158,-0.7082754969596863
1772728934949090000,1.529090087890625,11.693724632263184,2.100898265838623,-0.5335994362831116
1772728934958608100,1.538608154296875,11.109875679016113,1.947757601737976,-0.24885354936122894
1772728934968126200,1.548126220703125,10.442277908325195,1.8855443000793457,0.0933200865983963
1772728934977644000,1.55764404296875,9.820143699645996,1.8616160154342651,0.380458801984787
1772728934987162000,1.567162109375,9.154939651489258,1.8592232465744019,0.5670989751815796
1772728934996680200,1.57668017578125,8.602197647094727,1.9286150932312012,0.5790630578994751
1772728935006198300,1.5861982421875,8.068597793579102,1.9046868085861206,0.6029912829399109
1772728935015716000,1.595716064453125,7.70967435836792,2.0003998279571533,0.6125625967979431
1772728935025234200,1.605234130859375,7.427321434020996,2.1032910346984863,0.5790630578994751
1772728935034752300,1.614752197265625,7.154539585113525,2.2061824798583984,0.4785645306110382
1772728935044270300,1.624270263671875,6.932007312774658,2.352144718170166,0.32542386651039124
1772728935053788400,1.633788330078125,6.845865726470947,2.510071039199829,0.17946170270442963
1772728935063306200,1.64330615234375,6.915257453918457,2.675175666809082,-0.016749758273363113
1772728935072824300,1.65282421875,7.240681171417236,2.7397818565368652,-0.14835500717163086
1772728935082342400,1.66234228515625,7.75753116607666,2.713460922241211,-0.31345975399017334
1772728935091860500,1.671860595703125,8.276773452758789,2.6727828979492188,-0.48813581466674805
1772728935101378300,1.68137841796875,8.781659126281738,2.6368906497955322,-0.6891329288482666
1772728935110896400,1.690896484375,9.169296264648438,2.644068956375122,-0.8183453679084778
1772728935120414500,1.70041455078125,9.45164966583252,2.6967110633850098,-0.8255237936973572
1772728935129932500,1.7099326171875,9.540184020996094,2.806781053543091,-0.8183453679084778
1772728935139450600,1.71945068359375,9.449256896972656,2.926422119140625,-0.7034898400306702
1772728935148968700,1.72896875,9.176474571228027,3.036491870880127,-0.6029912829399109
1772728935158486500,1.738486572265625,8.85344409942627,3.1513473987579346,-0.5264210104942322
1772728935168004600,1.748004638671875,8.602197647094727,3.249453067779541,-0.43549370765686035
1772728935177522700,1.757522705078125,8.389236450195312,3.328416347503662,-0.42831525206565857
1772728935187040800,1.767040771484375,8.202595710754395,3.4002010822296143,-0.39960137009620667
1772728935196558600,1.77655859375,7.999206066131592,3.4791641235351562,-0.46899324655532837
1772728935206076700,1.78607666015625,7.791030406951904,3.5437703132629395,-0.5479564070701599
1772728935215594800,1.7955947265625,7.6498541831970215,3.594019651412964,-0.5431707501411438
1772728935225112800,1.80511279296875,7.573283672332764,3.601198196411133,-0.5072783827781677
1772728935234631000,1.814630859375,7.573283672332764,3.6394832134246826,-0.4618147611618042
1772728935244148700,1.824148681640625,7.678567886352539,3.6634113788604736,-0.380458801984787
1772728935253666800,1.833666748046875,7.846065521240234,3.7399818897247314,-0.33738797903060913
1772728935263185000,1.843184814453125,8.111668586730957,3.8021950721740723,-0.3565305769443512
1772728935272703000,1.852702880859375,8.439485549926758,3.8596229553222656,-0.38763725757598877
1772728935282220800,1.862220703125,8.772088050842285,3.85483717918396,-0.4307080805301666
1772728935291739000,1.87173876953125,9.011369705200195,3.869194269180298,-0.4977070987224579
1772728935301257000,1.881257080078125,9.22433090209961,3.9529430866241455,-0.5024927258491516
1772728935310775000,1.890775146484375,9.355937004089355,4.015156269073486,-0.5240281820297241
1772728935320292900,1.90029296875,9.518648147583008,4.034298896789551,-0.5335994362831116
1772728935329811000,1.90981103515625,9.597611427307129,4.024727821350098,-0.5383850932121277
1772728935339329000,1.9193291015625,9.619147300720215,4.048655986785889,-0.5359922647476196
1772728935348847000,1.92884716796875,9.621540069580078,4.096512317657471,-0.5144568681716919
1772728935358365200,1.938365234375,9.578469276428223,4.213760852813721,-0.42831525206565857
1772728935367883000,1.947883056640625,9.44447135925293,4.333401679992676,-0.4307080805301666
1772728935377401000,1.957401123046875,9.262616157531738,4.436293125152588,-0.5048855543136597
1772728935386919200,1.966919189453125,9.145368576049805,4.548755645751953,-0.6005984544754028
1772728935396437200,1.976437255859375,9.09990406036377,4.634897232055664,-0.7082754969596863
1772728935405955000,1.985955078125,9.200403213500977,4.737788677215576,-0.7704889178276062
1772728935415473200,1.99547314453125,9.365508079528809,4.778466701507568,-0.8087740540504456
1772728935424991200,2.0049912109375,9.504291534423828,4.7952165603637695,-0.8374879360198975
1772728935434509300,2.01450927734375,9.616754531860352,4.756931304931641,-0.882951557636261
1772728935444027100,2.024027099609375,9.820143699645996,4.634897232055664,-0.8039883971214294
1772728935453545200,2.033545166015625,10.047462463378906,4.498506546020508,-0.6867401003837585
1772728935463063300,2.043063232421875,10.269994735717773,4.398007869720459,-0.605384111404419
1772728935472581400,2.052581298828125,10.415956497192383,4.311866283416748,-0.5407779216766357
1772728935482099500,2.062099365234375,10.511670112609863,4.206582069396973,-0.5120640397071838
1772728935491617300,2.0716171875,10.566704750061035,4.163511276245117,-0.5288137793540955
1772728935501135400,2.08113525390625,10.588240623474121,4.120440483093262,-0.5982056856155396
1772728935510653400,2.0906533203125,10.53081226348877,4.151547431945801,-0.6269195079803467
1772728935520171500,2.100171630859375,10.444670677185059,4.275974273681641,-0.7417750358581543
1772728935529689300,2.109689453125,10.339386940002441,4.299902439117432,-0.8398807644844055
1772728935539207400,2.11920751953125,10.248459815979004,4.3070807456970215,-0.9020941257476807
1772728935548725500,2.1287255859375,10.195816993713379,4.319045066833496,-1.0528420209884644
1772728935558243600,2.13824365234375,10.222138404846191,4.271188259124756,-1.2346965074539185
1772728935567761400,2.147761474609375,10.310672760009766,4.153940200805664,-1.3710874319076538
1772728935577279500,2.157279541015625,10.40638542175293,3.981656789779663,-1.466800332069397
1772728935586797600,2.166797607421875,10.494919776916504,3.8045880794525146,-1.5553346872329712
1772728935596315600,2.176315673828125,10.52363395690918,3.7256247997283936,-1.576870083808899
1772728935605833700,2.185833740234375,10.540383338928223,3.4432718753814697,-1.6773686408996582
1772728935615351600,2.1953515625,10.631311416625977,3.16331148147583,-1.643869161605835
1772728935624869600,2.20486962890625,10.669595718383789,2.9072794914245605,-1.5625132322311401
1772728935634387700,2.2143876953125,10.518848419189453,2.6273193359375,-1.5050854682922363
1772728935643905800,2.22390576171875,10.238887786865234,2.3258235454559326,-1.495514154434204
1772728935653423600,2.233423583984375,9.870393753051758,2.139183521270752,-1.526620864868164
1772728935662941700,2.242941650390625,9.53779125213623,2.1128623485565186,-1.4715858697891235
1772728935672459800,2.252459716796875,9.21715259552002,2.172683000564575,-1.5002998113632202
1772728935681977900,2.261977783203125,8.882157325744629,2.2851455211639404,-1.5050854682922363
1772728935691495700,2.27149560546875,8.583054542541504,2.344966173171997,-1.5361921787261963
1772728935701013800,2.281013671875,8.307880401611328,2.366501569747925,-1.5409778356552124
1772728935710531800,2.29053173828125,8.171489715576172,2.4023938179016113,-1.4931213855743408
1772728935720050000,2.3000498046875,8.21695327758789,2.493321180343628,-1.4404792785644531
1772728935729568000,2.309568115234375,8.391629219055176,2.56510591506958,-1.3256237506866455
1772728935739085800,2.3190859375,8.61894702911377,2.6249263286590576,-1.2131611108779907
1772728935748604000,2.32860400390625,8.824729919433594,2.6727828979492188,-1.153340458869934
1772728935758122000,2.3381220703125,9.044869422912598,2.7254250049591064,-1.093519926071167
1772728935767640000,2.34764013671875,9.226723670959473,2.7732813358306885,-0.9906286001205444
1772728935777158000,2.357157958984375,9.370293617248535,2.8283164501190186,-0.8638089895248413
1772728935786676000,2.366676025390625,9.346364974975586,2.8187451362609863,-0.6867401003837585
1772728935796194000,2.376194091796875,9.154939651489258,2.8498518466949463,-0.4211367964744568
1772728935805712100,2.385712158203125,8.839086532592773,2.902493953704834,-0.1986042857170105
1772728935815230000,2.39522998046875,8.50169849395752,2.9479575157165527,0.062213387340307236
1772728935824748000,2.404748046875,8.240880966186523,3.022135019302368,0.2919243574142456
1772728935834266000,2.41426611328125,8.075776100158691,3.153740167617798,0.4043870270252228
1772728935843784200,2.4237841796875,7.9250288009643555,3.2781670093536377,0.4426721930503845
1772728935853302000,2.433302001953125,7.8077802658081055,3.3690943717956543,0.47617170214653015
1772728935862820000,2.442820068359375,7.767102241516113,3.431307554244995,0.4977070987224579
1772728935872338200,2.452338134765625,7.82692289352417,3.462414264678955,0.4977070987224579
1772728935881856300,2.461856201171875,7.910671710968018,3.452843189239502,0.4618147611618042
1772728935891374300,2.471374267578125,7.989634990692139,3.428914785385132,0.3900300860404968
1772728935900892200,2.48089208984375,8.142775535583496,3.4504501819610596,0.20578274130821228
1772728935910410200,2.49041015625,8.396414756774902,3.4672000408172607,0.07178468257188797
1772728935919928300,2.49992822265625,8.621339797973633,3.4887354373931885,-0.11246266216039658
1772728935929446400,2.5094462890625,8.760123252868652,3.4959139823913574,-0.30628129839897156
1772728935938964200,2.518964111328125,8.86780071258545,3.476771354675293,-0.5718846321105957
1772728935948482300,2.528482421875,8.930013656616211,3.517449378967285,-0.8159525394439697
1772728935958000400,2.53800048828125,8.973084449768066,3.5509488582611084,-0.9427721500396729
1772728935967518500,2.5475185546875,9.006584167480469,3.5916268825531006,-0.9882357716560364
1772728935977036300,2.557036376953125,9.066405296325684,3.656233072280884,-1.0289137363433838
1772728935986554400,2.566554443359375,9.078369140625,3.7495529651641846,-1.0552347898483276
1772728935996072400,2.576072509765625,9.044869422912598,3.82373046875,-1.1030912399291992
1772728936005590500,2.585590576171875,9.013762474060059,3.8763725757598877,-1.1485549211502075
1772728936015108600,2.595108642578125,9.011369705200195,3.9290146827697754,-1.2442678213119507
1772728936024626400,2.60462646484375,8.999405860900879,4.00319242477417,-1.2538390159606934
1772728936034144500,2.61414453125,8.965906143188477,4.0319061279296875,-1.2251251935958862
1772728936043662600,2.62366259765625,8.980263710021973,4.094119548797607,-1.1437692642211914
1772728936053180700,2.6331806640625,8.997013092041016,4.1491546630859375,-1.0719845294952393
1772728936062698500,2.642698486328125,9.032905578613281,4.211368083953857,-0.9523434042930603
1772728936072216600,2.652216552734375,9.090332984924316,4.328616142272949,-0.8470591902732849
1772728936081734700,2.661734619140625,9.20279598236084,4.426722049713135,-0.7154539823532104
1772728936091252700,2.671252685546875,9.22433090209961,4.551148891448975,-0.6005984544754028
1772728936100770600,2.6807705078125,9.284152030944824,4.646861553192139,-0.4666004180908203
1772728936110288600,2.69028857421875,9.336793899536133,4.694717884063721,-0.34695929288864136
1772728936119806700,2.699806640625,9.485149383544922,4.773681163787842,-0.20099709928035736
1772728936129324800,2.70932470703125,9.705288887023926,4.764110088348389,-0.10289137065410614
1772728936138843000,2.7188427734375,9.966106414794922,4.718646049499512,-0.17706887423992157
1772728936148360700,2.728360595703125,10.2747802734375,4.6061835289001465,-0.34217363595962524
1772728936157878800,2.737878662109375,10.65523910522461,4.498506546020508,-0.5288137793540955
1772728936167396900,2.74739697265625,10.956734657287598,4.491328239440918,-0.7322037220001221
1772728936176915000,2.7569150390625,11.093125343322754,4.522434711456299,-0.8590233325958252
1772728936186432800,2.766432861328125,11.059626579284668,4.567898273468018,-0.9188438653945923
1772728936195950800,2.775950927734375,10.973484992980957,4.524827480316162,-0.914058268070221
1772728936205469000,2.785468994140625,10.884950637817383,4.488935470581055,-0.851844847202301
1772728936214987000,2.794987060546875,10.729416847229004,4.4650068283081055,-0.7824530005455017
1772728936224504800,2.8045048828125,10.518848419189453,4.48414945602417,-0.6221339106559753
1772728936234023000,2.81402294921875,10.217352867126465,4.462614059448242,-0.40677985548973083
1772728936243541000,2.823541015625,9.884750366210938,4.4961137771606445,-0.23449662327766418
1772728936253059000,2.83305908203125,9.645467758178711,4.505684852600098,-0.04307080805301666
1772728936262577200,2.8425771484375,9.499505996704102,4.48414945602417,0.07178468257188797
1772728936272095000,2.852094970703125,9.547362327575684,4.376472473144531,0.064606212079525
1772728936281613000,2.861613037109375,9.738788604736328,4.187439441680908,-0.040677983313798904
1772728936291131100,2.871131103515625,10.085747718811035,3.94815731048584,-0.16749759018421173
1772728936300649200,2.880649169921875,10.435099601745605,3.656233072280884,-0.31345975399017334
1772728936310167000,2.8901669921875,10.717453002929688,3.3403804302215576,-0.3852444589138031
1772728936319685000,2.89968505859375,10.853843688964844,3.060420274734497,-0.4378865361213684
1772728936329203200,2.909203125,10.841879844665527,2.8522446155548096,-0.41156548261642456
1772728936338721300,2.91872119140625,10.61695384979248,2.68953275680542,-0.33020952343940735
1772728936348239000,2.928239013671875,10.293923377990723,2.6321048736572266,-0.21774685382843018
1772728936357757200,2.937757080078125,9.877572059631348,2.5674986839294434,0.004785645287483931
1772728936367275300,2.947275146484375,9.408578872680664,2.548356056213379,0.23449662327766418
1772728936376793300,2.95679345703125,9.018548965454102,2.620140790939331,0.35413774847984314
1772728936386311400,2.9663115234375,8.597412109375,2.562713146209717,0.3613162338733673
1772728936395829200,2.975829345703125,8.171489715576172,2.579462766647339,0.37806597352027893
1772728936405347300,2.985347412109375,7.692924976348877,2.6488547325134277,0.3517449200153351
1772728936414865400,2.994865478515625,7.310073375701904,2.7565317153930664,0.22971096634864807
1772728936424383500,3.004383544921875,7.051648139953613,2.823530673980713,0.1579262912273407
1772728936433901300,3.0139013671875,6.946363925933838,2.837887763977051,0.09571290761232376
1772728936443419400,3.02341943359375,6.948757171630859,2.8905298709869385,-0.009571290574967861
1772728936452937500,3.0329375,7.089933395385742,2.919243574142456,-0.11724831163883209
1772728936462455600,3.04245556640625,7.369893550872803,2.9455647468566895,-0.19621145725250244
1772728936471973400,3.051973388671875,7.812565803527832,2.912065267562866,-0.2632105052471161
1772728936481491500,3.061491455078125,8.295916557312012,2.806781053543091,-0.34217363595962524
1772728936491009500,3.071009521484375,8.800801277160645,2.7804598808288574,-0.4713860750198364
1772728936500527600,3.080527587890625,9.32722282409668,2.754138946533203,-0.6005984544754028
1772728936510045700,3.090045654296875,9.781859397888184,2.792423963546753,-0.7226324677467346
1772728936519563500,3.0995634765625,10.085747718811035,2.878565549850464,-0.8709874153137207
1772728936529081600,3.10908154296875,10.1814603805542,2.9694929122924805,-0.9595218896865845
1772728936538599700,3.118599609375,10.112068176269531,3.0580272674560547,-0.9762716293334961
1772728936548117800,3.12811767578125,9.832108497619629,3.1441688537597656,-0.9212366938591003
1772728936557635600,3.137635498046875,9.34157943725586,3.2446675300598145,-0.7896314859390259
1772728936567153700,3.147153564453125,8.810373306274414,3.335594654083252,-0.6819544434547424
1772728936576671700,3.156671630859375,8.319844245910645,3.4241292476654053,-0.6317051649093628
1772728936586189800,3.16618994140625,7.915457248687744,3.562912940979004,-0.6221339106559753
1772728936595707600,3.175707763671875,7.537391185760498,3.656233072280884,-0.6508477330207825
1772728936605225700,3.185225830078125,7.293323516845703,3.7495529651641846,-0.6221339106559753
1772728936614743800,3.194743896484375,7.1856465339660645,3.7734813690185547,-0.5359922647476196
1772728936624262000,3.204261962890625,7.156932353973389,3.7663028240203857,-0.48813581466674805
1772728936633780000,3.213780029296875,7.223931789398193,3.7806596755981445,-0.4618147611618042
1772728936643297800,3.2232978515625,7.456035137176514,3.8428730964660645,-0.397208571434021
1772728936652816000,3.23281591796875,7.81974458694458,3.8572301864624023,-0.349352091550827
1772728936662334000,3.242333984375,8.22413158416748,3.900300979614258,-0.33738797903060913
1772728936671852000,3.25185205078125,8.62612533569336,3.9218363761901855,-0.39481574296951294
1772728936681369900,3.261369873046875,8.9850492477417,3.9385859966278076,-0.4498506486415863
1772728936690888000,3.270887939453125,9.34157943725586,3.957728624343872,-0.4785645306110382
1772728936700406000,3.280406005859375,9.621540069580078,3.957728624343872,-0.5168496966362
1772728936709924000,3.289924072265625,9.829715728759766,3.9984066486358643,-0.4546363055706024
1772728936719442000,3.29944189453125,9.963713645935059,4.053441524505615,-0.42831525206565857
1772728936728960000,3.3089599609375,10.05703353881836,4.118047714233398,-0.37088751792907715
1772728936738478000,3.31847802734375,10.03310489654541,4.163511276245117,-0.3206382393836975
1772728936747996200,3.32799609375,9.877572059631348,4.252045631408691,-0.28953152894973755
1772728936757514200,3.33751416015625,9.719645500183105,4.335794448852539,-0.27756741642951965
1772728936767032000,3.347031982421875,9.58325481414795,4.42193603515625,-0.24885354936122894
1772728936776550100,3.356550048828125,9.525827407836914,4.46979284286499,-0.23210379481315613
1772728936786068200,3.366068115234375,9.521040916442871,4.53200626373291,-0.3038884699344635
1772728936795586300,3.37558642578125,9.571290969848633,4.587040901184082,-0.42831525206565857
1772728936805104000,3.385104248046875,9.664610862731934,4.615755081176758,-0.4905286431312561
1772728936814622200,3.394622314453125,9.784252166748047,4.613361835479736,-0.5216353535652161
1772728936824140300,3.404140380859375,9.93978500366211,4.567898273468018,-0.5359922647476196
1772728936833658400,3.413658447265625,10.102497100830078,4.46979284286499,-0.5264210104942322
1772728936843176200,3.42317626953125,10.25324535369873,4.357329845428467,-0.5000999569892883
1772728936852694300,3.4326943359375,10.370492935180664,4.275974273681641,-0.45224347710609436
1772728936862212400,3.44221240234375,10.418350219726562,4.242474555969238,-0.44027936458587646
1772728936871730400,3.45173046875,10.37767219543457,4.266402721405029,-0.4833501875400543
1772728936881248500,3.46124853515625,10.214960098266602,4.3549370765686035,-0.5288137793540955
1772728936890766300,3.470766357421875,9.980463027954102,4.426722049713135,-0.607776939868927
1772728936900284400,3.480284423828125,9.779465675354004,4.450650215148926,-0.6460621356964111
1772728936909802500,3.489802490234375,9.635896682739258,4.433900356292725,-0.7034898400306702
1772728936919320600,3.499320556640625,9.652647018432617,4.3788652420043945,-0.8662018179893494
1772728936928838400,3.50883837890625,9.762716293334961,4.3549370765686035,-1.0719845294952393
1772728936938356500,3.5183564453125,9.920642852783203,4.309473514556885,-1.2921242713928223
1772728936947874600,3.52787451171875,10.14317512512207,4.216153621673584,-1.4021940231323242
1772728936957392600,3.537392578125,10.435099601745605,4.015156269073486,-1.435693621635437
1772728936966910500,3.546910400390625,10.77966594696045,3.7734813690185547,-1.404586911201477
1772728936976428500,3.556428466796875,11.117053985595703,3.5126636028289795,-1.373480200767517
1772728936985946600,3.565946533203125,11.459227561950684,3.2518460750579834,-1.3830515146255493
1772728936995464700,3.575464599609375,11.7056884765625,2.9694929122924805,-1.4165509939193726
1772728937004982800,3.584982666015625,11.810972213745117,2.7254250049591064,-1.4213366508483887
1772728937014500600,3.59450048828125,11.810972213745117,2.579462766647339,-1.373480200767517
1772728937024018700,3.604018798828125,11.423335075378418,2.3856441974639893,-1.306481122970581
1772728937033536800,3.613536865234375,10.650453567504883,2.2372891902923584,-1.2299108505249023
1772728937043054800,3.623054931640625,9.745966911315918,2.1846470832824707,-1.1772687435150146
1772728937052572700,3.63257275390625,9.016156196594238,2.304288148880005,-1.155733346939087
1772728937062090800,3.6420908203125,8.396414756774902,2.4358935356140137,-1.1198409795761108
1772728937071608800,3.65160888671875,7.936992645263672,2.445464849472046,-1.0360921621322632
1772728937081127000,3.661126953125,7.606783390045166,2.4717857837677,-0.9906286001205444
1772728937090644700,3.670644775390625,7.439285755157471,2.478964328765869,-0.9930213689804077
1772728937100162800,3.680162841796875,7.456035137176514,2.524427890777588,-1.0001999139785767
1772728937109681000,3.689680908203125,7.712067604064941,2.589034080505371,-1.0265209674835205
1772728937119199000,3.699198974609375,8.094919204711914,2.6967110633850098,-1.074377417564392
1772728937128717000,3.708717041015625,8.489734649658203,2.7828526496887207,-1.1365907192230225
1772728937138235000,3.71823486328125,8.805587768554688,2.8354947566986084,-1.074377417564392
1772728937147753000,3.7277529296875,9.10229778289795,2.8498518466949463,-0.9978070259094238
1772728937157271000,3.73727099609375,9.4061861038208,2.8498518466949463,-0.9044869542121887
1772728937166789000,3.7467890625,9.573683738708496,2.8594231605529785,-0.8542376756668091
1772728937176307000,3.756306884765625,9.619147300720215,2.871387243270874,-0.7848458290100098
1772728937185825000,3.765824951171875,9.549755096435547,2.9001009464263916,-0.6939185857772827
1772728937195343000,3.775343017578125,9.32722282409668,2.9312076568603516,-0.5575276613235474
1772728937204861200,3.784861083984375,8.994620323181152,2.9838497638702393,-0.4019941985607147
1772728937214379000,3.79437890625,8.70508861541748,3.0269205570220947,-0.2273181527853012
1772728937223897000,3.80389697265625,8.425128936767578,3.108276605606079,-0.09810572862625122
1772728937233415200,3.813415283203125,8.221738815307617,3.2231321334838867,-0.02632104977965355
1772728937242933200,3.822933349609375,8.082955360412598,3.311666488647461,-0.0023928226437419653
1772728937252451300,3.832451416015625,7.968099594116211,3.3690943717956543,0.02153540402650833
1772728937261969200,3.84196923828125,7.917850017547607,3.4504501819610596,-0.0526420995593071
1772728937271487200,3.8514873046875,7.905886173248291,3.4815568923950195,-0.07896314561367035
1772728937281005300,3.86100537109375,7.956135272979736,3.5030922889709473,-0.15074782073497772
1772728937290523400,3.8705234375,8.126026153564453,3.5365917682647705,-0.23449662327766418
1772728937300041200,3.880041259765625,8.23130989074707,3.589233875274658,-0.34695929288864136
1772728937309559300,3.889559326171875,8.2695951461792,3.603590965270996,-0.39481574296951294
1772728937319077400,3.899077392578125,8.243273735046387,3.6155550479888916,-0.4091726839542389
1772728937328595500,3.908595458984375,8.24566650390625,3.6538400650024414,-0.4043870270252228
1772728937338113300,3.91811328125,8.25523853302002,3.6610186100006104,-0.4091726839542389
1772728937347631400,3.92763134765625,8.276773452758789,3.7016966342926025,-0.46420758962631226
1772728937357149400,3.9371494140625,8.291130065917969,3.680161237716675,-0.47617170214653015
1772728937366667300,3.946667236328125,8.343772888183594,3.7088751792907715,-0.519242525100708
1772728937376185300,3.956185302734375,8.410771369934082,3.7734813690185547,-0.5623133182525635
1772728937385703400,3.965703369140625,8.544769287109375,3.8356947898864746,-0.5694918036460876
1772728937395221500,3.975221435546875,8.681160926818848,3.895515203475952,-0.6293123364448547
1772728937404739300,3.9847392578125,8.82951545715332,3.91705060005188,-0.6891329288482666
1772728937414257400,3.99425732421875,8.973084449768066,3.9074792861938477,-0.7752745151519775
1772728937423775500,4.003775390625,9.08554744720459,3.9529430866241455,-0.8662018179893494
1772728937433293600,4.01329345703125,9.207581520080566,4.036691665649414,-0.9571290612220764
1772728937442811400,4.022811279296875,9.233902931213379,4.1491546630859375,-0.97148597240448
1772728937452329500,4.03232958984375,9.221938133239746,4.199403762817383,-0.9643075466156006
1772728937461847600,4.04184765625,9.128618240356445,4.3310089111328125,-0.9643075466156006
1772728937471365600,4.05136572265625,9.040083885192871,4.438685894012451,-0.9786644577980042
1772728937480883700,4.0608837890625,8.896514892578125,4.524827480316162,-0.9667003750801086
1772728937490401500,4.070401611328125,8.805587768554688,4.60857629776001,-0.8805587291717529
1772728937499919600,4.079919677734375,8.827122688293457,4.682754039764404,-0.7848458290100098
1772728937509437700,4.089437744140625,8.930013656616211,4.697110652923584,-0.7250252366065979
1772728937518955800,4.098955810546875,9.212367057800293,4.661218643188477,-0.7417750358581543
1772728937528473600,4.1084736328125,9.549755096435547,4.579862594604492,-0.8063812255859375
1772728937537991700,4.11799169921875,9.942177772521973,4.5200419425964355,-0.9212366938591003
1772728937547509800,4.127509765625,10.344172477722168,4.417150497436523,-1.0241280794143677
1772728937557027800,4.13702783203125,10.679167747497559,4.333401679992676,-1.1413763761520386
1772728937566545700,4.146545654296875,10.916056632995605,4.240081787109375,-1.2059825658798218
1772728937576063700,4.156063720703125,11.069197654724121,4.180261135101318,-1.2011969089508057
1772728937585581800,4.165581787109375,10.973484992980957,4.2592244148254395,-1.2705888748168945
1772728937595100000,4.175099853515625,10.607382774353027,4.3310089111328125,-1.2442678213119507
1772728937604618000,4.184617919921875,10.171889305114746,4.371686935424805,-1.1509476900100708
1772728937614135800,4.1941357421875,9.753145217895508,4.395615100860596,-0.9427721500396729
1772728937623654000,4.20365380859375,9.439684867858887,4.41475772857666,-0.7106683254241943
1772728937633172000,4.213171875,9.142974853515625,4.479363918304443,-0.5096712112426758
1772728937642690000,4.22268994140625,8.922835350036621,4.536791801452637,-0.42352959513664246
1772728937652207900,4.232207763671875,8.827122688293457,4.575077056884766,-0.34695929288864136
1772728937661726000,4.241725830078125,8.901300430297852,4.515256404876709,-0.2584248483181
1772728937671244000,4.251244140625,9.32004451751709,4.388436794281006,-0.14117653667926788
1772728937680762000,4.26076220703125,9.985248565673828,4.182653903961182,-0.07896314561367035
1772728937690280000,4.270280029296875,10.715060234069824,3.972085475921631,-0.1818545162677765
1772728937699798000,4.279798095703125,11.310873031616211,3.728017568588257,-0.4019941985607147
1772728937709316000,4.289316162109375,11.832508087158203,3.4025938510894775,-0.5216353535652161
1772728937718834200,4.298834228515625,12.313465118408203,3.060420274734497,-0.6867401003837585
1772728937728352300,4.308352294921875,12.5742826461792,2.6847469806671143,-0.8159525394439697
1772728937737870000,4.3178701171875,12.605389595031738,2.3090739250183105,-0.8039883971214294
1772728937747388200,4.32738818359375,12.315857887268066,2.093719720840454,-0.6101697683334351
1772728937756906200,4.33690625,11.846864700317383,1.9525432586669922,-0.31824541091918945
1772728937766424300,4.34642431640625,11.191231727600098,1.8903298377990723,0.059820566326379776
1772728937775942100,4.355942138671875,10.454241752624512,1.8711873292922974,0.42352959513664246
1772728937785460200,4.365460205078125,9.772287368774414,1.8711873292922974,0.6484549641609192
1772728937794978300,4.374978271484375,9.121439933776855,1.9070796966552734,0.7202396392822266
1772728937804496400,4.384496337890625,8.623732566833496,1.954936146736145,0.7226324677467346
1772728937814014200,4.39401416015625,8.243273735046387,2.0673987865448,0.6867401003837585
1772728937823532300,4.4035322265625,7.95134973526001,2.1822543144226074,0.5982056856155396
1772728937833050400,4.41305029296875,7.747959613800049,2.297109842300415,0.4546363055706024
1772728937842568400,4.422568359375,7.635497093200684,2.4095723628997803,0.2512463629245758
1772728937852086300,4.432086181640625,7.642675399780273,2.4813570976257324,0.031106693670153618
1772728937861604400,4.441604248046875,7.7455668449401855,2.5435705184936523,-0.13639089465141296
1772728937871122400,4.451122314453125,7.905886173248291,2.56510591506958,-0.2727817893028259
1772728937880640300,4.46064013671875,8.12123966217041,2.5746772289276123,-0.4043870270252228
1772728937890158300,4.470158447265625,8.34855842590332,2.6225335597991943,-0.5479564070701599
1772728937899676400,4.479676513671875,8.575876235961914,2.6632115840911865,-0.6747759580612183
1772728937909194500,4.489194580078125,8.755337715148926,2.7517459392547607,-0.7728816866874695
1772728937918712600,4.498712646484375,8.791230201721191,2.8354947566986084,-0.8685946464538574
1772728937928230400,4.50823046875,8.659625053405762,2.9359934329986572,-0.8877372145652771
1772728937937748500,4.51774853515625,8.425128936767578,3.0867412090301514,-0.8279166221618652
1772728937947266600,4.5272666015625,8.169096946716309,3.2374889850616455,-0.7322037220001221
1772728937956784600,4.53678466796875,7.886743545532227,3.352344512939453,-0.6747759580612183
1772728937966302500,4.546302490234375,7.692924976348877,3.4552359580993652,-0.6843472719192505
1772728937975820500,4.555820556640625,7.561319351196289,3.5150563716888428,-0.6843472719192505
1772728937985338600,4.565338623046875,7.6043901443481445,3.5509488582611084,-0.6484549641609192
1772728937994856700,4.574856689453125,7.7455668449401855,3.5533416271209717,-0.6604190468788147
1772728938004374500,4.58437451171875,7.903493404388428,3.5533416271209717,-0.698704183101654
1772728938013892600,4.593892578125,8.063812255859375,3.555734395980835,-0.6628118753433228
1772728938023410700,4.60341064453125,8.209774017333984,3.6299118995666504,-0.5599204897880554
1772728938032928800,4.6129287109375,8.338987350463867,3.704089403152466,-0.4426721930503845
1772728938042446800,4.62244677734375,8.468199729919434,3.7782669067382812,-0.3684946894645691
1772728938051964700,4.631964599609375,8.58784008026123,3.82373046875,-0.275174617767334
1772728938061482800,4.641482666015625,8.74337387084961,3.871587038040161,-0.20099709928035736
1772728938071000800,4.651000732421875,8.922835350036621,3.8979079723358154,-0.10049854964017868
1772728938080519000,4.660518798828125,9.121439933776855,3.91705060005188,-0.05742774158716202
1772728938090036700,4.67003662109375,9.4061861038208,3.9385859966278076,-0.004785645287483931
1772728938099554800,4.679554931640625,9.66939640045166,3.902693748474121,0.06939185410737991
1772728938109073000,4.689072998046875,9.875179290771484,3.933800458908081,0.064606212079525
1772728938118591000,4.698591064453125,9.908679008483887,3.9768712520599365,-0.01196411345154047
1772728938128108800,4.70810888671875,9.856036186218262,4.036691665649414,-0.059820566326379776
1772728938137627000,4.717626953125,9.695717811584473,4.12761926651001,-0.04785645380616188
1772728938147145000,4.72714501953125,9.492327690124512,4.208974838256836,-0.07178468257188797
1772728938156663000,4.7366630859375,9.351150512695312,4.225724697113037,-0.09092725813388824
1772728938166181000,4.74618115234375,9.233902931213379,4.299902439117432,-0.10767702013254166
1772728938175699000,4.755698974609375,9.207581520080566,4.393222332000732,-0.14117653667926788
1772728938185217000,4.765217041015625,9.198010444641113,4.402793884277344,-0.20099709928035736
1772728938194735000,4.774735107421875,9.22433090209961,4.445864677429199,-0.2584248483181
1772728938204253200,4.784253173828125,9.315258979797363,4.450650215148926,-0.2871387302875519
1772728938213771000,4.79377099609375,9.492327690124512,4.433900356292725,-0.275174617767334
1772728938223289000,4.8032890625,9.729216575622559,4.400400638580322,-0.2560320198535919
1772728938232807200,4.81280712890625,10.047462463378906,4.2831525802612305,-0.2105683982372284
1772728938242325000,4.822324951171875,10.348958015441895,4.177868366241455,-0.15553347766399384
1772728938251843000,4.831843017578125,10.569097518920898,4.077369689941406,-0.13639089465141296
1772728938261361200,4.841361083984375,10.691131591796875,4.01037073135376,-0.15553347766399384
1772728938270879200,4.850879150390625,10.746166229248047,4.012763500213623,-0.18424734473228455
1772728938280397000,4.86039697265625,10.77966594696045,4.022335052490234,-0.22971096634864807
1772728938289915100,4.8699150390625,10.753344535827637,4.084548473358154,-0.24646073579788208
1772728938299433200,4.87943310546875,10.695917129516602,4.211368083953857,-0.2847459018230438
1772728938308951300,4.888951416015625,10.588240623474121,4.297509670257568,-0.4331009089946747
1772728938318469000,4.89846923828125,10.506884574890137,4.350151538848877,-0.6197410821914673
1772728938327987200,4.9079873046875,10.447063446044922,4.366901397705078,-0.8183453679084778
1772728938337505300,4.91750537109375,10.430314064025879,4.34536600112915,-1.007378339767456
1772728938347023400,4.9270234375,10.439885139465332,4.280759811401367,-1.0887342691421509
1772728938356541200,4.936541259765625,10.487741470336914,4.130012035369873,-1.1054840087890625
1772728938366059300,4.946059326171875,10.585846900939941,3.9361932277679443,-1.1772687435150146
1772728938375577300,4.955577392578125,10.736595153808594,3.675375461578369,-1.2203395366668701
1772728938385095400,4.965095458984375,10.875378608703613,3.3858439922332764,-1.3423734903335571
1772728938394613500,4.974613525390625,11.038090705871582,3.0580272674560547,-1.4883357286453247
1772728938404131300,4.98413134765625,11.133803367614746,2.7397818565368652,-1.6390835046768188
1772728938413649400,4.9936494140625,11.12901782989502,2.4502503871917725,-1.698904037475586
1772728938423167500,5.00316748046875,10.837093353271484,2.117648124694824,-1.6558332443237305
1772728938432685600,5.012685546875,10.336994171142578,1.947757601737976,-1.5481562614440918
1772728938442203400,5.022203369140625,9.765109062194824,1.9908283948898315,-1.4644074440002441
1772728938451721500,5.031721435546875,9.212367057800293,2.1272194385528564,-1.3351950645446777
1772728938461239600,5.041239501953125,8.688339233398438,2.2636101245880127,-1.2251251935958862
1772728938470757600,5.050757568359375,8.295916557312012,2.304288148880005,-1.25144624710083
1772728938480275500,5.060275390625,7.9968132972717285,2.304288148880005,-1.2083754539489746
1772728938489793500,5.06979345703125,7.791030406951904,2.3306093215942383,-1.124626636505127
1772728938499311600,5.0793115234375,7.664210796356201,2.3976082801818848,-1.038485050201416
1772728938508829700,5.08882958984375,7.685746192932129,2.5220351219177246,-0.9810572862625122
1772728938518347800,5.09834765625,7.805387496948242,2.6632115840911865,-0.9619147181510925
1772728938527865600,5.107865478515625,8.011170387268066,2.761317253112793,-0.9523434042930603
1772728938537383700,5.1173837890625,8.35573673248291,2.775674343109131,-0.8207381963729858
1772728938546901500,5.126901611328125,8.70508861541748,2.778067111968994,-0.6795616149902344
1772728938556419800,5.136419921875,9.052047729492188,2.775674343109131,-0.5312066078186035
1772728938565937700,5.145937744140625,9.29611587524414,2.7804598808288574,-0.397208571434021
1772728938575455700,5.155455810546875,9.432506561279297,2.778067111968994,-0.2847459018230438
1772728938584973800,5.164973876953125,9.439684867858887,2.7637102603912354,-0.1579262912273407
1772728938594491600,5.17449169921875,9.355937004089355,2.7589244842529297,-0.05742774158716202
1772728938604009700,5.184009765625,9.162117958068848,2.7661030292510986,0.007178467698395252
1772728938613527800,5.19352783203125,8.870193481445312,2.825923442840576,0.1052841991186142
1772728938623046000,5.2030458984375,8.561519622802734,2.895315408706665,0.2273181527853012
1772728938632563700,5.212563720703125,8.37009334564209,2.991028308868408,0.28953152894973755
1772728938642081800,5.222081787109375,8.149953842163086,3.067598581314087,0.3326023519039154
1772728938651600000,5.231599853515625,7.929814338684082,3.136990547180176,0.31345975399017334
1772728938661118000,5.241117919921875,7.769495010375977,3.187239646911621,0.2799602448940277
1772728938670635800,5.2506357421875,7.6666035652160645,3.2829527854919434,0.19142581522464752
1772728938680153900,5.26015380859375,7.635497093200684,3.3714871406555176,0.08853443711996078
1772728938689672000,5.269671875,7.611568927764893,3.428914785385132,-0.04785645380616188
1772728938699190000,5.27918994140625,7.625925540924072,3.4887354373931885,-0.17946170270442963
1772728938708708000,5.2887080078125,7.654639720916748,3.5341989994049072,-0.2799602448940277
1772728938718226000,5.298225830078125,7.716853141784668,3.5533416271209717,-0.3900300860404968
1772728938727744000,5.307743896484375,7.805387496948242,3.594019651412964,-0.48095735907554626
1772728938737262000,5.317261962890625,7.934599876403809,3.6466617584228516,-0.6101697683334351
1772728938746780200,5.3267802734375,8.075776100158691,3.649054527282715,-0.7369893789291382
1772728938756298000,5.336298095703125,8.264809608459473,3.6777684688568115,-0.8877372145652771
1772728938765816000,5.345816162109375,8.549555778503418,3.7160534858703613,-0.9523434042930603
1772728938775334100,5.355334228515625,8.80798053741455,3.7806596755981445,-0.9954141974449158
1772728938784852200,5.364852294921875,9.008976936340332,3.85483717918396,-1.0959128141403198
1772728938794370000,5.3743701171875,9.147761344909668,3.9385859966278076,-1.1198409795761108
1772728938803888000,5.38388818359375,9.255437850952148,3.9840497970581055,-1.1318050622940063
1772728938813406200,5.39340625,9.315258979797363,4.039084434509277,-1.1413763761520386
1772728938822924000,5.402924072265625,9.28893756866455,4.115654945373535,-1.1868400573730469
1772728938832442000,5.412442138671875,9.255437850952148,4.206582069396973,-1.215553879737854
1772728938841960200,5.421960205078125,9.219545364379883,4.321437835693359,-1.184447169303894
1772728938851478300,5.431478271484375,9.20279598236084,4.436293125152588,-1.062413215637207
1772728938860996000,5.44099609375,9.147761344909668,4.4961137771606445,-0.9379864931106567
1772728938870514200,5.45051416015625,9.107083320617676,4.579862594604492,-0.8327022790908813
1772728938880032300,5.4600322265625,9.107083320617676,4.692325115203857,-0.7680960893630981
1772728938889550300,5.46955029296875,9.186046600341797,4.7473602294921875,-0.6915257573127747
1772728938899068400,5.479068359375,9.343972206115723,4.78803825378418,-0.6532405614852905
1772728938908586200,5.488586181640625,9.561718940734863,4.807180881500244,-0.6484549641609192
1772728938918104300,5.498104248046875,9.877572059631348,4.785645484924316,-0.7489534616470337
1772728938927622400,5.507622314453125,10.241280555725098,4.666004180908203,-0.8901300430297852
1772728938937140500,5.517140380859375,10.681560516357422,4.548755645751953,-1.031306505203247
1772728938946658300,5.526658203125,11.169695854187012,4.4650068283081055,-1.2011969089508057
1772728938956176400,5.53617626953125,11.535798072814941,4.376472473144531,-1.3495519161224365
1772728938965694500,5.545694580078125,11.710474014282227,4.314259052276611,-1.4452649354934692
1772728938975212500,5.555212646484375,11.669795989990234,4.297509670257568,-1.4715858697891235
1772728938984730400,5.56473046875,11.399407386779785,4.309473514556885,-1.3926228284835815
1772728938994248400,5.57424853515625,10.930414199829102,4.309473514556885,-1.2394821643829346
1772728939003766500,5.5837666015625,10.439885139465332,4.302295207977295,-1.0049854516983032
1772728939013284600,5.59328466796875,10.078569412231445,4.328616142272949,-0.7704889178276062
1772728939022802400,5.602802490234375,9.765109062194824,4.419543266296387,-0.6245267391204834
1772728939032320500,5.612320556640625,9.516255378723145,4.455435752868652,-0.5479564070701599
1772728939041838600,5.621838623046875,9.336793899536133,4.460221290588379,-0.4498506486415863
1772728939051356400,5.6313564453125,9.408578872680664,4.319045066833496,-0.3565305769443512
1772728939060874500,5.64087451171875,9.719645500183105,4.216153621673584,-0.2632105052471161
1772728939070392600,5.650392578125,10.186245918273926,4.043870449066162,-0.2273181527853012
1772728939079910700,5.65991064453125,10.614561080932617,3.799802303314209,-0.2871387302875519
1772728939089428500,5.669428466796875,11.033305168151855,3.4576287269592285,-0.349352091550827
1772728939098946600,5.678946533203125,11.365907669067383,3.014956474304199,-0.31824541091918945
1772728939108464600,5.688464599609375,11.710474014282227,2.586641311645508,-0.24646073579788208
1772728939117982700,5.697982666015625,11.985648155212402,2.2229323387145996,-0.15074782073497772
1772728939127500800,5.707500732421875,12.05504035949707,1.9357935190200806,-0.062213387340307236
1772728939137018600,5.7170185546875,11.7990083694458,1.7156537771224976,0.10767702013254166
1772728939146536700,5.72653662109375,11.401800155639648,1.5337992906570435,0.2512463629245758
1772728939156054800,5.7360546875,10.911271095275879,1.423729419708252,0.4043870270252228
1772728939165572900,5.74557275390625,10.375279426574707,1.423729419708252,0.5359922647476196
1772728939175090700,5.755090576171875,9.8871431350708,1.5170495510101318,0.6269195079803467
1772728939184608800,5.76460888671875,9.42054271697998,1.667797327041626,0.6652047038078308
1772728939194126800,5.774126953125,9.126225471496582,1.797009825706482,0.6293123364448547
1772728939203645000,5.78364501953125,8.791230201721191,1.9022940397262573,0.4426721930503845
1772728939213162800,5.793162841796875,8.461020469665527,2.062613010406494,0.2512463629245758
1772728939222680800,5.802680908203125,8.195417404174805,2.1918256282806396,0.16749759018421173
1772728939232199000,5.812198974609375,8.01356315612793,2.266003131866455,0.035892341285943985
1772728939241717000,5.821717041015625,7.901100158691406,2.280359983444214,-0.16271193325519562
1772728939251234800,5.83123486328125,7.846065521240234,2.313859462738037,-0.40677985548973083
1772728939260753000,5.8407529296875,7.850851058959961,2.3856441974639893,-0.6460621356964111
1772728939270271000,5.85027099609375,7.877171993255615,2.4526431560516357,-0.7561319470405579
1772728939279788800,5.859788818359375,7.8819580078125,2.56510591506958,-0.7345965504646301
1772728939289307000,5.869306884765625,7.977670669555664,2.65842604637146,-0.698704183101654
1772728939298825000,5.878824951171875,8.078168869018555,2.754138946533203,-0.6843472719192505
1772728939308343000,5.888343017578125,8.025527000427246,2.823530673980713,-0.7178468108177185
1772728939317861000,5.897861083984375,7.8819580078125,2.9072794914245605,-0.7250252366065979
1772728939327379000,5.90737890625,7.791030406951904,2.9718856811523438,-0.6747759580612183
1772728939336897000,5.91689697265625,7.735995769500732,3.0580272674560547,-0.6221339106559753
1772728939346415000,5.9264150390625,7.6474609375,3.139383316040039,-0.607776939868927
1772728939355933200,5.93593310546875,7.551748275756836,3.2853455543518066,-0.6436693072319031
1772728939365451000,5.945450927734375,7.573283672332764,3.436093330383301,-0.6508477330207825
1772728939374969000,5.954968994140625,7.645068168640137,3.5605201721191406,-0.6628118753433228
1772728939384487200,5.964487060546875,7.704888820648193,3.6323046684265137,-0.6460621356964111
1772728939394005200,5.974005126953125,7.759923934936523,3.656233072280884,-0.605384111404419
1772728939403523000,5.983523193359375,7.88913631439209,3.6777684688568115,-0.5072783827781677
1772728939413041200,5.993041259765625,8.116454124450684,3.6681971549987793,-0.4713860750198364
1772728939422559200,6.002559326171875,8.453842163085938,3.6849467754364014,-0.4737788736820221
1772728939432077300,6.012077392578125,8.82951545715332,3.7088751792907715,-0.46420758962631226
1772728939441595400,6.021595458984375,9.157332420349121,3.7567315101623535,-0.38285163044929504
1772728939451113200,6.03111328125,9.377471923828125,3.799802303314209,-0.2727817893028259
1772728939460631300,6.04063134765625,9.664610862731934,3.862015724182129,-0.1698904037475586
1772728939470149000,6.050149169921875,9.829715728759766,3.9218363761901855,-0.08135596662759781
1772728939479667200,6.059667236328125,9.820143699645996,3.9529430866241455,-0.059820566326379776
1772728939489185300,6.069185302734375,9.667003631591797,4.027120590209961,0.019142581149935722
1772728939498703400,6.078703369140625,9.470791816711426,4.122833251953125,0.11246266216039658
1772728939508221200,6.08822119140625,9.293723106384277,4.187439441680908,0.22013968229293823
1772728939517739300,6.0977392578125,9.10229778289795,4.264009952545166,0.2679961323738098
1772728939527257300,6.10725732421875,8.95394229888916,4.321437835693359,0.2560320198535919
1772728939536775400,6.116775390625,8.86062240600586,4.395615100860596,0.27756741642951965
1772728939546293500,6.12629345703125,8.827122688293457,4.524827480316162,0.3086741268634796
1772728939555811300,6.135811279296875,8.903693199157715,4.656432628631592,0.32303106784820557
1772728939565329400,6.145329345703125,9.044869422912598,4.780859470367432,0.1986042857170105
1772728939574847500,6.154847412109375,9.20997428894043,4.811966419219971,-0.009571290574967861
1772728939584365600,6.164365478515625,9.437292098999023,4.8502516746521,-0.1986042857170105
1772728939593883400,6.17388330078125,9.626325607299805,4.869394302368164,-0.4019941985607147
1772728939603401500,6.1834013671875,9.820143699645996,4.869394302368164,-0.6197410821914673
1772728939612919600,6.19291943359375,9.980463027954102,4.886143684387207,-0.7393822073936462
1772728939622437600,6.202437744140625,10.193424224853516,4.852644443511963,-0.7513462901115417
1772728939631955500,6.21195556640625,10.382457733154297,4.780859470367432,-0.7154539823532104
1772728939641473500,6.2214736328125,10.581061363220215,4.66361141204834,-0.6747759580612183
1772728939650991600,6.23099169921875,10.72702407836914,4.567898273468018,-0.672383189201355
1772728939660509400,6.240509521484375,10.77248764038086,4.553541660308838,-0.6484549641609192
1772728939670027500,6.250027587890625,10.676774978637695,4.551148891448975,-0.6269195079803467
1772728939679545600,6.259545654296875,10.528419494628906,4.527220249176025,-0.6652047038078308
1772728939689063700,6.269063720703125,10.320243835449219,4.541577339172363,-0.6747759580612183
1772728939698581500,6.27858154296875,10.17428207397461,4.584648132324219,-0.7561319470405579
1772728939708099600,6.288099609375,10.1216402053833,4.553541660308838,-0.8709874153137207
1772728939717617700,6.29761767578125,10.071390151977539,4.522434711456299,-0.9571290612220764
1772728939727135700,6.3071357421875,10.047462463378906,4.479363918304443,-0.9978070259094238
1772728939736653800,6.31665380859375,10.1216402053833,4.395615100860596,-1.0241280794143677
1772728939746171600,6.326171630859375,10.202995300292969,4.376472473144531,-1.1509476900100708
1772728939755689700,6.335689697265625,10.363314628601074,4.395615100860596,-1.435693621635437
1772728939765207800,6.345207763671875,10.549955368041992,4.240081787109375,-1.6534404754638672
1772728939774726000,6.354725830078125,10.73420238494873,4.01754903793335,-1.7204394340515137
1772728939784243700,6.36424365234375,10.925628662109375,3.586841106414795,-1.6534404754638672
1772728939793761800,6.37376171875,11.040483474731445,3.1680972576141357,-1.5098711252212524
1772728939803280000,6.38327978515625,11.21515941619873,2.737389087677002,-1.5026925802230835
1772728939812797700,6.392797607421875,11.12901782989502,2.366501569747925,-1.5792629718780518
1772728939822315800,6.402315673828125,10.705488204956055,2.146361827850342,-1.5553346872329712
1772728939831833900,6.411833740234375,10.037891387939453,2.062613010406494,-1.466800332069397
1772728939841352000,6.42135205078125,9.257830619812012,2.0673987865448,-1.3160524368286133
1772728939850869800,6.430869873046875,8.506484031677246,2.1750757694244385,-1.1078768968582153
1772728939860387800,6.440387939453125,7.934599876403809,2.2636101245880127,-0.8949156403541565
1772728939869906000,6.449906005859375,7.384250640869141,2.344966173171997,-0.7082754969596863
1772728939879424000,6.459424072265625,7.044469833374023,2.4358935356140137,-0.5479564070701599
1772728939888941800,6.46894189453125,6.786045074462891,2.56510591506958,-0.5886343717575073
1772728939898460000,6.4784599609375,6.766902446746826,2.6703901290893555,-0.729810893535614
1772728939907978000,6.48797802734375,6.996613502502441,2.806781053543091,-0.8733802437782288
1772728939917496000,6.49749609375,7.326822757720947,2.9216363430023193,-0.9044869542121887
1772728939927014100,6.50701416015625,7.779066562652588,2.902493953704834,-0.8949156403541565
1772728939936532000,6.516531982421875,8.317451477050781,2.7828526496887207,-0.849452018737793
1772728939946050000,6.526050048828125,8.767302513122559,2.706282377243042,-0.8398807644844055
1772728939955567900,6.53556787109375,9.119047164916992,2.63449764251709,-0.7896314859390259
1772728939965086000,6.5450859375,9.422935485839844,2.6632115840911865,-0.8207381963729858
1772728939974604000,6.55460400390625,9.681360244750977,2.768495798110962,-0.9116654396057129
1772728939984122000,6.5641220703125,9.903892517089844,2.909672260284424,-0.8901300430297852
1772728939993640000,6.573639892578125,9.951749801635742,3.0269205570220947,-0.8781659007072449
1772728940003158000,6.583157958984375,9.7005033493042,3.1920254230499268,-0.8015955686569214
1772728940012676000,6.592676025390625,9.241081237792969,3.335594654083252,-0.7082754969596863
1772728940022194200,6.602194091796875,8.781659126281738,3.4552359580993652,-0.6173482537269592
1772728940031712300,6.611712158203125,8.441878318786621,3.5988051891326904,-0.5694918036460876
1772728940041230000,6.62122998046875,8.21695327758789,3.713660717010498,-0.5359922647476196
1772728940050748200,6.630748046875,8.01356315612793,3.783052682876587,-0.5312066078186035
1772728940060266200,6.640266357421875,7.867600917816162,3.85483717918396,-0.5335994362831116
1772728940069784300,6.649784423828125,7.769495010375977,3.90987229347229,-0.4570291340351105
1772728940079302100,6.65930224609375,7.657032489776611,3.9290146827697754,-0.33499518036842346
1772728940088820200,6.6688203125,7.5804619789123535,3.9314076900482178,-0.2991028428077698
1772728940098338300,6.67833837890625,7.467999458312988,3.964907169342041,-0.3732803463935852
1772728940107856100,6.687856201171875,7.456035137176514,3.9984066486358643,-0.42831525206565857
1772728940117374200,6.697374267578125,7.549355506896973,4.024727821350098,-0.4498506486415863
1772728940126892300,6.706892333984375,7.740781307220459,4.053441524505615,-0.550349235534668
1772728940136410400,6.716410400390625,8.00638484954834,3.9672999382019043,-0.6460621356964111
1772728940145928200,6.72592822265625,8.319844245910645,3.9290146827697754,-0.7824530005455017
1772728940155446300,6.7354462890625,8.57348346710205,3.902693748474121,-0.9044869542121887
1772728940164964400,6.74496435546875,8.760123252868652,3.900300979614258,-1.0432707071304321
1772728940174482400,6.754482421875,8.915657043457031,3.9218363761901855,-1.1102696657180786
1772728940184000300,6.764000244140625,9.138189315795898,3.988835334777832,-1.25144624710083
1772728940193518300,6.773518310546875,9.245866775512695,4.067798614501953,-1.454836130142212
1772728940203036400,6.783036376953125,9.212367057800293,4.137190341949463,-1.6295121908187866
1772728940212554500,6.792554443359375,9.121439933776855,4.211368083953857,-1.703689694404602
1772728940222072600,6.802072509765625,8.9850492477417,4.261617183685303,-1.6606189012527466
1772728940231590400,6.81159033203125,8.891729354858398,4.297509670257568,-1.521835207939148
1772728940241108500,6.8211083984375,8.918049812316895,4.371686935424805,-1.3615161180496216
1772728940250626300,6.830626220703125,8.994620323181152,4.48414945602417,-1.3208380937576294
1772728940260144400,6.840144287109375,9.09272575378418,4.560719966888428,-1.3806586265563965
1772728940269662500,6.849662353515625,9.200403213500977,4.66361141204834,-1.4859428405761719
1772728940279180500,6.8591806640625,9.29611587524414,4.764110088348389,-1.5864413976669312
1772728940288698600,6.86869873046875,9.396614074707031,4.876572608947754,-1.6630117893218994
1772728940298216400,6.878216552734375,9.556933403015137,4.967499732971191,-1.674975872039795
1772728940307734500,6.887734619140625,9.798608779907227,5.027320384979248,-1.6606189012527466
1772728940317252600,6.897252685546875,10.16710376739502,5.048855781555176,-1.667797327041626
1772728940326770700,6.906770751953125,10.547562599182129,4.989035129547119,-1.6055840253829956
1772728940336288500,6.91628857421875,10.992627143859863,4.967499732971191,-1.6223337650299072
1772728940345806600,6.925806640625,11.327622413635254,4.969892501831055,-1.679761528968811
1772728940355324700,6.93532470703125,11.641081809997559,4.938786029815674,-1.7132610082626343
1772728940364842800,6.9448427734375,11.810972213745117,4.979464054107666,-1.734796404838562
1772728940374360600,6.954360595703125,11.83729362487793,5.015356063842773,-1.6366907358169556
1772728940383878700,6.963878662109375,11.732009887695312,5.017749309539795,-1.4739787578582764
1772728940393396700,6.973396728515625,11.562119483947754,5.089533805847168,-1.397408366203308
1772728940402914600,6.98291455078125,11.3778715133667,5.039284706115723,-1.306481122970581
1772728940412432600,6.9924326171875,11.212766647338867,4.9363932609558105,-1.2849457263946533
1772728940421950700,7.00195068359375,11.064412117004395,4.8191447257995605,-1.1748759746551514
1772728940431468800,7.01146875,10.87298583984375,4.689932346343994,-1.062413215637207
1772728940440986600,7.020986572265625,10.590633392333984,4.517649173736572,-0.9236295223236084
1772728940450504700,7.030504638671875,10.231709480285645,4.342973232269287,-0.8566305041313171
1772728940460022800,7.040022705078125,9.923035621643066,4.185046672821045,-0.8063812255859375
1772728940469540900,7.049540771484375,9.743574142456055,3.9625144004821777,-0.8566305041313171
1772728940479058700,7.05905859375,9.702896118164062,3.6945180892944336,-0.8901300430297852
1772728940488576800,7.06857666015625,9.762716293334961,3.4337005615234375,-0.9547362327575684
1772728940498094800,7.0780947265625,9.824930191040039,3.1489546298980713,-0.9427721500396729
1772728940507613000,7.087613037109375,9.8871431350708,2.847458839416504,-0.7680960893630981
1772728940517130800,7.097130859375,9.724431037902832,2.589034080505371,-0.4259224236011505
1772728940526648800,7.10664892578125,9.269794464111328,2.3976082801818848,0.03349951654672623
1772728940536167000,7.1161669921875,8.745766639709473,2.266003131866455,0.44745782017707825
1772728940545684700,7.125684814453125,8.25523853302002,2.2468605041503906,0.7250252366065979
1772728940555202800,7.135202880859375,7.934599876403809,2.2779672145843506,0.8255237936973572
1772728940564721000,7.144720947265625,7.762316703796387,2.3162522315979004,0.8422735929489136
1772728940574239000,7.154239013671875,7.668996810913086,2.438286304473877,0.8422735929489136
1772728940583757000,7.163757080078125,7.573283672332764,2.581855535507202,0.8805587291717529
1772728940593275000,7.17327490234375,7.542177200317383,2.792423963546753,0.7657032608985901
1772728940602793000,7.18279296875,7.381857872009277,2.909672260284424,0.5120640397071838
1772728940612311000,7.19231103515625,7.149754047393799,3.029313564300537,0.32542386651039124
1772728940621829000,7.2018291015625,6.999006271362305,3.1489546298980713,0.2273181527853012
1772728940631347000,7.211346923828125,6.996613502502441,3.232703447341919,0.20578274130821228
1772728940640865000,7.220864990234375,7.161718368530273,3.294916868209839,0.23449662327766418
1772728940650383000,7.230383056640625,7.566105365753174,3.290131092071533,0.16749759018421173
1772728940659901000,7.23990087890625,8.142775535583496,3.2039895057678223,0.04785645380616188
1772728940669419000,7.2494189453125,8.798408508300781,3.0412776470184326,-0.09571290761232376
1772728940678937000,7.25893701171875,9.408578872680664,2.991028308868408,-0.19381862878799438
1772728940688455200,7.268455078125,9.81535816192627,3.050848960876465,-0.2847459018230438
1772728940697973000,7.277972900390625,9.92542839050293,3.1274192333221436,-0.3158525824546814
1772728940707491000,7.287490966796875,9.796216011047363,3.1968109607696533,-0.32303106784820557
1772728940717009200,7.297009033203125,9.616754531860352,3.263810157775879,-0.380458801984787
1772728940726527200,7.30652734375,9.391828536987305,3.373879909515381,-0.47617170214653015
1772728940736045000,7.316045166015625,9.128618240356445,3.5054850578308105,-0.607776939868927
1772728940745563100,7.325563232421875,8.903693199157715,3.5916268825531006,-0.698704183101654
1772728940755081200,7.335081298828125,8.738588333129883,3.6394832134246826,-0.7226324677467346
1772728940764599000,7.34459912109375,8.630910873413086,3.6131622791290283,-0.6675975322723389
1772728940774117000,7.3541171875,8.394021987915039,3.596412420272827,-0.5742774605751038
1772728940783635200,7.36363525390625,8.032705307006836,3.651447296142578,-0.47617170214653015
1772728940793153300,7.3731533203125,7.690532207489014,3.7902309894561768,-0.4378865361213684
1772728940802671000,7.382671142578125,7.527820110321045,3.981656789779663,-0.4259224236011505
1772728940812189200,7.392189208984375,7.566105365753174,4.1419758796691895,-0.48095735907554626
1772728940821707300,7.401707275390625,7.733603000640869,4.194618225097656,-0.5072783827781677
1772728940831225300,7.411225341796875,8.01356315612793,4.177868366241455,-0.5120640397071838
1772728940840743200,7.4207431640625,8.322237014770508,4.151547431945801,-0.48095735907554626
1772728940850261200,7.43026123046875,8.583054542541504,4.132404804229736,-0.48813581466674805
1772728940859779300,7.439779296875,8.800801277160645,4.161118507385254,-0.4450650215148926
1772728940869297200,7.449297119140625,8.956335067749023,4.206582069396973,-0.3684946894645691
1772728940878815200,7.458815185546875,9.138189315795898,4.249652862548828,-0.2871387302875519
1772728940888333300,7.468333251953125,9.253045082092285,4.278367042541504,-0.1866401731967926
1772728940897851400,7.477851318359375,9.284152030944824,4.338187217712402,-0.06699903309345245
1772728940907369200,7.487369140625,9.32722282409668,4.398007869720459,-0.04785645380616188
1772728940916887300,7.49688720703125,9.410971641540527,4.4410786628723145,-0.08135596662759781
1772728940926405400,7.5064052734375,9.523433685302734,4.505684852600098,-0.15553347766399384
1772728940935923500,7.51592333984375,9.504291534423828,4.587040901184082,-0.20578274130821228
1772728940945441500,7.525441650390625,9.317651748657227,4.692325115203857,-0.1986042857170105
1772728940954959400,7.53495947265625,9.140582084655762,4.735395908355713,-0.18424734473228455
1772728940964477400,7.5444775390625,9.087940216064453,4.7952165603637695,-0.1986042857170105
1772728940973995300,7.553995361328125,9.119047164916992,4.814359188079834,-0.2799602448940277
1772728940983513300,7.563513427734375,9.243474006652832,4.823930263519287,-0.4091726839542389
1772728940993031400,7.573031494140625,9.439684867858887,4.792823791503906,-0.44027936458587646
1772728941002549500,7.582549560546875,9.67657470703125,4.730610370635986,-0.3756731450557709
1772728941012067300,7.5920673828125,9.91825008392334,4.60139799118042,-0.26560330390930176
1772728941021585400,7.60158544921875,10.176674842834473,4.4961137771606445,-0.24167509377002716
1772728941031103500,7.611103515625,10.346565246582031,4.359723091125488,-0.275174617767334
1772728941040621600,7.62062158203125,10.327422142028809,4.357329845428467,-0.4043870270252228
1772728941050139600,7.6301396484375,10.188638687133789,4.467400074005127,-0.5407779216766357
1772728941059657500,7.639657470703125,10.054640769958496,4.599005222320557,-0.672383189201355
1772728941069175600,7.649175537109375,9.8871431350708,4.752145767211914,-0.8350951075553894
1772728941078693600,7.658693603515625,9.736394882202148,4.811966419219971,-0.9906286001205444
1772728941088211500,7.66821142578125,9.736394882202148,4.852644443511963,-1.2251251935958862
1772728941097729500,7.6777294921875,9.891928672790527,4.8574299812316895,-1.4835500717163086
1772728941107247600,7.68724755859375,10.040284156799316,4.867001056671143,-1.648654818534851
1772728941116765700,7.696765625,10.114460945129395,4.809573650360107,-1.6773686408996582
1772728941126283500,7.706283447265625,10.229316711425781,4.646861553192139,-1.6462619304656982
1772728941135801600,7.715801513671875,10.382457733154297,4.381258487701416,-1.6079767942428589
1772728941145319700,7.725319580078125,10.595418930053711,4.098905086517334,-1.576870083808899
1772728941154837800,7.734837646484375,10.796415328979492,3.7782669067382812,-1.4691931009292603
1772728941164355600,7.74435546875,11.21515941619873,3.3882367610931396,-1.435693621635437
1772728941173873700,7.753873779296875,11.499905586242676,3.036491870880127,-1.428515076637268
1772728941183391700,7.763391845703125,11.301301002502441,2.7661030292510986,-1.337587833404541
1772728941192909800,7.772909912109375,10.667202949523926,2.589034080505371,-1.1748759746551514
1772728941202427600,7.782427734375,9.805787086486816,2.5698914527893066,-1.1485549211502075
1772728941211945700,7.79194580078125,8.997013092041016,2.715853691101074,-1.191625714302063
1772728941221463800,7.8014638671875,8.303094863891602,2.9048867225646973,-1.3256237506866455
1772728941230981600,7.810981689453125,7.657032489776611,3.0077781677246094,-1.3758729696273804
1772728941240499700,7.820499755859375,7.200003147125244,3.0628130435943604,-1.3088740110397339
1772728941250017800,7.830017822265625,6.893722057342529,3.10109806060791,-1.2346965074539185
1772728941259536000,7.839535888671875,6.795616149902344,3.1680972576141357,-1.1676974296569824
1772728941269053700,7.8490537109375,6.905686378479004,3.2470602989196777,-1.2011969089508057
1772728941278571800,7.85857177734375,7.159325122833252,3.2350962162017822,-1.3256237506866455
1772728941288089900,7.86808984375,7.546962738037109,3.218346357345581,-1.4644074440002441
1772728941297607700,7.877607666015625,7.977670669555664,3.2470602989196777,-1.5625132322311401
1772728941307125800,7.887125732421875,8.34855842590332,3.2781670093536377,-1.5433706045150757
1772728941316643800,7.896643798828125,8.602197647094727,3.2685956954956055,-1.5074782371520996
1772728941326162000,7.906161865234375,8.851051330566406,3.2853455543518066,-1.430907964706421
1772728941335679700,7.9156796875,9.140582084655762,3.2614171504974365,-1.3639088869094849
1772728941345197800,7.92519775390625,9.437292098999023,3.239881753921509,-1.2658032178878784
1772728941354716000,7.9347158203125,9.54496955871582,3.25663161277771,-1.153340458869934
1772728941364234000,7.94423388671875,9.363115310668945,3.2542388439178467,-0.9619147181510925
1772728941373751800,7.953751708984375,9.044869422912598,3.3068809509277344,-0.760917603969574
1772728941383270000,7.963269775390625,8.748159408569336,3.4193434715270996,-0.5335994362831116
1772728941392788000,7.9727880859375,8.489734649658203,3.507878065109253,-0.380458801984787
1772728941402305800,7.982305908203125,8.214560508728027,3.5988051891326904,-0.2392822653055191
1772728941411823900,7.991823974609375,8.011170387268066,3.665804386138916,-0.16031911969184875
1772728941421342000,8.001342041015626,7.968099594116211,3.78544545173645,-0.10767702013254166
1772728941430860000,8.010860107421875,8.011170387268066,3.8285162448883057,-0.10049854964017868
1772728941440377900,8.0203779296875,8.104490280151367,3.82373046875,-0.08614161610603333
1772728941449896000,8.02989599609375,8.22413158416748,3.761517286300659,-0.08853443711996078
1772728941459414000,8.0394140625,8.291130065917969,3.7112679481506348,-0.17946170270442963
1772728941468932000,8.04893212890625,8.37727165222168,3.7088751792907715,-0.2967100143432617
1772728941478450200,8.0584501953125,8.578269004821777,3.720839262008667,-0.43549370765686035
1772728941487968000,8.067968017578124,8.714659690856934,3.7088751792907715,-0.5455635786056519
1772728941497486000,8.077486083984375,8.760123252868652,3.737588882446289,-0.7202396392822266
1772728941507004000,8.08700390625,8.755337715148926,3.7399818897247314,-0.882951557636261
1772728941516522000,8.09652197265625,8.69791030883789,3.7471601963043213,-0.9188438653945923
1772728941526040000,8.1060400390625,8.647661209106445,3.8117663860321045,-0.9260223507881165
1772728941535558100,8.11555810546875,8.669196128845215,3.90987229347229,-0.885344386100769
1772728941545076200,8.125076171875,8.764909744262695,4.015156269073486,-0.8877372145652771
1772728941554594000,8.134593994140625,8.810373306274414,4.098905086517334,-0.9236295223236084
1772728941564112100,8.144112060546876,8.839086532592773,4.185046672821045,-0.9451649188995361
1772728941573630200,8.153630126953125,8.810373306274414,4.232903480529785,-0.914058268070221
1772728941583148000,8.16314794921875,8.810373306274414,4.266402721405029,-0.8925228714942932
1772728941592666000,8.172666015625,8.776873588562012,4.29033088684082,-0.794417142868042
1772728941602184200,8.18218408203125,8.673981666564941,4.35254430770874,-0.7226324677467346
1772728941611702000,8.191701904296876,8.518448829650879,4.460221290588379,-0.6460621356964111
1772728941621220000,8.20122021484375,8.34855842590332,4.570291042327881,-0.6125625967979431
1772728941630738200,8.21073828125,8.34138011932373,4.639683246612549,-0.5623133182525635
1772728941640256300,8.22025634765625,8.449056625366211,4.761716842651367,-0.48574298620224
1772728941649774300,8.2297744140625,8.647661209106445,4.833501815795898,-0.46899324655532837
1772728941659292200,8.239292236328126,8.7505521774292,4.914857864379883,-0.5240281820297241
1772728941668810200,8.248810302734375,8.841479301452637,5.008177757263184,-0.5790630578994751
1772728941678328000,8.258328125,9.052047729492188,5.024927616119385,-0.6556333899497986
1772728941687846100,8.26784619140625,9.346364974975586,4.960321426391602,-0.7657032608985901
1772728941697364200,8.2773642578125,9.659825325012207,4.855037212371826,-0.9284151792526245
1772728941706882300,8.28688232421875,9.992427825927734,4.764110088348389,-1.0839486122131348
1772728941716400400,8.296400390625,10.2747802734375,4.701896667480469,-1.2370892763137817
1772728941725918200,8.305918212890624,10.593026161193848,4.6995038986206055,-1.3088740110397339
1772728941735436300,8.315436279296875,10.935199737548828,4.706682205200195,-1.3591232299804688
1772728941744954000,8.3249541015625,11.030912399291992,4.692325115203857,-1.3304094076156616
1772728941754472400,8.334472412109376,10.97587776184082,4.67078971862793,-1.2251251935958862
1772728941763990300,8.343990234375,10.73420238494873,4.634897232055664,-1.1820544004440308
1772728941773508400,8.35350830078125,10.473384857177734,4.627718925476074,-1.1676974296569824
1772728941783026400,8.3630263671875,10.241280555725098,4.6540398597717285,-1.1341979503631592
1772728941792544300,8.372544189453125,10.05703353881836,4.728217601776123,-0.9978070259094238
1772728941802062300,8.382062255859376,9.899106979370117,4.752145767211914,-0.7680960893630981
1772728941811580400,8.391580322265625,9.789037704467773,4.807180881500244,-0.672383189201355
1772728941821098500,8.401098388671874,9.702896118164062,4.8191447257995605,-0.6484549641609192
1772728941830616300,8.4106162109375,9.609575271606445,4.6995038986206055,-0.5431707501411438
1772728941840134400,8.420134521484375,9.652647018432617,4.486542224884033,-0.3326023519039154
1772728941849652200,8.42965234375,10.021141052246094,4.213760852813721,-0.22013968229293823
1772728941859170300,8.43917041015625,10.64088249206543,3.926621913909912,-0.34695929288864136
1772728941868688400,8.4486884765625,11.162517547607422,3.7160534858703613,-0.5383850932121277
