time,seconds_elapsed,z,y,x
1772729583748288000,0.0922880859375,0,0,0
1772729583757806000,0.10180615234375,0.014661788940429688,0.022924423217773438,0.006303071975708008
1772729583776842800,0.1208427734375,0.0777597427368164,-0.014904022216796875,0.050179362297058105
1772729583786360800,0.13036083984375,0.16250324249267578,-0.050749778747558594,0.0546797513961792
1772729583795879200,0.139879150390625,0.2568368911743164,-0.0953669548034668,0.04515838623046875
1772729583805397200,0.149397216796875,0.29506874084472656,-0.11530470848083496,0.0649646520614624
1772729583814915600,0.15891552734375,0.3926668167114258,-0.0618290901184082,0.062288522720336914
1772729583824434000,0.168433837890625,0.43830204010009766,-0.011131763458251953,0.07547247409820557
1772729583833952000,0.177951904296875,0.4628019332885742,0.008939266204833984,0.1435256004333496
1772729583843470300,0.18747021484375,0.41289615631103516,0.0025572776794433594,0.2247943878173828
1772729583852988700,0.19698876953125,0.3584432601928711,0.00171661376953125,0.29391157627105713
1772729583862506800,0.2065068359375,0.2691926956176758,0.033493995666503906,0.3605012893676758
1772729583872025000,0.216025146484375,0.24532794952392578,0.09271240234375,0.38279950618743896
1772729583881543200,0.225543212890625,0.20093345642089844,0.1100163459777832,0.44007962942123413
1772729583891061500,0.2350615234375,0.20600223541259766,0.09098482131958008,0.4515012502670288
1772729583900579800,0.244579833984375,0.2711200714111328,0.07163572311401367,0.5267762541770935
1772729583910098000,0.254097900390625,0.2918233871459961,0.01139688491821289,0.5953962802886963
1772729583919616300,0.2636162109375,0.3548269271850586,-0.122528076171875,0.6490769386291504
1772729583929134600,0.273134521484375,0.4657011032104492,-0.24436020851135254,0.6239429712295532
1772729583938652700,0.282652587890625,0.5825185775756836,-0.3985917568206787,0.509466826915741
1772729583948171000,0.2921708984375,0.7154750823974609,-0.5637710094451904,0.4395248591899872
1772729583957689300,0.301689453125,0.698063850402832,-0.7556941509246826,0.4816601872444153
1772729583967207400,0.31120751953125,0.6376266479492188,-0.8878500461578369,0.495612233877182
1772729583976725800,0.320725830078125,0.5468711853027344,-0.9724788665771484,0.5982341766357422
1772729583986243800,0.330243896484375,0.5159015655517578,-0.9998047351837158,0.5494423508644104
1772729583995762200,0.33976220703125,0.4310951232910156,-0.9475288391113281,0.4978419244289398
1772729584005280500,0.349280517578125,0.2561464309692383,-0.8824021816253662,0.5342899560928345
1772729584014798600,0.358798583984375,0.038547515869140625,-0.8358592987060547,0.6192767024040222
1772729584024317000,0.36831689453125,-0.10406780242919922,-0.7902352809906006,0.7209761142730713
1772729584033835300,0.377835205078125,-0.23296165466308594,-0.7342128753662109,0.7674872279167175
1772729584043353300,0.387353271484375,-0.35382080078125,-0.6922593116760254,0.7921847105026245
1772729584052871700,0.39687158203125,-0.3929624557495117,-0.6797580718994141,0.8747639656066895
1772729584062389800,0.4063896484375,-0.3431415557861328,-0.6758577823638916,0.892715334892273
1772729584071908000,0.415908203125,-0.3036928176879883,-0.7006196975708008,0.859213650226593
1772729584081426400,0.425426513671875,-0.28504180908203125,-0.7390279769897461,0.7955724000930786
1772729584090944800,0.43494482421875,-0.32070064544677734,-0.8322961330413818,0.705020010471344
1772729584100462800,0.444462890625,-0.42276763916015625,-0.9104433059692383,0.6001840829849243
1772729584109981200,0.453981201171875,-0.5872659683227539,-0.8739995956420898,0.5026129484176636
1772729584119499300,0.463499267578125,-0.6707000732421875,-0.7115898132324219,0.3196105360984802
1772729584129017600,0.473017578125,-0.7736244201660156,-0.5068423748016357,0.14142121374607086
1772729584138535700,0.48253564453125,-0.844731330871582,-0.320263147354126,0.06926661729812622
1772729584148054000,0.492053955078125,-0.9226608276367188,-0.19209957122802734,0.05167883634567261
1772729584157572400,0.501572265625,-1.0680961608886719,-0.1604764461517334,0.07939252257347107
1772729584167090400,0.51109033203125,-1.1624603271484375,-0.1699357032775879,0.14906162023544312
1772729584176608800,0.52060888671875,-1.1083736419677734,-0.12209272384643555,0.09253266453742981
1772729584186127000,0.530127197265625,-0.9928054809570312,-0.06855106353759766,-0.020689189434051514
1772729584195645200,0.539645263671875,-0.844578742980957,-0.022347688674926758,-0.13389179110527039
1772729584205163500,0.54916357421875,-0.6987133026123047,0.052811622619628906,-0.18654167652130127
1772729584214681900,0.558681884765625,-0.7565832138061523,0.07212948799133301,-0.14157111942768097
1772729584224200000,0.568199951171875,-0.7708587646484375,0.08283782005310059,0.04731607437133789
1772729584233718300,0.57771826171875,-0.7175006866455078,0.14607644081115723,0.3341798186302185
1772729584243236400,0.587236328125,-0.771946907043457,0.2997243404388428,0.3910858631134033
1772729584252754700,0.596754638671875,-0.7094278335571289,0.39017724990844727,0.36447739601135254
1772729584262272800,0.606272705078125,-0.6424531936645508,0.42096948623657227,0.26687031984329224
1772729584271791000,0.615791015625,-0.7051258087158203,0.3088393211364746,0.16053466498851776
1772729584281309400,0.625309326171875,-0.7141666412353516,0.1548323631286621,0.05773079767823219
1772729584290827800,0.634827880859375,-0.686894416809082,-0.007633686065673828,-0.09631256759166718
1772729584300345900,0.644345947265625,-0.7154979705810547,-0.09881854057312012,-0.26495882868766785
1772729584309864200,0.6538642578125,-0.6577119827270508,-0.18622207641601562,-0.35241061449050903
1772729584319382300,0.66338232421875,-0.44610118865966797,-0.1653130054473877,-0.38400590419769287
1772729584328900600,0.672900634765625,-0.3131246566772461,-0.17102503776550293,-0.3669516444206238
1772729584338418700,0.682418701171875,-0.37453651428222656,-0.21392416954040527,-0.31400927901268005
1772729584347937000,0.69193701171875,-0.26917552947998047,-0.3479773998260498,-0.20280317962169647
1772729584357455400,0.701455322265625,-0.32940101623535156,-0.41869330406188965,-0.12670540809631348
1772729584366973700,0.7109736328125,-0.3594961166381836,-0.38464808464050293,-0.23264802992343903
1772729584376491800,0.72049169921875,-0.3696146011352539,-0.30333399772644043,-0.33406487107276917
1772729584386010000,0.730010009765625,-0.5296421051025391,-0.1873769760131836,-0.39822226762771606
1772729584395528200,0.739528076171875,-1.2026329040527344,-0.19583559036254883,-0.4191356897354126
1772729584405046500,0.749046630859375,-0.9365177154541016,-0.054657936096191406,-0.43495404720306396
1772729584414564900,0.75856494140625,-0.8141374588012695,0.19334197044372559,-0.34025242924690247
1772729584424083000,0.7680830078125,-0.6377992630004883,0.6063551902770996,-0.508491039276123
1772729584433601300,0.777601318359375,-0.6133146286010742,0.7199804782867432,-0.5411606431007385
1772729584443119400,0.787119384765625,-0.5004816055297852,0.5607473850250244,-0.25669533014297485
1772729584452637700,0.7966376953125,-0.3313741683959961,0.4991450309753418,0.04614895582199097
1772729584462156000,0.806156005859375,-0.21760082244873047,0.5362739562988281,0.061308473348617554
1772729584471674000,0.815674072265625,-0.24951553344726562,0.5599961280822754,0.05956654250621796
1772729584481192400,0.8251923828125,-0.21597576141357422,0.4779224395751953,0.013467222452163696
1772729584490710800,0.834710693359375,-0.17191600799560547,0.46259546279907227,-0.07033799588680267
1772729584500228900,0.844228759765625,-0.008942604064941406,0.6503407955169678,-0.39154016971588135
1772729584509747200,0.853747314453125,0.1960926055908203,0.8031556606292725,-0.7457300424575806
1772729584519265300,0.863265380859375,0.45243167877197266,0.8072152137756348,-0.9240835309028625
1772729584528783600,0.87278369140625,0.7352876663208008,0.7516801357269287,-0.8413446545600891
1772729584538302000,0.882302001953125,1.2018146514892578,0.7832722663879395,-0.6288269758224487
1772729584547820000,0.891820068359375,1.4343986511230469,0.772282600402832,-0.18867123126983643
1772729584557338400,0.90133837890625,1.2252721786499023,0.5819046497344971,0.2637542486190796
1772729584566856700,0.910856689453125,1.1772747039794922,0.3760838508605957,0.5654696226119995
1772729584576374800,0.920374755859375,1.2384729385375977,0.37589478492736816,0.5930273532867432
1772729584585893000,0.92989306640625,1.1048412322998047,0.5128722190856934,0.16968300938606262
1772729584595411200,0.9394111328125,0.8921022415161133,0.6318612098693848,-0.2325756996870041
1772729584604929500,0.948929443359375,0.7145061492919922,0.5867741107940674,-0.4863829016685486
1772729584614447900,0.95844775390625,0.46013450622558594,0.5243289470672607,-0.6004790663719177
1772729584623966000,0.967966064453125,0.2573862075805664,0.5138225555419922,-0.7250797152519226
1772729584633484300,0.977484375,0.12921905517578125,0.5479214191436768,-0.7935966849327087
1772729584643002400,0.98700244140625,-0.015509605407714844,0.5536952018737793,-0.7798742055892944
1772729584652520700,0.996520751953125,-0.2153463363647461,0.5120019912719727,-0.6894876956939697
1772729584662039000,1.0060390625,-0.33348751068115234,0.5392937660217285,-0.6170535087585449
1772729584671557400,1.015557373046875,-0.4428987503051758,0.5849728584289551,-0.650760293006897
1772729584681075500,1.025075439453125,-0.5162973403930664,0.6011977195739746,-0.6741987466812134
1772729584690593800,1.03459375,-0.47917747497558594,0.5687007904052734,-0.6655794382095337
1772729584700112000,1.04411181640625,-0.36418628692626953,0.49887847900390625,-0.610360324382782
1772729584709630200,1.053630126953125,-0.11546516418457031,0.35480308532714844,-0.544553279876709
1772729584719148300,1.063148193359375,0.19510650634765625,0.11521387100219727,-0.4789378046989441
1772729584728666600,1.07266650390625,0.4636259078979492,-0.14696741104125977,-0.4839790165424347
1772729584738185000,1.08218505859375,0.7487945556640625,-0.40822315216064453,-0.5077165961265564
1772729584747703000,1.091703125,1.0120115280151367,-0.622772216796875,-0.5669710040092468
1772729584757221400,1.101221435546875,1.2247085571289062,-0.843050479888916,-0.6345754861831665
1772729584766739500,1.110739501953125,1.360854148864746,-0.947880744934082,-0.7508260607719421
1772729584776257800,1.1202578125,1.4677705764770508,-1.0131864547729492,-0.8734889626502991
1772729584785776000,1.129776123046875,1.3332624435424805,-1.0154271125793457,-0.9557756185531616
1772729584795294200,1.139294189453125,0.9785327911376953,-1.0192878246307373,-0.9694722890853882
1772729584804812500,1.1488125,0.48789501190185547,-0.9566671848297119,-0.9941809177398682
1772729584814331000,1.158330810546875,-0.05314064025878906,-0.8066413402557373,-0.9967246055603027
1772729584823849000,1.167848876953125,-0.5459480285644531,-0.7115216255187988,-1.0924878120422363
1772729584833367300,1.1773671875,-1.0377416610717773,-0.6505818367004395,-1.202586054801941
1772729584842885400,1.186885498046875,-1.3976106643676758,-0.6412332057952881,-1.1929140090942383
1772729584852403700,1.19640380859375,-1.6425714492797852,-0.5044794082641602,-1.331944227218628
1772729584861922000,1.205922119140625,-1.888859748840332,-0.49518537521362305,-1.483811855316162
1772729584871440100,1.215440185546875,-2.021500587463379,-0.4440627098083496,-1.5665682554244995
1772729584880958500,1.22495849609375,-1.9898591041564941,-0.45007824897766113,-1.5964601039886475
1772729584890476500,1.2344765625,-1.9948854446411133,-0.46926307678222656,-1.5608980655670166
1772729584899995000,1.243994873046875,-1.948713779449463,-0.45809507369995117,-1.4723107814788818
1772729584909513000,1.253512939453125,-1.7072162628173828,-0.3974776268005371,-1.3631068468093872
1772729584919031300,1.26303125,-1.4186210632324219,-0.27194833755493164,-1.2423298358917236
1772729584928549600,1.272549560546875,-1.0704374313354492,-0.15952062606811523,-1.0894033908843994
1772729584938068000,1.28206787109375,-0.6690645217895508,-0.1806015968322754,-0.8996995091438293
1772729584947586000,1.2915859375,-0.3584175109863281,-0.25311923027038574,-0.6917142271995544
1772729584957104400,1.3011044921875,0.03449821472167969,-0.32915544509887695,-0.5743542313575745
1772729584966622500,1.31062255859375,0.4251241683959961,-0.3900880813598633,-0.5596734881401062
1772729584976140800,1.320140869140625,0.6819887161254883,-0.43403148651123047,-0.6311125159263611
1772729584985659100,1.3296591796875,0.8333625793457031,-0.5441906452178955,-0.6774848103523254
1772729584995177200,1.33917724609375,0.878199577331543,-0.6147255897521973,-0.7138481736183167
1772729585004695600,1.348695556640625,0.8508243560791016,-0.6425642967224121,-0.8596965670585632
1772729585014213600,1.358213623046875,0.7470941543579102,-0.612271785736084,-1.0139110088348389
1772729585023732000,1.36773193359375,0.5388555526733398,-0.5719118118286133,-1.1485356092453003
1772729585033250000,1.37725,0.23110580444335938,-0.58262038230896,-1.1207616329193115
1772729585042768400,1.386768310546875,-0.11704635620117188,-0.5783374309539795,-1.017803430557251
1772729585052286700,1.39628662109375,-0.3091239929199219,-0.5671825408935547,-0.9330883622169495
1772729585061805000,1.40580517578125,-0.5131063461303711,-0.412503719329834,-0.8728141188621521
1772729585071323100,1.4153232421875,-0.7484521865844727,-0.30855536460876465,-0.744548499584198
1772729585080841200,1.42484130859375,-1.003885269165039,-0.26714015007019043,-0.5191099047660828
1772729585090359600,1.434359619140625,-1.247115135192871,-0.22368717193603516,-0.36400169134140015
1772729585099878000,1.4438779296875,-1.3841028213500977,-0.11960005760192871,-0.2662353515625
1772729585109396200,1.453396240234375,-1.4659099578857422,0.028926849365234375,-0.2731326222419739
1772729585118914300,1.462914306640625,-1.5454730987548828,0.13913464546203613,-0.2695198059082031
1772729585128432600,1.4724326171875,-1.5182743072509766,0.22556257247924805,-0.2130718231201172
1772729585137950700,1.48195068359375,-1.4205360412597656,0.300187349319458,-0.1486336588859558
1772729585147469000,1.491468994140625,-1.2782793045043945,0.3670973777770996,-0.036089420318603516
1772729585156987100,1.500987060546875,-1.07427978515625,0.41805100440979004,0.11335557699203491
1772729585166505500,1.51050537109375,-0.8957681655883789,0.5037951469421387,0.2086198925971985
1772729585176023800,1.52002392578125,-0.7155981063842773,0.5582554340362549,0.23008108139038086
1772729585185542000,1.5295419921875,-0.4928092956542969,0.5918376445770264,0.22179251909255981
1772729585195060200,1.539060302734375,-0.2721405029296875,0.624253511428833,0.1429111361503601
1772729585204578300,1.548578369140625,-0.1408672332763672,0.7324874401092529,0.035095810890197754
1772729585214096600,1.5580966796875,-0.1153411865234375,0.7261459827423096,0.010782122611999512
1772729585223615000,1.567614990234375,-0.00539398193359375,0.7494461536407471,0.043614864349365234
1772729585233133300,1.57713330078125,0.04045867919921875,0.8223986625671387,-0.06051194667816162
1772729585242651400,1.5866513671875,0.04841327667236328,0.9767436981201172,-0.15679717063903809
1772729585252169700,1.596169677734375,0.0776681900024414,1.044342041015625,-0.17872107028961182
1772729585261687800,1.605687744140625,0.12517547607421875,1.0483481884002686,-0.15110546350479126
1772729585271206100,1.6152060546875,0.22850608825683594,1.0898551940917969,-0.0986248254776001
1772729585280724200,1.62472412109375,0.4540567398071289,1.1327600479125977,-0.13506484031677246
1772729585290242600,1.63424267578125,0.7396240234375,1.1504969596862793,-0.14544880390167236
1772729585299761000,1.643760986328125,1.0830011367797852,1.135308027267456,-0.10066968202590942
1772729585309279000,1.653279052734375,1.3820114135742188,1.0294954776763916,0.010127723217010498
1772729585318797300,1.66279736328125,1.6874961853027344,0.9203906059265137,0.041360318660736084
1772729585328315400,1.6723154296875,1.7907485961914062,0.8972377777099609,-0.03910297155380249
1772729585337833700,1.681833740234375,1.862229347229004,0.7991437911987305,-0.06248420476913452
1772729585347352000,1.69135205078125,1.9023418426513672,0.6876094341278076,-0.02440708875656128
1772729585356870100,1.7008701171875,1.8401212692260742,0.668921709060669,-0.06617188453674316
1772729585366388500,1.710388427734375,1.7377662658691406,0.6951026916503906,-0.11970913410186768
1772729585375906600,1.719906494140625,1.5829105377197266,0.7361652851104736,-0.09819364547729492
1772729585385425000,1.7294248046875,1.3916378021240234,0.7795102596282959,-0.02062314748764038
1772729585394943000,1.73894287109375,1.244180679321289,0.8032994270324707,0.03634476661682129
1772729585404461300,1.74846142578125,1.09649658203125,0.7932214736938477,0.16593503952026367
1772729585413979600,1.757979736328125,0.9998292922973633,0.751746654510498,0.2711820900440216
1772729585423498000,1.767498046875,1.0174131393432617,0.6305413246154785,0.303514301776886
1772729585433016000,1.77701611328125,1.1008977890014648,0.5068478584289551,0.1849886178970337
1772729585442534400,1.786534423828125,1.2268495559692383,0.2820248603820801,0.09909859299659729
1772729585452052500,1.796052490234375,1.4033136367797852,-0.03607177734375,0.05815523862838745
1772729585461570800,1.80557080078125,1.588937759399414,-0.36974477767944336,0.04074287414550781
1772729585471089200,1.815089111328125,1.7164373397827148,-0.7585000991821289,0.006000399589538574
1772729585480607200,1.824607177734375,1.7759408950805664,-1.094085693359375,-0.04066866636276245
1772729585490125600,1.83412548828125,1.7428369522094727,-1.4175326824188232,-0.015432655811309814
1772729585499643600,1.8436435546875,1.5253925323486328,-1.684983730316162,0.07549035549163818
1772729585509162000,1.853161865234375,1.2577390670776367,-1.8678879737854004,0.1264764368534088
1772729585518680000,1.86268017578125,0.8967094421386719,-1.9105818271636963,0.14654389023780823
1772729585528198400,1.872198486328125,0.4895334243774414,-1.8712482452392578,0.12170469760894775
1772729585537716700,1.881716796875,0.08065223693847656,-1.8335537910461426,0.0700349509716034
1772729585547234800,1.89123486328125,-0.3027191162109375,-1.8610808849334717,0.1338217556476593
1772729585556753200,1.900753173828125,-0.654932975769043,-1.9124326705932617,0.23436950147151947
1772729585566271200,1.910271240234375,-0.9632596969604492,-1.9465930461883545,0.3481021821498871
1772729585575789600,1.91978955078125,-1.1289582252502441,-1.9045519828796387,0.409868061542511
1772729585585307600,1.9293076171875,-1.3224706649780273,-1.8472201824188232,0.4444150924682617
1772729585594826000,1.938825927734375,-1.473123550415039,-1.7993144989013672,0.45606064796447754
1772729585604344300,1.94834423828125,-1.5393295288085938,-1.7448782920837402,0.5231301188468933
1772729585613862400,1.9578623046875,-1.610569953918457,-1.7325258255004883,0.584834098815918
1772729585623380700,1.967380615234375,-1.6399955749511719,-1.6490514278411865,0.5757389068603516
1772729585632898800,1.97689892578125,-1.611353874206543,-1.4995007514953613,0.5829519033432007
1772729585642417200,1.986417236328125,-1.4507627487182617,-1.3563635349273682,0.4899517893791199
1772729585651935500,1.995935546875,-1.3248567581176758,-1.2826709747314453,0.41490626335144043
1772729585661453600,2.00545361328125,-1.1230173110961914,-1.191549301147461,0.3987785875797272
1772729585670972000,2.014971923828125,-0.8821029663085938,-1.1240458488464355,0.27001792192459106
1772729585680490200,2.024490234375,-0.659881591796875,-1.0477256774902344,0.15478292107582092
1772729585690008300,2.03400830078125,-0.4902067184448242,-0.9300403594970703,0.06447380781173706
1772729585699526700,2.043526611328125,-0.4122285842895508,-0.858919620513916,0.07772043347358704
1772729585709044700,2.053044677734375,-0.3818960189819336,-0.773963212966919,0.10038882493972778
1772729585718563000,2.06256298828125,-0.24362468719482422,-0.6268219947814941,-0.005163788795471191
1772729585728081400,2.072081298828125,-0.22855472564697266,-0.3757658004760742,-0.1817033290863037
1772729585737599500,2.081599609375,-0.36029911041259766,-0.21112823486328125,-0.25293004512786865
1772729585747117800,2.091117919921875,-0.5083847045898438,-0.10653114318847656,-0.2565666437149048
1772729585756636000,2.100635986328125,-0.7313814163208008,0.01730632781982422,-0.1745396852493286
1772729585766154200,2.110154296875,-0.9185171127319336,0.16792774200439453,-0.138374924659729
1772729585775672600,2.119672607421875,-0.978215217590332,0.31163787841796875,-0.2051241397857666
1772729585785190700,2.129190673828125,-1.0070905685424805,0.42620038986206055,-0.23045098781585693
1772729585794709000,2.138708984375,-0.9962978363037109,0.4366598129272461,-0.17809051275253296
1772729585804227000,2.14822705078125,-0.8817510604858398,0.40309906005859375,-0.06321531534194946
1772729585813745400,2.157745361328125,-0.6609411239624023,0.3913998603820801,-0.023752450942993164
1772729585823263500,2.167263427734375,-0.4402170181274414,0.38260364532470703,-0.054524630308151245
1772729585832781800,2.17678173828125,-0.232635498046875,0.37693071365356445,-0.08427295088768005
1772729585842300200,2.186300048828125,-0.05389595031738281,0.3369331359863281,-0.021752506494522095
1772729585851818200,2.195818359375,0.12304115295410156,0.3018913269042969,0.03779494762420654
1772729585861336600,2.205336669921875,0.2058887481689453,0.32065629959106445,-0.000012189149856567383
1772729585870854700,2.214854736328125,0.20731258392333984,0.35408878326416016,-0.05680766701698303
1772729585880373000,2.224373046875,0.2708921432495117,0.2728753089904785,-0.06587043404579163
1772729585889891300,2.233891357421875,0.2585411071777344,0.2508831024169922,-0.14433112740516663
1772729585899409400,2.243409423828125,0.14681434631347656,0.21149587631225586,-0.26609495282173157
1772729585908927700,2.252927734375,0.12397098541259766,0.1576519012451172,-0.3104730546474457
1772729585918445800,2.26244580078125,0.02703380584716797,0.17867469787597656,-0.3002821207046509
1772729585927964200,2.271964111328125,-0.07046794891357422,0.27544498443603516,-0.36078304052352905
1772729585937482200,2.281482177734375,-0.10705280303955078,0.362764835357666,-0.4183333218097687
1772729585947000600,2.29100048828125,-0.16915035247802734,0.42484045028686523,-0.5034616589546204
1772729585956519000,2.300518798828125,-0.22609615325927734,0.39600706100463867,-0.5385060906410217
1772729585966037000,2.310037109375,-0.35002613067626953,0.3447690010070801,-0.49037492275238037
1772729585975555300,2.319555419921875,-0.4294319152832031,0.35117101669311523,-0.470019668340683
1772729585985073400,2.329073486328125,-0.33872032165527344,0.39177942276000977,-0.4921485483646393
1772729585994591700,2.338591796875,-0.23812103271484375,0.49948740005493164,-0.5666507482528687
1772729586004110000,2.348110107421875,-0.08698368072509766,0.5997986793518066,-0.6192789077758789
1772729586013628200,2.357628173828125,0.11962318420410156,0.5967998504638672,-0.5705527067184448
1772729586023146500,2.367146484375,0.32001495361328125,0.5449671745300293,-0.44754868745803833
1772729586032664600,2.37666455078125,0.5339784622192383,0.500664234161377,-0.4116158187389374
1772729586042183000,2.386182861328125,0.6834802627563477,0.47000646591186523,-0.4264668822288513
1772729586051701000,2.395700927734375,0.7883596420288086,0.4115324020385742,-0.505909264087677
1772729586061219300,2.40521923828125,0.8466587066650391,0.4343700408935547,-0.6284551620483398
1772729586070737700,2.414737548828125,0.8895788192749023,0.4783139228820801,-0.8163230419158936
1772729586080255700,2.424255859375,0.8667612075805664,0.5699348449707031,-0.960395872592926
1772729586089774000,2.433774169921875,0.847081184387207,0.6786842346191406,-1.1235634088516235
1772729586099292200,2.443292236328125,0.8035545349121094,0.7365307807922363,-1.198346734046936
1772729586108810500,2.452810546875,0.7350654602050781,0.7718954086303711,-1.151177167892456
1772729586118328800,2.462328857421875,0.7263879776000977,0.7129030227661133,-1.0504249334335327
1772729586127847000,2.471846923828125,0.8049535751342773,0.6094222068786621,-0.9405652284622192
1772729586137365200,2.481365234375,0.9653711318969727,0.5005874633789062,-0.8430269956588745
1772729586146883600,2.490883544921875,1.2411632537841797,0.3050246238708496,-0.7123037576675415
1772729586156401700,2.500401611328125,1.5404329299926758,0.0828695297241211,-0.5724779367446899
1772729586165920000,2.509919921875,1.6598396301269531,-0.21625280380249023,-0.5868262648582458
1772729586175438000,2.51943798828125,1.8712282180786133,-0.6001181602478027,-0.4049169421195984
1772729586184956400,2.528956298828125,1.8234186172485352,-0.9882800579071045,-0.4207325577735901
1772729586194474800,2.538474853515625,1.6451997756958008,-1.2782549858093262,-0.42095595598220825
1772729586203992800,2.547992919921875,1.3235998153686523,-1.4525980949401855,-0.4048477113246918
1772729586213511200,2.55751123046875,0.8734893798828125,-1.478254795074463,-0.4921305477619171
1772729586223029200,2.567029296875,0.39243507385253906,-1.3905165195465088,-0.6258747577667236
1772729586232547600,2.576547607421875,-0.056212425231933594,-1.2646231651306152,-0.7738595008850098
1772729586242066000,2.58606591796875,-0.5576009750366211,-1.2484636306762695,-0.85866779088974
1772729586251584000,2.595583984375,-0.9918713569641113,-1.181535243988037,-0.9316401481628418
1772729586261102300,2.605102294921875,-1.3617687225341797,-1.1438536643981934,-0.9646552205085754
1772729586270620400,2.614620361328125,-1.6294527053833008,-1.062751293182373,-0.9863497614860535
1772729586280138800,2.624138671875,-1.8331727981567383,-0.9518499374389648,-0.9937777519226074
1772729586289656800,2.63365673828125,-1.9866619110107422,-0.896817684173584,-0.9871016144752502
1772729586299175200,2.643175048828125,-2.009964942932129,-0.9006481170654297,-0.9529545307159424
1772729586308693500,2.652693603515625,-1.8608860969543457,-0.9362654685974121,-0.8683245778083801
1772729586318211600,2.662211669921875,-1.6515164375305176,-0.9778509140014648,-0.7767835855484009
1772729586327730000,2.67172998046875,-1.2545499801635742,-1.0103888511657715,-0.6433910131454468
1772729586337248000,2.681248046875,-0.6757912635803223,-1.0010700225830078,-0.46578556299209595
1772729586346766300,2.690766357421875,-0.12094497680664062,-0.9771623611450195,-0.2869778871536255
1772729586356284700,2.70028466796875,0.42433929443359375,-1.0111002922058105,0.007435232400894165
1772729586365802800,2.709802734375,0.8689594268798828,-1.0146808624267578,0.23754890263080597
1772729586375321000,2.719321044921875,1.2171831130981445,-1.045386791229248,0.35627299547195435
1772729586384839200,2.728839111328125,1.4895811080932617,-1.093381404876709,0.45185983180999756
1772729586394357500,2.738357421875,1.625645637512207,-1.1609091758728027,0.4911373257637024
1772729586403875600,2.74787548828125,1.521646499633789,-1.2611286640167236,0.5087141394615173
1772729586413394000,2.757393798828125,1.2978076934814453,-1.3204545974731445,0.4634290337562561
1772729586422912300,2.766912353515625,0.9851694107055664,-1.2744030952453613,0.32496392726898193
1772729586432430300,2.776430419921875,0.6259956359863281,-1.0745410919189453,0.04804760217666626
1772729586441948700,2.78594873046875,0.2619791030883789,-0.8006348609924316,-0.21667128801345825
1772729586451466800,2.795466796875,-0.08454608917236328,-0.5866665840148926,-0.36863481998443604
1772729586460985000,2.804985107421875,-0.4294147491455078,-0.501704216003418,-0.3743171691894531
1772729586470503400,2.81450341796875,-0.7573881149291992,-0.444976806640625,-0.32155513763427734
1772729586480021500,2.824021484375,-1.050428867340088,-0.4262571334838867,-0.20488613843917847
1772729586489539800,2.833539794921875,-1.2474474906921387,-0.3388204574584961,-0.045704185962677
1772729586499058000,2.843057861328125,-1.3562374114990234,-0.2346181869506836,0.08626556396484375
1772729586508576300,2.852576171875,-1.367696762084961,-0.127838134765625,0.11938166618347168
1772729586518094300,2.86209423828125,-1.2366137504577637,0.004750728607177734,0.1741980016231537
1772729586527612700,2.87161279296875,-1.091364860534668,0.15926742553710938,0.17782318592071533
1772729586537130800,2.881130859375,-0.9835672378540039,0.26520872116088867,0.1923942267894745
1772729586546649000,2.890649169921875,-0.8503713607788086,0.3097500801086426,0.2625219225883484
1772729586556167200,2.900167236328125,-0.7127904891967773,0.29470396041870117,0.3561169505119324
1772729586565685500,2.909685546875,-0.658782958984375,0.33914613723754883,0.43640658259391785
1772729586575203800,2.919203857421875,-0.6284723281860352,0.3976593017578125,0.4371377229690552
1772729586584722000,2.928721923828125,-0.5789861679077148,0.4989018440246582,0.4122048318386078
1772729586594240300,2.938240234375,-0.5344209671020508,0.5974917411804199,0.34270140528678894
1772729586603758300,2.94775830078125,-0.45170116424560547,0.6619715690612793,0.19592499732971191
1772729586613276700,2.957276611328125,-0.35933685302734375,0.6896152496337891,0.06966304779052734
1772729586622794800,2.966794677734375,-0.3191699981689453,0.6658482551574707,0.006594479084014893
1772729586632313000,2.97631298828125,-0.22382164001464844,0.6385898590087891,0.0028352737426757812
1772729586641831400,2.98583154296875,-0.06884956359863281,0.7080988883972168,-0.029381275177001953
1772729586651349500,2.995349609375,0.10037612915039062,0.7926826477050781,-0.04274427890777588
1772729586660867800,3.004867919921875,0.2529792785644531,0.8587431907653809,-0.07444912195205688
1772729586670386000,3.014385986328125,0.4033231735229492,0.8826642036437988,0.0007148981094360352
1772729586679904300,3.023904296875,0.5156011581420898,0.8146805763244629,0.09006917476654053
1772729586689422300,3.03342236328125,0.6229963302612305,0.7941265106201172,0.11785367131233215
1772729586698940700,3.042940673828125,0.7493076324462891,0.8139142990112305,0.1254996955394745
1772729586708459000,3.052458984375,0.8802652359008789,0.8833909034729004,0.1261531114578247
1772729586717977000,3.06197705078125,1.0162057876586914,0.9447598457336426,0.1300201416015625
1772729586727495400,3.071495361328125,1.1316490173339844,0.9896988868713379,0.18817368149757385
1772729586737013500,3.081013427734375,1.2082748413085938,0.9455094337463379,0.20907382667064667
1772729586746531800,3.09053173828125,1.309046745300293,0.8991427421569824,0.22774487733840942
1772729586756050200,3.10005029296875,1.2606306076049805,0.8227653503417969,0.07129329442977905
1772729586765568300,3.109568359375,1.1591777801513672,0.7779150009155273,-0.10491591691970825
1772729586775086600,3.119086669921875,0.9879989624023438,0.7479062080383301,-0.2716100215911865
1772729586784604700,3.128604736328125,0.8111238479614258,0.7575087547302246,-0.42002588510513306
1772729586794123000,3.138123046875,0.5753936767578125,0.8245725631713867,-0.5705466270446777
1772729586803641000,3.14764111328125,0.37288379669189453,0.9009494781494141,-0.6275285482406616
1772729586813159400,3.157159423828125,0.1639852523803711,0.9270172119140625,-0.5738845467567444
1772729586822677800,3.166677734375,0.011785507202148438,0.9911127090454102,-0.5214128494262695
1772729586832195800,3.17619580078125,-0.10927772521972656,0.9786529541015625,-0.39001956582069397
1772729586841714200,3.185714111328125,-0.11490249633789062,0.9539871215820312,-0.27404043078422546
1772729586851232300,3.195232177734375,0.0030221939086914062,0.8948655128479004,-0.08729210495948792
1772729586860750600,3.20475048828125,0.29169654846191406,0.8255667686462402,0.01382872462272644
1772729586870269000,3.21426904296875,0.6322669982910156,0.6280412673950195,0.09932965040206909
1772729586879787000,3.223787109375,0.954594612121582,0.27175188064575195,0.17818202078342438
1772729586889305300,3.233305419921875,1.262995719909668,-0.20760869979858398,0.2638854384422302
1772729586898823400,3.242823486328125,1.514190673828125,-0.6794381141662598,0.19979657232761383
1772729586908341800,3.252341796875,1.6532621383666992,-1.2094078063964844,0.12024077773094177
1772729586917859800,3.26185986328125,1.6037235260009766,-1.6262879371643066,0.07454729080200195
1772729586927378200,3.271378173828125,1.481851577758789,-1.975193977355957,0.029860258102416992
1772729586936896500,3.280896484375,1.2334308624267578,-2.194772481918335,0.037776485085487366
1772729586946414600,3.29041455078125,0.8420820236206055,-2.2444698810577393,-0.06809678673744202
1772729586955932700,3.2999326171875,0.3789558410644531,-2.2091219425201416,-0.2087966501712799
1772729586965451000,3.309450927734375,-0.06644058227539062,-2.1441216468811035,-0.3069274425506592
1772729586974969300,3.31896923828125,-0.5391626358032227,-2.060847282409668,-0.2905714511871338
1772729586984487400,3.3284873046875,-0.9627180099487305,-1.9513354301452637,-0.28239622712135315
1772729586994005800,3.338005859375,-1.3039650917053223,-1.7739291191101074,-0.2273063361644745
1772729587003523800,3.34752392578125,-1.6635746955871582,-1.587048053741455,-0.10338318347930908
1772729587013042200,3.357042236328125,-1.9725346565246582,-1.394129753112793,0.07333758473396301
1772729587022560300,3.366560302734375,-2.1353321075439453,-1.256612777709961,0.26226606965065
1772729587032078600,3.37607861328125,-2.161134719848633,-1.1221017837524414,0.3976176679134369
1772729587041597000,3.385596923828125,-2.1103267669677734,-1.0044193267822266,0.32999345660209656
1772729587051115000,3.395114990234375,-1.8703875541687012,-0.9139409065246582,0.23469360172748566
1772729587060633300,3.40463330078125,-1.4973745346069336,-0.9006414413452148,0.14381104707717896
1772729587070151400,3.4141513671875,-1.024984359741211,-0.8840374946594238,-0.03828266263008118
1772729587079669800,3.423669677734375,-0.5939130783081055,-0.9321126937866211,-0.1710372269153595
1772729587089188000,3.43318798828125,-0.20119190216064453,-0.9890127182006836,-0.22745689749717712
1772729587098706200,3.4427060546875,0.25406646728515625,-1.0090293884277344,-0.31928300857543945
1772729587108224500,3.452224609375,0.5836000442504883,-1.0085482597351074,-0.45151013135910034
1772729587117742600,3.46174267578125,0.8425083160400391,-0.9388885498046875,-0.5388238430023193
1772729587127261000,3.471260986328125,1.006148338317871,-0.8769116401672363,-0.5723980665206909
1772729587136779000,3.480779052734375,0.9937353134155273,-0.7396445274353027,-0.5511246919631958
1772729587146297300,3.49029736328125,0.8363218307495117,-0.5579018592834473,-0.5433279275894165
1772729587155815700,3.499815673828125,0.5568609237670898,-0.3562164306640625,-0.525097131729126
1772729587165333800,3.509333740234375,0.2206125259399414,-0.14842557907104492,-0.5007244944572449
1772729587174852000,3.51885205078125,-0.14083290100097656,0.01854991912841797,-0.5019410848617554
1772729587184370200,3.5283701171875,-0.5008306503295898,0.2007617950439453,-0.49232640862464905
1772729587193888500,3.537888427734375,-0.8256931304931641,0.3229207992553711,-0.4161675274372101
1772729587203406800,3.54740673828125,-1.1412124633789062,0.4239654541015625,-0.33044224977493286
1772729587212925000,3.556925048828125,-1.312779426574707,0.470339298248291,-0.25212740898132324
1772729587222443000,3.566443115234375,-1.3918070793151855,0.4898209571838379,-0.17265471816062927
1772729587231961300,3.57596142578125,-1.337702751159668,0.4653587341308594,-0.17374113202095032
1772729587241479400,3.5854794921875,-1.1831893920898438,0.46715879440307617,-0.23304200172424316
1772729587250997800,3.594997802734375,-0.9649887084960938,0.3947262763977051,-0.22994455695152283
1772729587260516000,3.60451611328125,-0.6791019439697266,0.32434749603271484,-0.18385687470436096
1772729587270034200,3.6140341796875,-0.4459056854248047,0.25606203079223633,-0.12884119153022766
1772729587279552500,3.623552490234375,-0.2186279296875,0.2592792510986328,-0.0859634280204773
1772729587289070600,3.633070556640625,-0.0632781982421875,0.31804561614990234,-0.10554394125938416
1772729587298589000,3.6425888671875,0.008584976196289062,0.3577733039855957,-0.10493671894073486
1772729587308107300,3.652107177734375,0.05208778381347656,0.3806948661804199,-0.11682307720184326
1772729587317625300,3.661625244140625,0.07894420623779297,0.39922523498535156,-0.18944093585014343
1772729587327143700,3.671143798828125,0.07946395874023438,0.40894126892089844,-0.2764010727405548
1772729587336661800,3.680661865234375,0.06286048889160156,0.4225778579711914,-0.29666489362716675
1772729587346180000,3.69018017578125,-0.04784393310546875,0.4460477828979492,-0.294482558965683
1772729587355698200,3.6996982421875,-0.11468791961669922,0.47332334518432617,-0.29682475328445435
1772729587365216500,3.709216552734375,-0.1693887710571289,0.5387415885925293,-0.32853221893310547
1772729587374734800,3.71873486328125,-0.16936969757080078,0.6546711921691895,-0.44818463921546936
1772729587384253000,3.7282529296875,-0.16283226013183594,0.7570476531982422,-0.46849924325942993
1772729587393771300,3.737771240234375,-0.12131023406982422,0.8676095008850098,-0.46287375688552856
1772729587403289300,3.747289306640625,0.014830589294433594,0.9193825721740723,-0.47809702157974243
1772729587412807700,3.7568076171875,0.17160320281982422,0.9455938339233398,-0.5154263377189636
1772729587422325800,3.76632568359375,0.33502197265625,0.9361696243286133,-0.49690473079681396
1772729587431844000,3.775843994140625,0.44089603424072266,0.8550076484680176,-0.3731746971607208
1772729587441362200,3.785362060546875,0.5446748733520508,0.7875127792358398,-0.296573668718338
1772729587450880500,3.794880615234375,0.7326574325561523,0.7592501640319824,-0.2696388065814972
1772729587460398600,3.804398681640625,0.936370849609375,0.7803969383239746,-0.3017057478427887
1772729587469917000,3.8139169921875,1.0849151611328125,0.7779688835144043,-0.35866227746009827
1772729587479435300,3.823435302734375,1.1768112182617188,0.7172961235046387,-0.3019474148750305
1772729587488953300,3.832953369140625,1.1576595306396484,0.6051130294799805,-0.21159780025482178
1772729587498471700,3.8424716796875,1.1330785751342773,0.5651922225952148,-0.14677047729492188
1772729587507989800,3.85198974609375,1.055302619934082,0.6166443824768066,-0.24089226126670837
1772729587517508000,3.861508056640625,0.9028568267822266,0.7166438102722168,-0.43649858236312866
1772729587527026400,3.8710263671875,0.701380729675293,0.7543683052062988,-0.5765610337257385
1772729587536544500,3.88054443359375,0.4474964141845703,0.7557787895202637,-0.6731549501419067
1772729587546062600,3.8900625,0.2524585723876953,0.7466177940368652,-0.7747172117233276
1772729587555581000,3.899580810546875,0.06476879119873047,0.748011589050293,-0.8662422299385071
1772729587565099300,3.909099365234375,-0.08084869384765625,0.7544236183166504,-0.9381201267242432
1772729587574617300,3.918617431640625,-0.137786865234375,0.7220292091369629,-0.9767833948135376
1772729587584135700,3.9281357421875,-0.06371593475341797,0.7326312065124512,-0.9829291105270386
1772729587593653800,3.93765380859375,0.052613258361816406,0.7289509773254395,-1.003819227218628
1772729587603172000,3.947172119140625,0.23270702362060547,0.6439599990844727,-0.9841853380203247
1772729587612690200,3.956690185546875,0.45523548126220703,0.46067237854003906,-0.9596660137176514
1772729587622208500,3.96620849609375,0.7202787399291992,0.24347829818725586,-0.8707708716392517
1772729587631726800,3.975726806640625,0.9536962509155273,-0.019504547119140625,-0.733418345451355
1772729587641245000,3.985244873046875,1.1654157638549805,-0.30491209030151367,-0.6327019929885864
1772729587650763300,3.99476318359375,1.3350028991699219,-0.5738401412963867,-0.73433518409729
1772729587660281300,4.00428125,1.5095014572143555,-0.9436111450195312,-0.7795288562774658
1772729587669799700,4.013799560546875,1.4684267044067383,-1.3449125289916992,-0.9110321998596191
1772729587679317800,4.02331787109375,1.3159303665161133,-1.7050871849060059,-1.0388262271881104
1772729587688836000,4.032836181640625,1.004852294921875,-1.981287956237793,-1.2592685222625732
1772729587698354400,4.0423544921875,0.6019783020019531,-2.05790376663208,-1.4940468072891235
1772729587707872500,4.05187255859375,0.21407604217529297,-1.9719643592834473,-1.8183423280715942
1772729587717390800,4.061390869140625,-0.13617801666259766,-1.7483935356140137,-2.1203954219818115
1772729587726909000,4.070908935546875,-0.4189939498901367,-1.5937390327453613,-2.2888858318328857
1772729587736427300,4.08042724609375,-0.7099118232727051,-1.4560012817382812,-2.293156862258911
1772729587745945300,4.0899453125,-0.9362173080444336,-1.3812518119812012,-2.192413568496704
1772729587755463700,4.099463623046875,-1.1205940246582031,-1.3202199935913086,-2.0686628818511963
1772729587764981800,4.108981689453125,-1.1635398864746094,-1.2122340202331543,-1.9008938074111938
1772729587774500000,4.1185,-1.1302886009216309,-1.1257662773132324,-1.6945908069610596
1772729587784018200,4.12801806640625,-0.9087820053100586,-1.0986976623535156,-1.4605532884597778
1772729587793536500,4.13753662109375,-0.6591405868530273,-1.0760908126831055,-1.1592411994934082
1772729587803054800,4.147054931640625,-0.33576202392578125,-1.1275334358215332,-0.875498354434967
1772729587812573000,4.156572998046875,0.05706596374511719,-1.2204632759094238,-0.6553648710250854
1772729587822091300,4.16609130859375,0.40803050994873047,-1.2753801345825195,-0.5828467607498169
1772729587831609300,4.175609375,0.6919965744018555,-1.384962558746338,-0.5201506614685059
1772729587841127700,4.185127685546875,0.9436111450195312,-1.4890518188476562,-0.4017767906188965
1772729587850646000,4.19464599609375,1.1425905227661133,-1.5515265464782715,-0.37609806656837463
1772729587860164000,4.2041640625,1.177994728088379,-1.612605094909668,-0.3199104070663452
1772729587869682200,4.21368212890625,1.0632286071777344,-1.63795804977417,-0.342822402715683
1772729587879200500,4.223200439453125,0.8686723709106445,-1.5591540336608887,-0.45325466990470886
1772729587888718600,4.232718505859375,0.6522121429443359,-1.3908238410949707,-0.6281123161315918
1772729587898237000,4.24223681640625,0.4066333770751953,-1.1829314231872559,-0.9099414348602295
1772729587907755300,4.25175537109375,0.047863006591796875,-1.0348701477050781,-1.019028902053833
1772729587917273300,4.2612734375,-0.28881072998046875,-0.9616332054138184,-1.0164892673492432
1772729587926791700,4.270791748046875,-0.6404175758361816,-0.9039793014526367,-0.9250869154930115
1772729587936309800,4.280309814453125,-0.8911008834838867,-0.7885537147521973,-0.8459120988845825
1772729587945828000,4.289828125,-1.087315559387207,-0.6452412605285645,-0.8104861378669739
1772729587955346400,4.299346435546875,-1.1629791259765625,-0.5304455757141113,-0.7497292757034302
1772729587964864500,4.308864501953125,-1.2260565757751465,-0.37450408935546875,-0.7148029804229736
1772729587974382800,4.3183828125,-1.1453227996826172,-0.27298450469970703,-0.6106003522872925
1772729587983901000,4.32790087890625,-1.0378284454345703,-0.20711660385131836,-0.45873260498046875
1772729587993419000,4.3374189453125,-0.9200973510742188,-0.12715387344360352,-0.3116987943649292
1772729588002937300,4.346937255859375,-0.7967715263366699,-0.02628469467163086,-0.15352311730384827
1772729588012455700,4.35645556640625,-0.7347421646118164,0.0668177604675293,-0.03583124279975891
1772729588021973800,4.365973876953125,-0.628875732421875,0.18335533142089844,0.023401319980621338
1772729588031492000,4.3754921875,-0.46950626373291016,0.2944016456604004,-0.08245307207107544
1772729588041010200,4.38501025390625,-0.28022003173828125,0.36598920822143555,-0.21786004304885864
1772729588050528500,4.394528564453125,-0.07709026336669922,0.34467315673828125,-0.369390606880188
1772729588060046800,4.404046875,0.1501626968383789,0.270050048828125,-0.4296477437019348
1772729588069565000,4.41356494140625,0.3352165222167969,0.19858837127685547,-0.43897441029548645
1772729588079083300,4.423083251953125,0.5311031341552734,0.20120668411254883,-0.43103456497192383
1772729588088601300,4.432601318359375,0.7023220062255859,0.2222762107849121,-0.42745867371559143
1772729588098119400,4.442119384765625,0.8466377258300781,0.29013681411743164,-0.4511023163795471
1772729588107637800,4.4516376953125,0.8995752334594727,0.3640604019165039,-0.4381081461906433
1772729588117156000,4.461156005859375,0.9375534057617188,0.40120887756347656,-0.4111729562282562
1772729588126674200,4.470674072265625,0.9723300933837891,0.4232511520385742,-0.363582968711853
1772729588136192500,4.480192626953125,0.9201507568359375,0.4708251953125,-0.33816221356391907
1772729588145710600,4.489710693359375,0.8285741806030273,0.5514030456542969,-0.3280724585056305
1772729588155229000,4.49922900390625,0.6951761245727539,0.5792150497436523,-0.3264439105987549
1772729588164747300,4.508747314453125,0.5726394653320312,0.6212577819824219,-0.331887811422348
1772729588174265300,4.518265380859375,0.37505626678466797,0.682375431060791,-0.4028794765472412
1772729588183783700,4.52778369140625,0.19122314453125,0.7720227241516113,-0.5284988880157471
1772729588193301800,4.5373017578125,0.07387828826904297,0.8185491561889648,-0.707934558391571
1772729588202820000,4.546820068359375,-0.02716064453125,0.8484687805175781,-0.9540004730224609
1772729588212338200,4.556338134765625,-0.0714731216430664,0.8097367286682129,-1.1831669807434082
1772729588221856500,4.5658564453125,-0.07844066619873047,0.741030216217041,-1.3438875675201416
1772729588231374600,4.57537451171875,-0.07695198059082031,0.6568474769592285,-1.444010853767395
1772729588240893000,4.584892822265625,-0.0745401382446289,0.5814590454101562,-1.502509593963623
1772729588250411000,4.594410888671875,-0.12418937683105469,0.5130167007446289,-1.526733160018921
1772729588259929300,4.603929443359375,-0.16403770446777344,0.49497556686401367,-1.5665881633758545
1772729588269447700,4.61344775390625,-0.1779184341430664,0.5353965759277344,-1.602607011795044
1772729588278965800,4.6229658203125,-0.09960460662841797,0.6090054512023926,-1.5920329093933105
1772729588288484000,4.632484130859375,0.0271148681640625,0.6809062957763672,-1.573298692703247
1772729588298002200,4.642002197265625,0.15614604949951172,0.6471772193908691,-1.5016498565673828
1772729588307520500,4.6515205078125,0.4327526092529297,0.6045293807983398,-1.3467864990234375
1772729588317038600,4.66103857421875,0.8925771713256836,0.5481071472167969,-1.2234011888504028
1772729588326557000,4.670556884765625,1.3517389297485352,0.4386453628540039,-1.2163410186767578
1772729588336075000,4.680074951171875,1.7151918411254883,0.20523881912231445,-1.1906664371490479
1772729588345593300,4.68959326171875,2.036759376525879,-0.13582849502563477,-1.093027114868164
1772729588355111400,4.699111328125,2.272494316101074,-0.5446248054504395,-1.156516194343567
1772729588364629800,4.708629638671875,2.3211450576782227,-1.0185890197753906,-1.2046749591827393
1772729588374148000,4.718148193359375,2.284918785095215,-1.3803887367248535,-1.359894871711731
1772729588383666200,4.727666259765625,2.1317739486694336,-1.542478084564209,-1.5858724117279053
1772729588393184500,4.7371845703125,1.8482704162597656,-1.516866683959961,-1.8678133487701416
1772729588402702600,4.74670263671875,1.448904037475586,-1.3862075805664062,-2.092169761657715
1772729588412221000,4.756220947265625,1.0739898681640625,-1.2680115699768066,-2.1350855827331543
1772729588421739000,4.765739013671875,0.7771139144897461,-1.1957316398620605,-2.0711026191711426
1772729588431257300,4.77525732421875,0.4584369659423828,-1.1310176849365234,-1.9774351119995117
1772729588440775400,4.784775390625,0.14687728881835938,-1.07124662399292,-1.8120441436767578
1772729588450293800,4.794293701171875,-0.05465412139892578,-1.0115065574645996,-1.6102776527404785
1772729588459811800,4.803811767578125,-0.17437171936035156,-0.9473953247070312,-1.4397234916687012
1772729588469330200,4.813330078125,-0.2689342498779297,-0.946530818939209,-1.3332529067993164
1772729588478848500,4.8228486328125,-0.34187889099121094,-1.0507373809814453,-1.2809131145477295
1772729588488366600,4.83236669921875,-0.33359766006469727,-1.226475715637207,-1.224930763244629
1772729588497885000,4.841885009765625,-0.21256637573242188,-1.3906149864196777,-1.2301828861236572
1772729588507403000,4.851403076171875,0.0007162094116210938,-1.492016315460205,-1.416182518005371
1772729588516921000,4.860921142578125,0.23352527618408203,-1.6019229888916016,-1.5498216152191162
1772729588526439400,4.870439453125,0.46364593505859375,-1.7942476272583008,-1.5979444980621338
1772729588535957800,4.879957763671875,0.6090183258056641,-2.006507396697998,-1.5505489110946655
1772729588545475800,4.889475830078125,0.7261619567871094,-2.1788878440856934,-1.5013949871063232
1772729588554994200,4.898994140625,0.6989984512329102,-2.2939155101776123,-1.524451732635498
1772729588564512300,4.90851220703125,0.5950345993041992,-2.345198154449463,-1.5825889110565186
1772729588574030600,4.918030517578125,0.4049844741821289,-2.330437183380127,-1.6411590576171875
1772729588583549000,4.927548828125,0.17189693450927734,-2.249096393585205,-1.742329478263855
1772729588593067000,4.93706689453125,-0.04455280303955078,-2.110106945037842,-1.8244612216949463
1772729588602585300,4.94658544921875,-0.1778573989868164,-1.9582200050354004,-1.871819257736206
1772729588612103400,4.956103515625,-0.3411531448364258,-1.8140387535095215,-1.9142539501190186
1772729588621621500,4.96562158203125,-0.5043497085571289,-1.7455673217773438,-1.8657582998275757
1772729588631139800,4.975139892578125,-0.6281709671020508,-1.7104034423828125,-1.707183837890625
1772729588640658000,4.984657958984375,-0.7715392112731934,-1.6491777896881104,-1.5147862434387207
1772729588650176300,4.99417626953125,-0.8566932678222656,-1.5365266799926758,-1.4072284698486328
1772729588659694600,5.003694580078125,-0.8462767601013184,-1.3974719047546387,-1.3931782245635986
1772729588669212700,5.013212646484375,-0.7190942764282227,-1.2386507987976074,-1.4274481534957886
1772729588678731000,5.02273095703125,-0.5444192886352539,-1.0936264991760254,-1.4099206924438477
1772729588688249300,5.032249267578125,-0.3721914291381836,-1.010566234588623,-1.3194608688354492
1772729588697767400,5.041767333984375,-0.1680002212524414,-0.966789722442627,-1.146101951599121
1772729588707285500,5.051285400390625,0.10988807678222656,-0.9518985748291016,-0.9361451864242554
1772729588716803800,5.060803955078125,0.4292459487915039,-0.9104976654052734,-0.8120281100273132
1772729588726322000,5.070322021484375,0.7313938140869141,-0.8467025756835938,-0.7475727796554565
1772729588735840300,5.07984033203125,0.9978742599487305,-0.8235888481140137,-0.6472609043121338
1772729588745358600,5.089358642578125,1.1837024688720703,-0.7844724655151367,-0.5598033666610718
1772729588754876700,5.098876708984375,1.324986457824707,-0.8087277412414551,-0.5379776358604431
1772729588764395000,5.10839501953125,1.5034456253051758,-0.8490972518920898,-0.4663579761981964
1772729588773913000,5.1179130859375,1.7912540435791016,-0.8349432945251465,-0.4114009141921997
1772729588783431400,5.127431396484375,1.9474773406982422,-0.8086538314819336,-0.3282155394554138
1772729588792949500,5.136949462890625,2.020395278930664,-0.7764370441436768,-0.16740769147872925
1772729588802467800,5.1464677734375,2.0366554260253906,-0.8322291374206543,0.021639704704284668
1772729588811986000,5.15598583984375,1.9437942504882812,-0.8827183246612549,0.20497405529022217
1772729588821504300,5.165504150390625,1.7730474472045898,-0.8273944854736328,0.2995426058769226
1772729588831022300,5.175022216796875,1.5983448028564453,-0.7705731391906738,0.3762655258178711
1772729588840540700,5.184540771484375,1.4264335632324219,-0.6824233531951904,0.40643811225891113
1772729588850059000,5.19405908203125,1.2449235916137695,-0.576310396194458,0.4033132791519165
1772729588859577000,5.2035771484375,1.065089225769043,-0.558570146560669,0.38959771394729614
1772729588869095200,5.21309521484375,0.8673563003540039,-0.6236405372619629,0.46988195180892944
1772729588878613500,5.222613525390625,0.6874103546142578,-0.6995649337768555,0.5589211583137512
1772729588888131800,5.2321318359375,0.5373144149780273,-0.743689775466919,0.5730186104774475
1772729588897650000,5.24164990234375,0.4269256591796875,-0.7351715564727783,0.5683333873748779
1772729588907168300,5.251168212890625,0.3110074996948242,-0.6792392730712891,0.6516073942184448
1772729588916686300,5.260686279296875,0.1775646209716797,-0.5448603630065918,0.7606593370437622
1772729588926204700,5.27020458984375,-0.00939178466796875,-0.44154977798461914,0.8619768023490906
1772729588935722800,5.27972265625,-0.09249114990234375,-0.2968449592590332,0.9497595429420471
1772729588945241000,5.289240966796875,-0.19639873504638672,-0.1292414665222168,0.9184188842773438
1772729588954759200,5.29875927734375,-0.2041482925415039,-0.005347728729248047,0.8244348764419556
1772729588964277500,5.308277587890625,-0.15166473388671875,0.11569786071777344,0.734826385974884
1772729588973795600,5.317795654296875,0.04228782653808594,0.20488500595092773,0.7111467719078064
1772729588983314000,5.32731396484375,0.21990108489990234,0.29730939865112305,0.702039897441864
1772729588992832300,5.336832275390625,0.33837318420410156,0.33491992950439453,0.7843676805496216
1772729589002350300,5.346350341796875,0.5558404922485352,0.31682586669921875,0.7770512104034424
1772729589011868700,5.35586865234375,0.7242841720581055,0.3615560531616211,0.7261185646057129
1772729589021386800,5.36538671875,0.8464508056640625,0.33428335189819336,0.6083465218544006
1772729589030905000,5.374905029296875,0.9179573059082031,0.29648923873901367,0.5447766184806824
1772729589040423200,5.384423095703125,0.927215576171875,0.17632055282592773,0.4946916699409485
1772729589049941500,5.39394140625,0.8720970153808594,0.045575618743896484,0.415436327457428
1772729589059459600,5.40345947265625,0.7431726455688477,0.009521484375,0.29390794038772583
1772729589068978000,5.41297802734375,0.5213499069213867,0.001999378204345703,0.13417565822601318
1772729589078496000,5.42249609375,0.247100830078125,-0.006639003753662109,-0.08047199249267578
1772729589088014300,5.432014404296875,-0.0035848617553710938,0.08316421508789062,-0.4076037108898163
1772729589097532400,5.441532470703125,-0.30788230895996094,0.1561293601989746,-0.720915675163269
1772729589107050800,5.45105078125,-0.5714492797851562,0.24838638305664062,-0.8899874687194824
1772729589116568800,5.46056884765625,-0.7480425834655762,0.40068912506103516,-1.0162861347198486
1772729589126087200,5.470087158203125,-0.8224029541015625,0.5744390487670898,-1.1323515176773071
1772729589135605500,5.47960546875,-0.8578081130981445,0.6852965354919434,-1.079128384590149
1772729589145123600,5.48912353515625,-0.7096424102783203,0.627260684967041,-0.9382756948471069
1772729589154642000,5.498641845703125,-0.4743061065673828,0.5993638038635254,-0.7881236672401428
1772729589164160000,5.508159912109375,-0.16170883178710938,0.4892416000366211,-0.7409221529960632
1772729589173678000,5.517677978515625,0.19260120391845703,0.28870296478271484,-0.8435444831848145
1772729589183196400,5.527196533203125,0.5343542098999023,0.005635261535644531,-0.885900616645813
1772729589192714800,5.53671484375,0.8477258682250977,-0.4046487808227539,-0.8621240854263306
1772729589202232800,5.54623291015625,1.2010135650634766,-0.7414760589599609,-0.9020477533340454
1772729589211751200,5.555751220703125,1.5934791564941406,-0.9601125717163086,-1.0628174543380737
1772729589221269200,5.565269287109375,1.9622020721435547,-1.0299382209777832,-1.2100725173950195
1772729589230787600,5.57478759765625,2.2583980560302734,-1.0678608417510986,-1.3012417554855347
1772729589240305700,5.5843056640625,2.4688329696655273,-1.0969738960266113,-1.2300455570220947
1772729589249824000,5.593823974609375,2.565349578857422,-1.1752171516418457,-1.0662999153137207
1772729589259342000,5.603342041015625,2.519590377807617,-1.2668910026550293,-0.8582671284675598
1772729589268860400,5.6128603515625,2.3864240646362305,-1.3832874298095703,-0.607525646686554
1772729589278378500,5.62237841796875,2.2489099502563477,-1.463449239730835,-0.42258620262145996
1772729589287896800,5.631896728515625,2.0324039459228516,-1.4800491333007812,-0.2509419322013855
1772729589297415000,5.641414794921875,1.80108642578125,-1.4777758121490479,-0.1015363559126854
1772729589306933200,5.650933349609375,1.5429649353027344,-1.5089142322540283,0.02032749354839325
1772729589316451300,5.660451416015625,1.272578239440918,-1.6569604873657227,0.11411740630865097
1772729589325969700,5.6699697265625,0.9300785064697266,-1.8183441162109375,0.21892587840557098
1772729589335488000,5.679488037109375,0.5273933410644531,-1.854029655456543,0.33959731459617615
1772729589345006000,5.689006103515625,0.1622629165649414,-1.7852163314819336,0.38948798179626465
1772729589354524400,5.6985244140625,-0.17525005340576172,-1.6904044151306152,0.38769569993019104
1772729589364042500,5.70804248046875,-0.5023488998413086,-1.6119673252105713,0.4042910933494568
1772729589373560600,5.717560546875,-0.8073406219482422,-1.5806865692138672,0.41376811265945435
1772729589383079000,5.727078857421875,-1.0644149780273438,-1.5911636352539062,0.4176948666572571
1772729589392597200,5.73659716796875,-1.3123316764831543,-1.5687034130096436,0.36997249722480774
1772729589402115300,5.746115234375,-1.4655470848083496,-1.4653027057647705,0.34050247073173523
1772729589411633700,5.755633544921875,-1.5125398635864258,-1.3121066093444824,0.38321369886398315
1772729589421151700,5.76515185546875,-1.4964442253112793,-1.1692657470703125,0.45654556155204773
1772729589430670000,5.774670166015625,-1.3955559730529785,-1.0015819072723389,0.5452342629432678
1772729589440188200,5.784188232421875,-1.3290157318115234,-0.8883552551269531,0.6218377351760864
1772729589449706500,5.79370654296875,-1.303804874420166,-0.779266357421875,0.7275403738021851
1772729589459224600,5.803224609375,-1.2554240226745605,-0.7313613891601562,0.828335702419281
1772729589468743000,5.812742919921875,-1.2415456771850586,-0.6196331977844238,0.8643883466720581
1772729589478261000,5.822260986328125,-1.2530336380004883,-0.4647679328918457,0.8705276250839233
1772729589487779300,5.831779296875,-1.218907356262207,-0.2704505920410156,0.8226332664489746
1772729589497297700,5.841297607421875,-1.213916301727295,-0.15500307083129883,0.7560986280441284
1772729589506815700,5.850815673828125,-1.1550617218017578,-0.03838682174682617,0.7131097316741943
1772729589516333800,5.860333740234375,-1.0759162902832031,0.05560588836669922,0.6858361959457397
1772729589525852200,5.86985205078125,-0.9190359115600586,0.11466073989868164,0.6482305526733398
1772729589535370500,5.87937060546875,-0.7079267501831055,0.15692424774169922,0.5864912271499634
1772729589544888600,5.888888671875,-0.43933963775634766,0.23560476303100586,0.5720517039299011
1772729589554407000,5.898406982421875,-0.12642955780029297,0.34591102600097656,0.5335323810577393
1772729589563925000,5.907925048828125,0.16037845611572266,0.37797975540161133,0.48791903257369995
1772729589573443000,5.917443115234375,0.47972583770751953,0.3486618995666504,0.5407471060752869
1772729589582961400,5.92696142578125,0.7131433486938477,0.3326711654663086,0.5138714909553528
1772729589592479700,5.936479736328125,0.9093637466430664,0.32599592208862305,0.42690423130989075
1772729589601997800,5.945997802734375,1.0974855422973633,0.30626726150512695,0.38665568828582764
1772729589611516200,5.95551611328125,1.2108573913574219,0.3518848419189453,0.34010422229766846
1772729589621034200,5.9650341796875,1.2493104934692383,0.3750457763671875,0.3492790162563324
1772729589630552600,5.974552490234375,1.2243976593017578,0.4389381408691406,0.4347081184387207
1772729589640070700,5.984070556640625,1.1664342880249023,0.5404353141784668,0.49587124586105347
1772729589649589000,5.993589111328125,1.074782371520996,0.6404500007629395,0.522742748260498
1772729589659107000,6.003107177734375,0.9608058929443359,0.7666454315185547,0.593490481376648
1772729589668625200,6.012625244140625,0.8430280685424805,0.767486572265625,0.6616759896278381
1772729589678143500,6.0221435546875,0.732966423034668,0.7491569519042969,0.7188427448272705
1772729589687661800,6.031661865234375,0.6112880706787109,0.702549934387207,0.7484613656997681
1772729589697180000,6.041179931640625,0.5471601486206055,0.6875381469726562,0.671893835067749
1772729589706698200,6.0506982421875,0.4881725311279297,0.6797399520874023,0.5708513259887695
1772729589716216300,6.06021630859375,0.4345874786376953,0.6810035705566406,0.45671409368515015
1772729589725734700,6.069734619140625,0.4797506332397461,0.7075552940368652,0.33672618865966797
1772729589735253000,6.0792529296875,0.40134716033935547,0.6951632499694824,0.3147677481174469
1772729589744771000,6.08877099609375,0.25636768341064453,0.628262996673584,0.4132532477378845
1772729589754289200,6.0982890625,0.1132364273071289,0.5849065780639648,0.46473777294158936
1772729589763807500,6.107807373046875,-0.05784893035888672,0.5859575271606445,0.4599895179271698
1772729589773325600,6.11732568359375,-0.21788597106933594,0.6242465972900391,0.49082207679748535
1772729589782844000,6.126843994140625,-0.2637166976928711,0.6045570373535156,0.5887031555175781
1772729589792362200,6.1363623046875,-0.17552852630615234,0.5864038467407227,0.5926628112792969
1772729589801880300,6.14588037109375,0.06509876251220703,0.5728678703308105,0.45509517192840576
1772729589811398400,6.1553984375,0.39440155029296875,0.3980746269226074,0.2756117880344391
1772729589820916700,6.164916748046875,0.732579231262207,0.14400100708007812,0.2372230887413025
1772729589830435000,6.17443505859375,1.098118782043457,-0.23720455169677734,0.33815890550613403
1772729589839953200,6.183953125,1.483931541442871,-0.5823941230773926,0.44812941551208496
1772729589849471500,6.193471435546875,1.8118667602539062,-0.8445260524749756,0.42945346236228943
1772729589858989600,6.202989501953125,2.0634260177612305,-1.0888128280639648,0.3602527379989624
1772729589868507600,6.212507568359375,2.1908750534057617,-1.2575836181640625,0.31095415353775024
1772729589878026000,6.22202587890625,2.236722946166992,-1.3591485023498535,0.20988306403160095
1772729589887544300,6.23154443359375,2.094792366027832,-1.3671059608459473,0.04902443289756775
1772729589897062400,6.2410625,1.6697940826416016,-1.3789329528808594,0.00995326042175293
1772729589906580700,6.250580810546875,1.1400442123413086,-1.382300853729248,0.13017573952674866
1772729589916098800,6.260098876953125,0.5607728958129883,-1.3012375831604004,0.3014644980430603
1772729589925617200,6.2696171875,0.022336959838867188,-1.1665704250335693,0.4403078854084015
1772729589935135200,6.27913525390625,-0.4999094009399414,-0.9561767578125,0.5547966957092285
1772729589954171600,6.298171630859375,-1.4007258415222168,-0.6795492172241211,0.8159365057945251
1772729589963690000,6.30768994140625,-1.6990365982055664,-0.6167426109313965,0.8972938656806946
1772729589973208000,6.3172080078125,-1.9132633209228516,-0.6001505851745605,0.9372961521148682
1772729589982726400,6.326726318359375,-1.9514007568359375,-0.5545468330383301,0.9314877390861511
1772729589992244500,6.336244384765625,-1.8304052352905273,-0.5281577110290527,0.8824504017829895
1772729590001762800,6.3457626953125,-1.5419721603393555,-0.5781831741333008,0.7621951103210449
1772729590011281000,6.355281005859375,-1.1317663192749023,-0.6055164337158203,0.6915802359580994
1772729590020799200,6.36479931640625,-0.6710152626037598,-0.6816658973693848,0.6751836538314819
1772729590030317600,6.374317626953125,-0.23531532287597656,-0.7734417915344238,0.6369497776031494
1772729590039835600,6.383835693359375,0.03502941131591797,-0.8568315505981445,0.6288658380508423
1772729590049353700,6.393353759765625,0.21384716033935547,-0.8898115158081055,0.5975715517997742
1772729590058872000,6.4028720703125,0.2809171676635742,-0.8246560096740723,0.49660810828208923
1772729590068390400,6.412390380859375,0.3587484359741211,-0.6463742256164551,0.32622575759887695
1772729590077908500,6.421908447265625,0.30412960052490234,-0.4701042175292969,0.1948012411594391
1772729590087426600,6.431426513671875,0.06893348693847656,-0.37314701080322266,0.17609462141990662
1772729590096945000,6.44094482421875,-0.27385807037353516,-0.36681604385375977,0.30541592836380005
1772729590106463000,6.450462890625,-0.6259012222290039,-0.2966341972351074,0.4351544976234436
1772729590115981300,6.459981201171875,-0.965266227722168,-0.13553619384765625,0.4408565163612366
1772729590125499600,6.469499755859375,-1.176671028137207,0.06646013259887695,0.3747836947441101
1772729590135017700,6.479017822265625,-1.3406085968017578,0.2088923454284668,0.30567461252212524
1772729590144535800,6.488535888671875,-1.4221925735473633,0.2763547897338867,0.3490663766860962
1772729590154054100,6.49805419921875,-1.4386191368103027,0.27893686294555664,0.3986581265926361
1772729590163572500,6.507572509765625,-1.3539366722106934,0.27829408645629883,0.35595715045928955
1772729590173090600,6.517090576171875,-1.1941418647766113,0.24972820281982422,0.29004836082458496
1772729590182609000,6.52660888671875,-1.0087900161743164,0.2088470458984375,0.27044498920440674
1772729590192127000,6.536126953125,-0.8332867622375488,0.17891454696655273,0.3501693606376648
1772729590201645000,6.54564501953125,-0.6121625900268555,0.24255895614624023,0.46853795647621155
1772729590211163400,6.555163330078125,-0.30870914459228516,0.24033689498901367,0.6033411026000977
1772729590220681700,6.564681640625,-0.04833984375,0.2777843475341797,0.682266891002655
1772729590230199800,6.57419970703125,0.09359169006347656,0.28896522521972656,0.7682597041130066
1772729590239718100,6.58371826171875,0.15119457244873047,0.13958263397216797,0.8981856107711792
1772729590249236200,6.593236328125,0.2172069549560547,0.005118370056152344,1.0339264869689941
1772729590258754600,6.602754638671875,0.1175088882446289,-0.054836273193359375,0.9417089819908142
1772729590268272600,6.612272705078125,-0.02037811279296875,0.02769947052001953,0.6953801512718201
1772729590277791000,6.621791015625,0.011066436767578125,-0.04340410232543945,0.6845958828926086
1772729590287309000,6.63130908203125,0.1493082046508789,-0.15085268020629883,0.6500605344772339
1772729590296827400,6.640827392578125,0.17941951751708984,-0.1540842056274414,0.5414584279060364
1772729590306345500,6.650345458984375,0.247161865234375,-0.0031371116638183594,0.34325581789016724
1772729590315863800,6.65986376953125,0.2781639099121094,0.10628604888916016,0.14490777254104614
1772729590325382000,6.6693818359375,0.22650814056396484,0.18016862869262695,0.05602259933948517
1772729590334900200,6.678900146484375,0.2062368392944336,0.2819094657897949,-0.004382804036140442
1772729590344418300,6.688418212890625,0.20492839813232422,0.39310407638549805,-0.014882057905197144
1772729590353936600,6.6979365234375,0.25354766845703125,0.5138602256774902,0.027906648814678192
1772729590363454700,6.707454833984375,0.38553714752197266,0.5843210220336914,0.22595004737377167
1772729590372973000,6.71697314453125,0.5462875366210938,0.6372456550598145,0.37839868664741516
1772729590382491100,6.7264912109375,0.6791839599609375,0.6857523918151855,0.3478889465332031
1772729590392009200,6.73600927734375,0.8280973434448242,0.7021536827087402,0.30129048228263855
1772729590401527600,6.745527587890625,0.9292163848876953,0.6328296661376953,0.44435665011405945
1772729590411046000,6.7550458984375,0.9592475891113281,0.6227383613586426,0.48916471004486084
1772729590420564000,6.76456396484375,0.8966789245605469,0.5909175872802734,0.5914820432662964
1772729590430082300,6.774082275390625,0.7794885635375977,0.6218013763427734,0.5775290727615356
1772729590439600400,6.783600341796875,0.5763158798217773,0.723393440246582,0.4157627820968628
1772729590449118700,6.79311865234375,0.39165401458740234,0.8468484878540039,0.1399632692337036
1772729590458636800,6.80263671875,0.1671285629272461,1.0058870315551758,-0.17922735214233398
1772729590468155100,6.812155029296875,-0.09858036041259766,1.1287474632263184,-0.44504010677337646
1772729590477673200,6.821673095703125,-0.29959869384765625,1.2490534782409668,-0.6503125429153442
1772729590487191600,6.831191650390625,-0.37798595428466797,1.3308777809143066,-0.7698674201965332
1772729590496709600,6.840709716796875,-0.28022003173828125,1.406816005706787,-0.8830101490020752
1772729590506228000,6.85022802734375,0.03104686737060547,1.3915987014770508,-0.9337016344070435
1772729590515746000,6.85974609375,0.4290275573730469,1.2877001762390137,-0.853081226348877
1772729590525264400,6.869264404296875,0.8688478469848633,0.9011831283569336,-0.649776041507721
1772729590534782500,6.878782470703125,1.3280620574951172,0.4189028739929199,-0.39354750514030457
1772729590544300800,6.88830078125,1.7566184997558594,-0.10589361190795898,-0.26549017429351807
1772729590553819000,6.89781884765625,2.1195459365844727,-0.6452751159667969,-0.275940865278244
1772729590563337200,6.907337158203125,2.212132453918457,-1.2090306282043457,-0.3065791130065918
1772729590572855300,6.916855224609375,2.101186752319336,-1.673332929611206,-0.299439936876297
1772729590582373600,6.92637353515625,1.7666406631469727,-1.9174308776855469,-0.28735849261283875
1772729590591891700,6.9358916015625,1.3572282791137695,-1.905334711074829,-0.4411326050758362
1772729590601410000,6.94541015625,0.8578672409057617,-1.7165937423706055,-0.7805364727973938
1772729590610928000,6.95492822265625,0.2716693878173828,-1.477304458618164,-0.9569383859634399
1772729590620446500,6.964446533203125,-0.2653083801269531,-1.2696571350097656,-1.0174652338027954
1772729590629964500,6.973964599609375,-0.7202215194702148,-1.0635285377502441,-1.0156461000442505
1772729590639483000,6.98348291015625,-1.1463584899902344,-0.8789749145507812,-1.0356087684631348
1772729590649001000,6.9930009765625,-1.4413199424743652,-0.7438907623291016,-1.0084707736968994
1772729590658519300,7.002519287109375,-1.5331659317016602,-0.6562013626098633,-1.0247695446014404
1772729590668037400,7.012037353515625,-1.4590096473693848,-0.6743001937866211,-0.9936334490776062
1772729590677555700,7.0215556640625,-1.3622112274169922,-0.7858238220214844,-0.8627657890319824
1772729590687074000,7.031073974609375,-1.0965547561645508,-0.9527482986450195,-0.5781864523887634
1772729590696592100,7.040592041015625,-0.7447404861450195,-1.1239080429077148,-0.318135142326355
1772729590706110200,7.050110107421875,-0.3364439010620117,-1.21779203414917,-0.1443660855293274
1772729590715628500,7.059628662109375,-0.0011835098266601562,-1.2061514854431152,-0.01947113871574402
1772729590725146600,7.069146728515625,0.3944358825683594,-1.1995582580566406,0.043948277831077576
1772729590734665000,7.0786650390625,0.7448520660400391,-1.139073371887207,0.17409636080265045
1772729590744183000,7.08818310546875,1.0018692016601562,-1.1280021667480469,0.27797895669937134
1772729590753701400,7.097701416015625,1.028512954711914,-1.1849937438964844,0.44406858086586
1772729590763219500,7.107219482421875,0.9547367095947266,-1.2487103939056396,0.5773424506187439
1772729590772737800,7.11673779296875,0.8237428665161133,-1.2571344375610352,0.6097619533538818
1772729590782255900,7.126255859375,0.5685281753540039,-1.1406989097595215,0.5273696780204773
1772729590791774200,7.135774169921875,0.303497314453125,-0.9728784561157227,0.35742291808128357
1772729590801292300,7.145292236328125,-0.02911663055419922,-0.8079147338867188,0.18748578429222107
1772729590810810600,7.154810546875,-0.361175537109375,-0.7060914039611816,0.12931311130523682
1772729590820328700,7.16432861328125,-0.6939067840576172,-0.6417350769042969,0.135650634765625
1772729590829847000,7.173846923828125,-1.0311031341552734,-0.5269112586975098,0.09137371182441711
1772729590839365000,7.183365234375,-1.2455615997314453,-0.5242691040039062,0.27867984771728516
1772729590848883500,7.192883544921875,-1.4235138893127441,-0.26564931869506836,-0.06431543827056885
1772729590858401500,7.202401611328125,-1.541224479675293,0.16720151901245117,-0.40595316886901855
1772729590867920000,7.211919921875,-1.4614882469177246,0.2930178642272949,-0.32528799772262573
1772729590877438000,7.22143798828125,-1.455225944519043,0.2116374969482422,-0.037841737270355225
1772729590886956300,7.230956298828125,-1.5006427764892578,0.17225408554077148,0.20613360404968262
1772729590896474400,7.240474365234375,-1.4657764434814453,0.171966552734375,0.3965517580509186
1772729590905992700,7.24999267578125,-1.3000497817993164,0.19080352783203125,0.5070534944534302
1772729590915510800,7.2595107421875,-1.1386528015136719,0.25091075897216797,0.5282945036888123
1772729590925029000,7.269029052734375,-0.9494752883911133,0.31238365173339844,0.5981097221374512
1772729590934547200,7.278547119140625,-0.7150125503540039,0.3425769805908203,0.6476889252662659
1772729590944065500,7.2880654296875,-0.43937015533447266,0.3733372688293457,0.6306043267250061
1772729590953583600,7.29758349609375,-0.183837890625,0.41973257064819336,0.5315269827842712
1772729590963102000,7.30710205078125,0.02874755859375,0.47049713134765625,0.3729221522808075
1772729590972620000,7.3166201171875,0.1657886505126953,0.45284318923950195,0.26635658740997314
1772729590982138400,7.326138427734375,0.22786712646484375,0.41156435012817383,0.17135408520698547
1772729590991656400,7.335656494140625,0.25060272216796875,0.4307117462158203,0.14113470911979675
1772729591001174500,7.345174560546875,0.20438861846923828,0.4997997283935547,0.07978677749633789
1772729591010692900,7.35469287109375,0.19567108154296875,0.6107959747314453,0.009807348251342773
1772729591020211200,7.364211181640625,0.19234943389892578,0.7484226226806641,-0.042442142963409424
1772729591029729300,7.373729248046875,0.21280765533447266,0.8256230354309082,-0.06473428010940552
1772729591039247600,7.38324755859375,0.28526782989501953,0.8649411201477051,0.06938356161117554
1772729591048765700,7.392765625,0.35463809967041016,0.8694038391113281,0.19753120839595795
1772729591058284000,7.402283935546875,0.42597007751464844,0.8437447547912598,0.3323116898536682
1772729591067802000,7.411802001953125,0.5496530532836914,0.8306450843811035,0.4008168578147888
1772729591077320400,7.421320556640625,0.6567287445068359,0.769737720489502,0.4191046357154846
1772729591086838500,7.430838623046875,0.7142066955566406,0.6986074447631836,0.3799471855163574
1772729591096356600,7.440356689453125,0.7774667739868164,0.6379952430725098,0.2875638008117676
1772729591105875000,7.449875,0.8229570388793945,0.5585136413574219,0.1505003720521927
1772729591115393300,7.459393310546875,0.7961177825927734,0.5431308746337891,-0.03399747610092163
1772729591124911400,7.468911376953125,0.7375278472900391,0.5202779769897461,-0.16550973057746887
1772729591134429400,7.478429443359375,0.6394634246826172,0.45993471145629883,-0.1814577579498291
1772729591143947800,7.48794775390625,0.5181369781494141,0.41799306869506836,-0.2223334014415741
1772729591153466000,7.497466064453125,0.46372413635253906,0.35717010498046875,-0.17396944761276245
1772729591162984200,7.506984130859375,0.355987548828125,0.27397680282592773,-0.18670126795768738
1772729591172502300,7.516502197265625,0.2487173080444336,0.23260784149169922,-0.0639793872833252
1772729591182020600,7.5260205078125,0.20991230010986328,0.1919856071472168,0.0953863114118576
1772729591191538700,7.53553857421875,0.23110008239746094,0.17781829833984375,0.3420925736427307
1772729591201057000,7.54505712890625,0.31575584411621094,0.19680452346801758,0.6078853011131287
1772729591210575400,7.554575439453125,0.5586986541748047,0.28812360763549805,0.8050296306610107
1772729591220093400,7.564093505859375,0.9026651382446289,0.3654961585998535,0.9361422657966614
1772729591229611500,7.573611572265625,1.214909553527832,0.3391590118408203,1.0172604322433472
1772729591239129900,7.5831298828125,1.5065698623657227,0.17110586166381836,1.2212004661560059
1772729591248648200,7.592648193359375,1.9091987609863281,-0.11909866333007812,1.3902944326400757
1772729591258166300,7.602166259765625,2.256338119506836,-0.41791677474975586,1.4172544479370117
1772729591267684400,7.611684326171875,2.364987373352051,-0.802790641784668,1.378948450088501
1772729591277202700,7.62120263671875,2.276076316833496,-1.1224088668823242,1.436068058013916
1772729591286721000,7.630720947265625,2.024656295776367,-1.359611988067627,1.4375436305999756
1772729591296239000,7.640239013671875,1.7068719863891602,-1.3784990310668945,1.2246978282928467
1772729591305757200,7.649757080078125,1.2335939407348633,-1.277655839920044,0.951068103313446
1772729591315275500,7.659275634765625,0.6959934234619141,-1.1700177192687988,0.7633504271507263
1772729591324793600,7.668793701171875,0.11312580108642578,-1.0868773460388184,0.6190921068191528
1772729591334312000,7.67831201171875,-0.4078035354614258,-1.0165581703186035,0.4456211030483246
1772729591343830000,7.687830078125,-0.8290219306945801,-0.9739327430725098,0.3210553526878357
1772729591353348000,7.69734814453125,-1.1960539817810059,-0.9457740783691406,0.2383197396993637
1772729591362866400,7.706866455078125,-1.4564838409423828,-0.8711109161376953,0.2933482825756073
1772729591372384800,7.716384765625,-1.6529631614685059,-0.8332386016845703,0.4158497452735901
1772729591381902800,7.72590283203125,-1.588259220123291,-0.7785463333129883,0.4002152383327484
1772729591391421200,7.735421142578125,-1.4176712036132812,-0.6982731819152832,0.31721001863479614
1772729591400939300,7.744939208984375,-1.2185535430908203,-0.6760892868041992,0.2160796970129013
1772729591410457600,7.75445751953125,-0.8933010101318359,-0.7915744781494141,0.2655506134033203
1772729591419975700,7.7639755859375,-0.4850625991821289,-0.9337115287780762,0.34133434295654297
1772729591429494000,7.773493896484375,-0.17282867431640625,-1.0015950202941895,0.2526899576187134
1772729591439012000,7.78301220703125,0.0911407470703125,-1.0824978351593018,0.0898495763540268
1772729591448530400,7.792530517578125,0.15572834014892578,-1.1216402053833008,-0.050185710191726685
1772729591458048500,7.802048583984375,0.1464252471923828,-1.1446170806884766,-0.20588192343711853
1772729591467566800,7.81156689453125,0.06605815887451172,-1.0972726345062256,-0.35538870096206665
1772729591477085000,7.8210849609375,-0.1285543441772461,-1.024817943572998,-0.49870848655700684
1772729591486603300,7.830603271484375,-0.3663644790649414,-0.8833632469177246,-0.556950569152832
1772729591496121300,7.840121337890625,-0.6556682586669922,-0.6998357772827148,-0.5581938028335571
1772729591505639400,7.849639404296875,-0.9238767623901367,-0.4933934211730957,-0.4131010174751282
1772729591515157800,7.85915771484375,-1.10821533203125,-0.23063898086547852,-0.3062248229980469
1772729591524676000,7.868676025390625,-1.1743135452270508,0.009300708770751953,-0.1598050594329834
1772729591534194200,7.878194091796875,-1.32401704788208,0.11649417877197266,0.051434099674224854
1772729591543712300,7.887712158203125,-1.4387593269348145,0.1147603988647461,0.27556324005126953
1772729591553230600,7.897230712890625,-1.4452452659606934,0.09395027160644531,0.48347440361976624
1772729591562749000,7.9067490234375,-1.346456527709961,0.15035200119018555,0.5336452126502991
1772729591572267000,7.91626708984375,-1.1376924514770508,0.2072772979736328,0.47554653882980347
1772729591581785000,7.92578515625,-0.880551815032959,0.2493429183959961,0.4346226751804352
1772729591591303400,7.935303466796875,-0.6409149169921875,0.2725534439086914,0.41202622652053833
1772729591600821500,7.944821533203125,-0.4340372085571289,0.2650761604309082,0.4250655770301819
1772729591610339800,7.95433984375,-0.2299184799194336,0.29387569427490234,0.4200727641582489
1772729591619858000,7.96385791015625,0.02051258087158203,0.3060941696166992,0.35166189074516296
1772729591629376300,7.973376220703125,0.189300537109375,0.32111597061157227,0.2782564163208008
1772729591638894300,7.982894287109375,0.3396482467651367,0.3298344612121582,0.20634856820106506
1772729591648412700,7.99241259765625,0.40523529052734375,0.32177734375,0.2153397500514984
1772729591657930800,8.0019306640625,0.3863668441772461,0.3708839416503906,0.26401129364967346
1772729591667449000,8.011448974609374,0.2971467971801758,0.43486547470092773,0.31006503105163574
1772729591676967200,8.02096728515625,0.2038249969482422,0.5174026489257812,0.29070156812667847
1772729591686485500,8.030485595703125,0.05295372009277344,0.5604071617126465,0.2522757351398468
1772729591696003600,8.040003662109376,-0.07276153564453125,0.6036853790283203,0.21336477994918823
1772729591705522000,8.04952197265625,-0.15733051300048828,0.6124467849731445,0.14809349179267883
1772729591715040000,8.0590400390625,-0.2180767059326172,0.6330499649047852,0.0968312919139862
1772729591724558000,8.06855810546875,-0.2796897888183594,0.6597256660461426,0.15736106038093567
1772729591734076400,8.078076416015625,-0.2470989227294922,0.7362608909606934,0.17481034994125366
1772729591743594800,8.0875947265625,-0.13731765747070312,0.7865433692932129,0.1420881748199463
1772729591753112800,8.09711279296875,-0.019474029541015625,0.798433780670166,0.1500771939754486
1772729591762631000,8.106630859375,0.1667041778564453,0.7327561378479004,0.1995212435722351
1772729591772149200,8.116149169921876,0.4744396209716797,0.6811013221740723,0.22052571177482605
1772729591781667600,8.12566748046875,0.7784261703491211,0.6671571731567383,0.2998744249343872
1772729591791185700,8.135185546875,0.9916238784790039,0.6791753768920898,0.38797813653945923
1772729591800703700,8.144703857421876,1.1724634170532227,0.7299189567565918,0.48724281787872314
1772729591810222000,8.15422216796875,1.1970949172973633,0.7475681304931641,0.515660285949707
1772729591819740200,8.163740234375,1.0513248443603516,0.8498759269714355,0.4664841592311859
1772729591829258500,8.173258544921875,0.782353401184082,0.9142556190490723,0.3153761625289917
1772729591838776600,8.182776611328125,0.48442935943603516,0.9981241226196289,0.06643104553222656
1772729591848295000,8.192294921875,0.2705507278442383,1.0655951499938965,-0.23362934589385986
1772729591857813000,8.20181298828125,0.124664306640625,1.1427717208862305,-0.5405097603797913
1772729591867331300,8.211331298828124,0.031003952026367188,1.22674560546875,-0.7864284515380859
1772729591876849400,8.220849365234375,0.0028400421142578125,1.2377467155456543,-0.8523960113525391
1772729591886367700,8.23036767578125,0.06771278381347656,1.1224684715270996,-0.7873662710189819
1772729591895885800,8.2398857421875,0.25086307525634766,0.9182796478271484,-0.5658994913101196
1772729591905404000,8.24940380859375,0.5733680725097656,0.7286992073059082,-0.36380571126937866
1772729591914922200,8.258922119140625,0.9284172058105469,0.5386209487915039,-0.22905564308166504
1772729591924440600,8.268440673828126,1.3515043258666992,0.19441986083984375,-0.03330671787261963
1772729591933958700,8.277958740234375,1.8839244842529297,-0.19657182693481445,0.08976337313652039
1772729591943476700,8.287476806640624,2.2138805389404297,-0.6039648056030273,0.0837094783782959
1772729591952995000,8.2969951171875,2.243999481201172,-1.0861232280731201,0.1819854974746704
1772729591962513400,8.306513427734375,2.07401180267334,-1.460702657699585,0.19104373455047607
1772729591972031500,8.316031494140624,1.7502803802490234,-1.6810081005096436,0.05634260177612305
1772729591981549600,8.325549560546875,1.3157596588134766,-1.6346523761749268,-0.21190017461776733
1772729591991068000,8.33506787109375,0.788325309753418,-1.4876561164855957,-0.48259907960891724
1772729592000586000,8.3445859375,0.23265838623046875,-1.3446924686431885,-0.6015554070472717
1772729592010104300,8.354104248046875,-0.3703165054321289,-1.2546305656433105,-0.6191325187683105
1772729592019622400,8.363622314453124,-0.8966212272644043,-1.2683706283569336,-0.4775359630584717
1772729592029140700,8.373140625,-1.2940235137939453,-1.1509222984313965,-0.4134068489074707
1772729592038658800,8.382658935546875,-1.56488037109375,-1.0146942138671875,-0.4497048854827881
1772729592048177200,8.39217724609375,-1.6492242813110352,-0.8961858749389648,-0.4413492679595947
1772729592057695200,8.4016953125,-1.6249356269836426,-0.8298845291137695,-0.39121687412261963
1772729592067213600,8.411213623046875,-1.4946904182434082,-0.8750834465026855,-0.31955039501190186
1772729592076731600,8.420731689453126,-1.1883163452148438,-0.9516253471374512,-0.2548351287841797
1772729592086250000,8.43025,-0.8070068359375,-1.1207480430603027,-0.17737138271331787
1772729592095768000,8.43976806640625,-0.3873939514160156,-1.2573025226593018,0.020346403121948242
1772729592105286100,8.4492861328125,-0.0044403076171875,-1.367567539215088,0.21847528219223022
1772729592114804500,8.458804443359375,0.29795360565185547,-1.4054176807403564,0.37044835090637207
1772729592124322600,8.468322509765626,0.6239299774169922,-1.3658020496368408,0.43056777119636536
1772729592133841000,8.4778408203125,0.9966659545898438,-1.273158073425293,0.3845599293708801
1772729592143359000,8.48735888671875,1.1978559494018555,-1.2588472366333008,0.4372659921646118
1772729592152877300,8.496877197265626,1.2334604263305664,-1.3384742736816406,0.4980805814266205
1772729592162395400,8.5063955078125,1.2232465744018555,-1.3475213050842285,0.5250000953674316
1772729592171913700,8.515913818359374,1.1838970184326172,-1.3081169128417969,0.47633883357048035
1772729592181431800,8.525431884765625,1.043436050415039,-1.1674237251281738,0.350513219833374
1772729592190950100,8.5349501953125,0.7658624649047852,-1.006110668182373,0.19025593996047974
1772729592200468200,8.54446826171875,0.4364433288574219,-0.8824832439422607,0.14385324716567993
1772729592209986300,8.553986328125,0.1449604034423828,-0.8069376945495605,0.12520349025726318
1772729592219504600,8.563504638671875,-0.15286540985107422,-0.7273402214050293,0.14002829790115356
1772729592229023000,8.57302294921875,-0.3791179656982422,-0.6115036010742188,0.14602172374725342
1772729592238541000,8.582541015625,-0.5534963607788086,-0.47079896926879883,0.19067347049713135
1772729592248059100,8.59205908203125,-0.6977500915527344,-0.36457109451293945,0.293839693069458
1772729592257577500,8.601577392578125,-0.7930498123168945,-0.2708115577697754,0.4440551996231079
1772729592267095800,8.611095703125,-0.8469877243041992,-0.17708587646484375,0.5597543716430664
1772729592276614000,8.62061376953125,-0.8167028427124023,-0.05000162124633789,0.5574095845222473
1772729592286132000,8.630132080078125,-0.8144016265869141,0.026813983917236328,0.5725029110908508
1772729592295650300,8.639650390625,-0.787266731262207,0.07737064361572266,0.6619204878807068
1772729592305168400,8.64916845703125,-0.768531322479248,0.0923008918762207,0.7374052405357361
1772729592314686700,8.658686767578125,-0.7027664184570312,0.1595439910888672,0.7939184904098511
1772729592324204800,8.668204833984374,-0.6207919120788574,0.2042675018310547,0.7424560785293579
1772729592333723100,8.67772314453125,-0.5724554061889648,0.28778648376464844,0.6631864309310913
1772729592343241200,8.6872412109375,-0.6151533126831055,0.31448888778686523,0.6305602788925171
1772729592352759600,8.696759521484376,-0.6583194732666016,0.3632946014404297,0.5722911953926086
1772729592362277600,8.706277587890625,-0.5775976181030273,0.4357132911682129,0.4460484981536865
1772729592371795700,8.715795654296874,-0.558746337890625,0.4998197555541992,0.38310062885284424
1772729592381314000,8.72531396484375,-0.5530843734741211,0.48763608932495117,0.40596818923950195
1772729592390832000,8.73483203125,-0.4717998504638672,0.47229623794555664,0.399045467376709
1772729592400350500,8.7443505859375,-0.40117549896240234,0.48465871810913086,0.3865392208099365
1772729592409868500,8.75386865234375,-0.24815845489501953,0.5507893562316895,0.36028820276260376
1772729592419387000,8.763386962890625,-0.1893024444580078,0.634376049041748,0.23256313800811768
1772729592428905000,8.772905029296876,-0.1959972381591797,0.6210451126098633,0.16700446605682373
1772729592438423300,8.78242333984375,-0.10431098937988281,0.5600175857543945,0.18031728267669678
1772729592447941400,8.79194140625,-0.053371429443359375,0.5837607383728027,0.17284411191940308
1772729592457459700,8.801459716796876,-0.031403541564941406,0.6525392532348633,0.14467573165893555
1772729592466977800,8.810977783203125,0.030852317810058594,0.6713681221008301,0.2320019006729126
1772729592476496100,8.82049609375,0.12863922119140625,0.7003421783447266,0.39182019233703613
1772729592486014200,8.83001416015625,0.2501659393310547,0.7322559356689453,0.4616026282310486
1772729592495532500,8.839532470703125,0.39097118377685547,0.7188730239868164,0.502575159072876
1772729592505050600,8.849050537109376,0.4774007797241211,0.7242517471313477,0.4829034209251404
1772729592514568700,8.858568603515625,0.5526838302612305,0.7216010093688965,0.3680696487426758
1772729592524087000,8.868087158203124,0.6885538101196289,0.7199506759643555,0.16343903541564941
1772729592533605000,8.877605224609376,0.7203693389892578,0.6710100173950195,-0.07708245515823364
1772729592543123500,8.88712353515625,0.7053756713867188,0.6278214454650879,-0.16561806201934814
1772729592552641500,8.8966416015625,0.5688323974609375,0.5799083709716797,-0.181571364402771
1772729592562159900,8.906159912109375,0.4841318130493164,0.6315274238586426,-0.2611721158027649
1772729592571678000,8.915677978515625,0.45007991790771484,0.7669591903686523,-0.2911054491996765
1772729592581196300,8.9251962890625,0.43941688537597656,0.8103995323181152,-0.2914508581161499
1772729592590714400,8.93471435546875,0.46803760528564453,0.8036704063415527,-0.2003101110458374
1772729592600232400,8.944232421875,0.5783538818359375,0.7644438743591309,-0.016595184803009033
1772729592609750800,8.953750732421875,0.8751230239868164,0.6837964057922363,0.1408543884754181
1772729592619269000,8.96326904296875,1.2247247695922852,0.5308337211608887,0.3694647252559662
1772729592628787200,8.972787109375,1.6115894317626953,0.347470760345459,0.4651239216327667
1772729592638305300,8.98230517578125,2.03279972076416,0.08336210250854492,0.5854531526565552
1772729592647823600,8.99182373046875,2.3568572998046875,-0.22652578353881836,0.7562223672866821
1772729592657341700,9.001341796875,2.5650110244750977,-0.5457406044006348,0.8469984531402588
1772729592666860000,9.010860107421875,2.635936737060547,-0.9476408958435059,0.8228822946548462
1772729592676378000,9.020378173828124,2.526233673095703,-1.3132801055908203,0.7971084117889404
1772729592685896200,9.029896240234375,2.146303176879883,-1.5555329322814941,0.6982259750366211
1772729592695414500,9.03941455078125,1.601384162902832,-1.6669321060180664,0.5169082283973694
1772729592704932900,9.048932861328124,1.0746879577636719,-1.689680814743042,0.1987420916557312
1772729592714451000,9.058450927734375,0.5933809280395508,-1.6747517585754395,-0.154835045337677
1772729592723969000,9.067968994140625,-0.009419441223144531,-1.7048749923706055,-0.34117454290390015
1772729592733487400,9.0774873046875,-0.5807161331176758,-1.7115111351013184,-0.38562965393066406
1772729592743005400,9.08700537109375,-0.9703187942504883,-1.6619477272033691,-0.31629979610443115
1772729592752523800,9.096523681640624,-1.3406562805175781,-1.5264229774475098,-0.17995190620422363
1772729592762041900,9.106041748046875,-1.5532760620117188,-1.3444740772247314,-0.04702872037887573
1772729592771560200,9.115560302734375,-1.6538324356079102,-1.1867761611938477,0.18114665150642395
1772729592781078300,9.125078369140626,-1.64678955078125,-1.09110689163208,0.3628154397010803
1772729592790596600,9.1345966796875,-1.5090007781982422,-0.9847664833068848,0.4300510585308075
1772729592800114700,9.14411474609375,-1.2735991477966309,-0.9994430541992188,0.45054763555526733
1772729592809632800,9.1536328125,-1.006357192993164,-1.0861554145812988,0.4577193856239319
1772729592819151000,9.163151123046875,-0.6436147689819336,-1.1730494499206543,0.38846176862716675
1772729592828669400,9.17266943359375,-0.20731735229492188,-1.2371826171875,0.2941742539405823
1772729592838187500,9.1821875,0.1972360610961914,-1.289440393447876,0.07502561807632446
1772729592847705600,9.19170556640625,0.5433292388916016,-1.325859546661377,-0.0946505069732666
1772729592857224000,9.201223876953126,0.8378963470458984,-1.2449665069580078,-0.3217252492904663
1772729592866742000,9.210741943359375,1.0070037841796875,-1.115323543548584,-0.5403208136558533
1772729592876260400,9.22026025390625,0.966461181640625,-1.042078971862793,-0.5413867831230164
1772729592885778400,9.2297783203125,0.8627996444702148,-0.9689879417419434,-0.45167821645736694
1772729592895296500,9.239296630859375,0.7943143844604492,-0.861353874206543,-0.4654359221458435
1772729592904814800,9.24881494140625,0.6033916473388672,-0.695704460144043,-0.5739275813102722
1772729592914333200,9.258333251953125,0.3566598892211914,-0.5502262115478516,-0.6224367022514343
1772729592923851300,9.267851318359375,0.057781219482421875,-0.40874433517456055,-0.6323864459991455
1772729592933369300,9.277369384765626,-0.23978233337402344,-0.24727582931518555,-0.6482325196266174
1772729592942887700,9.2868876953125,-0.5690927505493164,-0.10778951644897461,-0.5700438022613525
1772729592952405800,9.29640576171875,-0.8991656303405762,0.014070510864257812,-0.43352586030960083
1772729592961924000,9.305924072265626,-1.2251839637756348,0.1414952278137207,-0.3500514626502991
1772729592971442200,9.315442138671875,-1.4437370300292969,0.3153715133666992,-0.2543160319328308
1772729592980960300,9.324960205078124,-1.5703363418579102,0.47039222717285156,-0.12636739015579224
1772729592990478600,9.334478515625,-1.610130786895752,0.5092015266418457,-0.012850582599639893
1772729592999997000,9.343996826171875,-1.4574851989746094,0.5096292495727539,0.06283318996429443
1772729593009515000,9.353514892578126,-1.17572021484375,0.5076003074645996,0.0971342921257019
1772729593019033000,9.363033203125,-0.8587503433227539,0.445436954498291,0.20395523309707642
1772729593028551400,9.372551513671874,-0.538386344909668,0.3493533134460449,0.32964789867401123
1772729593038069500,9.382069580078126,-0.2081279754638672,0.3379654884338379,0.37983256578445435
1772729593047587800,9.391587890625,0.1790924072265625,0.31711339950561523,0.3609607219696045
1772729593057106000,9.40110595703125,0.39293956756591797,0.2608528137207031,0.3756060004234314
1772729593066624300,9.410624267578125,0.5993728637695312,0.16288232803344727,0.3615289330482483
1772729593076142300,9.420142333984375,0.7176704406738281,0.08715581893920898,0.341683566570282
1772729593085660700,9.42966064453125,0.6307592391967773,0.06795406341552734,0.20604580640792847
1772729593095178800,9.4391787109375,0.40921497344970703,0.028992176055908203,0.19981563091278076
1772729593104696800,9.44869677734375,0.1512746810913086,0.026496410369873047,0.12859928607940674
1772729593114215200,9.458215087890625,-0.11423969268798828,0.12132024765014648,0.009289145469665527
1772729593123733200,9.467733154296875,-0.3623991012573242,0.2297506332397461,-0.15250670909881592
1772729593133251600,9.47725146484375,-0.6469593048095703,0.2515678405761719,-0.2615396976470947
1772729593142769700,9.486769775390625,-0.9191246032714844,0.2440938949584961,-0.2431895136833191
1772729593152288000,9.4962880859375,-0.9887404441833496,0.2629413604736328,-0.20936107635498047
1772729593161806000,9.50580615234375,-0.9265623092651367,0.32683229446411133,-0.2577192187309265
1772729593171324400,9.515324462890625,-0.3393678665161133,0.31076765060424805,-0.15902596712112427
1772729593180842500,9.524842529296874,0.35658931732177734,0.3637228012084961,-0.22647619247436523
1772729593190360600,9.534360595703125,0.8103885650634766,0.41268205642700195,-0.34991878271102905
1772729593199879000,9.54387890625,1.1374502182006836,0.36644411087036133,-0.5474449992179871
1772729593209397000,9.55339697265625,1.3536186218261719,0.24853515625,-0.5345808267593384
1772729593218915300,9.562915283203125,1.564356803894043,0.018484115600585938,-0.36356258392333984
1772729593228433400,9.572433349609375,1.5818109512329102,-0.2748289108276367,-0.21792078018188477
