time,seconds_elapsed,z,y,x
1772708508926230800,0.049230712890625,-0.19492778182029724,0.028318287804722786,-0.06620896607637405
1772708508936256800,0.0592568359375,-0.25490063428878784,0.047932788729667664,-0.08575320243835449
1772708508946281700,0.06928173828125,-0.3307245373725891,0.13066069781780243,-0.1379663348197937
1772708508956307700,0.0793076171875,-0.4206940829753876,0.18380457162857056,-0.23510821163654327
1772708508966333700,0.089333740234375,-0.48675858974456787,0.1770838052034378,-0.3688700199127197
1772708508976359700,0.099359619140625,-0.5064699649810791,0.09171963483095169,-0.4919922947883606
1772708508986385700,0.1093857421875,-0.483952134847641,0.0022768345661461353,-0.5686367750167847
1772708508996411600,0.11941162109375,-0.42217108607292175,-0.07481394708156586,-0.6114828586578369
1772708509006437600,0.129437744140625,-0.36968711018562317,-0.19254642724990845,-0.6464866399765015
1772708509016462600,0.139462646484375,-0.3428509533405304,-0.3639991581439972,-0.6888895630836487
1772708509026488600,0.149488525390625,-0.37481367588043213,-0.4658117890357971,-0.7671537399291992
1772708509036514600,0.1595146484375,-0.4332663118839264,-0.4435432553291321,-0.8669829368591309
1772708509046540800,0.169540771484375,-0.48284611105918884,-0.3261748254299164,-0.9836379289627075
1772708509056566800,0.17956689453125,-0.49969998002052307,-0.1667928397655487,-1.101175308227539
1772708509066592800,0.1895927734375,-0.4660080671310425,-0.03657570853829384,-1.1969252824783325
1772708509076618800,0.19961865234375,-0.3776870667934418,0.020738760009407997,-1.2641808986663818
1772708509086643700,0.209643798828125,-0.24771519005298615,0.06956115365028381,-1.3117852210998535
1772708509096669700,0.219669677734375,-0.11320950090885162,0.20460624992847443,-1.3331738710403442
1772708509106695700,0.22969580078125,-0.009115057066082954,0.4291671812534332,-1.3320635557174683
1772708509116721700,0.2397216796875,0.07122500985860825,0.6661227941513062,-1.31645667552948
1772708509126747600,0.24974755859375,0.13409718871116638,0.762302815914154,-1.2891737222671509
1772708509136773600,0.259773681640625,0.21414890885353088,0.62803053855896,-1.2538838386535645
1772708509146799600,0.269799560546875,0.30696967244148254,0.40579554438591003,-1.187940001487732
1772708509156824600,0.279824462890625,0.4096902012825012,0.15340350568294525,-1.0905814170837402
1772708509166850600,0.2898505859375,0.47398024797439575,-0.03906847536563873,-0.9677830934524536
1772708509176876500,0.29987646484375,0.4556199014186859,-0.0365147739648819,-0.7977295517921448
1772708509186902500,0.309902587890625,0.35808002948760986,-0.05483439192175865,-0.6038601994514465
1772708509196928800,0.3199287109375,0.20055292546749115,-0.12728111445903778,-0.38573217391967773
1772708509206954800,0.329954833984375,0.026980070397257805,-0.2682590186595917,-0.12969240546226501
1772708509216980700,0.339980712890625,-0.13713297247886658,-0.41718563437461853,0.15349888801574707
1772708509227005700,0.350005615234375,-0.2858571708202362,-0.5047993659973145,0.43208712339401245
1772708509237031700,0.36003173828125,-0.4197491705417633,-0.50660240650177,0.6730418801307678
1772708509247057700,0.3700576171875,-0.5204105377197266,-0.4061921238899231,0.8503156900405884
1772708509257083600,0.380083740234375,-0.612973690032959,-0.3607528805732727,0.9550212025642395
1772708509267109600,0.390109619140625,-0.7274962663650513,-0.4576493203639984,0.960202693939209
1772708509277135600,0.400135498046875,-0.8404913544654846,-0.782606840133667,0.8942737579345703
1772708509287161600,0.41016162109375,-0.8950325846672058,-1.2837748527526855,0.7113260626792908
1772708509297186600,0.4201865234375,-0.8346768617630005,-1.6596156358718872,0.35491907596588135
1772708509307212500,0.430212646484375,-0.8017399311065674,-1.62357497215271,0.032647840678691864
1772708509317238500,0.440238525390625,-0.8389189839363098,-1.249969720840454,-0.1775331348180771
1772708509327264500,0.450264404296875,-0.9576206207275391,-0.7867770791053772,-0.262363076210022
1772708509337290500,0.46029052734375,-1.1046116352081299,-0.44207507371902466,-0.30556440353393555
1772708509347316700,0.470316650390625,-1.1816097497940063,-0.2540082335472107,-0.3817502558231354
1772708509357342700,0.4803427734375,-1.1954569816589355,-0.22117143869400024,-0.49938586354255676
1772708509367367400,0.490367431640625,-1.1525907516479492,-0.2862846851348877,-0.6188092231750488
1772708509377393700,0.5003935546875,-1.0467489957809448,-0.4201207160949707,-0.6998629570007324
1772708509387419600,0.510419677734375,-0.8556000590324402,-0.5654784440994263,-0.7514603734016418
1772708509397445600,0.520445556640625,-0.46502771973609924,-0.18587255477905273,-1.0357966423034668
1772708509407471900,0.530471923828125,-0.03616052493453026,-0.4323640763759613,-1.2146267890930176
1772708509417498000,0.540498046875,0.2459375411272049,-0.6862579584121704,-1.2607066631317139
1772708509427522800,0.550522705078125,0.42876917123794556,-0.7039006352424622,-1.1287089586257935
1772708509437549000,0.560549072265625,0.6119433045387268,-0.16133332252502441,-0.7999445199966431
1772708509447575000,0.570574951171875,0.792595386505127,0.6914840936660767,-0.3336540460586548
1772708509457601000,0.58060107421875,0.9444156885147095,1.6273709535598755,0.24996642768383026
1772708509467627000,0.590626953125,1.0269441604614258,2.370105504989624,0.9076883792877197
1772708509477653000,0.600653076171875,0.9198170900344849,2.4789483547210693,1.5141046047210693
1772708509487679000,0.610678955078125,0.827010452747345,1.926634669303894,1.9805591106414795
1772708509497704000,0.620703857421875,0.7599254846572876,0.9481701254844666,2.2626490592956543
1772708509507730000,0.63072998046875,0.5507173538208008,-0.33673611283302307,2.153838872909546
1772708509517756000,0.640755859375,0.07168447971343994,-1.6616119146347046,1.455957055091858
1772708509527782000,0.650781982421875,-0.6610203981399536,-2.4074103832244873,0.37997278571128845
1772708509537808000,0.660807861328125,-1.1038663387298584,-2.106128692626953,-0.42881181836128235
1772708509547833900,0.670833740234375,-0.7928034663200378,-1.1098501682281494,-0.6789934635162354
1772708509557859800,0.68085986328125,0.026459187269210815,-0.07694021612405777,-0.5280356407165527
1772708509567884800,0.690884765625,0.8435095548629761,0.5234992504119873,-0.2532352805137634
1772708509577910800,0.700910888671875,1.4852321147918701,0.470325767993927,-0.0028751224745064974
1772708509587937000,0.71093701171875,1.7416846752166748,-0.05269641429185867,0.33586323261260986
1772708509597963000,0.720962890625,1.6376090049743652,-0.9528855681419373,0.762117862701416
1772708509607989000,0.730989013671875,1.3871967792510986,-1.8581846952438354,1.083204984664917
1772708509618015000,0.741014892578125,1.1823561191558838,-2.1037049293518066,1.1715816259384155
1772708509628041000,0.751041015625,1.2698791027069092,-1.7946962118148804,0.9742773771286011
1772708509638066200,0.761066162109375,1.544263482093811,-1.072343349456787,0.5329907536506653
1772708509648092000,0.771091796875,1.6596920490264893,-0.3010399341583252,-0.039685823023319244
1772708509658118000,0.781117919921875,1.5454843044281006,0.22367386519908905,-0.5020586848258972
1772708509668143900,0.791143798828125,1.3730813264846802,0.359829306602478,-0.8281865119934082
1772708509678169900,0.801169921875,1.1491422653198242,0.33049196004867554,-1.0316689014434814
1772708509688195800,0.81119580078125,0.8480633497238159,0.18190114200115204,-1.1823452711105347
1772708509698221800,0.821221923828125,0.4494885206222534,-0.07972966134548187,-1.401706337928772
1772708509708247000,0.8312470703125,0.09336502850055695,-0.34649503231048584,-1.6073156595230103
1772708509718273000,0.84127294921875,-0.09627307206392288,-0.6933227777481079,-1.7374874353408813
1772708509728299000,0.851299072265625,-0.1851952224969864,-0.9869205951690674,-1.8496514558792114
1772708509738325000,0.861324951171875,-0.2242611199617386,-1.0329644680023193,-2.00838041305542
1772708509748351000,0.87135107421875,-0.35277512669563293,-0.8190304040908813,-2.1968677043914795
1772708509758377000,0.881376953125,-0.5023854374885559,-0.4490765333175659,-2.301558017730713
1772708509768402200,0.891402099609375,-0.5316738486289978,0.08655253797769547,-2.266941547393799
1772708509778428200,0.90142822265625,-0.38652411103248596,0.6312204003334045,-2.0937654972076416
1772708509788454100,0.9114541015625,-0.13516724109649658,1.0037236213684082,-1.7781130075454712
1772708509798480100,0.921480224609375,0.1327526569366455,1.1106961965560913,-1.2976830005645752
1772708509808506000,0.931506103515625,0.40303847193717957,1.1180419921875,-0.6854824423789978
1772708509818532000,0.941531982421875,0.6116329431533813,1.008656620979309,-0.15801487863063812
1772708509828558000,0.95155810546875,0.6858802437782288,0.7771874666213989,0.16482442617416382
1772708509838583000,0.9615830078125,0.6596652269363403,0.48089930415153503,0.2926430106163025
1772708509848609000,0.971609130859375,0.5548506379127502,0.17243891954421997,0.25243061780929565
1772708509858635000,0.981635009765625,0.4056102931499481,-0.1331004947423935,0.14354276657104492
1772708509868661000,0.991660888671875,0.21547789871692657,-0.48250454664230347,0.03863871470093727
1772708509878687000,1.00168701171875,0.0603279173374176,-0.7455185055732727,-0.05461527779698372
1772708509888713000,1.011712890625,-0.03843913972377777,-0.7564603686332703,-0.12505589425563812
1772708509898739200,1.0217392578125,-0.012417050078511238,-0.5649320483207703,-0.09377718716859818
1772708509908764000,1.031763916015625,0.10072601586580276,-0.332248717546463,0.01474582590162754
1772708509918790100,1.0417900390625,0.23568589985370636,-0.10556065291166306,0.09729328751564026
1772708509928816000,1.051816162109375,0.32384824752807617,0.12021762132644653,0.06548529118299484
1772708509938842000,1.061842041015625,0.37267154455184937,0.2523611783981323,-0.06887830793857574
1772708509948868000,1.0718681640625,0.3864898681640625,0.3113997280597687,-0.2153921127319336
1772708509958894000,1.08189404296875,0.3900558352470398,0.29705676436424255,-0.31320762634277344
1772708509968920000,1.091920166015625,0.3734595477581024,0.2134460210800171,-0.35481926798820496
1772708509978945000,1.101945068359375,0.31961628794670105,0.10217969119548798,-0.3252677619457245
1772708509988971000,1.111970947265625,0.26375994086265564,-0.04419669508934021,-0.26787132024765015
1772708509998997000,1.1219970703125,0.13998396694660187,-0.08588559925556183,-0.201950341463089
1772708510009023000,1.13202294921875,-0.03367197886109352,-0.11097976565361023,-0.16558808088302612
1772708510019049000,1.142049072265625,-0.19796429574489594,-0.20837710797786713,-0.197928786277771
1772708510029075000,1.152074951171875,-0.33973953127861023,-0.3201262950897217,-0.2727556526660919
1772708510039100000,1.162099853515625,-0.4752906560897827,-0.38366642594337463,-0.3474195599555969
1772708510049126000,1.1721259765625,-0.6305737495422363,-0.4018688499927521,-0.39169755578041077
1772708510059152000,1.18215185546875,-0.7726041078567505,-0.4857858717441559,-0.3720495402812958
1772708510069178000,1.19217822265625,-0.8754154443740845,-0.5647081136703491,-0.2586202025413513
1772708510079204000,1.2022041015625,-0.9552256464958191,-0.6124870181083679,-0.052251268178224564
1772708510089230000,1.21222998046875,-0.9957248568534851,-0.6932921409606934,0.23015832901000977
1772708510099256000,1.222256103515625,-1.0264488458633423,-0.7242959141731262,0.5182668566703796
1772708510109281000,1.232281005859375,-1.0989010334014893,-0.6763139963150024,0.7612802982330322
1772708510119307000,1.24230712890625,-1.1650632619857788,-0.6674544811248779,0.9220767617225647
1772708510129333000,1.2523330078125,-1.1847623586654663,-0.7830244302749634,1.0535087585449219
1772708510139359000,1.26235888671875,-1.1904947757720947,-1.1205683946609497,1.2230422496795654
1772708510149385000,1.272385009765625,-1.153020977973938,-1.8639497756958008,1.4994227886199951
1772708510159411000,1.282410888671875,-1.011873483657837,-3.3667972087860107,1.7912335395812988
1772708510169436000,1.292435791015625,-0.769338846206665,-5.259375095367432,1.80751633644104
1772708510179462000,1.3024619140625,-0.3690318763256073,-6.331571102142334,1.4662691354751587
1772708510189487900,1.31248779296875,0.3232294023036957,-5.5895490646362305,0.7683321833610535
1772708510199513900,1.322513916015625,0.7920525074005127,-3.331339120864868,-0.2633819580078125
1772708510209539800,1.332539794921875,0.8977333903312683,-0.9922361969947815,-1.3288432359695435
1772708510219566000,1.342566162109375,0.9733077883720398,0.72996586561203,-2.086634635925293
1772708510229592000,1.352592041015625,1.2964770793914795,1.7772102355957031,-2.4206483364105225
1772708510239617000,1.362616943359375,1.7235972881317139,1.852597951889038,-2.269479513168335
1772708510249643000,1.37264306640625,1.6870927810668945,1.142336130142212,-1.6424169540405273
1772708510259669000,1.3826689453125,1.1834880113601685,-0.46268635988235474,-0.7843092083930969
1772708510269695000,1.392695068359375,0.4565531015396118,-1.954250693321228,0.00074541918002069
1772708510279721000,1.402720947265625,-0.3660435378551483,-2.762143850326538,0.4227232336997986
1772708510289747000,1.412746826171875,-1.012727975845337,-2.816053628921509,0.5165639519691467
1772708510299772000,1.42277197265625,-1.3543074131011963,-2.4483628273010254,0.3177630603313446
1772708510309798000,1.4327978515625,-1.5675164461135864,-1.9102020263671875,-0.20828606188297272
1772708510319824000,1.442823974609375,-1.6513780355453491,-1.3320761919021606,-0.8238899111747742
1772708510329849900,1.452849853515625,-1.5954526662826538,-0.7353509664535522,-1.4197313785552979
1772708510339875800,1.462875732421875,-1.5787559747695923,-0.028461942449212074,-2.091614246368408
1772708510349901800,1.47290185546875,-1.5871646404266357,0.8814171552658081,-2.771862030029297
1772708510359927800,1.482927734375,-1.4874452352523804,1.8872089385986328,-3.24637770652771
1772708510369953000,1.492953125,-1.265626311302185,2.7178022861480713,-3.3271331787109375
1772708510379979000,1.50297900390625,-1.0085170269012451,3.2460057735443115,-2.959003210067749
1772708510390005000,1.5130048828125,-0.7429815530776978,3.3734593391418457,-2.210413694381714
1772708510400031000,1.523031005859375,-0.421951562166214,3.0425844192504883,-1.1608158349990845
1772708510410057200,1.53305712890625,-0.11280757933855057,2.4483518600463867,0.028473330661654472
1772708510420083200,1.543083251953125,0.08578295260667801,1.7987192869186401,1.0626145601272583
1772708510430108400,1.5531083984375,0.18359872698783875,1.221666693687439,1.8028156757354736
1772708510440134400,1.563134521484375,0.2501309812068939,0.7207150459289551,2.251730442047119
1772708510450160400,1.573160400390625,0.2933780550956726,0.41143497824668884,2.4992427825927734
1772708510460186400,1.583186279296875,0.30359792709350586,0.30599507689476013,2.582240581512451
1772708510470212000,1.593212158203125,0.28085052967071533,0.44244933128356934,2.498291492462158
1772708510480238000,1.603238037109375,0.2316848188638687,0.7620694637298584,2.243659257888794
1772708510490264000,1.61326416015625,0.17171043157577515,1.1555120944976807,1.8978526592254639
1772708510500289300,1.623289306640625,0.1660163700580597,1.5299124717712402,1.5974794626235962
1772708510510315300,1.633315185546875,0.19852079451084137,1.8058849573135376,1.4369425773620605
1772708510520341500,1.643341552734375,0.23458793759346008,1.8421213626861572,1.3754087686538696
1772708510530367500,1.653367431640625,0.22867198288440704,1.6558228731155396,1.3337901830673218
1772708510540393500,1.6633935546875,0.18589073419570923,1.3143670558929443,1.3100295066833496
1772708510550419500,1.67341943359375,0.1942692995071411,0.9411843419075012,1.3814916610717773
1772708510560444400,1.6834443359375,0.24388530850410461,0.6016592383384705,1.584359884262085
1772708510570470400,1.693470458984375,0.28947487473487854,0.2849883735179901,1.8301118612289429
1772708510580496400,1.703496337890625,0.2875595688819885,-0.033062856644392014,1.9742759466171265
1772708510590522400,1.7135224609375,0.25941208004951477,-0.33073076605796814,1.9097493886947632
1772708510600548400,1.72354833984375,0.20624397695064545,-0.4765886664390564,1.6396989822387695
1772708510610574300,1.73357421875,0.15852998197078705,-0.42999958992004395,1.2422317266464233
1772708510620599300,1.743599365234375,0.10613890737295151,-0.2511086165904999,0.8148087859153748
1772708510630625300,1.753625244140625,0.055328987538814545,-0.07543560117483139,0.4064497649669647
1772708510640651300,1.7636513671875,0.002407475607469678,0.09784133732318878,0.07810445874929428
1772708510650677200,1.77367724609375,-0.07118019461631775,0.22641661763191223,-0.13304054737091064
1772708510660703200,1.783703125,-0.14315077662467957,0.2136254459619522,-0.2569064795970917
1772708510670729500,1.7937294921875,-0.19957436621189117,0.09773426502943039,-0.30106595158576965
1772708510680755500,1.80375537109375,-0.2328553944826126,-0.0892864465713501,-0.2649981677532196
1772708510690780400,1.813780517578125,-0.2902454435825348,-0.2286376804113388,-0.14762865006923676
1772708510700806400,1.823806396484375,-0.37412840127944946,-0.23089599609375,0.015492746606469154
1772708510710832400,1.833832275390625,-0.5029414892196655,0.0010054055601358414,0.21310196816921234
1772708510720858400,1.8438583984375,-0.6802928447723389,0.3701402544975281,0.4505689740180969
1772708510730884400,1.85388427734375,-0.8935182690620422,0.7786739468574524,0.6743032932281494
1772708510740910300,1.863910400390625,-1.0273373126983643,1.165175437927246,0.8816503882408142
1772708510750935300,1.873935302734375,-1.0000450611114502,1.6026006937026978,1.0220240354537964
1772708510760961300,1.883961181640625,-0.9233919978141785,1.840111255645752,0.9399270415306091
1772708510770987300,1.8939873046875,-0.7301671504974365,1.8886667490005493,0.8211055994033813
1772708510781013200,1.90401318359375,-0.2829638719558716,2.088006019592285,0.9706557989120483
1772708510791039200,1.914039306640625,0.3126036524772644,2.108677625656128,1.0884897708892822
1772708510801065200,1.924065185546875,0.6775552034378052,1.8819606304168701,0.365983784198761
1772708510811090200,1.934090087890625,0.5561619400978088,1.5506013631820679,-1.2028814554214478
1772708510821116200,1.9441162109375,0.4051881730556488,0.8797611594200134,-2.809540033340454
1772708510831142100,1.95414208984375,0.23313812911510468,0.2982008457183838,-3.8872334957122803
1772708510841168400,1.96416845703125,0.1703256368637085,0.22857698798179626,-4.284790515899658
1772708510851194400,1.9741943359375,0.8654391765594482,0.8377452492713928,-3.8747456073760986
1772708510861220400,1.984220458984375,1.7636061906814575,1.2457635402679443,-3.1050002574920654
1772708510871246300,1.994246337890625,2.0296216011047363,1.058893084526062,-2.0244014263153076
1772708510881271300,2.004271240234375,1.2907614707946777,0.12940731644630432,-0.7702150344848633
1772708510891297300,2.01429736328125,0.1297219693660736,-1.3499908447265625,0.40844595432281494
1772708510901323300,2.0243232421875,-0.8844686150550842,-2.993337869644165,1.186602234840393
1772708510911349200,2.034349365234375,-1.402377724647522,-4.386017322540283,1.3805142641067505
1772708510921375200,2.044375244140625,-1.4149521589279175,-5.07543420791626,0.9495013952255249
1772708510931401200,2.054401123046875,-1.035356879234314,-5.095573902130127,0.014495071955025196
1772708510941426200,2.06442626953125,-0.5699463486671448,-4.496423721313477,-1.3345533609390259
1772708510951452200,2.0744521484375,-0.2762249708175659,-3.486654281616211,-2.8396127223968506
1772708510961478100,2.08447802734375,-0.22074496746063232,-2.277848482131958,-4.183187961578369
1772708510971504000,2.094504150390625,-0.33990809321403503,-0.9717991948127747,-4.931895732879639
1772708510981530000,2.104530029296875,-0.5243796706199646,0.1873036026954651,-4.928863525390625
1772708510991556400,2.114556396484375,-0.7694684863090515,1.2069519758224487,-4.298966407775879
1772708511001581300,2.124581298828125,-0.9963719248771667,1.893491268157959,-3.1666922569274902
1772708511011607300,2.134607177734375,-1.0844868421554565,1.9703562259674072,-1.742800235748291
1772708511021633300,2.14463330078125,-1.082254409790039,1.3673597574234009,-0.401272714138031
1772708511031659300,2.1546591796875,-1.0474367141723633,0.3521686792373657,0.5366230607032776
1772708511041685200,2.164685302734375,-0.9165237545967102,-0.7469756603240967,1.0615170001983643
1772708511051711200,2.174711181640625,-0.6673461198806763,-1.7223941087722778,1.254228949546814
1772708511061736400,2.184736328125,-0.3751091957092285,-2.251156806945801,1.309421181678772
1772708511071762400,2.194762451171875,-0.05448300018906593,-2.272948741912842,1.3279386758804321
1772708511081788400,2.204788330078125,0.2313617765903473,-1.880516767501831,1.3093973398208618
1772708511091814400,2.214814453125,0.39726847410202026,-1.2998294830322266,1.216941237449646
1772708511101840400,2.22484033203125,0.5151381492614746,-0.8177928328514099,1.0451953411102295
1772708511111866000,2.2348662109375,0.5744621753692627,-0.556943416595459,0.871375560760498
1772708511121891300,2.244891357421875,0.5831294655799866,-0.5424374938011169,0.7712999582290649
1772708511131917300,2.254917236328125,0.58257657289505,-0.7588669657707214,0.7678202986717224
1772708511141943300,2.264943359375,0.6058167219161987,-0.9640417098999023,0.7918514609336853
1772708511151969300,2.27496923828125,0.6014235615730286,-0.9422059059143066,0.7915889024734497
1772708511161995300,2.284995361328125,0.5495491027832031,-0.9062931537628174,0.6732064485549927
1772708511172021500,2.295021484375,0.4349530041217804,-0.8672301769256592,0.4505358338356018
1772708511182047500,2.305047607421875,0.2672039568424225,-0.7868170738220215,0.19744791090488434
1772708511192072400,2.315072509765625,0.06404312700033188,-0.708927571773529,-0.07555591315031052
1772708511202098400,2.325098388671875,-0.11651943624019623,-0.507555365562439,-0.3463849127292633
1772708511212124400,2.33512451171875,-0.2586755156517029,-0.14475800096988678,-0.5522632002830505
1772708511222150400,2.345150390625,-0.3242587745189667,0.26544392108917236,-0.667556643486023
1772708511232176400,2.35517626953125,-0.3038690984249115,0.7236218452453613,-0.6561694741249084
1772708511242202400,2.365202392578125,-0.2063334882259369,1.1504237651824951,-0.5310174822807312
1772708511252227300,2.375227294921875,-0.09036029130220413,1.4525237083435059,-0.35316652059555054
1772708511262253300,2.38525341796875,0.011253131553530693,1.6196973323822021,-0.14763760566711426
1772708511272279300,2.395279296875,0.09070374816656113,1.7630603313446045,0.07594860345125198
1772708511282305300,2.40530517578125,0.10890965908765793,1.7848585844039917,0.3125200867652893
1772708511292331300,2.415331298828125,0.05351084843277931,1.5928009748458862,0.6109137535095215
1772708511302357200,2.425357177734375,-0.08983566612005234,1.1901090145111084,0.9859041571617126
1772708511312382200,2.43538232421875,-0.28841882944107056,0.7449666261672974,1.3959795236587524
1772708511322408200,2.445408203125,-0.5031219720840454,0.4053266942501068,1.6580342054367065
1772708511332434200,2.45543408203125,-0.7127689123153687,0.35262513160705566,1.699095606803894
1772708511342460400,2.46546044921875,-0.7852767705917358,0.5240547060966492,1.5404103994369507
1772708511352486400,2.475486328125,-0.6571576595306396,0.9156494140625,1.2721294164657593
1772708511362512400,2.485512451171875,-0.34958598017692566,1.6943786144256592,1.0261155366897583
1772708511372537300,2.495537353515625,0.12430037558078766,2.7667579650878906,0.8650944232940674
1772708511382563300,2.505563232421875,0.6245836615562439,3.523850679397583,0.03368109092116356
1772708511392589300,2.51558935546875,0.4833706319332123,3.0013480186462402,-1.6965291500091553
1772708511402615300,2.525615234375,-0.23552703857421875,1.6766893863677979,-2.6459953784942627
1772708511412641500,2.5356416015625,-1.06500244140625,0.6682299375534058,-2.2785048484802246
1772708511422667500,2.54566748046875,-1.2702783346176147,-0.3905975818634033,-1.5215129852294922
1772708511432692500,2.5556923828125,-0.6479178071022034,-0.6312386989593506,-0.463125616312027
1772708511442718500,2.565718505859375,0.6985313892364502,-0.32584336400032043,0.3999300003051758
1772708511452744400,2.575744384765625,1.6497262716293335,-0.6274846792221069,0.9144703149795532
1772708511462770400,2.5857705078125,1.6114206314086914,-1.0964971780776978,1.3824657201766968
1772708511472796400,2.59579638671875,0.8056653141975403,-2.134725570678711,1.7303216457366943
1772708511482822400,2.605822509765625,-0.1967700570821762,-2.968111753463745,1.4102824926376343
1772708511492847400,2.615847412109375,-0.9263326525688171,-2.819265127182007,0.5409454107284546
1772708511502873300,2.625873291015625,-1.0807737112045288,-1.986283779144287,-0.7668996453285217
1772708511512899300,2.6358994140625,-0.9449478983879089,-0.5582001209259033,-1.9324121475219727
1772708511522925300,2.64592529296875,-0.7058777809143066,0.7426621913909912,-2.812764883041382
1772708511532951300,2.655951416015625,-0.6262290477752686,1.4604310989379883,-3.198124885559082
1772708511542977300,2.665977294921875,-0.5658285617828369,1.4007220268249512,-3.2329916954040527
1772708511553002200,2.676002197265625,-0.5813941955566406,1.078645944595337,-2.9441001415252686
1772708511563028200,2.6860283203125,-0.6762762069702148,0.9649548530578613,-2.2683560848236084
1772708511573054200,2.69605419921875,-0.8211425542831421,1.3002244234085083,-1.3185396194458008
1772708511583080400,2.70608056640625,-0.9186331629753113,1.706327199935913,-0.31974971294403076
1772708511593106400,2.7161064453125,-0.8812612891197205,1.8861891031265259,0.5509287118911743
1772708511603132400,2.72613232421875,-0.7702357172966003,1.849859595298767,1.1613801717758179
1772708511613157600,2.73615771484375,-0.6247381567955017,1.7694242000579834,1.488359808921814
1772708511623183600,2.74618359375,-0.5269112586975098,1.7159734964370728,1.5407320261001587
1772708511633209300,2.756209228515625,-0.4840684235095978,1.680782675743103,1.3648289442062378
1772708511643235300,2.7662353515625,-0.526545524597168,1.6090824604034424,1.0975924730300903
1772708511653261300,2.77626123046875,-0.5397441387176514,1.4518392086029053,0.8720964789390564
1772708511663287300,2.786287353515625,-0.4746813178062439,1.0145636796951294,0.7940735816955566
1772708511673312500,2.7963125,-0.37911245226860046,0.3867599368095398,1.0036931037902832
1772708511683338500,2.80633837890625,-0.24648061394691467,-0.3222460150718689,1.4092729091644287
1772708511693364500,2.816364501953125,-0.1389418989419937,-0.9932275414466858,1.7567927837371826
1772708511703390500,2.826390380859375,-0.06520216912031174,-1.4443992376327515,2.0027151107788086
1772708511713416400,2.83641650390625,0.034718308597803116,-1.8011113405227661,2.06923770904541
1772708511723442400,2.8464423828125,0.12097329646348953,-2.085573673248291,1.9949508905410767
1772708511733467400,2.85646728515625,0.22943346202373505,-2.214045524597168,1.8403605222702026
1772708511743493400,2.866493408203125,0.4171660840511322,-2.1008970737457275,1.6484588384628296
1772708511753519400,2.876519287109375,0.6558572053909302,-1.7694772481918335,1.3337150812149048
1772708511763545600,2.886545654296875,0.8349177241325378,-1.3527250289916992,0.8548743724822998
1772708511773571600,2.896571533203125,0.8816602230072021,-0.8892921209335327,0.23574912548065186
1772708511783597600,2.90659765625,0.800011932849884,-0.59727543592453,-0.39560815691947937
1772708511793622500,2.91662255859375,0.6892313957214355,-0.5029446482658386,-0.8247526288032532
1772708511803648500,2.9266484375,0.601262629032135,-0.39616653323173523,-1.0335317850112915
1772708511813674500,2.936674560546875,0.4896083176136017,-0.1584746092557907,-1.1085267066955566
1772708511823700500,2.946700439453125,0.40787273645401,0.1965010017156601,-1.136216402053833
1772708511833726500,2.9567265625,0.43296554684638977,0.617348313331604,-1.1776608228683472
1772708511843752400,2.96675244140625,0.606644332408905,1.0802817344665527,-1.2176532745361328
1772708511853777400,2.97677734375,0.8412541747093201,1.424796462059021,-1.2651925086975098
1772708511863803400,2.986803466796875,0.9357035160064697,1.3326308727264404,-1.3080044984817505
1772708511873829400,2.996829345703125,0.822030782699585,0.7806060314178467,-1.2060528993606567
1772708511883855400,3.00685546875,0.5547742247581482,0.1475558876991272,-0.7959558963775635
1772708511893881300,3.01688134765625,0.13084666430950165,-0.33413615822792053,-0.13480854034423828
1772708511903907300,3.0269072265625,-0.40521034598350525,-0.47112518548965454,0.621406614780426
1772708511913932300,3.036932373046875,-0.8982238173484802,-0.4211600124835968,1.3261953592300415
1772708511923958300,3.046958251953125,-1.276550054550171,-0.6478307247161865,1.9073963165283203
1772708511933984500,3.056984619140625,-1.6012157201766968,-1.0328441858291626,2.4060137271881104
1772708511944010500,3.067010498046875,-1.865524172782898,-1.4473756551742554,2.6879026889801025
1772708511954036500,3.077036376953125,-1.9362508058547974,-1.7644731998443604,2.786597490310669
1772708511964062500,3.0870625,-1.59304678440094,-1.5173989534378052,2.8353493213653564
1772708511974087400,3.09708740234375,-0.955865204334259,-0.5143529176712036,2.5821688175201416
1772708511984113400,3.107113525390625,-0.26073014736175537,0.6387988328933716,1.6003506183624268
1772708511994139400,3.117139404296875,0.12686844170093536,0.8158167600631714,-0.07126498222351074
1772708512004165400,3.127165283203125,0.8742420077323914,0.35764145851135254,-1.0220379829406738
1772708512014191400,3.13719140625,1.2867554426193237,-1.6288620233535767,-1.789292812347412
1772708512024217300,3.14721728515625,1.228257656097412,-3.61564040184021,-2.555947780609131
1772708512034242300,3.1572421875,1.0727860927581787,-3.6915433406829834,-2.8365554809570312
1772708512044268300,3.167268310546875,0.9424617886543274,-2.2733068466186523,-3.1406803131103516
1772708512054294300,3.177294189453125,0.8263838887214661,-0.6513115167617798,-3.166071653366089
1772708512064320300,3.1873203125,0.354190856218338,0.05508343130350113,-2.683788776397705
1772708512074346200,3.19734619140625,-0.3739764988422394,-0.5028882026672363,-1.774022102355957
1772708512084372500,3.20737255859375,-0.8934498429298401,-1.9305717945098877,-0.7614791989326477
1772708512094397200,3.217397216796875,-1.0081326961517334,-3.018042802810669,-0.08633378148078918
1772708512104423400,3.22742333984375,-0.8577847480773926,-3.436040163040161,0.09153709560632706
1772708512114449400,3.237449462890625,-0.5665273070335388,-3.149153470993042,0.08253242075443268
1772708512124475400,3.247475341796875,-0.5215374827384949,-2.7487356662750244,0.004242285154759884
1772708512134501400,3.25750146484375,-0.6667441725730896,-2.3269400596618652,-0.23308637738227844
1772708512144527400,3.26752734375,-0.9109758138656616,-1.6160420179367065,-0.4710730314254761
1772708512154552600,3.277552490234375,-1.2403526306152344,-0.6417341828346252,-0.633798360824585
1772708512164578600,3.28757861328125,-1.6014621257781982,0.5833912491798401,-0.6628322601318359
1772708512174604300,3.297604248046875,-1.9311479330062866,1.8096692562103271,-0.45260417461395264
1772708512184630300,3.30763037109375,-2.050384998321533,2.5470223426818848,-0.15828944742679596
1772708512194656300,3.31765625,-1.9639707803726196,2.958101749420166,0.12000076472759247
1772708512204682200,3.32768212890625,-1.7416189908981323,3.1049864292144775,0.31907913088798523
1772708512214707500,3.33770751953125,-1.4198864698410034,3.072453737258911,0.3469863831996918
1772708512224733400,3.3477333984375,-1.0473402738571167,2.973512887954712,0.13332809507846832
1772708512234759400,3.357759521484375,-0.6879655718803406,2.939134359359741,-0.26943185925483704
1772708512244785400,3.367785400390625,-0.34620481729507446,3.062101364135742,-0.7091652154922485
1772708512254811600,3.377811767578125,-0.010260897688567638,3.145354747772217,-1.067641019821167
1772708512264837400,3.38783740234375,0.30364856123924255,3.102816581726074,-1.223431944847107
1772708512274862600,3.397862548828125,0.5452950596809387,3.0120208263397217,-1.0810068845748901
1772708512284888600,3.407888671875,0.8240651488304138,2.8348217010498047,-0.6652273535728455
1772708512294914600,3.41791455078125,1.1122443675994873,2.524430274963379,-0.13839282095432281
1772708512304940500,3.4279404296875,1.329927682876587,2.1006078720092773,0.27103620767593384
1772708512314966500,3.437966552734375,1.4053380489349365,1.7147382497787476,0.596347987651825
1772708512324992500,3.447992431640625,1.3803256750106812,1.2974488735198975,0.9128205180168152
1772708512335017500,3.458017578125,1.2325239181518555,0.7316398024559021,1.1109594106674194
1772708512345043500,3.46804345703125,1.0415934324264526,0.05716817080974579,1.1733449697494507
1772708512355069400,3.4780693359375,0.8845995664596558,-0.5562385320663452,1.0416290760040283
1772708512365095400,3.488095458984375,0.7238799333572388,-0.980640172958374,0.7284542918205261
1772708512375121400,3.498121337890625,0.5997422933578491,-1.2192572355270386,0.33599624037742615
1772708512385147400,3.5081474609375,0.5082967877388,-1.2571625709533691,-0.044280197471380234
1772708512395172400,3.51817236328125,0.4542487561702728,-1.2037477493286133,-0.41788172721862793
1772708512405198300,3.5281982421875,0.3996746838092804,-1.1408358812332153,-0.7433217763900757
1772708512415223600,3.5382236328125,0.2804524302482605,-1.0435794591903687,-0.9534390568733215
1772708512425249500,3.54824951171875,0.08562435954809189,-0.9970020651817322,-0.9621627926826477
1772708512435275500,3.558275634765625,-0.13790114223957062,-1.0901908874511719,-0.8119444847106934
1772708512445301800,3.5683017578125,-0.3325342833995819,-1.288710594177246,-0.5718546509742737
1772708512455326500,3.578326416015625,-0.4687352776527405,-1.540440320968628,-0.32631757855415344
1772708512465352700,3.588352783203125,-0.5200200080871582,-1.7590980529785156,-0.11451448500156403
1772708512475378700,3.598378662109375,-0.44604700803756714,-1.8315411806106567,0.037028972059488297
1772708512485404700,3.60840478515625,-0.2739282250404358,-1.7224034070968628,0.11760520935058594
1772708512495430700,3.6184306640625,-0.07398553937673569,-1.4382835626602173,0.12802109122276306
1772708512505455600,3.62845556640625,0.06722964346408844,-0.9472249150276184,0.12593160569667816
1772708512515481600,3.638481689453125,0.09302502125501633,-0.3477151691913605,0.1991269886493683
1772708512525507600,3.648507568359375,0.0016527536790817976,-0.026679586619138718,0.40598371624946594
1772708512535533600,3.658533447265625,-0.11167833209037781,0.11846695840358734,0.7764845490455627
1772708512545559600,3.6685595703125,-0.12782055139541626,0.2858756482601166,1.1605850458145142
1772708512555585500,3.67858544921875,0.008427567780017853,0.501580536365509,1.4198732376098633
1772708512565610800,3.68861083984375,0.22433511912822723,0.6512104272842407,1.5004974603652954
1772708512575636700,3.69863671875,0.4633820652961731,0.4544923007488251,1.0250521898269653
1772708512585662700,3.708662841796875,0.6650339365005493,-0.2408912181854248,-0.2363484650850296
1772708512595688700,3.718688720703125,0.7843957543373108,-1.5187246799468994,-2.550539016723633
1772708512605714400,3.72871435546875,0.6348275542259216,-2.2893829345703125,-5.27390718460083
1772708512615740700,3.73874072265625,0.1512630134820938,-1.3029017448425293,-6.4907989501953125
1772708512625765600,3.748765625,-0.3765329122543335,0.4844289720058441,-5.941984176635742
1772708512635792000,3.7587919921875,-0.6890353560447693,1.8965914249420166,-4.662351131439209
1772708512645817900,3.76881787109375,-0.08521635085344315,1.9064829349517822,-2.8341376781463623
1772708512655843800,3.77884375,0.7361935973167419,0.4294101595878601,-0.9648082256317139
1772708512665869800,3.788869873046875,0.7178047299385071,-1.2314693927764893,0.4609529376029968
1772708512675895800,3.798895751953125,0.08911177515983582,-2.244797468185425,1.2107640504837036
1772708512685920800,3.808920654296875,-0.39061304926872253,-2.608030319213867,1.4610683917999268
1772708512695946800,3.81894677734375,-0.6778091192245483,-2.3323440551757812,1.2753206491470337
1772708512705972700,3.82897265625,-0.7639463543891907,-1.9001212120056152,0.734992504119873
1772708512715998700,3.838998779296875,-0.8190841674804688,-1.5110981464385986,-0.01245537307113409
1772708512726024700,3.849024658203125,-0.9713927507400513,-0.767771303653717,-0.6228272914886475
1772708512736049700,3.859049560546875,-1.0914829969406128,0.24272972345352173,-0.9450785517692566
1772708512746075600,3.86907568359375,-1.1089848279953003,1.22969651222229,-0.9310158491134644
1772708512756101600,3.8791015625,-1.0810799598693848,2.0755186080932617,-0.602439284324646
1772708512766127600,3.889127685546875,-1.0106770992279053,2.588919162750244,-0.04354823753237724
1772708512776153600,3.899153564453125,-0.9034832119941711,2.637242078781128,0.5733392238616943
1772708512786179800,3.909179931640625,-0.8429464101791382,2.4596164226531982,1.2318933010101318
1772708512796204500,3.91920458984375,-0.9458181858062744,2.3124594688415527,1.9264734983444214
1772708512806230800,3.929230712890625,-1.1669561862945557,2.221742630004883,2.508817195892334
1772708512816256800,3.9392568359375,-1.3873412609100342,1.9631520509719849,2.873401403427124
1772708512826282800,3.94928271484375,-1.5539257526397705,1.5379613637924194,3.1123647689819336
1772708512836308700,3.959308837890625,-1.5128995180130005,1.115782380104065,3.2972705364227295
1772708512846334700,3.969334716796875,-1.3443779945373535,0.9404012560844421,3.3146190643310547
1772708512856359700,3.979359619140625,-1.1777024269104004,1.0050171613693237,3.289885997772217
1772708512866385700,3.9893857421875,-0.9172933101654053,1.003124713897705,2.8604531288146973
1772708512876411600,3.99941162109375,-0.5857846140861511,1.1799565553665161,2.333487033843994
1772708512886437600,4.009437744140625,-0.29795151948928833,1.6486475467681885,2.0726804733276367
1772708512896463600,4.019463623046875,-0.06516726315021515,2.014724016189575,2.042691707611084
1772708512906488600,4.029488525390625,0.09940890222787857,2.061624050140381,2.1165263652801514
1772708512916514600,4.0395146484375,0.25820493698120117,1.7348638772964478,2.123283863067627
1772708512926540500,4.04954052734375,0.44829630851745605,1.2082399129867554,2.0715084075927734
1772708512936566500,4.05956640625,0.6370196342468262,0.7833724617958069,2.0808265209198
1772708512946592500,4.069592529296875,0.9124802350997925,0.4136389493942261,2.1791415214538574
1772708512956618500,4.079618408203125,1.189982295036316,0.14111527800559998,2.2063019275665283
1772708512966643500,4.0896435546875,1.3458776473999023,-0.18955613672733307,2.1457817554473877
1772708512976669400,4.09966943359375,1.381600022315979,-0.6079126000404358,1.8736456632614136
1772708512986695700,4.10969580078125,1.3328003883361816,-0.9692663550376892,1.4347314834594727
1772708512996721700,4.1197216796875,1.2278605699539185,-1.1337366104125977,0.8422684073448181
1772708513006747600,4.12974755859375,1.0632046461105347,-1.1314700841903687,0.13430733978748322
1772708513016773600,4.139773681640625,0.8966853022575378,-0.9156505465507507,-0.614375650882721
1772708513026798800,4.149798828125,0.7558946013450623,-0.45757001638412476,-1.3163022994995117
1772708513036824600,4.159824462890625,0.6820414066314697,0.024838700890541077,-1.9909363985061646
1772708513046850600,4.1698505859375,0.6699040532112122,0.3819100260734558,-2.548114538192749
1772708513056876500,4.17987646484375,0.7658900022506714,0.5314121842384338,-2.9099082946777344
1772708513066902500,4.189902587890625,0.9458730816841125,0.510123610496521,-3.107361316680908
1772708513076928500,4.199928466796875,1.1874794960021973,0.4083019196987152,-3.1736292839050293
1772708513086953700,4.20995361328125,1.4895681142807007,0.6044296026229858,-3.151686191558838
1772708513096979700,4.219979736328125,1.7764848470687866,1.1073006391525269,-3.128842353820801
1772708513107005700,4.230005615234375,2.0079967975616455,1.4337321519851685,-3.0227270126342773
1772708513117031700,4.24003173828125,2.2361648082733154,1.7403019666671753,-2.721825361251831
1772708513127057700,4.2500576171875,2.45703125,2.1923396587371826,-2.244086265563965
1772708513137082600,4.26008251953125,2.5252604484558105,2.4820146560668945,-1.8469091653823853
1772708513147108600,4.270108642578125,2.3326289653778076,2.303144931793213,-1.7227708101272583
1772708513157134800,4.280134765625,1.981730341911316,2.0029618740081787,-1.7121444940567017
1772708513167160800,4.290160888671875,1.7039626836776733,1.7839184999465942,-1.5382100343704224
1772708513177186800,4.300186767578125,1.6393259763717651,1.4322566986083984,-1.1586427688598633
1772708513187212800,4.310212890625,1.6748992204666138,0.5171932578086853,-1.2093976736068726
1772708513197237800,4.32023779296875,1.3046282529830933,-0.85736083984375,-2.330432415008545
1772708513207263700,4.330263671875,0.35563430190086365,-2.0788702964782715,-3.8169190883636475
1772708513217289700,4.340289794921875,-1.0491005182266235,-2.2366831302642822,-4.414702415466309
1772708513227315700,4.350315673828125,-2.150125741958618,-1.5533463954925537,-3.7500078678131104
1772708513237341700,4.360341796875,-2.0606768131256104,-0.642326295375824,-2.394355297088623
1772708513247366700,4.37036669921875,-1.1799906492233276,-0.07846534997224808,-1.3483500480651855
1772708513257392600,4.380392578125,-0.9330315589904785,0.016527211293578148,-0.9677432775497437
1772708513267418600,4.390418701171875,-1.3628276586532593,-0.7476106286048889,-0.6341459155082703
1772708513277444600,4.400444580078125,-2.0408754348754883,-1.8526898622512817,0.25293973088264465
1772708513287470600,4.410470703125,-2.6612632274627686,-2.994448184967041,1.3089015483856201
1772708513297496600,4.42049658203125,-3.0855534076690674,-3.4866116046905518,1.887526035308838
1772708513307521500,4.430521484375,-3.174564838409424,-3.2098069190979004,1.9832956790924072
1772708513317547500,4.440547607421875,-2.8794615268707275,-2.3621551990509033,1.7586994171142578
1772708513327573800,4.45057373046875,-2.443366765975952,-1.4457149505615234,1.2163771390914917
1772708513337599700,4.460599853515625,-2.0297279357910156,-0.8843752145767212,0.54475337266922
1772708513347625700,4.470625732421875,-1.6281381845474243,-0.5467824935913086,-0.09228505939245224
1772708513357651700,4.480651611328125,-1.4336680173873901,-0.2997143566608429,-0.6819232702255249
1772708513367676700,4.4906767578125,-1.3649828433990479,-0.08928710222244263,-1.1315101385116577
1772708513377702700,4.50070263671875,-1.2828915119171143,0.15577378869056702,-1.3919731378555298
1772708513387728600,4.510728759765625,-1.1795073747634888,0.4896678924560547,-1.4838649034500122
1772708513397754600,4.520754638671875,-1.0399476289749146,0.8107790350914001,-1.3474842309951782
1772708513407780600,4.530780517578125,-0.8608686327934265,1.009268879890442,-0.9919108152389526
1772708513417806300,4.540806396484375,-0.7144709825515747,1.0042890310287476,-0.373232364654541
1772708513427832600,4.55083251953125,-0.5933003425598145,0.7659298181533813,0.4370845854282379
1772708513437858600,4.560858642578125,-0.5631093978881836,0.40054893493652344,1.2612818479537964
1772708513447884500,4.570884521484375,-0.5845606327056885,-0.007430038880556822,1.945620059967041
1772708513457910500,4.58091064453125,-0.5824487805366516,-0.3205552101135254,2.424656391143799
1772708513467936500,4.5909365234375,-0.5217289328575134,-0.5825804471969604,2.635833263397217
1772708513477961500,4.60096142578125,-0.3907456398010254,-0.6349184513092041,2.5106749534606934
1772708513487987500,4.610987548828125,-0.16668829321861267,-0.4185851216316223,2.0058906078338623
1772708513498013400,4.621013427734375,0.12521812319755554,0.19244788587093353,1.242308497428894
1772708513508039400,4.631039306640625,0.5413527488708496,1.0739095211029053,0.44133085012435913
1772708513518065400,4.6410654296875,1.0208561420440674,1.9192839860916138,-0.28062576055526733
1772708513528090400,4.65109033203125,1.360962986946106,2.619492292404175,-0.7998382449150085
1772708513538116400,4.661116455078125,1.4655942916870117,3.0030336380004883,-1.107492208480835
1772708513548142300,4.671142333984375,1.3436462879180908,2.8722167015075684,-1.2186110019683838
1772708513558168300,4.681168212890625,1.1015516519546509,2.30932879447937,-1.07341730594635
1772708513568194300,4.6911943359375,0.8742031455039978,1.5302987098693848,-0.769274890422821
1772708513578220500,4.701220458984375,0.5876198410987854,0.7035519480705261,-0.40144622325897217
1772708513588245500,4.71124560546875,0.31237444281578064,-0.2327824831008911,-0.07948321849107742
1772708513598271500,4.721271484375,0.10773687064647675,-1.1377924680709839,0.11702504754066467
1772708513608297500,4.73129736328125,0.04906848445534706,-1.8012216091156006,0.17003701627254486
1772708513618323500,4.741323486328125,0.11277369409799576,-2.1095409393310547,0.15161485970020294
1772708513628349400,4.751349365234375,0.3393855392932892,-2.104196548461914,0.08935964852571487
1772708513638374700,4.761374755859375,0.7105202078819275,-1.6664775609970093,0.04213380813598633
1772708513648400600,4.771400634765625,0.9733331799507141,-0.8396213054656982,0.024070721119642258
1772708513658426600,4.781426513671875,1.09120774269104,-0.20527337491512299,-0.01129659079015255
1772708513668452600,4.79145263671875,1.1664869785308838,0.21133901178836823,-0.05377185717225075
1772708513678478600,4.801478515625,1.157184362411499,0.5566738247871399,-0.09953082352876663
1772708513688504600,4.811504638671875,1.0029603242874146,0.6595349907875061,-0.17457742989063263
1772708513698529500,4.821529541015625,0.825987696647644,0.584450364112854,-0.17703473567962646
1772708513708555500,4.831555419921875,0.7052679061889648,0.5021953582763672,-0.010019456036388874
1772708513718581500,4.84158154296875,0.6302762627601624,0.47048965096473694,0.3210330605506897
1772708513728607500,4.851607421875,0.589657723903656,0.4557330906391144,0.7527251243591309
1772708513738633500,4.861633544921875,0.5541263222694397,0.517148494720459,1.186584234237671
1772708513748658400,4.871658447265625,0.45679977536201477,0.6308587789535522,1.5039241313934326
1772708513758684400,4.881684326171875,0.2135264128446579,0.534941554069519,1.621593713760376
1772708513768710700,4.891710693359375,-0.028432944789528847,0.4784093201160431,1.6614588499069214
1772708513778736600,4.901736572265625,-0.10737329721450806,0.7213271260261536,1.7984840869903564
1772708513788762600,4.9117626953125,0.02260172925889492,1.1661568880081177,1.9469506740570068
1772708513798788600,4.92178857421875,0.3083812892436981,1.6920888423919678,2.018369436264038
1772708513808813600,4.9318134765625,0.6413437724113464,1.54318368434906,1.6181106567382812
1772708513818839600,4.941839599609375,0.7239875197410583,0.5994945168495178,0.3554866313934326
1772708513828865500,4.951865478515625,0.5120832920074463,-0.2809133231639862,-1.4106651544570923
1772708513838891500,4.9618916015625,-0.10441798716783524,-1.0370981693267822,-2.8258213996887207
1772708513848917500,4.97191748046875,-0.9150688052177429,-1.374671220779419,-3.277672529220581
1772708513858942500,4.9819423828125,-1.2911922931671143,-0.7194584608078003,-2.531811475753784
1772708513868968400,4.991968505859375,-1.0745649337768555,0.5522934198379517,-1.0897915363311768
1772708513878994400,5.001994384765625,-0.4857594966888428,1.486161708831787,-0.06113975867629051
1772708513889020400,5.0120205078125,0.10973397642374039,1.6454261541366577,0.18452656269073486
1772708513899046400,5.02204638671875,0.5786625742912292,0.9827489256858826,0.1419532597064972
1772708513909072400,5.032072265625,0.677013099193573,0.06059771031141281,0.25423452258110046
1772708513919097300,5.042097412109375,0.4211336672306061,-0.7409634590148926,0.5611547827720642
1772708513929123300,5.052123291015625,0.0985172763466835,-1.3407344818115234,0.7871373891830444
1772708513939149600,5.062149658203125,-0.2782806158065796,-1.585537314414978,0.7326786518096924
1772708513949175600,5.072175537109375,-0.6414998173713684,-1.3321608304977417,0.5818405151367188
1772708513959201500,5.082201416015625,-0.877410888671875,-0.9632270336151123,0.5239963531494141
1772708513969226500,5.0922265625,-0.9841751456260681,-0.615257203578949,0.5826019644737244
1772708513979252500,5.10225244140625,-0.9501916170120239,-0.4185470640659332,0.7100887894630432
1772708513989278500,5.112278564453125,-0.7885081768035889,-0.5259941220283508,0.8372567892074585
1772708513999304400,5.122304443359375,-0.5359968543052673,-0.8927412033081055,0.9654789566993713
1772708514009330400,5.132330322265625,-0.28153151273727417,-1.136275053024292,1.1446810960769653
1772708514019356400,5.1423564453125,0.11642330884933472,-1.4816205501556396,1.412813663482666
1772708514029381600,5.152381591796875,0.5139307379722595,-1.9035022258758545,1.7144321203231812
1772708514039407600,5.16240771484375,0.5747005939483643,-1.915116310119629,1.9318674802780151
1772708514049433300,5.172433349609375,0.37656086683273315,-1.404374599456787,1.940189242362976
1772708514059459300,5.182459228515625,0.08682652562856674,-0.4061816930770874,1.777515172958374
1772708514069485300,5.1924853515625,-0.120562344789505,1.039475440979004,1.5975157022476196
1772708514079510500,5.202510498046875,-0.17321783304214478,2.8042240142822266,1.5449033975601196
1772708514089536500,5.21253662109375,0.018352653831243515,4.709368705749512,1.6452714204788208
1772708514099562500,5.2225625,0.45842084288597107,6.285186767578125,1.8390600681304932
1772708514109588500,5.23258837890625,0.9254889488220215,3.0835132598876953,0.08849214762449265
1772708514119614700,5.24261474609375,1.1992902755737305,-0.42739778757095337,-1.4501127004623413
1772708514129639400,5.252639404296875,1.3654613494873047,-0.9201654195785522,-0.7998391389846802
1772708514139665700,5.262665771484375,1.1195738315582275,-1.2407375574111938,-0.22799931466579437
1772708514149691600,5.272691650390625,0.7188265919685364,-1.3334929943084717,0.2503383159637451
1772708514159717600,5.282717529296875,0.23196054995059967,-0.9241303205490112,0.7659963369369507
1772708514169743600,5.29274365234375,-0.1846238672733307,-0.15363337099552155,1.3247427940368652
1772708514179769600,5.30276953125,-0.3559871315956116,0.6805123090744019,1.8458088636398315
1772708514199192600,5.322192626953125,-0.15379087626934052,0.5846207737922668,2.048394203186035
1772708514209218600,5.332218505859375,0.024338115006685257,0.012264298275113106,1.690011978149414
1772708514219244500,5.34224462890625,0.14690956473350525,-0.3247441351413727,1.30971097946167
1772708514229270500,5.3522705078125,0.169546976685524,-0.3838260769844055,0.9963863492012024
1772708514239296500,5.362296630859375,0.16199719905853271,-0.16846345365047455,0.8197148442268372
1772708514249321500,5.372321533203125,0.1904807686805725,0.2710414528846741,0.8319499492645264
1772708514259347500,5.382347412109375,0.20782886445522308,0.6412317752838135,0.955768346786499
1772708514269373400,5.39237353515625,0.18475256860256195,0.7351321578025818,1.1045746803283691
1772708514279399400,5.4023994140625,0.1315937340259552,0.5639634132385254,1.228689193725586
1772708514289425700,5.41242578125,0.049779295921325684,0.2686494290828705,1.3166955709457397
1772708514299450400,5.422450439453125,-0.028696333989501,-0.06747029721736908,1.3772575855255127
1772708514309476600,5.4324765625,-0.05259953439235687,-0.33104148507118225,1.4082512855529785
1772708514319502600,5.442502685546875,-0.03559631481766701,-0.498989462852478,1.3640539646148682
1772708514329528600,5.452528564453125,-0.002595222555100918,-0.6784976720809937,1.2313898801803589
1772708514339554600,5.462554443359375,0.04500877857208252,-0.7513657212257385,1.0585484504699707
1772708514349580500,5.47258056640625,0.11781080812215805,-0.631927490234375,0.8829358816146851
1772708514359605500,5.48260546875,0.1895851492881775,-0.37849658727645874,0.7143691778182983
1772708514369631500,5.492631591796875,0.2507646083831787,-0.02551242522895336,0.5693776607513428
1772708514379657500,5.502657470703125,0.24811875820159912,0.3688114881515503,0.36479631066322327
1772708514389683500,5.512683349609375,0.2043401002883911,0.6265599727630615,0.08087137341499329
1772708514399709400,5.52270947265625,0.18072718381881714,0.6399372816085815,-0.1707722246646881
1772708514409734400,5.532734375,0.15300820767879486,0.5514476299285889,-0.32391518354415894
1772708514419760000,5.542760009765625,0.1290232539176941,0.3899622857570648,-0.3378041386604309
1772708514429786000,5.5527861328125,0.14420939981937408,0.104336678981781,-0.21850569546222687
1772708514439812000,5.56281201171875,0.21539729833602905,-0.20073378086090088,0.02521846443414688
1772708514449838000,5.572838134765625,0.28559207916259766,-0.5467511415481567,0.18102429807186127
1772708514459863300,5.58286328125,0.3301582336425781,-0.6868730187416077,0.2732290029525757
1772708514469889300,5.59288916015625,0.3108353912830353,-0.7293860912322998,0.2476101815700531
1772708514479915300,5.602915283203125,0.25241389870643616,-0.576874852180481,0.1886589378118515
1772708514489941200,5.612941162109375,0.2124108225107193,-0.26413750648498535,0.10705596208572388
1772708514509367300,5.6323671875,0.12331024557352066,0.5902540683746338,-0.16565224528312683
