time,seconds_elapsed,z,y,x
1772708677846940700,0.052940673828125,0.1750277429819107,0.3423786461353302,-0.49184298515319824
1772708677856966000,0.0629658203125,0.1365477293729782,0.16601426899433136,-0.45518189668655396
1772708677866990800,0.072990966796875,0.0930018424987793,0.0027028422337025404,-0.40407049655914307
1772708677877015800,0.083015869140625,0.05438414588570595,-0.11879163235425949,-0.3490988612174988
1772708677887041800,0.093041748046875,0.01167263463139534,-0.18812356889247894,-0.3097618520259857
1772708677897066800,0.103066650390625,-0.04923225939273834,-0.2211771309375763,-0.3068835139274597
1772708677907092000,0.113092041015625,-0.12642185389995575,-0.2344399392604828,-0.34057968854904175
1772708677917117000,0.123116943359375,-0.19702544808387756,-0.2468566596508026,-0.4073805510997772
1772708677927141600,0.1331416015625,-0.24396446347236633,-0.28323888778686523,-0.48811906576156616
1772708677937166600,0.14316650390625,-0.2880701422691345,-0.33246129751205444,-0.5729008316993713
1772708677947191800,0.15319189453125,-0.3614109456539154,-0.3058587312698364,-0.628078281879425
1772708677957216800,0.163216796875,-0.4414237439632416,-0.1743566244840622,-0.657960057258606
1772708677967241700,0.17324169921875,-0.5088898539543152,-0.07405451685190201,-0.6595911979675293
1772708677977266700,0.1832666015625,-0.5724304914474487,0.0007954862085171044,-0.5925722718238831
1772708677987292700,0.193292724609375,-0.6442053318023682,0.07426038384437561,-0.45609936118125916
1772708677997318000,0.20331787109375,-0.7120919823646545,0.1739528924226761,-0.29351896047592163
1772708678007342800,0.2133427734375,-0.7463905811309814,0.27170127630233765,-0.14610661566257477
1772708678017367800,0.223367919921875,-0.7577002048492432,0.37175092101097107,-0.03057042509317398
1772708678027392800,0.233392822265625,-0.7652678489685059,0.491752952337265,0.052374791353940964
1772708678037417700,0.243417724609375,-0.7757750749588013,0.6280969381332397,0.09056585282087326
1772708678047442700,0.253442626953125,-0.8417389392852783,0.7481296062469482,0.07279404252767563
1772708678057467600,0.263467529296875,-0.9706020951271057,0.821136474609375,-0.016821324825286865
1772708678067492600,0.27349267578125,-1.0925415754318237,0.8274305462837219,-0.14826057851314545
1772708678077517800,0.283517822265625,-1.067728877067566,0.9288144111633301,-0.29498425126075745
1772708678087543800,0.293543701171875,-0.9465039372444153,1.1077924966812134,-0.3841495215892792
1772708678097568800,0.30356884765625,-0.7485519647598267,1.3654577732086182,-0.4385318160057068
1772708678107593700,0.31359375,-0.5318854451179504,1.6696232557296753,-0.4874682128429413
1772708678117618700,0.32361865234375,-0.3845447599887848,1.9185659885406494,-0.5458425283432007
1772708678127644000,0.333643798828125,-0.35691899061203003,1.9393306970596313,-0.569503664970398
1772708678137668900,0.3436689453125,-0.44090816378593445,1.6678259372711182,-0.5604108572006226
1772708678147693800,0.35369384765625,-0.6290705800056458,0.9710822701454163,-0.5138606429100037
1772708678157718800,0.36371875,-0.6524837613105774,-0.1308048814535141,-0.5652641654014587
1772708678167743700,0.37374365234375,-0.21903488039970398,0.6081091165542603,-1.5356255769729614
1772708678177768700,0.383768798828125,0.46215298771858215,0.6704047322273254,-1.5742863416671753
1772708678187794700,0.393794677734375,0.6893107891082764,1.129443645477295,-1.2327841520309448
1772708678197819600,0.403819580078125,0.802395761013031,0.8068264722824097,-0.7169381380081177
1772708678207844600,0.4138447265625,0.7456667423248291,0.2022407203912735,-0.03184181824326515
1772708678217869800,0.423869873046875,0.5957451462745667,-0.08013531565666199,0.7627245187759399
1772708678227894800,0.433894775390625,0.3661803901195526,-0.1349458396434784,1.440104365348816
1772708678237919700,0.443919677734375,0.10521004348993301,0.3176964819431305,1.4743483066558838
1772708678247944700,0.45394482421875,0.1147710531949997,1.5264216661453247,0.902429461479187
1772708678257970000,0.463969970703125,0.35615625977516174,1.8667742013931274,0.5113114714622498
1772708678267994600,0.47399462890625,0.5687963366508484,2.133183240890503,0.1791846603155136
1772708678278019600,0.48401953125,0.8609784245491028,2.0764403343200684,-0.05873814970254898
1772708678288045600,0.494045654296875,1.286354422569275,1.8127620220184326,0.0021467742044478655
1772708678298070800,0.50407080078125,1.762062907218933,1.376463532447815,0.12373259663581848
1772708678308095700,0.514095703125,2.14288330078125,0.6886910796165466,0.2296009659767151
1772708678318120700,0.52412060546875,2.279423713684082,-0.18861491978168488,0.45567670464515686
1772708678328145700,0.534145751953125,2.113555431365967,-1.308692216873169,0.9424501061439514
1772708678338171000,0.5441708984375,1.7247984409332275,-2.6346375942230225,1.7195557355880737
1772708678348195800,0.55419580078125,1.3913602828979492,-3.932819128036499,2.719954252243042
1772708678358220800,0.564220703125,1.261315107345581,-4.573882579803467,3.6649227142333984
1772708678368245800,0.574245849609375,1.0720791816711426,-4.385294437408447,4.151988983154297
1772708678378271700,0.584271728515625,0.8967007398605347,-3.6853859424591064,4.005489826202393
1772708678388297000,0.594296875,0.7841025590896606,-2.6722989082336426,3.201181650161743
1772708678398322000,0.604322021484375,0.7014963626861572,-1.5032672882080078,2.0059783458709717
1772708678408346600,0.6143466796875,0.5081756114959717,-0.30099260807037354,0.7284715175628662
1772708678418371600,0.62437158203125,0.25970375537872314,0.6635127067565918,-0.46179667115211487
1772708678428396800,0.634396728515625,0.02870967611670494,1.189486026763916,-1.4408947229385376
1772708678438421800,0.644421875,-0.14374704658985138,1.2836804389953613,-2.0410268306732178
1772708678448446700,0.65444677734375,-0.25015339255332947,1.1092283725738525,-2.089552402496338
1772708678458471700,0.6644716796875,-0.29465481638908386,0.8136844038963318,-1.597995400428772
1772708678468497000,0.674496826171875,-0.27860021591186523,0.4008805751800537,-0.8614434003829956
1772708678478523000,0.68452294921875,-0.24029941856861115,-0.006221144460141659,-0.18102863430976868
1772708678488547800,0.6945478515625,-0.18646521866321564,-0.3856843113899231,0.24509496986865997
1772708678498572800,0.70457275390625,-0.10589393973350525,-0.6592183709144592,0.3879879415035248
1772708678508597800,0.71459765625,0.029826872050762177,-0.7308465242385864,0.32741594314575195
1772708678518623000,0.724623046875,0.20603172481060028,-0.5688868761062622,0.1467289924621582
1772708678528647700,0.734647705078125,0.40684473514556885,-0.19611677527427673,-0.06462373584508896
1772708678538672600,0.744672607421875,0.6122162342071533,0.2846311926841736,-0.2429596483707428
1772708678548697600,0.754697509765625,0.7563406825065613,0.6298589110374451,-0.3924255669116974
1772708678558722800,0.764722900390625,0.7409545183181763,0.6957878470420837,-0.49517619609832764
1772708678568747800,0.774747802734375,0.6150983572006226,0.5767003297805786,-0.469939261674881
1772708678578775000,0.784775146484375,0.41414204239845276,0.3152889907360077,-0.32003286480903625
1772708678588800000,0.794800048828125,0.2042122632265091,0.022159097716212273,-0.09306922554969788
1772708678598825000,0.804824951171875,0.02941674366593361,-0.124058298766613,0.1334773600101471
1772708678608850000,0.814849853515625,-0.05721242353320122,0.01164387259632349,0.2718248665332794
1772708678618875100,0.824875244140625,-0.02340705506503582,0.3464144170284271,0.3145779073238373
1772708678628900000,0.834900146484375,0.023498401045799255,1.029732584953308,0.3571338951587677
1772708678638925000,0.844925048828125,0.09992659837007523,1.8172903060913086,0.3139214515686035
1772708678648950000,0.854949951171875,0.09938384592533112,1.6737858057022095,0.08526243269443512
1772708678658975200,0.864975341796875,-0.015809057280421257,1.0150175094604492,0.16283978521823883
1772708678669000000,0.875,-0.22738522291183472,-0.27892911434173584,0.4853840172290802
1772708678679026200,0.885026123046875,-0.3978120684623718,-2.219466209411621,1.0799403190612793
1772708678689051000,0.89505078125,-0.5337963104248047,-4.1769328117370605,1.9570378065109253
1772708678699075800,0.905075927734375,-0.5905554294586182,-5.375702381134033,2.735297679901123
1772708678709101000,0.91510107421875,-0.5458350777626038,-4.806241512298584,3.0445492267608643
1772708678719126000,0.9251259765625,-0.3728952705860138,-3.0780365467071533,3.0583181381225586
1772708678729151000,0.93515087890625,-0.16273458302021027,-0.9325633645057678,2.7804720401763916
1772708678739176000,0.945176025390625,-0.1898418366909027,1.1612836122512817,2.094944715499878
1772708678749201200,0.955201171875,-0.30569255352020264,2.511937379837036,1.2610576152801514
1772708678759226000,0.96522607421875,-0.31192725896835327,2.5477616786956787,0.4706657826900482
1772708678769251000,0.9752509765625,-0.199402317404747,1.0725122690200806,0.07675842940807343
1772708678779277000,0.985277099609375,0.08691173046827316,-1.097598671913147,0.16809312999248505
1772708678789302000,0.995302001953125,0.697932243347168,-2.335613250732422,0.7558748722076416
1772708678799327000,1.005326904296875,1.2966192960739136,-1.781105637550354,1.5496330261230469
1772708678809352000,1.01535205078125,1.4587054252624512,-0.2172497659921646,2.152357816696167
1772708678819377000,1.025376953125,1.1015976667404175,0.6118308901786804,1.897064208984375
1772708678829401900,1.03540185546875,0.40560102462768555,0.916481614112854,0.9881851077079773
1772708678839427000,1.045427001953125,-0.18340763449668884,1.0981574058532715,-0.24768783152103424
1772708678849452000,1.0554521484375,-0.46927908062934875,1.7845594882965088,-1.4188987016677856
1772708678859477000,1.06547705078125,-0.38102084398269653,2.9019696712493896,-2.073091745376587
1772708678869502000,1.075501953125,-0.08159712702035904,3.578747272491455,-2.0319931507110596
1772708678879528000,1.08552783203125,-0.007322361227124929,3.1367597579956055,-1.855769157409668
1772708678889553200,1.09555322265625,-0.18233785033226013,2.046013116836548,-2.0716660022735596
1772708678899578000,1.105578125,-0.2794273793697357,0.6246617436408997,-2.566239595413208
1772708678909603000,1.11560302734375,-0.14075498282909393,-0.6884939670562744,-2.6606407165527344
1772708678919628000,1.1256279296875,0.0218520350754261,-1.6177479028701782,-2.2090394496917725
1772708678929653000,1.135653076171875,-0.11305038630962372,-1.8559542894363403,-1.6051673889160156
1772708678939678000,1.145677978515625,-0.45331183075904846,-1.4668153524398804,-1.3216255903244019
1772708678949703000,1.155702880859375,-0.7535616755485535,-0.902885913848877,-1.5179216861724854
1772708678959728000,1.16572802734375,-0.7793469429016113,-0.3988102376461029,-2.000361442565918
1772708678969753000,1.175753173828125,-0.4591580033302307,0.13534291088581085,-2.420978546142578
1772708678979778000,1.185778076171875,0.04434589296579361,0.5134145617485046,-2.575500726699829
1772708678989804000,1.195803955078125,0.4807269275188446,0.5089812278747559,-2.5058934688568115
1772708678999829000,1.2058291015625,0.8067449927330017,0.4157508611679077,-2.1969404220581055
1772708679009854000,1.21585400390625,1.056710124015808,0.45238956809043884,-1.6736055612564087
1772708679019879200,1.225879150390625,1.1251640319824219,0.3086545169353485,-1.06778085231781
1772708679029904100,1.235904052734375,1.0539913177490234,-0.08800362795591354,-0.4794139862060547
1772708679039928800,1.2459287109375,0.8977921009063721,-0.4393869638442993,-0.008229699917137623
1772708679049954000,1.2559541015625,0.6337239146232605,-0.6818419098854065,0.17459844052791595
1772708679059979000,1.26597900390625,0.3550265431404114,-0.6957910656929016,0.13138997554779053
1772708679070004000,1.27600390625,0.12717179954051971,-0.5723732113838196,-0.03959348052740097
1772708679080029000,1.28602880859375,-0.024149011820554733,-0.3542470335960388,-0.2001277655363083
1772708679090055000,1.296054931640625,-0.0475936159491539,-0.0570417158305645,-0.23177623748779297
1772708679100080000,1.306080078125,0.007015565410256386,0.0334588922560215,-0.17125137150287628
1772708679110105000,1.31610498046875,0.1910804808139801,-0.018259432166814804,-0.026867832988500595
1772708679120130000,1.326130126953125,0.566582202911377,-0.09944456815719604,0.07899495214223862
1772708679130155000,1.336155029296875,0.7212777733802795,-0.034692998975515366,0.23174534738063812
1772708679140180200,1.34618017578125,0.6612488031387329,-0.0829143226146698,0.3891027569770813
1772708679150205000,1.356204833984375,0.3758138418197632,-0.1760178953409195,0.567108154296875
1772708679160230000,1.36622998046875,-0.06766000390052795,-0.3365151584148407,0.7018614411354065
1772708679170254800,1.3762548828125,-0.5910201668739319,-0.5311091542243958,0.7956824898719788
1772708679180280000,1.386280029296875,-1.0116121768951416,-0.6714803576469421,0.8427088260650635
1772708679190306000,1.39630615234375,-1.2349733114242554,-0.5993204116821289,0.8806368112564087
1772708679200331000,1.4063310546875,-1.3406301736831665,-0.4304025173187256,0.9089453816413879
1772708679210356000,1.41635595703125,-1.3793776035308838,-0.19454604387283325,0.9242599010467529
1772708679220381000,1.426380859375,-1.2874815464019775,0.04574937745928764,0.9225717186927795
1772708679230406100,1.43640625,-1.1177822351455688,0.26541969180107117,0.9327889680862427
1772708679240431000,1.44643115234375,-0.9233432412147522,0.5265740752220154,1.0292736291885376
1772708679250456000,1.4564560546875,-0.7612496614456177,0.6940834522247314,1.1790701150894165
1772708679260481000,1.46648095703125,-0.74201500415802,0.30215984582901,1.2797538042068481
1772708679270506000,1.476506103515625,-0.9736564755439758,-0.09749273210763931,1.3587565422058105
1772708679280531000,1.486531005859375,-1.3033009767532349,-0.25257420539855957,1.4284157752990723
1772708679290557000,1.496556884765625,-1.5610480308532715,-0.24849636852741241,1.4826613664627075
1772708679300582000,1.506581787109375,-1.7540127038955688,0.15652357041835785,1.5789109468460083
1772708679310606800,1.51660693359375,-1.6453336477279663,0.43143075704574585,1.5874106884002686
1772708679320632000,1.526632080078125,-1.3039870262145996,0.2663387358188629,1.3384019136428833
1772708679330657000,1.536656982421875,-0.9281848669052124,0.09160981327295303,1.0415526628494263
1772708679340682000,1.546681884765625,-0.39997804164886475,0.04628174379467964,0.8611568212509155
1772708679350707000,1.55670703125,0.21063393354415894,-0.07501538842916489,0.9114253520965576
1772708679360732200,1.566732177734375,0.6266061067581177,-0.23745755851268768,1.2588189840316772
1772708679370757000,1.576757080078125,0.6963117122650146,-0.48729321360588074,1.820780634880066
1772708679380782000,1.586781982421875,0.40446385741233826,-0.6037828326225281,2.451817512512207
1772708679390808000,1.59680810546875,-0.00038402783684432507,-0.3436678946018219,2.736555337905884
1772708679400833000,1.6068330078125,-0.2931216359138489,0.11227141320705414,2.3868753910064697
1772708679410858000,1.61685791015625,-0.33563047647476196,0.7849536538124084,1.6596300601959229
1772708679420883000,1.626883056640625,-0.19385921955108643,1.5256935358047485,0.8781768083572388
1772708679430908000,1.636907958984375,0.15524950623512268,2.069514751434326,0.3923150599002838
1772708679440932900,1.646932861328125,0.5741444826126099,2.0581603050231934,0.1800595223903656
1772708679450958000,1.6569580078125,0.6283922791481018,1.3642362356185913,0.021275194361805916
1772708679460983000,1.666983154296875,0.34280556440353394,0.5197616815567017,-0.04048271104693413
1772708679471008000,1.677008056640625,-0.008237956091761589,0.09767010062932968,-0.06412625312805176
1772708679481033000,1.687032958984375,-0.3118058145046234,-0.3843359649181366,-0.34360796213150024
1772708679491059000,1.697058837890625,-0.4421675503253937,-1.1988632678985596,-0.8482024073600769
1772708679501084200,1.707084228515625,-0.4562343657016754,-1.9674105644226074,-1.326388955116272
1772708679511109000,1.717109130859375,-0.37744370102882385,-2.322613000869751,-1.599076747894287
1772708679521133800,1.7271337890625,-0.26688894629478455,-2.3049838542938232,-1.7710926532745361
1772708679531159000,1.737158935546875,-0.25027722120285034,-2.1838033199310303,-2.062359094619751
1772708679541184000,1.74718408203125,-0.2132241278886795,-1.8331618309020996,-2.3603289127349854
1772708679551209000,1.757208984375,0.05066876858472824,-1.0991175174713135,-2.4356398582458496
1772708679561234000,1.76723388671875,0.5326108932495117,0.08057926595211029,-2.2507452964782715
1772708679571259100,1.777259033203125,0.8386102318763733,1.432775855064392,-1.8052551746368408
1772708679581283800,1.787283935546875,0.8806272149085999,1.9139240980148315,-1.1670637130737305
1772708679591308800,1.797308837890625,0.8680717349052429,1.3845603466033936,-0.4655133783817291
1772708679601333800,1.807333740234375,0.9287619590759277,0.5199958086013794,0.39402905106544495
1772708679611359000,1.81735888671875,1.0678356885910034,-0.3021846115589142,1.1726279258728027
1772708679621384000,1.827384033203125,1.254056453704834,-0.6763297319412231,1.4844292402267456
1772708679631409000,1.837408935546875,1.4205974340438843,-0.7350375056266785,1.3016912937164307
1772708679641433900,1.847433837890625,1.5872615575790405,-0.5156489610671997,0.9257041215896606
1772708679651459000,1.857458984375,1.8867342472076416,-0.0979958027601242,0.6379032135009766
1772708679661484000,1.867484130859375,2.2177817821502686,0.312431663274765,0.452377051115036
1772708679671508700,1.8775087890625,2.293823480606079,0.3828038275241852,0.3169366717338562
1772708679681534700,1.88753466796875,2.0471203327178955,0.3205591142177582,0.24448804557323456
1772708679691559700,1.8975595703125,1.6796623468399048,0.23041190207004547,0.2443101406097412
1772708679701585000,1.9075849609375,1.2298789024353027,0.03430843725800514,0.2746534049510956
1772708679711609900,1.91760986328125,0.7385891079902649,-0.25101572275161743,0.3451078534126282
1772708679721634800,1.927634765625,0.25811702013015747,-0.5549753308296204,0.4380441904067993
1772708679731659800,1.93765966796875,-0.13203659653663635,-0.7255127429962158,0.5503755211830139
1772708679741685000,1.94768505859375,-0.42042818665504456,-0.7614129185676575,0.6307417154312134
1772708679751710000,1.9577099609375,-0.6409826278686523,-0.6572399139404297,0.648480236530304
1772708679761735000,1.96773486328125,-0.7938600778579712,-0.42751777172088623,0.6169223189353943
1772708679771759900,1.977759765625,-0.8816714286804199,-0.138115793466568,0.5300034284591675
1772708679781785900,1.987785888671875,-0.9125374555587769,0.039195071905851364,0.3441046476364136
1772708679791811000,1.99781103515625,-0.9584692716598511,0.10563082247972488,0.11014887690544128
1772708679801835800,2.007835693359375,-1.0155408382415771,0.11591222137212753,-0.09148437529802322
1772708679811860700,2.01786083984375,-1.1205673217773438,0.0725138783454895,-0.2500167489051819
1772708679821886000,2.027885986328125,-1.2765476703643799,-0.04795128107070923,-0.39026200771331787
1772708679831911000,2.037910888671875,-1.422174334526062,-0.20811805129051208,-0.5383872985839844
1772708679841936000,2.047935791015625,-1.5708773136138916,-0.37993934750556946,-0.7052820324897766
1772708679851960800,2.0579609375,-1.7211107015609741,-0.4973897933959961,-0.8696720004081726
1772708679861986000,2.067986083984375,-1.8525952100753784,-0.5932068824768066,-1.0437349081039429
1772708679872011000,2.078010986328125,-1.9133459329605103,-0.7459269165992737,-1.166506052017212
1772708679882037000,2.088037109375,-1.7775148153305054,-0.757782518863678,-1.3083505630493164
1772708679892062000,2.09806201171875,-1.5980976819992065,-0.3961784839630127,-1.486346960067749
1772708679902087000,2.1080869140625,-1.4624749422073364,-0.02442757785320282,-1.7483530044555664
1772708679912111900,2.11811181640625,-1.34925377368927,0.34896039962768555,-2.055490255355835
1772708679922136800,2.12813671875,-1.1911879777908325,0.8151469826698303,-2.1701345443725586
1772708679932161800,2.138161865234375,-0.8854251503944397,1.0007437467575073,-1.9852880239486694
1772708679942186800,2.148186767578125,-0.4489458501338959,0.922304630279541,-1.6251122951507568
1772708679952212000,2.1582119140625,0.023978037759661674,0.8022271990776062,-1.0656391382217407
1772708679962237000,2.16823681640625,0.33670663833618164,0.4182654321193695,-0.4034217596054077
1772708679972263000,2.178262939453125,0.3810805082321167,-0.2821182310581207,0.14918522536754608
1772708679982288000,2.188287841796875,-0.08462060987949371,-0.5340583324432373,0.4679437577724457
1772708679992312800,2.198312744140625,-0.760402262210846,-0.8143930435180664,0.32492348551750183
1772708680002338000,2.208338134765625,-1.1336607933044434,-1.1367326974868774,-0.10118946433067322
1772708680012363000,2.218363037109375,-1.23253333568573,-1.145053505897522,-0.49251142144203186
1772708680022388000,2.228387939453125,-1.017362117767334,-1.1057186126708984,-0.863365650177002
1772708680032412700,2.23841259765625,-0.5435456037521362,-0.828403651714325,-1.2473719120025635
1772708680042438000,2.24843798828125,0.11946088075637817,-0.554620623588562,-1.8218998908996582
1772708680052462800,2.258462890625,0.7384862899780273,-0.15687057375907898,-2.644623279571533
1772708680062487800,2.26848779296875,1.0891053676605225,0.518986165523529,-3.418395519256592
1772708680072513800,2.278513671875,1.1895461082458496,0.9695200324058533,-3.737884998321533
1772708680082538800,2.288538818359375,1.0615540742874146,0.765404224395752,-3.4494009017944336
1772708680092564000,2.29856396484375,0.8436793088912964,0.27918821573257446,-2.669032335281372
1772708680102589000,2.3085888671875,0.5268670320510864,-0.20788368582725525,-1.705412745475769
1772708680112614000,2.31861376953125,-0.04406066983938217,-0.7512902617454529,-0.7514321804046631
1772708680122638800,2.328638916015625,-0.7250275015830994,-1.1257578134536743,0.15791666507720947
1772708680132664000,2.3386640625,-1.3553804159164429,-1.080568552017212,0.908271074295044
1772708680142689000,2.34868896484375,-1.842524766921997,-0.6844733953475952,1.3560885190963745
1772708680152713700,2.358713623046875,-2.0226807594299316,0.013038836419582367,1.5434142351150513
1772708680162740000,2.368739990234375,-1.7006072998046875,0.9039921760559082,1.549106240272522
1772708680172764700,2.3787646484375,-0.8680810332298279,1.3881762027740479,1.390346884727478
1772708680182790000,2.388789794921875,0.22654898464679718,1.5964909791946411,1.3499619960784912
1772708680192814800,2.39881494140625,1.1913347244262695,1.4925254583358765,1.452642798423767
1772708680202839800,2.40883984375,1.7455356121063232,1.0241835117340088,1.5312910079956055
1772708680212864800,2.41886474609375,1.8464819192886353,0.2790071368217468,1.505863070487976
1772708680222890000,2.428889892578125,1.610327959060669,-0.33075475692749023,1.565035343170166
1772708680232915000,2.4389150390625,1.2015138864517212,-0.8074949383735657,1.7669386863708496
1772708680242940000,2.44893994140625,0.7934560775756836,-1.3058784008026123,2.026851177215576
1772708680252964900,2.45896484375,0.4262210726737976,-1.6672784090042114,2.285829544067383
1772708680262990000,2.468989990234375,0.10472162067890167,-1.8527904748916626,2.4133126735687256
1772708680273016000,2.47901611328125,-0.09428709000349045,-1.8116976022720337,2.4082577228546143
1772708680283041000,2.489041015625,-0.15196342766284943,-1.2860069274902344,2.251203775405884
1772708680293065700,2.499065673828125,0.010820955969393253,-0.5785786509513855,1.9768407344818115
1772708680303090700,2.509090576171875,0.2790886163711548,-0.02003576047718525,1.6495715379714966
1772708680313116000,2.519115966796875,0.4662412106990814,0.26380741596221924,1.3356093168258667
1772708680323140900,2.529140869140625,0.5176883935928345,0.2643629312515259,1.091981291770935
1772708680333165800,2.539165771484375,0.42567992210388184,0.11472392082214355,0.9236465692520142
1772708680343190800,2.549190673828125,0.23672492802143097,-0.0485968291759491,0.7886157631874084
1772708680353216000,2.559216064453125,-0.03473134711384773,-0.2474244385957718,0.6062182784080505
1772708680363241000,2.569240966796875,-0.21983222663402557,-0.56830233335495,0.38730138540267944
1772708680373267000,2.579266845703125,-0.20501093566417694,-0.84759920835495,0.22290338575839996
1772708680383292000,2.5892919921875,-0.08934639394283295,-0.8881727457046509,0.1502523571252823
1772708680393316900,2.59931689453125,0.03858787193894386,-0.7156968116760254,0.1367860734462738
1772708680403341800,2.609341796875,0.12720029056072235,-0.4285939633846283,0.18261109292507172
1772708680413366800,2.61936669921875,0.15881654620170593,-0.19428639113903046,0.23217837512493134
1772708680423391700,2.629391845703125,0.11968831717967987,-0.08994613587856293,0.2557777166366577
1772708680433417000,2.6394169921875,0.01949566975235939,-0.05282433331012726,0.2659853398799896
1772708680443442000,2.64944189453125,-0.09061245620250702,-0.17062872648239136,0.2662050426006317
1772708680453467000,2.659466796875,-0.20524343848228455,-0.5156236886978149,0.30881670117378235
1772708680463491800,2.669491943359375,-0.30893173813819885,-0.8598212599754333,0.47930535674095154
1772708680473517800,2.679517822265625,-0.17508898675441742,-0.8579578399658203,0.7769705653190613
1772708680483543000,2.68954296875,0.2707928717136383,-0.3462466299533844,1.2002947330474854
1772708680493568000,2.699568115234375,0.9567656517028809,0.6530582308769226,1.8491400480270386
1772708680503593000,2.709593017578125,1.7742892503738403,1.796292781829834,2.643918991088867
1772708680513618000,2.719617919921875,2.3546302318573,2.2809886932373047,3.2869069576263428
1772708680523643000,2.729642822265625,2.594907522201538,1.6152045726776123,3.661821126937866
1772708680533667800,2.739667724609375,2.266144037246704,0.3818916976451874,3.744645118713379
1772708680543692800,2.74969287109375,1.5798680782318115,-0.902591347694397,3.8219568729400635
1772708680553717800,2.7597177734375,0.9861512184143066,-1.771417260169983,3.954258680343628
1772708680563743700,2.76974365234375,0.5212397575378418,-2.2291481494903564,3.832305669784546
1772708680573769000,2.77976904296875,0.1907302737236023,-1.7589454650878906,3.3867366313934326
1772708680583794200,2.789794189453125,0.2092704027891159,-0.20182473957538605,2.5638797283172607
1772708680593819000,2.79981884765625,0.4016108214855194,1.3377995491027832,1.791508436203003
1772708680603843800,2.80984375,0.6624690294265747,1.9579871892929077,1.1837489604949951
1772708680613869000,2.819869140625,0.7776907086372375,1.5046180486679077,0.5668525099754333
1772708680623894000,2.82989404296875,0.5653893351554871,0.790058970451355,0.0006921555614098907
1772708680633919000,2.8399189453125,0.1905829906463623,0.31431639194488525,-0.45656540989875793
1772708680643944000,2.84994384765625,0.03431056812405586,0.05299956724047661,-0.7584751844406128
1772708680653969200,2.85996923828125,0.1357881873846054,0.26838353276252747,-0.8917520046234131
1772708680663995100,2.8699951171875,0.3900772035121918,0.8529489636421204,-0.9815197587013245
1772708680674020000,2.88002001953125,0.47885340452194214,1.4668896198272705,-1.072407841682434
1772708680684045000,2.890045166015625,0.542230486869812,1.7902852296829224,-1.1272153854370117
1772708680694070000,2.900070068359375,0.5990589261054993,1.8102240562438965,-1.2038068771362305
1772708680704095200,2.91009521484375,0.6469883322715759,1.4264495372772217,-1.244782567024231
1772708680714120000,2.920119873046875,0.615451455116272,0.9764125943183899,-1.1318436861038208
1772708680724145000,2.930144775390625,0.3534395694732666,0.5734195709228516,-0.9400684237480164
1772708680734169900,2.940169921875,-0.14676573872566223,0.35113298892974854,-0.7831733822822571
1772708680744195000,2.950195068359375,-0.5740712881088257,0.2911932170391083,-0.5751847624778748
1772708680754220000,2.960219970703125,-0.6919283866882324,0.42382556200027466,-0.23005850613117218
1772708680764246000,2.97024609375,-0.6103853583335876,0.685674786567688,0.13431653380393982
1772708680774271000,2.98027099609375,-0.5265578031539917,0.9174374341964722,0.3151451647281647
1772708680784296000,2.9902958984375,-0.45017489790916443,0.942101776599884,0.18004247546195984
1772708680794321200,3.000321044921875,-0.41964441537857056,1.1493734121322632,0.011392204090952873
1772708680804346000,3.01034619140625,-0.2770734131336212,1.2713291645050049,-0.1744551658630371
1772708680814371000,3.02037109375,-0.04193626344203949,1.1412118673324585,-0.3186482787132263
1772708680824395800,3.030395751953125,0.17234034836292267,0.8739948868751526,-0.37169021368026733
1772708680834421000,3.0404208984375,0.25544989109039307,0.518309473991394,-0.3688696324825287
1772708680844446000,3.050446044921875,0.21801036596298218,0.17164473235607147,-0.3283664286136627
1772708680854471000,3.060470947265625,0.12506496906280518,-0.06096614897251129,-0.2184242159128189
1772708680864497000,3.070496826171875,0.0026607641484588385,-0.15651370584964752,-0.022172413766384125
1772708680874521900,3.08052197265625,-0.13378416001796722,-0.2655147612094879,0.1651703119277954
1772708680884547000,3.090547119140625,-0.27941831946372986,-0.4418479800224304,0.2730776071548462
1772708680894572000,3.100572021484375,-0.4171186685562134,-0.6068630218505859,0.288338840007782
1772708680904597000,3.110596923828125,-0.5511773824691772,-0.7118679881095886,0.17499472200870514
1772708680914622000,3.1206220703125,-0.6298855543136597,-0.8268662095069885,-0.07925327867269516
1772708680924647200,3.130647216796875,-0.5924036502838135,-1.0454849004745483,-0.4547629952430725
1772708680934672100,3.140672119140625,-0.5147008895874023,-1.38197660446167,-0.9420391917228699
1772708680944696800,3.15069677734375,-0.5140902400016785,-1.663875699043274,-1.4550782442092896
1772708680954722000,3.16072216796875,-0.5844903588294983,-1.6414201259613037,-1.8421822786331177
1772708680964747000,3.1707470703125,-0.6548417210578918,-1.244927167892456,-2.0070950984954834
1772708680974773000,3.18077294921875,-0.6905438303947449,-0.7132275700569153,-1.9818382263183594
1772708680984798000,3.1907978515625,-0.7427181005477905,-0.31097039580345154,-1.8164420127868652
1772708680994823000,3.200822998046875,-0.8765326142311096,-0.23379011452198029,-1.5835986137390137
1772708681004848000,3.21084814453125,-1.0880831480026245,-0.43127045035362244,-1.3410136699676514
1772708681014873000,3.220873046875,-1.369432806968689,-0.7614448666572571,-1.118891716003418
1772708681024898000,3.23089794921875,-1.5446661710739136,-1.242030143737793,-0.9689746499061584
1772708681034923000,3.240923095703125,-1.4173554182052612,-1.7079973220825195,-0.9468850493431091
1772708681044948200,3.2509482421875,-1.0584073066711426,-1.8965437412261963,-0.9814803004264832
1772708681054973200,3.26097314453125,-0.5661087036132812,-1.685489296913147,-0.9472571015357971
1772708681064998000,3.270997802734375,-0.021219801157712936,-1.171712875366211,-0.7793810367584229
1772708681075024100,3.281024169921875,0.514947235584259,-0.5604729056358337,-0.5224155187606812
1772708681085048800,3.291048828125,1.0212538242340088,-0.20144550502300262,-0.1980086863040924
1772708681095074000,3.301073974609375,1.353956937789917,-0.2581958770751953,0.36665868759155273
1772708681105099000,3.31109912109375,1.5540854930877686,-0.27751070261001587,1.5142438411712646
1772708681115124000,3.3211240234375,1.6372145414352417,0.1747656911611557,3.0707287788391113
1772708681125149000,3.33114892578125,1.3787938356399536,-0.16451597213745117,3.84390926361084
1772708681135174100,3.341174072265625,0.6660150289535522,-1.8140240907669067,3.01236629486084
1772708681145199000,3.35119921875,0.19565418362617493,-1.991832971572876,2.41454815864563
1772708681155224000,3.36122412109375,0.312019407749176,-1.6264840364456177,2.2885901927948
1772708681165249000,3.3712490234375,0.6642011404037476,-0.796855092048645,2.046914577484131
1772708681175275000,3.38127490234375,0.8883892297744751,0.25112995505332947,1.1844755411148071
1772708681185300200,3.39130029296875,0.8584910035133362,1.310628890991211,-0.21279855072498322
1772708681195325000,3.401324951171875,0.772953450679779,2.619483470916748,-1.4752508401870728
1772708681205350000,3.411349853515625,0.9191125631332397,3.5391061305999756,-2.2976057529449463
1772708681215374800,3.421374755859375,1.2218025922775269,3.89971923828125,-2.6373000144958496
1772708681225400000,3.431400146484375,1.4668630361557007,3.7796106338500977,-2.6336402893066406
1772708681235425000,3.441425048828125,1.5955543518066406,3.612338066101074,-2.197490930557251
1772708681245450000,3.451449951171875,1.404922366142273,3.256720781326294,-1.4629063606262207
1772708681255475000,3.461474853515625,0.9586591720581055,2.2807822227478027,-0.68650221824646
1772708681265500200,3.471500244140625,0.5353744626045227,0.5390759706497192,0.052565205842256546
1772708681275526100,3.481526123046875,0.2741119861602783,-0.5040527582168579,0.36599022150039673
1772708681285551000,3.491551025390625,0.2216080278158188,-0.3986800014972687,-0.18878883123397827
1772708681295576000,3.501576171875,0.3111850321292877,0.7402234673500061,-1.193163275718689
1772708681305601000,3.51160107421875,0.4408295750617981,2.5888309478759766,-2.195399761199951
1772708681315626000,3.5216259765625,0.6596705913543701,3.901376485824585,-3.078474283218384
1772708681325651000,3.53165087890625,0.759878933429718,4.496761798858643,-3.463496685028076
1772708681335676000,3.541676025390625,0.7204239368438721,4.416679382324219,-3.206371545791626
1772708681345700900,3.551700927734375,0.6366661787033081,3.7475855350494385,-2.4158968925476074
1772708681355726000,3.56172607421875,0.5425636768341064,2.799813985824585,-1.3282840251922607
1772708681365751000,3.5717509765625,0.46931368112564087,1.8080005645751953,-0.28515398502349854
1772708681375776000,3.58177587890625,0.45230674743652344,0.9077293872833252,0.5358285307884216
1772708681385802000,3.591802001953125,0.47192785143852234,0.1929532140493393,1.0564218759536743
1772708681395827000,3.601826904296875,0.5199209451675415,-0.3119911849498749,1.298150658607483
1772708681405852200,3.61185205078125,0.4774211645126343,-0.7484555840492249,1.2592355012893677
1772708681415877000,3.621877197265625,0.29337409138679504,-0.9956755042076111,1.1358124017715454
1772708681425902000,3.631902099609375,0.10405422747135162,-0.9557216763496399,1.0464468002319336
1772708681435927000,3.641927001953125,-0.01684768870472908,-0.804259717464447,0.9231512546539307
1772708681445952000,3.651951904296875,-0.06356485933065414,-0.6829503178596497,0.7592299580574036
1772708681455977000,3.66197705078125,-0.034743864089250565,-0.5610989928245544,0.6002312302589417
1772708681466002000,3.672001953125,0.044081173837184906,-0.4109492003917694,0.47093716263771057
1772708681476027100,3.682027099609375,0.10902155935764313,-0.2985568642616272,0.3776775300502777
1772708681486052900,3.692052978515625,0.03676094487309456,-0.3565368056297302,0.36603257060050964
1772708681496078000,3.702078125,-0.12684716284275055,-0.47954609990119934,0.46626171469688416
1772708681506103000,3.71210302734375,-0.29300257563591003,-0.6403538584709167,0.5912814140319824
1772708681516128000,3.7221279296875,-0.49787741899490356,-0.8560060262680054,0.6187300682067871
1772708681526153000,3.732153076171875,-0.695017397403717,-1.0958939790725708,0.5635530948638916
1772708681536178200,3.74217822265625,-0.8770564198493958,-1.1820977926254272,0.44424164295196533
1772708681546203000,3.752202880859375,-1.0414237976074219,-1.2185535430908203,0.25753673911094666
1772708681556227800,3.762227783203125,-1.1405436992645264,-1.1405333280563354,0.13649259507656097
1772708681566253000,3.772253173828125,-1.1631617546081543,-0.8654937744140625,0.14063887298107147
1772708681576278000,3.782278076171875,-1.128220796585083,-0.4834628105163574,0.21294370293617249
1772708681586303000,3.792302978515625,-1.1342328786849976,-0.09780139476060867,0.31767383217811584
1772708681596329000,3.802328857421875,-1.1352554559707642,0.07596693933010101,0.5056061744689941
1772708681606354000,3.81235400390625,-1.1700917482376099,-0.01738405041396618,0.674171507358551
1772708681616379100,3.822379150390625,-1.2470483779907227,-0.04512087255716324,0.7928906679153442
1772708681626404000,3.832404052734375,-1.2639751434326172,0.07813768088817596,0.7583974599838257
1772708681636429000,3.842428955078125,-1.2172824144363403,-0.07443801313638687,0.6654831767082214
1772708681646454000,3.8524541015625,-1.1274913549423218,0.025231054052710533,0.6614320278167725
1772708681656479200,3.862479248046875,-1.0475211143493652,0.3382779061794281,0.5547454953193665
1772708681666504000,3.87250390625,-0.9296216368675232,0.8103993535041809,0.34230515360832214
1772708681676529000,3.88252880859375,-0.49438121914863586,1.272377371788025,0.3095434606075287
1772708681686553900,3.892553955078125,0.38738366961479187,1.3651081323623657,0.615064263343811
1772708681696579000,3.9025791015625,1.4700369834899902,0.8474085330963135,1.0032479763031006
1772708681706605000,3.91260498046875,2.2658448219299316,-0.02099875919520855,0.9191554188728333
1772708681716630000,3.922630126953125,2.4269402027130127,-0.41428905725479126,0.5169563293457031
1772708681726655000,3.932655029296875,2.1321024894714355,-0.29728254675865173,0.33617135882377625
1772708681736680000,3.942679931640625,1.5549014806747437,-0.3312319815158844,0.009865946136415005
1772708681746705200,3.952705078125,0.8754881024360657,-0.40940243005752563,-0.6864894032478333
1772708681756730000,3.962730224609375,0.20576727390289307,0.034936945885419846,-1.6105031967163086
1772708681766755000,3.972755126953125,-0.32780957221984863,0.6132855415344238,-2.595275402069092
1772708681776780000,3.982780029296875,-0.43111252784729004,0.985457718372345,-3.426145076751709
1772708681786805000,3.992804931640625,-0.061289191246032715,0.731257975101471,-4.174956798553467
1772708681796830000,4.002829833984375,0.5051364302635193,0.16356788575649261,-4.7301025390625
1772708681806856000,4.01285595703125,0.9968113303184509,-0.4407523572444916,-4.986789226531982
1772708681816881000,4.022880859375,1.2654215097427368,-0.753597617149353,-4.784212589263916
1772708681826905900,4.03290576171875,1.4094688892364502,-1.0701377391815186,-4.274259090423584
1772708681836931000,4.04293115234375,1.490153431892395,-1.5618603229522705,-3.6985347270965576
1772708681846956000,4.0529560546875,1.2891595363616943,-1.7180858850479126,-2.847087860107422
1772708681856981000,4.06298095703125,0.732599139213562,-1.579228401184082,-1.6891058683395386
1772708681867006000,4.073005859375,-0.09072324633598328,-1.3813550472259521,-0.38531920313835144
1772708681877031200,4.08303125,-0.9193828701972961,-1.2147761583328247,0.8357154130935669
1772708681887056100,4.09305615234375,-1.5859451293945312,-1.0986617803573608,1.7713379859924316
1772708681897080800,4.103080810546875,-2.012632131576538,-1.0855369567871094,2.3644871711730957
1772708681907106000,4.11310595703125,-2.147616386413574,-1.109106421470642,2.6911051273345947
1772708681917131800,4.1231318359375,-2.1176953315734863,-1.2213815450668335,2.8017334938049316
1772708681927157000,4.133156982421875,-2.0354974269866943,-1.5015504360198975,2.770526885986328
1772708681937182000,4.143181884765625,-1.928442120552063,-1.9162964820861816,2.6000468730926514
1772708681947207000,4.15320703125,-1.8567135334014893,-2.2228317260742188,2.266106605529785
1772708681957231900,4.16323193359375,-1.697666883468628,-2.052973508834839,1.8065364360809326
1772708681967257000,4.173257080078125,-1.3594584465026855,-1.571223497390747,1.289267659187317
1772708681977282000,4.183281982421875,-0.8598247170448303,-1.0147652626037598,0.7113601565361023
1772708681987307000,4.19330712890625,-0.30119553208351135,-0.5129914283752441,0.21032553911209106
1772708681997332200,4.203332275390625,0.09348467737436295,-0.24161875247955322,-0.16503742337226868
1772708682007357200,4.213357177734375,0.24495595693588257,-0.3180863559246063,-0.3625243902206421
1772708682017382000,4.2233818359375,0.22509357333183289,-0.6320304274559021,-0.29198870062828064
1772708682027408100,4.233408203125,0.0834546759724617,-1.054705023765564,0.02791152521967888
1772708682037432800,4.243432861328125,-0.13679645955562592,-1.4663537740707397,0.5421013236045837
1772708682047458000,4.2534580078125,-0.38086479902267456,-1.7501280307769775,1.0937594175338745
1772708682057483000,4.26348291015625,-0.5960023999214172,-1.8594704866409302,1.4567939043045044
1772708682067508000,4.273508056640625,-0.759878933429718,-1.7267496585845947,1.6391500234603882
1772708682077533000,4.283532958984375,-0.8821367025375366,-1.3323241472244263,1.7372585535049438
1772708682087558100,4.29355810546875,-0.9451292157173157,-0.7086924314498901,1.7441699504852295
1772708682097583000,4.3035830078125,-0.9535773396492004,-0.032764870673418045,1.673903226852417
1772708682107608000,4.313608154296875,-0.9231211543083191,0.519292950630188,1.540507435798645
1772708682117633000,4.323633056640625,-0.8650977611541748,0.9281409382820129,1.3175128698349
1772708682127658200,4.333658203125,-0.7895140647888184,1.19131338596344,1.06172513961792
1772708682137684200,4.343684326171875,-0.7445228695869446,1.3344348669052124,0.8006394505500793
1772708682147709000,4.353708984375,-0.6861078143119812,1.4242321252822876,0.5523385405540466
1772708682157734000,4.36373388671875,-0.5986442565917969,1.3644918203353882,0.4101904630661011
1772708682167758800,4.3737587890625,-0.6169984936714172,1.0884991884231567,0.31772497296333313
1772708682177784000,4.3837841796875,-0.6771952509880066,0.7334129810333252,0.2692679464817047
1772708682187809000,4.39380908203125,-0.6622394919395447,0.5539220571517944,0.33763182163238525
1772708682197834000,4.403833984375,-0.610062837600708,0.503070056438446,0.4661045968532562
1772708682207859000,4.41385888671875,-0.486036479473114,0.5227407217025757,0.606260359287262
1772708682217884200,4.42388427734375,-0.2024223506450653,0.45870447158813477,0.8070720434188843
1772708682227909000,4.4339091796875,0.15355999767780304,0.22885023057460785,1.0823116302490234
1772708682237934000,4.44393408203125,0.4938659071922302,-0.0960056260228157,1.3069177865982056
1772708682247960000,4.4539599609375,0.7691131830215454,-0.19941723346710205,1.2797572612762451
1772708682257985000,4.463985107421875,0.8666360378265381,-0.05819166824221611,1.1112127304077148
1772708682268010000,4.474010009765625,0.8931241035461426,0.14481577277183533,0.8691806793212891
1772708682278035000,4.484034912109375,0.8807819485664368,0.29885274171829224,0.3005475699901581
1772708682288060000,4.494059814453125,0.7443886995315552,0.24385234713554382,-0.47065699100494385
1772708682298084900,4.5040849609375,0.6967021226882935,-0.29024726152420044,-0.9862348437309265
1772708682308110000,4.514110107421875,0.7190484404563904,-1.057852029800415,-1.0555367469787598
1772708682318135000,4.524135009765625,0.7575383186340332,-1.4164177179336548,-0.5857705473899841
1772708682328160000,4.534159912109375,0.5850008726119995,-0.5955944061279297,-0.2574102282524109
1772708682338185000,4.54418505859375,0.18238765001296997,0.6562199592590332,-0.48255252838134766
1772708682348210200,4.554210205078125,0.40355944633483887,1.4788740873336792,-1.2067710161209106
1772708682358236200,4.564236083984375,0.9333415627479553,1.8467991352081299,-1.987473487854004
1772708682368261000,4.57426123046875,1.3295924663543701,2.111685276031494,-2.5932042598724365
1772708682378286000,4.5842861328125,1.3711700439453125,2.2567272186279297,-3.0834109783172607
1772708682388310800,4.594310791015625,0.979397177696228,2.3747341632843018,-3.4875476360321045
1772708682398336000,4.6043359375,0.29206594824790955,2.2590386867523193,-3.7548816204071045
1772708682408361000,4.61436083984375,-0.2600723206996918,1.478273868560791,-3.7456107139587402
1772708682418386000,4.624385986328125,-0.4766075611114502,0.22628960013389587,-3.5713534355163574
1772708682428411000,4.634410888671875,-0.4869752526283264,-0.6669830679893494,-3.247657060623169
1772708682438436000,4.64443603515625,-0.4175706207752228,-0.8550669550895691,-2.7084460258483887
1772708682448461000,4.6544609375,-0.3007049858570099,-0.6234795451164246,-2.0637879371643066
1772708682458486000,4.664486083984375,-0.13242489099502563,-0.1966685801744461,-1.5489341020584106
1772708682468512000,4.674511962890625,0.05371888726949692,0.37782159447669983,-1.0708400011062622
1772708682478537000,4.684536865234375,0.3103727698326111,0.7964375019073486,-0.5810173153877258
1772708682488562200,4.694562255859375,0.6675479412078857,0.8802348971366882,-0.12574514746665955
1772708682498587000,4.7045869140625,0.9848111271858215,0.46567076444625854,0.30667710304260254
1772708682508611800,4.71461181640625,1.1104265451431274,-0.38082990050315857,0.5880709886550903
1772708682518637000,4.724636962890625,1.0044835805892944,-1.2854218482971191,0.5883181095123291
1772708682528662000,4.734662109375,0.7963360548019409,-1.875933051109314,0.39373689889907837
1772708682538687000,4.74468701171875,0.6081386804580688,-2.0458130836486816,0.06696012616157532
1772708682548712000,4.7547119140625,0.478375643491745,-1.7300556898117065,-0.3287408649921417
1772708682558737200,4.764737060546875,0.3852294385433197,-1.0826314687728882,-0.6182342171669006
1772708682568762000,4.77476220703125,0.31195417046546936,-0.35834190249443054,-0.703603982925415
1772708682578788000,4.7847880859375,0.29037776589393616,0.21802234649658203,-0.5983140468597412
1772708682588812300,4.794812255859375,0.2947368323802948,0.5363891124725342,-0.3859676718711853
1772708682598837200,4.804837158203125,0.28698596358299255,0.5131375789642334,-0.09943604469299316
1772708682608862500,4.814862548828125,0.19995199143886566,0.1760045886039734,0.1913025826215744
1772708682618887400,4.824887451171875,0.05826170742511749,-0.28060024976730347,0.43939948081970215
1772708682628912400,4.834912353515625,-0.11211694777011871,-0.6170773506164551,0.6275020241737366
1772708682638937600,4.8449375,-0.3045212924480438,-0.7342609167098999,0.7208828330039978
1772708682648962600,4.854962646484375,-0.49744200706481934,-0.6036355495452881,0.7001410722732544
1772708682658987300,4.8649873046875,-0.679481565952301,-0.25412842631340027,0.6042280793190002
1772708682669012200,4.87501220703125,-0.8383673429489136,0.17280213534832,0.475833922624588
1772708682679037400,4.885037353515625,-0.9747531414031982,0.5169368982315063,0.3248838186264038
1772708682689063400,4.8950634765625,-1.0733623504638672,0.6425887942314148,0.17131130397319794
1772708682699088400,4.90508837890625,-1.1017934083938599,0.474940687417984,0.09439095109701157
1772708682709113300,4.91511328125,-1.0677558183670044,0.17673136293888092,0.15625245869159698
1772708682719138300,4.92513818359375,-1.0276927947998047,-0.11094063520431519,0.3127605617046356
1772708682729163500,4.93516357421875,-1.027522325515747,-0.2925961911678314,0.46869024634361267
1772708682739188500,4.9451884765625,-1.0923138856887817,-0.33362722396850586,0.549846351146698
1772708682749213400,4.95521337890625,-1.1671950817108154,-0.24743802845478058,0.5790228843688965
1772708682759238400,4.96523828125,-1.220737099647522,-0.07692860066890717,0.595422625541687
1772708682769263400,4.975263427734375,-1.2288013696670532,0.13688701391220093,0.5266646146774292
1772708682779288300,4.985288330078125,-1.1439507007598877,0.4530836045742035,0.31588685512542725
1772708682789313300,4.995313232421875,-1.0076158046722412,0.7785530090332031,0.04494377225637436
1772708682799339300,5.00533935546875,-0.8458420634269714,0.8533039689064026,-0.15369102358818054
1772708682809364200,5.0153642578125,-0.5783179402351379,0.7449055910110474,-0.02047012187540531
1772708682819389400,5.025389404296875,-0.17569220066070557,0.4671245813369751,0.5839704871177673
1772708682829414400,5.035414306640625,0.25512948632240295,0.032940108329057693,1.4629018306732178
1772708682839439400,5.045439453125,0.6358017325401306,-0.1504203975200653,2.3367888927459717
1772708682849464300,5.05546435546875,0.7357901334762573,-0.04117806255817413,2.7009432315826416
1772708682859489500,5.065489501953125,0.4352867603302002,0.2246597409248352,2.5254695415496826
1772708682869514500,5.075514404296875,-0.043060120195150375,-0.014675615355372429,2.062718629837036
1772708682879539500,5.08553955078125,-0.23594488203525543,-1.0327153205871582,1.5951652526855469
1772708682889564200,5.095564208984375,0.0683702677488327,-1.9566545486450195,1.342695713043213
1772708682899589400,5.10558935546875,0.7117071747779846,-2.0267040729522705,1.1852654218673706
1772708682909615400,5.115615478515625,1.4452922344207764,-1.4576841592788696,0.7633416056632996
1772708682919640300,5.125640380859375,2.288713216781616,-0.7432382106781006,-0.012122975662350655
1772708682929665300,5.135665283203125,2.8485820293426514,0.06967362016439438,-0.6922367811203003
1772708682939690200,5.145690185546875,2.764677047729492,0.8505545258522034,-1.0834537744522095
1772708682949715500,5.155715576171875,2.1210551261901855,1.4930427074432373,-1.373236060142517
1772708682959740400,5.165740478515625,0.9535890221595764,1.9117523431777954,-1.7671575546264648
1772708682969765400,5.175765380859375,-0.3961561322212219,2.0434300899505615,-2.349006414413452
1772708682979790300,5.185790283203125,-1.569224238395691,2.021256923675537,-3.0394036769866943
1772708682989815600,5.195815673828125,-2.151141405105591,1.975819706916809,-3.5842270851135254
1772708682999840500,5.205840576171875,-1.970137357711792,1.7076337337493896,-3.8991336822509766
1772708683009865200,5.215865234375,-1.352094054222107,1.1317150592803955,-4.004375457763672
1772708683019890400,5.225890380859375,-0.6998488903045654,0.43795257806777954,-3.8570685386657715
1772708683029916200,5.235916259765625,-0.22079549729824066,-0.1942775994539261,-3.3751680850982666
1772708683039941400,5.24594140625,0.023925306275486946,-0.6789404153823853,-2.7413179874420166
1772708683049966300,5.25596630859375,0.08405628800392151,-0.9840452075004578,-2.153122663497925
1772708683059991300,5.2659912109375,0.044860150665044785,-1.0424562692642212,-1.600278615951538
1772708683070016500,5.2760166015625,-0.09144895523786545,-0.8677449822425842,-1.0391896963119507
1772708683080041500,5.28604150390625,-0.2917937636375427,-0.4524281919002533,-0.4775897264480591
1772708683090066400,5.29606640625,-0.49866437911987305,0.045456163585186005,-0.08011134713888168
1772708683100091400,5.30609130859375,-0.6693480014801025,0.45052215456962585,0.06712710857391357
1772708683110116600,5.31611669921875,-0.7506425976753235,0.6901313066482544,-0.00245143985375762
1772708683120767200,5.326767333984375,-0.677381157875061,0.6214885711669922,-0.2483895719051361
1772708683130792400,5.33679248046875,-0.5239242315292358,0.22630158066749573,-0.6701692938804626
1772708683140817400,5.3468173828125,-0.361181378364563,-0.3478807508945465,-1.1093472242355347
1772708683150842400,5.35684228515625,-0.11974291503429413,-0.7374476790428162,-1.2139439582824707
1772708683160867300,5.366867431640625,0.09236028790473938,-0.7660766839981079,-0.8707996010780334
1772708683170892500,5.376892578125,0.19256918132305145,-0.6558294892311096,-0.3016360104084015
1772708683180917500,5.38691748046875,0.20650950074195862,-0.5133740901947021,0.29357755184173584
1772708683190943500,5.396943603515625,0.18479354679584503,-0.3856499493122101,0.8393180966377258
1772708683200968400,5.406968505859375,0.15954944491386414,-0.32717546820640564,1.252175211906433
1772708683210993400,5.416993408203125,0.128702312707901,-0.2948388159275055,1.4923089742660522
1772708683221018400,5.427018310546875,0.08232390135526657,-0.1929105967283249,1.6207910776138306
1772708683231043300,5.437043212890625,0.029346436262130737,-0.011063836514949799,1.6439714431762695
1772708683241068300,5.447068359375,-0.03735189884901047,0.16650934517383575,1.5361144542694092
1772708683251093500,5.457093505859375,-0.13570669293403625,0.279291033744812,1.320487141609192
1772708683261118500,5.467118408203125,-0.22836074233055115,0.3033106029033661,1.068694829940796
1772708683271143400,5.477143310546875,-0.27605023980140686,0.242025688290596,0.86261385679245
1772708683281168400,5.48716845703125,-0.28250014781951904,0.09723920375108719,0.7746016979217529
1772708683291193600,5.497193603515625,-0.31536832451820374,-0.12262498587369919,0.8157078623771667
1772708683301218300,5.50721826171875,-0.374115526676178,-0.39322638511657715,0.9605942368507385
1772708683311244500,5.51724462890625,-0.47959163784980774,-0.697624921798706,1.1551157236099243
1772708683321269200,5.527269287109375,-0.6382984519004822,-0.9142312407493591,1.3664090633392334
1772708683331294200,5.537294189453125,-0.8203052878379822,-0.9448652863502502,1.5149884223937988
1772708683341319400,5.5473193359375,-0.951818585395813,-0.9121137857437134,1.568774700164795
1772708683351344400,5.557344482421875,-1.0185688734054565,-0.7793216109275818,1.569881796836853
1772708683361369300,5.567369384765625,-0.9994020462036133,-0.4829559922218323,1.392732858657837
1772708683371394300,5.577394287109375,-0.8407213091850281,0.0730917900800705,0.9810805916786194
1772708683381419500,5.58741943359375,-0.5015168786048889,0.7744597792625427,0.4396418333053589
1772708683391444500,5.597444580078125,0.05639296770095825,1.2385571002960205,-0.04602528363466263
1772708683401469400,5.607469482421875,0.731039822101593,1.3284233808517456,-0.34667086601257324
1772708683411494400,5.617494384765625,1.3527936935424805,0.9379442930221558,-0.4117705225944519
1772708683421519400,5.627519287109375,1.7786637544631958,0.5867846608161926,-0.032763540744781494
1772708683440944400,5.6469443359375,1.5182303190231323,0.5731729865074158,0.3407016694545746
1772708683450969300,5.65696923828125,0.6802688241004944,0.8451062440872192,-0.029213812202215195
1772708683460994600,5.66699462890625,-0.24709713459014893,0.7797895669937134,-0.21031542122364044
1772708683471019300,5.677019287109375,-0.867104709148407,0.30653250217437744,-0.12210939824581146
1772708683481044200,5.687044189453125,-1.0810245275497437,-0.324871301651001,-0.3437903821468353
1772708683491069400,5.6970693359375,-0.8667430877685547,-0.8793640732765198,-1.0728962421417236
1772708683501095200,5.70709521484375,-0.5227697491645813,-0.9614048600196838,-2.023221731185913
1772708683511120400,5.717120361328125,-0.10625826567411423,-0.7460222840309143,-2.867337465286255
1772708683521145300,5.727145263671875,0.3087437152862549,-0.37965384125709534,-3.2599756717681885
1772708683531170300,5.73717041015625,0.6597725749015808,0.029451366513967514,-3.0199341773986816
1772708683541195500,5.747195556640625,0.7171826362609863,0.1912863403558731,-2.4241602420806885
1772708683551220500,5.757220458984375,0.4646930992603302,0.03756362199783325,-1.7658342123031616
1772708683561245400,5.767245361328125,0.01744769886136055,-0.5502514243125916,-1.3052171468734741
1772708683571270400,5.7772705078125,-0.39510205388069153,-1.6087604761123657,-1.1249167919158936
1772708683581295600,5.787295654296875,-0.5706629753112793,-2.618966817855835,-1.09661066532135
1772708683591320800,5.79732080078125,-0.5081801414489746,-3.0267112255096436,-1.1195074319839478
1772708683601345800,5.807345703125,-0.25154247879981995,-2.60031795501709,-1.224757194519043
1772708683611370800,5.817370849609375,0.24429309368133545,-1.6257359981536865,-1.3536016941070557
1772708683621396700,5.827396728515625,0.8315262198448181,-0.5000521540641785,-1.2512321472167969
1772708683631421700,5.837421630859375,1.346487283706665,0.44233959913253784,-0.7526481747627258
1772708683641447000,5.847447021484375,1.672916054725647,0.9772783517837524,-0.029761623591184616
1772708683651472000,5.857471923828125,1.661940097808838,1.0792726278305054,0.6024315357208252
1772708683661496800,5.867496826171875,1.308074712753296,0.8170042634010315,0.9617460370063782
1772708683671521500,5.877521484375,0.720654308795929,0.3436737358570099,0.9622280597686768
1772708683681546800,5.887546630859375,0.10492987930774689,-0.05602811649441719,0.6913821697235107
1772708683691571700,5.89757177734375,-0.3258494734764099,-0.1903795301914215,0.35279905796051025
1772708683701596700,5.9075966796875,-0.44943132996559143,-0.19617483019828796,0.1735832393169403
1772708683711622000,5.917621826171875,-0.35880422592163086,-0.05007088929414749,0.09787809103727341
1772708683721647600,5.927647705078125,-0.1656251847743988,0.2163725197315216,0.10240653157234192
1772708683731672800,5.9376728515625,0.03527809679508209,0.6217138767242432,0.25074753165245056
1772708683741697800,5.94769775390625,0.1787087619304657,1.0569865703582764,0.45774945616722107
1772708683751722800,5.95772265625,0.192249596118927,1.432111144065857,0.6850787401199341
1772708683761747700,5.967747802734375,-0.01974387653172016,1.5927191972732544,0.8772569894790649
1772708683771773000,5.97777294921875,-0.32873448729515076,1.3513611555099487,1.0350215435028076
1772708683781797600,5.987797607421875,-0.5932961106300354,0.8338631391525269,1.2336657047271729
1772708683791822600,5.997822509765625,-0.7352047562599182,0.29083529114723206,1.4750447273254395
1772708683801847800,6.007847900390625,-0.7413161993026733,-0.06108465790748596,1.6969084739685059
1772708683811872800,6.017872802734375,-0.6569336652755737,-0.10412853211164474,1.786502480506897
1772708683821897700,6.027897705078125,-0.5240826606750488,0.14484693109989166,1.702726125717163
1772708683831922700,6.037922607421875,-0.352477103471756,0.5575234293937683,1.471346139907837
1772708683841948700,6.04794873046875,-0.198728546500206,0.9947583079338074,1.1829111576080322
1772708683851974000,6.057973876953125,-0.08389223366975784,1.2932392358779907,0.9355325102806091
1772708683861998800,6.067998779296875,-0.0370032899081707,1.335566759109497,0.8164144158363342
1772708683872023800,6.07802392578125,-0.08997942507266998,1.1813830137252808,0.850433349609375
1772708683882048800,6.088048828125,-0.23383300006389618,0.930671215057373,1.0159472227096558
1772708683892074000,6.098073974609375,-0.44532713294029236,0.6435139775276184,1.263468623161316
1772708683902098700,6.1080986328125,-0.6956051588058472,0.4105425179004669,1.513855218887329
1772708683912123600,6.11812353515625,-0.9465398788452148,0.2994388937950134,1.70380437374115
1772708683922148600,6.128148681640625,-1.0129029750823975,0.32039371132850647,1.8474074602127075
1772708683932173800,6.138173828125,-0.8417255878448486,0.5384445786476135,1.9069240093231201
1772708683942198800,6.14819873046875,-0.49010154604911804,0.8416275978088379,1.8026548624038696
1772708683952224800,6.158224853515625,-0.052253883332014084,1.013253927230835,1.5904552936553955
1772708683962249700,6.168249755859375,0.2755082845687866,0.9824715256690979,1.2790735960006714
1772708683972274700,6.178274658203125,0.4421217441558838,1.0527483224868774,1.041481614112854
1772708683982300000,6.1882998046875,0.5903618335723877,1.3690669536590576,1.0503597259521484
1772708683992324900,6.198324951171875,0.8043955564498901,1.571759581565857,1.2226394414901733
1772708684002349800,6.208349853515625,0.8222616314888,1.1726726293563843,0.9497812390327454
1772708684012374800,6.218374755859375,0.3926450312137604,0.7616230249404907,0.0900111123919487
1772708684022399700,6.228399658203125,-0.22097046673297882,0.4746525287628174,-0.9785186052322388
1772708684032424700,6.2384248046875,-0.5744031071662903,0.42217254638671875,-1.4978523254394531
1772708684042449700,6.24844970703125,-0.4964323937892914,0.5155650973320007,-1.1561437845230103
1772708684052474600,6.258474609375,-0.1955452710390091,0.39375820755958557,-0.3705751299858093
1772708684062500600,6.26850048828125,0.1245746836066246,-0.06095922365784645,0.0161222442984581
1772708684072525800,6.27852587890625,0.44822439551353455,-0.7111771702766418,-0.3084068298339844
1772708684082550800,6.28855078125,0.8343196511268616,-1.117470383644104,-0.8751128911972046
1772708684092575700,6.29857568359375,1.0488380193710327,-1.1106250286102295,-1.3305623531341553
1772708684102600700,6.3086005859375,0.8797840476036072,-0.8833231329917908,-1.732638955116272
1772708684112626000,6.3186259765625,0.3783499598503113,-0.5040479898452759,-2.199676513671875
1772708684122651000,6.32865087890625,-0.19512662291526794,-0.04223853349685669,-2.8099818229675293
1772708684132675600,6.338675537109375,-0.4686377942562103,0.2295897901058197,-3.4146084785461426
1772708684142700800,6.34870068359375,-0.208237886428833,-0.012703810818493366,-3.655107259750366
1772708684152725800,6.358725830078125,0.5737423896789551,-0.8947321176528931,-3.4068000316619873
1772708684162750700,6.368750732421875,1.3069220781326294,-1.8406254053115845,-2.703848123550415
1772708684172776700,6.378776611328125,1.630684733390808,-2.3019237518310547,-1.7055866718292236
1772708684182801700,6.3888017578125,1.4942631721496582,-2.214721918106079,-0.7235531806945801
1772708684192826600,6.39882666015625,0.9838401675224304,-1.7216825485229492,0.026143454015254974
1772708684202851800,6.408851806640625,0.39482295513153076,-1.1234475374221802,0.4757540225982666
1772708684212876800,6.418876708984375,-0.12453553825616837,-0.5986881852149963,0.6448578238487244
1772708684222901800,6.42890185546875,-0.4655091166496277,-0.049670085310935974,0.5482996106147766
1772708684232926700,6.4389267578125,-0.609393835067749,0.45146599411964417,0.2561790645122528
1772708684242952000,6.448951904296875,-0.6642006039619446,0.7133039832115173,-0.1614440232515335
1772708684252976600,6.4589765625,-0.6679223775863647,0.7139905691146851,-0.6787428259849548
1772708684263001600,6.469001708984375,-0.6390371918678284,0.45471692085266113,-1.230526089668274
1772708684273026800,6.47902685546875,-0.5879631042480469,-0.16075798869132996,-1.6335861682891846
1772708684283052800,6.489052734375,-0.4115699827671051,-0.8209710717201233,-1.4786714315414429
1772708684293077800,6.499077880859375,-0.2536921799182892,-1.2109785079956055,-0.8672570586204529
1772708684303102700,6.509102783203125,-0.2086469531059265,-1.288517713546753,-0.01080018375068903
1772708684313127700,6.519127685546875,-0.20230570435523987,-1.061506748199463,0.7271971702575684
1772708684323153000,6.52915283203125,-0.19944094121456146,-0.7411694526672363,1.1420814990997314
1772708684333177900,6.539177734375,-0.20183219015598297,-0.38958531618118286,1.2214561700820923
1772708684343202800,6.549202880859375,-0.16777142882347107,-0.022760706022381783,0.9869208931922913
1772708684353227800,6.559227783203125,-0.12143535166978836,0.23512010276317596,0.5932340621948242
1772708684363253000,6.5692529296875,-0.11663127690553665,0.285382479429245,0.1951495260000229
1772708684373277700,6.579277587890625,-0.11909949034452438,0.2162633240222931,-0.09166041016578674
1772708684383302700,6.589302734375,-0.1301305741071701,0.16638071835041046,-0.208612859249115
1772708684393328600,6.59932861328125,-0.15710227191448212,0.21182677149772644,-0.14865365624427795
1772708684403353600,6.609353515625,-0.17056721448898315,0.3458804488182068,0.0280902236700058
1772708684413378800,6.61937890625,-0.15062466263771057,0.5274976491928101,0.2869412302970886
1772708684423403800,6.62940380859375,-0.13563159108161926,0.6322413682937622,0.5865415334701538
1772708684433428700,6.6394287109375,-0.17202022671699524,0.5795749425888062,0.8618596196174622
1772708684443453700,6.64945361328125,-0.22965316474437714,0.4804720878601074,1.0713670253753662
1772708684453479000,6.65947900390625,-0.2534325420856476,0.4117388129234314,1.1876976490020752
1772708684463504000,6.66950390625,-0.24621057510375977,0.3459446132183075,1.2219003438949585
1772708684473528800,6.67952880859375,-0.2313847541809082,0.3543785810470581,1.1922868490219116
1772708684483553500,6.689553466796875,-0.22333268821239471,0.42945921421051025,1.1220483779907227
1772708684493578800,6.699578857421875,-0.1997610479593277,0.4994252622127533,1.0090107917785645
1772708684503604700,6.709604736328125,-0.10812247544527054,0.6285478472709656,0.7722560167312622
1772708684513629700,6.719629638671875,0.036143090575933456,0.7935879230499268,0.43408700823783875
1772708684523654700,6.729654541015625,0.26173093914985657,0.8421844840049744,0.2052309215068817
1772708684533679600,6.7396796875,0.6519492864608765,0.756965696811676,0.3295952081680298
1772708684543704800,6.749704833984375,0.9540444016456604,0.47430339455604553,0.7348971962928772
1772708684553729800,6.759729736328125,1.0315402746200562,0.13130874931812286,1.162601113319397
1772708684563754800,6.769754638671875,0.8659073710441589,-0.004632302559912205,1.2024084329605103
1772708684573779700,6.77977978515625,0.3361750841140747,0.09009340405464172,0.6414124965667725
1772708684583805000,6.789804931640625,-0.36517611145973206,0.48528334498405457,-0.11741451174020767
1772708684593830000,6.799829833984375,-0.7643080353736877,0.9360576868057251,-0.30229780077934265
1772708684603854800,6.809854736328125,-0.7614725828170776,1.1905241012573242,0.14899002015590668
1772708684613880800,6.819880859375,-0.6296519637107849,0.8616852164268494,0.4895491898059845
1772708684623905800,6.82990576171875,-0.5080978274345398,0.3232869803905487,0.12456616014242172
1772708684633931000,6.839930908203125,-0.37521836161613464,0.11344853043556213,-0.7798763513565063
1772708684643956000,6.8499560546875,-0.2905133366584778,0.2810324728488922,-1.8042221069335938
1772708684653981000,6.85998095703125,-0.11170362681150436,0.28210386633872986,-2.609282970428467
1772708684664006000,6.870005859375,0.12433047592639923,-0.024271784350275993,-3.0387332439422607
1772708684674031000,6.880031005859375,0.21305714547634125,-0.42634278535842896,-2.9625041484832764
1772708684684056000,6.89005615234375,0.18507690727710724,-0.7720714211463928,-2.4117276668548584
1772708684694080800,6.900080810546875,0.1253049224615097,-1.047154426574707,-1.6314306259155273
1772708684704105700,6.910105712890625,0.13541348278522491,-1.3918888568878174,-0.7751292586326599
1772708684714131000,6.920130859375,0.31419387459754944,-1.7755800485610962,-0.11643792688846588
1772708684724157000,6.930156982421875,0.49848702549934387,-1.9279108047485352,0.16561266779899597
1772708684734182000,6.940181884765625,0.5282459855079651,-1.736360788345337,0.10548514872789383
1772708684744206800,6.950206787109375,0.39740967750549316,-1.2394492626190186,-0.23103854060173035
1772708684754231800,6.960231689453125,0.16404806077480316,-0.6141044497489929,-0.6529167890548706
1772708684764257000,6.970257080078125,-0.09719419479370117,-0.11223199963569641,-0.9072665572166443
1772708684774282000,6.980281982421875,-0.2669461965560913,0.15842585265636444,-0.8616194128990173
1772708684784307000,6.990306884765625,-0.30492502450942993,0.12375283241271973,-0.5485344529151917
1772708684794332000,7.000331787109375,-0.25233930349349976,-0.15086381137371063,-0.09597979485988617
1772708684804356900,7.01035693359375,-0.1527317613363266,-0.5045385360717773,0.324577271938324
1772708684814381800,7.0203818359375,-0.01805436797440052,-0.8528525829315186,0.5844682455062866
1772708684824407800,7.03040771484375,0.1420532763004303,-1.0929498672485352,0.6193268895149231
1772708684834432800,7.040432861328125,0.27847155928611755,-1.0559122562408447,0.44563260674476624
1772708684844458000,7.0504580078125,0.3608604669570923,-0.7922046780586243,0.17978547513484955
1772708684854483000,7.06048291015625,0.41461503505706787,-0.38056570291519165,-0.07019506394863129
1772708684864508000,7.0705078125,0.4484723210334778,0.04204092547297478,-0.25137922167778015
1772708684874532900,7.080532958984375,0.43817973136901855,0.310677170753479,-0.3031036853790283
1772708684884558000,7.09055810546875,0.3868774175643921,0.35911768674850464,-0.22062531113624573
1772708684894583000,7.1005830078125,0.32059240341186523,0.17335420846939087,-0.01991911232471466
1772708684904608000,7.11060791015625,0.24868863821029663,-0.18301908671855927,0.23285534977912903
1772708684914633000,7.120633056640625,0.19256837666034698,-0.5467589497566223,0.4386141002178192
1772708684924658000,7.130657958984375,0.149976447224617,-0.7554903030395508,0.5848605036735535
1772708684934684200,7.14068408203125,0.09822829812765121,-0.7562868595123291,0.6558399200439453
1772708684944708900,7.150708984375,0.009277920238673687,-0.5546373724937439,0.7124618887901306
1772708684954733800,7.16073388671875,-0.05992751568555832,-0.10359776765108109,0.693301260471344
1772708684964758800,7.1707587890625,-0.08041148632764816,0.38124004006385803,0.6093317866325378
1772708684974784000,7.180783935546875,-0.09055812656879425,0.6700577139854431,0.4485173225402832
1772708684984809000,7.19080908203125,-0.08556549996137619,0.748967707157135,0.2994687259197235
1772708684994834000,7.200833984375,-0.0832914263010025,0.5845761299133301,0.2290361076593399
1772708685004859000,7.21085888671875,-0.08858206123113632,0.27056410908699036,0.28887975215911865
1772708685014884000,7.220884033203125,-0.13076946139335632,-0.11284718662500381,0.4182848632335663
1772708685024909000,7.230908935546875,-0.2525462210178375,-0.37369582056999207,0.5235175490379333
1772708685034934000,7.24093408203125,-0.40805327892303467,-0.47807976603507996,0.6570612192153931
1772708685044960000,7.2509599609375,-0.5349236130714417,-0.36280348896980286,0.8376805186271667
1772708685054985000,7.26098486328125,-0.610440731048584,-0.061762966215610504,0.9956040978431702
1772708685065010000,7.271010009765625,-0.6104053258895874,0.2955397665500641,1.0807512998580933
1772708685075035000,7.281034912109375,-0.5148265957832336,0.5704938173294067,1.1698126792907715
1772708685085059800,7.291059814453125,-0.2418922632932663,0.651393473148346,1.3267594575881958
1772708685095084800,7.301084716796875,0.13261370360851288,0.4117252230644226,1.4457340240478516
1772708685105110000,7.311110107421875,0.47415292263031006,0.014815431088209152,1.5551395416259766
1772708685115135000,7.321135009765625,0.9119718074798584,-0.19311033189296722,1.7794829607009888
1772708685125160000,7.331159912109375,1.1511622667312622,-0.23627164959907532,2.0691211223602295
1772708685135185000,7.341184814453125,1.1757456064224243,-0.16882869601249695,2.2746927738189697
1772708685145210000,7.351210205078125,0.8771445751190186,-0.17119678854942322,1.9718824625015259
1772708685155236000,7.361236083984375,0.6281962990760803,0.21226538717746735,1.3488141298294067
1772708685165261000,7.371260986328125,0.45186173915863037,0.7017546892166138,0.7003865838050842
1772708685175285800,7.38128564453125,0.5455823540687561,0.9899563789367676,0.36800891160964966
1772708685185310700,7.391310791015625,0.5821558237075806,0.720059871673584,0.06226443871855736
1772708685195336000,7.4013359375,0.3058949410915375,0.24555890262126923,-0.7308438420295715
1772708685205361000,7.41136083984375,-0.07902903854846954,0.12481463700532913,-1.6864938735961914
1772708685215385900,7.4213857421875,-0.2148425281047821,0.517494797706604,-2.329263210296631
