time,seconds_elapsed,z,y,x
1772729030155792000,0.0847919921875,0,0,0
1772729030165309700,0.094309814453125,0.04424095153808594,0.010448455810546875,-0.0031464099884033203
1772729030174827500,0.10382763671875,0.06926345825195312,0.017743587493896484,0.03462076187133789
1772729030184345300,0.113345458984375,0.10566902160644531,0.021654844284057617,0.06292414665222168
1772729030193863200,0.12286328125,0.12275886535644531,0.05088067054748535,0.07387340068817139
1772729030203381000,0.132381103515625,0.1343860626220703,0.07482385635375977,0.0561215877532959
1772729030212898800,0.14189892578125,0.13420677185058594,0.04750418663024902,0.010002493858337402
1772729030222416600,0.151416748046875,0.14347362518310547,0.025835275650024414,-0.06789958477020264
1772729030231934500,0.1609345703125,0.13936996459960938,0.006439208984375,-0.08467483520507812
1772729030241452300,0.170452392578125,0.1076040267944336,0.016716718673706055,-0.09069943428039551
1772729030250970000,0.17997021484375,0.0758218765258789,0.0236818790435791,-0.11064136028289795
1772729030260488000,0.189488037109375,0.09805965423583984,0.029831409454345703,-0.08720362186431885
1772729030270006000,0.199006103515625,0.09748458862304688,0.015325069427490234,-0.10515379905700684
1772729030279523800,0.20852392578125,0.08238983154296875,0.030129671096801758,-0.15245521068572998
1772729030289041400,0.21804150390625,0.04670238494873047,0.025682449340820312,-0.19659459590911865
1772729030298559200,0.227559326171875,-0.0065860748291015625,0.0054874420166015625,-0.23450958728790283
1772729030308077000,0.2370771484375,-0.04324150085449219,-0.013761520385742188,-0.31456589698791504
1772729030317595000,0.246594970703125,-0.10062217712402344,-0.04587960243225098,-0.394555926322937
1772729030327112700,0.25611279296875,-0.11912345886230469,-0.0585477352142334,-0.407168984413147
1772729030336630500,0.265630615234375,-0.12328910827636719,-0.0756838321685791,-0.43874669075012207
1772729030346148600,0.275148681640625,-0.12034416198730469,-0.05639934539794922,-0.43927693367004395
1772729030355666400,0.28466650390625,-0.09222698211669922,-0.08010101318359375,-0.3690398931503296
1772729030365184300,0.294184326171875,-0.06747055053710938,-0.09919428825378418,-0.3138848543167114
1772729030374701800,0.303701904296875,-0.09170055389404297,-0.05879664421081543,-0.2635840177536011
1772729030384219600,0.3132197265625,-0.119384765625,0.006701469421386719,-0.21313858032226562
1772729030393737500,0.322737548828125,-0.1390676498413086,0.004750490188598633,-0.19010865688323975
1772729030403255300,0.33225537109375,-0.1627521514892578,-0.008517742156982422,-0.14657104015350342
1772729030412773400,0.3417734375,-0.18823719024658203,-0.04603862762451172,-0.11533057689666748
1772729030422291200,0.351291259765625,-0.15091228485107422,-0.03766655921936035,-0.10782015323638916
1772729030431809000,0.36080908203125,-0.10607624053955078,-0.0473783016204834,-0.09162294864654541
1772729030441326800,0.370326904296875,-0.0099945068359375,-0.0818173885345459,-0.04078996181488037
1772729030450844700,0.3798447265625,0.12417888641357422,-0.11495351791381836,0.009599924087524414
1772729030460362200,0.3893623046875,0.2491912841796875,-0.09161806106567383,0.07964634895324707
1772729030469880000,0.398880126953125,0.41198158264160156,-0.09936785697937012,0.18031978607177734
1772729030479398000,0.40839794921875,0.5677309036254883,-0.07930707931518555,0.36033689975738525
1772729030488916000,0.417916015625,0.7311534881591797,-0.06967568397521973,0.5585652589797974
1772729030498433800,0.427433837890625,0.9189996719360352,-0.12377238273620605,0.8009674549102783
1772729030507951600,0.43695166015625,1.0218114852905273,-0.18842673301696777,1.0165834426879883
1772729030517469400,0.446469482421875,1.0279178619384766,-0.2811594009399414,1.237982988357544
1772729030526987300,0.4559873046875,1.0026235580444336,-0.37291598320007324,1.3431893587112427
1772729030536505000,0.465505126953125,0.9467144012451172,-0.46649670600891113,1.2910312414169312
1772729030546022700,0.475022705078125,0.8515834808349609,-0.47631263732910156,1.1024489402770996
1772729030555540500,0.48454052734375,0.69915771484375,-0.5357286930084229,0.9009828567504883
1772729030565058600,0.49405859375,0.5624284744262695,-0.6061315536499023,0.6860894560813904
1772729030574576400,0.503576416015625,0.42185211181640625,-0.6404123306274414,0.5675786733627319
1772729030584094200,0.51309423828125,0.26340484619140625,-0.6722755432128906,0.4640544652938843
1772729030593612000,0.522612060546875,0.13413238525390625,-0.7691144943237305,0.5150159597396851
1772729030603129900,0.5321298828125,0.002910614013671875,-0.8773598670959473,0.6100895404815674
1772729030612647700,0.541647705078125,-0.1115713119506836,-0.9192254543304443,0.6953821778297424
1772729030622165500,0.55116552734375,-0.13202571868896484,-0.8243193626403809,0.6794170141220093
1772729030631683000,0.56068310546875,-0.2311420440673828,-0.770042896270752,0.5825512409210205
1772729030641201200,0.570201171875,-0.3602447509765625,-0.7829036712646484,0.57765793800354
1772729030650719000,0.579718994140625,-0.4792900085449219,-0.8267347812652588,0.5396661758422852
1772729030660236800,0.58923681640625,-0.5326070785522461,-0.7791669368743896,0.39473044872283936
1772729030669754600,0.598754638671875,-0.6011056900024414,-0.6165454387664795,0.2810945510864258
1772729030679272400,0.6082724609375,-0.7476139068603516,-0.5267782211303711,0.261462926864624
1772729030688790300,0.617790283203125,-0.8886098861694336,-0.44702816009521484,0.35131728649139404
1772729030698308000,0.62730810546875,-1.034195899963379,-0.3800971508026123,0.44118690490722656
1772729030707826000,0.636825927734375,-1.2060737609863281,-0.25122594833374023,0.46786487102508545
1772729030717343700,0.64634375,-1.228236198425293,-0.0665287971496582,0.49502861499786377
1772729030726861600,0.655861572265625,-1.2636384963989258,0.10191559791564941,0.5499371886253357
1772729030736379400,0.66537939453125,-1.3128023147583008,0.1977543830871582,0.7199943661689758
1772729030745897200,0.674897216796875,-1.2305488586425781,0.25036001205444336,0.8257109522819519
1772729030755415000,0.6844150390625,-1.0902032852172852,0.2883145809173584,0.8689054250717163
1772729030764932900,0.693932861328125,-0.9374256134033203,0.3195793628692627,0.8423214554786682
1772729030774450700,0.70345068359375,-0.6804838180541992,0.3439900875091553,0.7593193054199219
1772729030783968500,0.712968505859375,-0.23793506622314453,0.33908843994140625,0.6493378281593323
1772729030793486300,0.722486328125,0.29500484466552734,0.22917985916137695,0.5063918828964233
1772729030803004200,0.732004150390625,0.9029941558837891,0.06372737884521484,0.3845968246459961
1772729030812522000,0.74152197265625,1.4011220932006836,-0.13501524925231934,0.2707479000091553
1772729030822039800,0.751039794921875,1.8374862670898438,-0.24364781379699707,0.023660898208618164
1772729030831557600,0.7605576171875,2.124030113220215,-0.2545151710510254,-0.21622967720031738
1772729030841075500,0.770075439453125,2.1967315673828125,-0.18941640853881836,-0.4140167236328125
1772729030850593300,0.77959326171875,2.131204605102539,-0.06369829177856445,-0.49652838706970215
1772729030860111000,0.789111083984375,1.8959550857543945,0.058623552322387695,-0.4421660900115967
1772729030869629000,0.79862890625,1.488119125366211,0.10130524635314941,-0.18687915802001953
1772729030879146800,0.808146728515625,0.9707670211791992,0.1573960781097412,0.06842935085296631
1772729030888664600,0.81766455078125,0.4549894332885742,0.2864856719970703,0.2208191156387329
1772729030898182400,0.827182373046875,0.0029859542846679688,0.41701173782348633,0.2908349633216858
1772729030907700200,0.8367001953125,-0.3447561264038086,0.5488154888153076,0.2580108046531677
1772729030917218000,0.846218017578125,-0.6516199111938477,0.6576213836669922,0.299191951751709
1772729030926736000,0.85573583984375,-0.9092264175415039,0.7145376205444336,0.29145681858062744
1772729030936253700,0.865253662109375,-1.0742378234863281,0.7146997451782227,0.31842851638793945
1772729030945771500,0.874771484375,-1.0953941345214844,0.6296975612640381,0.35273873805999756
1772729030955289300,0.884289306640625,-1.0449342727661133,0.6087868213653564,0.29633092880249023
1772729030964807200,0.89380712890625,-0.9949789047241211,0.5503466129302979,0.2731330990791321
1772729030974325000,0.903324951171875,-0.99285888671875,0.46959757804870605,0.23705995082855225
1772729030983842800,0.9128427734375,-0.9550447463989258,0.39053821563720703,0.23986971378326416
1772729030993360600,0.922360595703125,-0.8793773651123047,0.3007509708404541,0.24073660373687744
1772729031002878500,0.93187841796875,-0.721257209777832,0.24212336540222168,0.21618038415908813
1772729031012396300,0.941396240234375,-0.43613529205322266,0.17462611198425293,0.1809074878692627
1772729031021914000,0.9509140625,-0.10476016998291016,0.14801859855651855,0.14285820722579956
1772729031031432000,0.960431884765625,0.15762805938720703,0.09808707237243652,0.16619157791137695
1772729031040949800,0.96994970703125,0.31704235076904297,0.05457615852355957,0.2713509798049927
1772729031050467600,0.979467529296875,0.431549072265625,0.0007486343383789062,0.4229534864425659
1772729031059985400,0.9889853515625,0.45424938201904297,0.01500391960144043,0.5049502849578857
1772729031069503200,0.998503173828125,0.3597402572631836,0.04302215576171875,0.534919023513794
1772729031079021000,1.00802099609375,0.25979137420654297,0.09073615074157715,0.5517469644546509
1772729031088539000,1.017538818359375,0.22463703155517578,0.12143421173095703,0.5619752407073975
1772729031098056700,1.027056640625,0.2415628433227539,0.1879901885986328,0.511126697063446
1772729031107574500,1.036574462890625,0.30817127227783203,0.2253580093383789,0.48936933279037476
1772729031117092400,1.04609228515625,0.3583030700683594,0.2259047031402588,0.48323673009872437
1772729031126610200,1.055610107421875,0.28585338592529297,0.18747544288635254,0.526425302028656
1772729031136128000,1.0651279296875,0.15079402923583984,0.14695143699645996,0.575157642364502
1772729031145645800,1.074645751953125,0.0050334930419921875,0.19549202919006348,0.5023496150970459
1772729031155163600,1.08416357421875,-0.11378669738769531,0.24737024307250977,0.4613282084465027
1772729031164681500,1.093681396484375,-0.22729873657226562,0.2977902889251709,0.368466854095459
1772729031174199300,1.10319921875,-0.2858448028564453,0.320559024810791,0.2942899465560913
1772729031183717000,1.112717041015625,-0.37045764923095703,0.3394942283630371,0.29351139068603516
1772729031193235000,1.12223486328125,-0.5068597793579102,0.3306760787963867,0.2876044511795044
1772729031202752800,1.131752685546875,-0.5499868392944336,0.32486915588378906,0.30607831478118896
1772729031212270600,1.1412705078125,-0.6242570877075195,0.36273908615112305,0.25276070833206177
1772729031221788400,1.150788330078125,-0.6894826889038086,0.3898434638977051,0.1832287311553955
1772729031231306200,1.16030615234375,-0.7269048690795898,0.3900020122528076,0.16868114471435547
1772729031240824000,1.169823974609375,-0.7603797912597656,0.4132354259490967,0.10507291555404663
1772729031250342000,1.179341796875,-0.7494487762451172,0.4164586067199707,0.06715595722198486
1772729031259859700,1.188859619140625,-0.7300863265991211,0.4041783809661865,-0.011331677436828613
1772729031269377500,1.19837744140625,-0.4840841293334961,0.4018542766571045,-0.0433201789855957
1772729031278895400,1.207895263671875,-0.2639436721801758,0.4484224319458008,-0.01898747682571411
1772729031288413200,1.2174130859375,-0.18947505950927734,0.4926145076751709,0.024236202239990234
1772729031297931000,1.226930908203125,-0.10033702850341797,0.4254186153411865,0.2498006820678711
1772729031307448800,1.23644873046875,0.007866859436035156,0.40041351318359375,0.44365233182907104
1772729031316966700,1.245966552734375,0.10188865661621094,0.36542320251464844,0.6028288006782532
1772729031326484500,1.255484375,0.20824337005615234,0.41504955291748047,0.616076648235321
1772729031336002300,1.265002197265625,0.2630281448364258,0.3912642002105713,0.5684434175491333
1772729031345520000,1.27452001953125,0.29006385803222656,0.3110029697418213,0.5001670122146606
1772729031355038000,1.284037841796875,0.29201412200927734,0.24918627738952637,0.3868492841720581
1772729031364555800,1.2935556640625,0.21745586395263672,0.2574164867401123,0.20502078533172607
1772729031374073600,1.303073486328125,0.08621978759765625,0.28797388076782227,0.045923829078674316
1772729031383591400,1.31259130859375,-0.04236125946044922,0.32959556579589844,-0.005675256252288818
1772729031393109200,1.322109130859375,-0.1807413101196289,0.32457685470581055,-0.017229199409484863
1772729031402627000,1.331626953125,-0.25194454193115234,0.3385465145111084,-0.05898815393447876
1772729031412145000,1.341144775390625,-0.14957332611083984,0.3812105655670166,-0.1659587025642395
1772729031421662700,1.350662841796875,0.13027286529541016,0.43290019035339355,-0.286588191986084
1772729031431180500,1.3601806640625,0.4862947463989258,0.4405956268310547,-0.3630385994911194
1772729031440698400,1.369698486328125,0.72314453125,0.3446927070617676,-0.28581416606903076
1772729031450216200,1.37921630859375,0.9237575531005859,0.11059904098510742,-0.16236132383346558
1772729031459734000,1.388734130859375,0.6025848388671875,-0.20257210731506348,0.045310020446777344
1772729031469251800,1.398251953125,0.18950653076171875,-0.39157938957214355,-0.1677873134613037
1772729031478769700,1.407769775390625,0.7414827346801758,-0.3326122760772705,-0.4781256914138794
1772729031488287200,1.417287353515625,1.135645866394043,-0.15934205055236816,-0.6641519069671631
1772729031497805300,1.426805419921875,1.2841377258300781,-0.1338508129119873,-0.624750018119812
1772729031507323100,1.4363232421875,1.3758935928344727,-0.3907945156097412,-0.2348799705505371
1772729031516841000,1.445841064453125,1.4373807907104492,-0.6348602771759033,0.09629034996032715
1772729031526358800,1.45535888671875,1.2789363861083984,-0.6210813522338867,0.19739699363708496
1772729031535876600,1.464876708984375,0.8967723846435547,-0.617835283279419,0.1971595287322998
1772729031545394400,1.47439453125,0.4246234893798828,-0.6941196918487549,0.29225975275039673
1772729031554912300,1.483912353515625,-0.07436466217041016,-0.7592277526855469,0.17851382493972778
1772729031564430000,1.49343017578125,-0.4259357452392578,-0.688279390335083,-0.18871092796325684
1772729031573948000,1.502947998046875,-0.6512241363525391,-0.43206191062927246,-0.6965768933296204
1772729031583465700,1.5124658203125,-0.7752447128295898,-0.19907283782958984,-1.1131443977355957
1772729031592983600,1.521983642578125,-0.7793798446655273,-0.13261032104492188,-1.271951675415039
1772729031602501400,1.53150146484375,-0.7660140991210938,-0.17012906074523926,-1.1267685890197754
1772729031612019200,1.541019287109375,-0.7512607574462891,-0.287109375,-0.8346755504608154
1772729031621537000,1.550537109375,-0.6539163589477539,-0.37340354919433594,-0.5749256610870361
1772729031631054800,1.560054931640625,-0.5217380523681641,-0.3507871627807617,-0.5107100605964661
1772729031640572700,1.56957275390625,-0.4046802520751953,-0.2819399833679199,-0.5515729188919067
1772729031650090500,1.579090576171875,-0.34104061126708984,-0.23337578773498535,-0.6182128190994263
1772729031659608300,1.5886083984375,-0.23109149932861328,-0.24267029762268066,-0.6188204884529114
1772729031669126100,1.598126220703125,-0.14172649383544922,-0.2191624641418457,-0.6827982068061829
1772729031678644000,1.60764404296875,-0.010973930358886719,-0.20370912551879883,-0.7225654721260071
1772729031688161800,1.617161865234375,0.17056751251220703,-0.21087145805358887,-0.7264752388000488
1772729031697679600,1.6266796875,0.31041622161865234,-0.20551300048828125,-0.6775016784667969
1772729031707197400,1.636197509765625,0.3786201477050781,-0.25028443336486816,-0.597975492477417
1772729031716715300,1.64571533203125,0.4117546081542969,-0.3243064880371094,-0.5270431637763977
1772729031726233000,1.655233154296875,0.5437145233154297,-0.45003819465637207,-0.47636276483535767
1772729031735751000,1.6647509765625,0.5270147323608398,-0.5137677192687988,-0.4799598455429077
1772729031745268700,1.674268798828125,0.46488285064697266,-0.5471756458282471,-0.5220463275909424
1772729031754786600,1.68378662109375,0.38803577423095703,-0.5643084049224854,-0.5201021432876587
1772729031764304400,1.693304443359375,0.20348262786865234,-0.555178165435791,-0.544442892074585
1772729031773822200,1.702822265625,-0.01972198486328125,-0.5379641056060791,-0.5870354175567627
1772729031783340000,1.712340087890625,-0.27270984649658203,-0.5375542640686035,-0.5984314680099487
1772729031792857900,1.72185791015625,-0.4468955993652344,-0.4928910732269287,-0.58692467212677
1772729031802375700,1.731375732421875,-0.545435905456543,-0.40367627143859863,-0.5720981359481812
1772729031811893500,1.7408935546875,-0.6422061920166016,-0.2797582149505615,-0.46338987350463867
1772729031821411300,1.750411376953125,-0.7251338958740234,-0.23088812828063965,-0.32905614376068115
1772729031830929200,1.75992919921875,-0.7301244735717773,-0.25200843811035156,-0.17475366592407227
1772729031840447000,1.769447021484375,-0.6811752319335938,-0.2621753215789795,-0.05924367904663086
1772729031849964800,1.77896484375,-0.6848869323730469,-0.2552163600921631,-0.04802143573760986
1772729031859482600,1.788482666015625,-0.7381572723388672,-0.21495819091796875,-0.009919047355651855
1772729031869000400,1.79800048828125,-0.8291378021240234,-0.22666692733764648,0.08504438400268555
1772729031878518300,1.807518310546875,-0.8558025360107422,-0.17557907104492188,0.07407677173614502
1772729031888036000,1.8170361328125,-0.8353519439697266,-0.1003115177154541,0.0010242462158203125
1772729031897554000,1.826553955078125,-0.8536462783813477,0.001125335693359375,-0.04826700687408447
1772729031907071700,1.83607177734375,-0.903620719909668,0.0600125789642334,-0.027188539505004883
1772729031916589600,1.845589599609375,-0.8617086410522461,0.08889985084533691,0.017226696014404297
1772729031926107400,1.855107421875,-0.7707910537719727,0.14940285682678223,0.07021379470825195
1772729031935625200,1.864625244140625,-0.7543001174926758,0.20052742958068848,0.1350005865097046
1772729031945143000,1.87414306640625,-0.7165842056274414,0.22102713584899902,0.22887063026428223
1772729031954660900,1.883660888671875,-0.7006025314331055,0.27300548553466797,0.2827749252319336
1772729031964178700,1.8931787109375,-0.7350969314575195,0.3302793502807617,0.29517436027526855
1772729031973696500,1.902696533203125,-0.6751136779785156,0.4526362419128418,0.22518908977508545
1772729031983214300,1.91221435546875,-0.6189174652099609,0.5015778541564941,0.13334321975708008
1772729031992732200,1.921732177734375,-0.5401439666748047,0.593686580657959,0.11702680587768555
1772729032002250000,1.93125,-0.39307403564453125,0.6181869506835938,0.12010586261749268
1772729032011767800,1.940767822265625,-0.1986532211303711,0.6356422901153564,0.1623067855834961
1772729032021285600,1.95028564453125,-0.01793670654296875,0.5981059074401855,0.20965957641601562
1772729032030803500,1.959803466796875,0.1001119613647461,0.609506368637085,0.2482905387878418
1772729032040321300,1.9693212890625,0.19163036346435547,0.6126387119293213,0.3004409074783325
1772729032049839000,1.978839111328125,0.22397518157958984,0.6712698936462402,0.26372337341308594
1772729032059357000,1.98835693359375,0.22870445251464844,0.7680561542510986,0.1750282645225525
1772729032068874800,1.997874755859375,0.26459789276123047,0.7861747741699219,0.1546710729598999
1772729032078392600,2.007392578125,0.38348865509033203,0.7935450077056885,0.20082974433898926
1772729032087910400,2.016910400390625,0.4610595703125,0.8007102012634277,0.2505561113357544
1772729032097428200,2.02642822265625,0.5306282043457031,0.8441698551177979,0.2940846085548401
1772729032106946000,2.035946044921875,0.6685075759887695,0.8597369194030762,0.31566643714904785
1772729032116463900,2.0454638671875,0.8108062744140625,0.8013169765472412,0.36418095231056213
1772729032125981700,2.054981689453125,0.9918174743652344,0.7696270942687988,0.30627259612083435
1772729032135499500,2.06449951171875,1.164896011352539,0.7119085788726807,0.18587273359298706
1772729032145017300,2.074017333984375,1.2619762420654297,0.569084882736206,0.18100208044052124
1772729032154535200,2.08353515625,1.2862215042114258,0.4930434226989746,0.1459621787071228
1772729032164053000,2.093052978515625,1.2211217880249023,0.47659802436828613,0.07073032855987549
1772729032173570800,2.10257080078125,0.9923162460327148,0.5192756652832031,0.04408615827560425
1772729032183088600,2.112088623046875,0.6301460266113281,0.5548491477966309,0.019244015216827393
1772729032192606500,2.1216064453125,0.3122119903564453,0.6154162883758545,0.041016727685928345
1772729032202124300,2.131124267578125,0.06081676483154297,0.6752054691314697,0.023713529109954834
1772729032211642000,2.14064208984375,-0.20611190795898438,0.7196290493011475,0.03745165467262268
1772729032221160000,2.150159912109375,-0.45361900329589844,0.8292298316955566,-0.04355183243751526
1772729032230677800,2.159677734375,-0.4826688766479492,0.7697117328643799,0.08787962794303894
1772729032240195600,2.169195556640625,-0.43024635314941406,0.5709304809570312,0.31746554374694824
1772729032249713400,2.17871337890625,-0.21758079528808594,0.48484039306640625,0.40338677167892456
1772729032259231200,2.188231201171875,0.13869762420654297,0.41152334213256836,0.37524962425231934
1772729032268749000,2.1977490234375,0.5794258117675781,0.2390594482421875,0.35858651995658875
1772729032278267000,2.207266845703125,0.9484119415283203,0.005288600921630859,0.34243685007095337
1772729032287784700,2.21678466796875,1.3051834106445312,-0.3299527168273926,0.2762458622455597
1772729032297302500,2.226302490234375,1.7113590240478516,-0.721123218536377,0.14907017350196838
1772729032306820400,2.2358203125,1.869919776916504,-1.0132944583892822,-0.09277637302875519
1772729032316338200,2.245338134765625,1.8253440856933594,-1.2250263690948486,-0.4667178988456726
1772729032325856000,2.25485595703125,1.6450862884521484,-1.3802380561828613,-0.6627945899963379
1772729032335373800,2.264373779296875,1.3672723770141602,-1.5255730152130127,-0.7170660495758057
1772729032344891600,2.2738916015625,1.0842628479003906,-1.6493749618530273,-0.6414461135864258
1772729032354409500,2.283409423828125,0.785527229309082,-1.656449794769287,-0.5601578950881958
1772729032363927300,2.29292724609375,0.4721097946166992,-1.6344828605651855,-0.3787631094455719
1772729032373445000,2.302445068359375,0.14742183685302734,-1.5610122680664062,-0.06702357530593872
1772729032382963000,2.311962890625,-0.17780590057373047,-1.4736311435699463,0.25495240092277527
1772729032392480800,2.321480712890625,-0.3758411407470703,-1.4274063110351562,0.5441160202026367
1772729032401998600,2.33099853515625,-0.4644765853881836,-1.3589301109313965,0.729037880897522
1772729032411516400,2.340516357421875,-0.425140380859375,-1.2802300453186035,0.8446606397628784
1772729032421034200,2.3500341796875,-0.3173961639404297,-1.2473621368408203,0.8457432389259338
1772729032430552000,2.359552001953125,-0.21233463287353516,-1.1972694396972656,0.7966760396957397
1772729032440070000,2.36906982421875,-0.12352561950683594,-1.1673738956451416,0.6883271932601929
1772729032449587700,2.378587646484375,-0.016602516174316406,-1.1810383796691895,0.591021716594696
1772729032459105500,2.38810546875,-0.016920089721679688,-1.2307000160217285,0.5578867197036743
1772729032468623400,2.397623291015625,-0.15671920776367188,-1.2271654605865479,0.482319712638855
1772729032478141200,2.40714111328125,-0.3421611785888672,-1.1596596240997314,0.36061015725135803
1772729032487659000,2.416658935546875,-0.5347862243652344,-1.0506057739257812,0.16896960139274597
1772729032497176800,2.4261767578125,-0.7109584808349609,-0.921506404876709,-0.0053182244300842285
1772729032506694700,2.435694580078125,-0.9495639801025391,-0.7913229465484619,-0.1324494183063507
1772729032516212500,2.44521240234375,-1.2079839706420898,-0.7113175392150879,-0.18101462721824646
1772729032525730300,2.454730224609375,-1.5012283325195312,-0.6439118385314941,-0.1233898401260376
1772729032535248100,2.464248046875,-1.6801671981811523,-0.548673152923584,-0.07894852757453918
1772729032544766000,2.473765869140625,-1.8485956192016602,-0.41668701171875,-0.06648039817810059
1772729032554283800,2.48328369140625,-1.9668798446655273,-0.25796031951904297,-0.012571781873703003
1772729032563801600,2.492801513671875,-2.014139175415039,-0.17148661613464355,0.06195175647735596
1772729032573319400,2.5023193359375,-1.8880643844604492,-0.08766555786132812,0.20093843340873718
1772729032582837200,2.511837158203125,-1.6962776184082031,-0.09990310668945312,0.3412875831127167
1772729032592355000,2.52135498046875,-1.4075517654418945,-0.07307934761047363,0.37012141942977905
1772729032601873000,2.530872802734375,-1.0764331817626953,-0.039783477783203125,0.29166024923324585
1772729032611390500,2.540390380859375,-0.8000049591064453,-0.0018849372863769531,0.22206494212150574
1772729032620908300,2.549908203125,-0.4939002990722656,-0.03740334510803223,0.17202657461166382
1772729032630426400,2.55942626953125,-0.18367671966552734,-0.07389163970947266,0.1703680455684662
1772729032639944200,2.568944091796875,0.02177143096923828,-0.05807995796203613,0.19089174270629883
1772729032649462000,2.5784619140625,0.16624069213867188,-0.05327200889587402,0.220289409160614
1772729032658979800,2.587979736328125,0.3028383255004883,-0.03916764259338379,0.207727313041687
1772729032668497700,2.59749755859375,0.412872314453125,0.028569698333740234,0.22496652603149414
1772729032678015500,2.607015380859375,0.40833282470703125,0.1041727066040039,0.23634140193462372
1772729032687533300,2.616533203125,0.31335926055908203,0.17835712432861328,0.27537643909454346
1772729032697051000,2.62605078125,0.15890216827392578,0.2281203269958496,0.40337273478507996
1772729032706568700,2.635568603515625,0.004150390625,0.359921932220459,0.4286234676837921
1772729032716086500,2.64508642578125,-0.12283706665039062,0.5533707141876221,0.402007132768631
1772729032725604600,2.6546044921875,-0.2847404479980469,0.7263436317443848,0.40599483251571655
1772729032735122400,2.664122314453125,-0.4415435791015625,0.7802634239196777,0.4520215392112732
1772729032744640300,2.67364013671875,-0.5152978897094727,0.7718515396118164,0.4823281168937683
1772729032754158000,2.683157958984375,-0.5089626312255859,0.7399966716766357,0.41231769323349
1772729032763676000,2.692676025390625,-0.45144176483154297,0.7754437923431396,0.27657169103622437
1772729032773193700,2.70219384765625,-0.2951536178588867,0.7895491123199463,0.16852447390556335
1772729032782711600,2.711711669921875,-0.06407546997070312,0.7819020748138428,0.11927339434623718
1772729032792229000,2.72122900390625,0.16553211212158203,0.7472314834594727,0.0776333212852478
1772729032801747000,2.730746826171875,0.3821525573730469,0.7205891609191895,0.02161872386932373
1772729032811264800,2.7402646484375,0.5719585418701172,0.6509535312652588,-0.025881469249725342
1772729032820782800,2.749782958984375,0.7282600402832031,0.5780858993530273,-0.06114321947097778
1772729032830300700,2.75930078125,0.899322509765625,0.4960358142852783,-0.05950748920440674
1772729032839818500,2.768818603515625,1.0379762649536133,0.4511711597442627,-0.08814704418182373
1772729032849336300,2.77833642578125,1.1138429641723633,0.435192346572876,-0.11850309371948242
1772729032858854100,2.787854248046875,1.113072395324707,0.47147536277770996,-0.11041527986526489
1772729032868371700,2.797371826171875,1.0405511856079102,0.4433872699737549,-0.0625201165676117
1772729032877889500,2.8068896484375,0.9198923110961914,0.44760847091674805,-0.036321550607681274
1772729032887407400,2.816407470703125,0.7480640411376953,0.5048708915710449,-0.12237328290939331
1772729032896925200,2.82592529296875,0.5433712005615234,0.6264901161193848,-0.28017300367355347
1772729032906443000,2.835443115234375,0.40498828887939453,0.6857166290283203,-0.4021243453025818
1772729032915960800,2.8449609375,0.28162288665771484,0.7301554679870605,-0.41033005714416504
1772729032925479000,2.85447900390625,0.2321796417236328,0.7326507568359375,-0.40533092617988586
1772729032934996700,2.863996826171875,0.28960704803466797,0.6746110916137695,-0.4113960266113281
1772729032944514600,2.8735146484375,0.4729442596435547,0.5913996696472168,-0.4151729345321655
1772729032954032000,2.8830322265625,0.7181367874145508,0.3957328796386719,-0.3770940601825714
1772729032963550000,2.892550048828125,1.009139060974121,0.14586734771728516,-0.35038700699806213
1772729032973067800,2.90206787109375,1.263193130493164,-0.1144266128540039,-0.29430660605430603
1772729032982585600,2.911585693359375,1.5102739334106445,-0.3352484703063965,-0.2965222895145416
1772729032992103400,2.921103515625,1.5990619659423828,-0.5671000480651855,-0.38774409890174866
1772729033001621200,2.930621337890625,1.547903060913086,-0.8409607410430908,-0.447379469871521
1772729033011139000,2.94013916015625,1.3579397201538086,-1.0864763259887695,-0.49260246753692627
1772729033020657000,2.949656982421875,0.9843358993530273,-1.2248704433441162,-0.5790728330612183
1772729033030175000,2.959175048828125,0.4890937805175781,-1.2812938690185547,-0.7491997480392456
1772729033039692500,2.968692626953125,0.0006284713745117188,-1.2044072151184082,-0.9682607650756836
1772729033049210400,2.97821044921875,-0.4819965362548828,-1.0788984298706055,-1.2323325872421265
1772729033058728200,2.987728271484375,-0.8456306457519531,-0.9742989540100098,-1.4206299781799316
1772729033068246000,2.99724609375,-1.2065963745117188,-0.9332420825958252,-1.483713150024414
1772729033077763800,3.006763916015625,-1.5592436790466309,-0.9216012954711914,-1.4675414562225342
1772729033087281700,3.01628173828125,-1.8093643188476562,-0.8321924209594727,-1.480403184890747
1772729033096799500,3.025799560546875,-1.8818016052246094,-0.7352986335754395,-1.4966025352478027
1772729033106317300,3.0353173828125,-1.8751106262207031,-0.6304073333740234,-1.4599955081939697
1772729033115835100,3.044835205078125,-1.7584943771362305,-0.6031670570373535,-1.3068325519561768
1772729033125353000,3.05435302734375,-1.5058975219726562,-0.6127877235412598,-1.1149959564208984
1772729033134870800,3.063870849609375,-1.2054328918457031,-0.6216330528259277,-0.8867373466491699
1772729033144388600,3.073388671875,-0.8254203796386719,-0.6666016578674316,-0.7806795239448547
1772729033153906400,3.082906494140625,-0.4248189926147461,-0.7013416290283203,-0.5897752642631531
1772729033163424300,3.09242431640625,-0.04573535919189453,-0.7966055870056152,-0.4216108024120331
1772729033172942000,3.101942138671875,0.2864961624145508,-0.8894319534301758,-0.30694735050201416
1772729033182460000,3.1114599609375,0.6707639694213867,-0.9747514724731445,-0.2465546727180481
1772729033191977700,3.120977783203125,0.9315481185913086,-1.028928279876709,-0.31780385971069336
1772729033201495600,3.13049560546875,1.0297622680664062,-1.1045942306518555,-0.4051428437232971
1772729033211013400,3.140013427734375,0.976008415222168,-1.152923345565796,-0.4906913936138153
1772729033220531200,3.14953125,0.7778139114379883,-1.1430399417877197,-0.6508548259735107
1772729033230049000,3.159049072265625,0.5687122344970703,-1.0315806865692139,-0.8240829110145569
1772729033239566800,3.16856689453125,0.28848934173583984,-0.8657314777374268,-0.9533449411392212
1772729033249084700,3.178084716796875,0.0013065338134765625,-0.6879239082336426,-1.0312879085540771
1772729033258602500,3.1876025390625,-0.25524425506591797,-0.5757541656494141,-0.9628467559814453
1772729033268120300,3.197120361328125,-0.5534563064575195,-0.527599573135376,-0.819191575050354
1772729033277638100,3.20663818359375,-0.7937479019165039,-0.5272727012634277,-0.6832215189933777
1772729033287156000,3.216156005859375,-0.9935722351074219,-0.461195707321167,-0.6427353024482727
1772729033296673800,3.225673828125,-1.1034517288208008,-0.3762521743774414,-0.5903952121734619
1772729033306191600,3.235191650390625,-1.1789264678955078,-0.30742645263671875,-0.5502174496650696
1772729033315709400,3.24470947265625,-1.2322688102722168,-0.21589994430541992,-0.47869372367858887
1772729033325227300,3.254227294921875,-1.2037734985351562,-0.13049030303955078,-0.40817195177078247
1772729033334745000,3.2637451171875,-1.150383472442627,-0.056813955307006836,-0.2739522457122803
1772729033344263000,3.273262939453125,-1.1002473831176758,0.006616353988647461,-0.09789121150970459
1772729033353780700,3.28278076171875,-1.069854736328125,0.07607555389404297,0.06496459245681763
1772729033363298600,3.292298583984375,-1.0090532302856445,0.11555600166320801,0.18675309419631958
1772729033372816400,3.30181640625,-0.8773088455200195,0.21300959587097168,0.25862014293670654
1772729033382334200,3.311334228515625,-0.7294034957885742,0.3078479766845703,0.2729525566101074
1772729033391852000,3.32085205078125,-0.5768795013427734,0.3586266040802002,0.2664682865142822
1772729033401369900,3.330369873046875,-0.4074878692626953,0.3361184597015381,0.23016813397407532
1772729033410887700,3.3398876953125,-0.24474620819091797,0.3303871154785156,0.11729201674461365
1772729033420405500,3.349405517578125,-0.1479053497314453,0.333465576171875,0.017372429370880127
1772729033429923300,3.35892333984375,-0.05464744567871094,0.38064050674438477,-0.07358092069625854
1772729033439441200,3.368441162109375,0.008640289306640625,0.4693882465362549,-0.12492114305496216
1772729033448959000,3.377958984375,0.0655984878540039,0.5880837440490723,-0.19171220064163208
1772729033458476800,3.387476806640625,0.1947345733642578,0.7252483367919922,-0.1510445475578308
1772729033467994600,3.39699462890625,0.2718181610107422,0.7830605506896973,-0.11998456716537476
1772729033477512400,3.406512451171875,0.3732023239135742,0.8482840061187744,-0.03562825918197632
1772729033487030300,3.4160302734375,0.49600791931152344,0.8432822227478027,0.0914706289768219
1772729033496548000,3.425548095703125,0.6110877990722656,0.8101987838745117,0.2903846502304077
1772729033506066000,3.43506591796875,0.7729034423828125,0.8007111549377441,0.4705606997013092
1772729033515583700,3.444583740234375,0.9835405349731445,0.8203327655792236,0.6224483847618103
1772729033525101600,3.4541015625,1.2667722702026367,0.7664794921875,0.6999954581260681
1772729033534619400,3.463619384765625,1.4867935180664062,0.6502668857574463,0.7908193469047546
1772729033544137200,3.47313720703125,1.6442642211914062,0.4681050777435303,0.8085634708404541
1772729033553655000,3.482655029296875,1.7402267456054688,0.3181331157684326,0.7349591851234436
1772729033563172900,3.4921728515625,1.706491470336914,0.23162174224853516,0.4955776631832123
1772729033572690700,3.501690673828125,1.5703201293945312,0.20439982414245605,0.2003050297498703
1772729033582208500,3.51120849609375,1.3965282440185547,0.19768929481506348,-0.07833622395992279
1772729033591726300,3.520726318359375,1.1705551147460938,0.21912908554077148,-0.2757318615913391
1772729033601244200,3.530244140625,0.9135122299194336,0.26484203338623047,-0.38393986225128174
1772729033610762000,3.539761962890625,0.7324104309082031,0.26192569732666016,-0.4208996593952179
1772729033620279800,3.54927978515625,0.4809131622314453,0.1786651611328125,-0.3854043483734131
1772729033629797600,3.558797607421875,0.23932266235351562,0.09643983840942383,-0.25740760564804077
1772729033639315500,3.5683154296875,0.07058429718017578,-0.026854991912841797,-0.062357038259506226
1772729033648833300,3.577833251953125,-0.003116607666015625,-0.11625432968139648,0.13417530059814453
1772729033658351000,3.58735107421875,-0.01660919189453125,-0.15726327896118164,0.32433098554611206
1772729033667869000,3.596868896484375,0.050635337829589844,-0.15293288230895996,0.5043242573738098
1772729033677386800,3.60638671875,0.2629575729370117,-0.2658119201660156,0.6406745910644531
1772729033686904600,3.615904541015625,0.5468721389770508,-0.4426155090332031,0.6945205330848694
1772729033696422400,3.62542236328125,0.8463268280029297,-0.6362965106964111,0.6657531261444092
1772729033705940200,3.634940185546875,1.122976303100586,-0.8304891586303711,0.48128437995910645
1772729033715458000,3.6444580078125,1.4201107025146484,-1.1457726955413818,0.4438062608242035
1772729033724975900,3.653975830078125,1.5680484771728516,-1.3767526149749756,0.42228084802627563
1772729033734493700,3.66349365234375,1.5685749053955078,-1.5196831226348877,0.36534005403518677
1772729033744011500,3.673011474609375,1.5060386657714844,-1.4876744747161865,0.28083857893943787
1772729033753529300,3.682529296875,1.3397998809814453,-1.3882977962493896,0.1740274280309677
1772729033763047200,3.692047119140625,1.0429811477661133,-1.308056354522705,0.1924794614315033
1772729033772564700,3.701564697265625,0.6454496383666992,-1.3005647659301758,0.44660717248916626
1772729033782082600,3.71108251953125,0.20273399353027344,-1.2938668727874756,0.7523427605628967
1772729033791600400,3.720600341796875,-0.25623226165771484,-1.2230627536773682,1.023321270942688
1772729033801118500,3.730118408203125,-0.5879640579223633,-1.1170148849487305,1.1957495212554932
1772729033810636300,3.73963623046875,-0.8206615447998047,-1.003474473953247,1.2170522212982178
1772729033820154000,3.749154052734375,-0.9722995758056641,-0.9090631008148193,1.2351353168487549
1772729033829672000,3.758671875,-1.0384206771850586,-0.874152660369873,1.1339958906173706
1772729033839189800,3.768189697265625,-0.9753894805908203,-0.8718390464782715,0.9595323204994202
1772729033848707600,3.77770751953125,-0.8488149642944336,-0.9315509796142578,0.6841629147529602
1772729033858225200,3.78722509765625,-0.6858835220336914,-0.9802429676055908,0.42439448833465576
1772729033867743000,3.796742919921875,-0.5281791687011719,-0.9902257919311523,0.19827720522880554
1772729033877260800,3.8062607421875,-0.42942047119140625,-0.9142308235168457,0.0032044053077697754
1772729033886778600,3.815778564453125,-0.39807987213134766,-0.8001103401184082,-0.16261738538742065
1772729033896296400,3.82529638671875,-0.39295291900634766,-0.7089958190917969,-0.20645281672477722
1772729033905814300,3.834814208984375,-0.40429115295410156,-0.6413764953613281,-0.19696864485740662
1772729033915332400,3.844332275390625,-0.48223876953125,-0.5659983158111572,-0.08076679706573486
1772729033924850200,3.85385009765625,-0.5674409866333008,-0.5365331172943115,0.05302639305591583
1772729033934368000,3.863367919921875,-0.7107830047607422,-0.500765323638916,0.2258034199476242
1772729033943885600,3.872885498046875,-0.8939399719238281,-0.4803307056427002,0.35853269696235657
1772729033953403400,3.8824033203125,-1.0487709045410156,-0.43433237075805664,0.478159636259079
1772729033962921200,3.891921142578125,-1.1885333061218262,-0.32187461853027344,0.6180450916290283
1772729033972439000,3.90143896484375,-1.338210105895996,-0.22428464889526367,0.687700629234314
1772729033981956900,3.910956787109375,-1.3790521621704102,-0.07328367233276367,0.6499297022819519
1772729033991474700,3.920474609375,-1.3662023544311523,0.042705535888671875,0.5893982648849487
1772729034000992500,3.929992431640625,-1.1988439559936523,0.045897483825683594,0.5676969289779663
1772729034010510300,3.93951025390625,-0.9168167114257812,0.04869556427001953,0.4121204614639282
1772729034020028200,3.949028076171875,-0.6621580123901367,0.012118816375732422,0.3195234537124634
1772729034029546000,3.9585458984375,-0.43602848052978516,-0.01386713981628418,0.19883668422698975
1772729034039063800,3.968063720703125,-0.2949991226196289,-0.028432369232177734,0.2049272507429123
1772729034048581600,3.97758154296875,-0.21939754486083984,0.010408163070678711,0.2617805302143097
1772729034058099500,3.987099365234375,-0.115753173828125,0.11864304542541504,0.2281271517276764
1772729034067617300,3.9966171875,-0.08662223815917969,0.21940922737121582,0.2839047610759735
1772729034077135000,4.006135009765625,-0.13421058654785156,0.3127317428588867,0.34637343883514404
1772729034086653000,4.01565283203125,-0.18219661712646484,0.37769055366516113,0.3384249806404114
1772729034096170800,4.025170654296875,-0.2521648406982422,0.3596813678741455,0.40602150559425354
1772729034105688600,4.0346884765625,-0.2725048065185547,0.3712043762207031,0.31133735179901123
1772729034115206400,4.044206298828125,-0.35567188262939453,0.39346766471862793,0.158775195479393
1772729034124724200,4.05372412109375,-0.4588289260864258,0.472487211227417,-0.031568191945552826
1772729034134242000,4.063241943359375,-0.5659151077270508,0.5715258121490479,-0.12876297533512115
1772729034143760000,4.072759765625,-0.6848020553588867,0.6396105289459229,-0.23139086365699768
1772729034153277700,4.082277587890625,-0.7423543930053711,0.7670910358428955,-0.26704031229019165
1772729034162795500,4.09179541015625,-0.7371015548706055,0.8432683944702148,-0.25708216428756714
1772729034172313300,4.101313232421875,-0.6432580947875977,0.9238457679748535,-0.20955295860767365
1772729034181831200,4.1108310546875,-0.38703250885009766,1.0159740447998047,-0.1594831943511963
1772729034191349000,4.120348876953125,-0.0781240463256836,1.0517916679382324,-0.08948074281215668
1772729034200866800,4.12986669921875,0.2624788284301758,1.0086445808410645,0.03761809691786766
1772729034210384600,4.139384521484375,0.6329288482666016,0.897289514541626,0.23257847130298615
1772729034219902500,4.14890234375,0.8905315399169922,0.7714142799377441,0.3437595069408417
1772729034229420300,4.158420166015625,1.1912670135498047,0.6894009113311768,0.32922306656837463
1772729034238938000,4.167938232421875,1.480790138244629,0.6806349754333496,0.20365966856479645
1772729034248456000,4.1774560546875,1.6691370010375977,0.6598000526428223,0.06362549960613251
1772729034257973800,4.186973876953125,1.7451725006103516,0.6114840507507324,-0.029058832675218582
1772729034267491600,4.19649169921875,1.7117624282836914,0.5879435539245605,-0.11086846143007278
1772729034277009400,4.206009521484375,1.6072940826416016,0.5822205543518066,-0.18127524852752686
1772729034286527200,4.21552734375,1.450545310974121,0.6240291595458984,-0.3302066922187805
1772729034296045000,4.225045166015625,1.274404525756836,0.6645617485046387,-0.4472893178462982
1772729034305563000,4.23456298828125,1.135178565979004,0.7179388999938965,-0.5275813341140747
1772729034315080700,4.244080810546875,1.0580320358276367,0.6835098266601562,-0.5471426844596863
1772729034324598500,4.2535986328125,1.0157041549682617,0.6610984802246094,-0.5779837369918823
1772729034334116400,4.263116455078125,0.9646205902099609,0.5563445091247559,-0.5419514179229736
1772729034343634200,4.27263427734375,0.9930486679077148,0.4246048927307129,-0.4787631630897522
1772729034353152000,4.282152099609375,1.055811882019043,0.24860334396362305,-0.35998833179473877
1772729034362669800,4.291669921875,1.1630992889404297,0.03174877166748047,-0.2213371843099594
1772729034372187600,4.301187744140625,1.3207578659057617,-0.12086629867553711,-0.10310633480548859
1772729034381705500,4.31070556640625,1.408308982849121,-0.32675909996032715,0.001582324504852295
1772729034391223300,4.320223388671875,1.415231704711914,-0.5452876091003418,0.10507287085056305
1772729034400741000,4.3297412109375,1.273336410522461,-0.7181978225708008,0.14835694432258606
1772729034410259000,4.339259033203125,0.9690475463867188,-0.9128286838531494,0.08623337745666504
1772729034419776800,4.34877685546875,0.5785112380981445,-1.0488061904907227,0.018505185842514038
1772729034429294600,4.358294677734375,0.1557474136352539,-1.1049108505249023,-0.15684542059898376
1772729034438812400,4.3678125,-0.2122516632080078,-1.092954158782959,-0.2851203382015228
1772729034448330200,4.377330322265625,-0.6415424346923828,-1.0726196765899658,-0.4034184515476227
1772729034457848000,4.38684814453125,-1.0477371215820312,-1.0385308265686035,-0.43891534209251404
1772729034467366000,4.396365966796875,-1.384903907775879,-1.0953459739685059,-0.44453519582748413
1772729034476883700,4.4058837890625,-1.5616645812988281,-1.0926704406738281,-0.468597412109375
1772729034486401500,4.415401611328125,-1.6702566146850586,-1.0314640998840332,-0.5531452298164368
1772729034495919400,4.42491943359375,-1.6589550971984863,-0.9420895576477051,-0.6436600685119629
1772729034505437200,4.434437255859375,-1.6046943664550781,-0.9364118576049805,-0.6898842453956604
1772729034514955000,4.443955078125,-1.41176176071167,-0.9597816467285156,-0.6529067754745483
1772729034524472800,4.453472900390625,-1.0771265029907227,-0.9873347282409668,-0.5937817096710205
1772729034533990700,4.46299072265625,-0.6975336074829102,-1.0378427505493164,-0.42095670104026794
1772729034543508500,4.472508544921875,-0.30955028533935547,-1.101839303970337,-0.23265671730041504
1772729034553026300,4.4820263671875,0.0934438705444336,-1.155958890914917,-0.025620609521865845
1772729034562544000,4.491544189453125,0.4056425094604492,-1.2483010292053223,0.11519685387611389
1772729034572062000,4.50106201171875,0.659785270690918,-1.309983730316162,0.2076042741537094
1772729034581579800,4.510579833984375,0.8237314224243164,-1.331432580947876,0.22711893916130066
1772729034591097300,4.520097412109375,0.848322868347168,-1.3478124141693115,0.18257850408554077
1772729034600615200,4.529615234375,0.769780158996582,-1.302250862121582,0.11380669474601746
1772729034610133000,4.539133056640625,0.5426797866821289,-1.2327756881713867,0.00921255350112915
1772729034619651000,4.548651123046875,0.32919788360595703,-1.1031827926635742,-0.17251402139663696
1772729034629169000,4.5581689453125,0.15512561798095703,-0.9730968475341797,-0.3527785539627075
1772729034638686700,4.567686767578125,-0.04946422576904297,-0.8560400009155273,-0.5054163932800293
1772729034648204500,4.57720458984375,-0.29953575134277344,-0.7388105392456055,-0.49523621797561646
1772729034657722400,4.586722412109375,-0.5623674392700195,-0.6771230697631836,-0.398851215839386
1772729034667240200,4.596240234375,-0.7933225631713867,-0.5189368724822998,-0.2230328917503357
1772729034676757800,4.6057578125,-0.9742140769958496,-0.3226442337036133,-0.10465121269226074
1772729034686275600,4.615275634765625,-1.089186668395996,-0.14174556732177734,0.0237504243850708
1772729034695793400,4.62479345703125,-1.2391839027404785,0.0035991668701171875,0.1780206561088562
1772729034705311200,4.634311279296875,-1.3268532752990723,0.1076197624206543,0.2992795705795288
1772729034714829000,4.6438291015625,-1.3214921951293945,0.20210838317871094,0.38253891468048096
1772729034724347000,4.653346923828125,-1.3112688064575195,0.27024412155151367,0.4247722625732422
1772729034733864700,4.66286474609375,-1.3080177307128906,0.2787656784057617,0.4830763638019562
1772729034743382500,4.672382568359375,-1.2664670944213867,0.3089785575866699,0.5177797675132751
1772729034752900600,4.681900634765625,-1.1649909019470215,0.36734771728515625,0.537145733833313
1772729034762418200,4.691418212890625,-1.0460624694824219,0.4236745834350586,0.46792465448379517
1772729034771936000,4.70093603515625,-0.7826166152954102,0.46462202072143555,0.3590819239616394
1772729034781453800,4.710453857421875,-0.5600500106811523,0.4475107192993164,0.3430694341659546
1772729034790971600,4.7199716796875,-0.3747854232788086,0.43982982635498047,0.3529401421546936
1772729034800489500,4.729489501953125,-0.2690887451171875,0.39260149002075195,0.34615808725357056
1772729034810007300,4.73900732421875,-0.17096233367919922,0.379180908203125,0.2684219181537628
1772729034819525000,4.748525146484375,-0.11627578735351562,0.39684438705444336,0.10309183597564697
1772729034829043000,4.75804296875,-0.07177257537841797,0.507789134979248,-0.09674292802810669
1772729034838560800,4.767560791015625,-0.11686515808105469,0.5696873664855957,-0.1537681221961975
1772729034848078600,4.77707861328125,-0.19258785247802734,0.612947940826416,-0.18027371168136597
1772729034857596400,4.786596435546875,-0.18028831481933594,0.6679186820983887,-0.11441969871520996
1772729034867114200,4.7961142578125,-0.1690511703491211,0.7360734939575195,-0.02398073673248291
1772729034876632000,4.805632080078125,-0.15463829040527344,0.7973299026489258,0.10914412140846252
1772729034886150000,4.81514990234375,-0.05407142639160156,0.7981915473937988,0.31197816133499146
1772729034895667700,4.824667724609375,0.14689350128173828,0.8224053382873535,0.42871782183647156
1772729034905185500,4.834185546875,0.4248504638671875,0.8617572784423828,0.47783368825912476
1772729034914703400,4.843703369140625,0.675537109375,0.8693218231201172,0.4930019974708557
1772729034924221200,4.85322119140625,0.8521404266357422,0.7791008949279785,0.4944661855697632
1772729034933739000,4.862739013671875,1.0392427444458008,0.6394352912902832,0.44815483689308167
1772729034943256800,4.8722568359375,1.175588607788086,0.555762767791748,0.28002703189849854
1772729034952774700,4.881774658203125,1.245173454284668,0.5191664695739746,0.03435489535331726
1772729034962292500,4.89129248046875,1.2243976593017578,0.5241532325744629,-0.19742974638938904
1772729034971810300,4.900810302734375,1.103571891784668,0.4947624206542969,-0.3016209602355957
1772729034981328100,4.910328125,0.8870620727539062,0.5135116577148438,-0.3259121775627136
1772729034990846000,4.919845947265625,0.6958808898925781,0.5249719619750977,-0.296167254447937
1772729035000363800,4.92936376953125,0.552973747253418,0.5359692573547363,-0.19211450219154358
1772729035009881600,4.938881591796875,0.4145326614379883,0.5055055618286133,-0.09003812074661255
1772729035019399400,4.9483994140625,0.2461996078491211,0.4573702812194824,0.024193182587623596
1772729035028917200,4.957917236328125,0.16856670379638672,0.46567869186401367,0.16819606721401215
1772729035038435000,4.96743505859375,0.1088104248046875,0.5012369155883789,0.22024498879909515
1772729035047953000,4.976952880859375,0.1068572998046875,0.5651774406433105,0.24933063983917236
1772729035057470700,4.986470703125,0.221954345703125,0.48367834091186523,0.31597042083740234
1772729035066988500,4.995988525390625,0.5449380874633789,0.3398165702819824,0.388083815574646
1772729035076506400,5.00550634765625,0.9619588851928711,0.21979808807373047,0.3773738145828247
1772729035086024200,5.015024169921875,1.374399185180664,-0.02327871322631836,0.3375009298324585
1772729035095542000,5.0245419921875,1.820566177368164,-0.2034156322479248,0.19032710790634155
1772729035105059800,5.034059814453125,2.312356948852539,-0.7535080909729004,0.4069550037384033
1772729035114577700,5.04357763671875,2.558164596557617,-1.1021697521209717,0.368904709815979
1772729035124095500,5.053095458984375,2.5016984939575195,-1.4132275581359863,0.2320202887058258
1772729035133613300,5.06261328125,2.1817073822021484,-1.5621492862701416,0.048460960388183594
1772729035143131100,5.072131103515625,1.6744356155395508,-1.6738905906677246,-0.06466464698314667
1772729035152649000,5.08164892578125,1.1269598007202148,-1.778874397277832,-0.10799634456634521
1772729035162166800,5.091166748046875,0.6360912322998047,-1.7578468322753906,-0.17605897784233093
1772729035171684600,5.1006845703125,0.2554960250854492,-1.6926913261413574,-0.269181489944458
1772729035181202400,5.110202392578125,-0.12839984893798828,-1.6410541534423828,-0.2696416676044464
1772729035190720300,5.11972021484375,-0.5119562149047852,-1.6816158294677734,-0.1307312548160553
1772729035200238000,5.129238037109375,-0.9180612564086914,-1.6965036392211914,0.09248125553131104
1772729035209756000,5.138755859375,-1.2931556701660156,-1.6494030952453613,0.2727741599082947
1772729035219273700,5.148273681640625,-1.5549373626708984,-1.5262951850891113,0.38843896985054016
1772729035228791300,5.157791259765625,-1.6926627159118652,-1.378176212310791,0.395813524723053
1772729035238309000,5.16730908203125,-1.7094602584838867,-1.242391586303711,0.39554494619369507
1772729035247827000,5.176826904296875,-1.600717544555664,-1.1643195152282715,0.4342285096645355
1772729035257345000,5.186344970703125,-1.49940824508667,-1.1787610054016113,0.4036957323551178
1772729035266862800,5.19586279296875,-1.2989811897277832,-1.1736664772033691,0.34012362360954285
1772729035276380700,5.205380615234375,-1.0314769744873047,-1.2023835182189941,0.2714192271232605
1772729035285898500,5.2148984375,-0.7504024505615234,-1.1750693321228027,0.18760240077972412
1772729035295416000,5.224416015625,-0.5168275833129883,-1.1563076972961426,0.05133563280105591
1772729035304934100,5.23393408203125,-0.38465118408203125,-1.0860943794250488,-0.039684414863586426
1772729035314451700,5.24345166015625,-0.3625040054321289,-0.9733667373657227,-0.10470244288444519
1772729035323969500,5.252969482421875,-0.30420684814453125,-0.814481258392334,-0.07879355549812317
1772729035333487400,5.2624873046875,-0.33638858795166016,-0.6192922592163086,-0.0038969814777374268
1772729035343005200,5.272005126953125,-0.4735727310180664,-0.43964648246765137,0.11140397191047668
1772729035352523000,5.28152294921875,-0.6399364471435547,-0.2881896495819092,0.17657262086868286
1772729035362040800,5.291040771484375,-0.7767553329467773,-0.1841878890991211,0.21309232711791992
1772729035371558700,5.30055859375,-0.9230012893676758,-0.08749675750732422,0.2392384260892868
1772729035381076700,5.31007666015625,-1.0624008178710938,-0.04682350158691406,0.23410889506340027
1772729035390594300,5.31959423828125,-1.140695571899414,-0.029431581497192383,0.2794528007507324
1772729035400112000,5.329112060546875,-1.1993989944458008,0.023919105529785156,0.3338487148284912
1772729035409630000,5.3386298828125,-1.2271275520324707,0.12167596817016602,0.3737177848815918
1772729035419147800,5.348147705078125,-1.1980242729187012,0.281475305557251,0.47420987486839294
1772729035428665600,5.35766552734375,-1.097844123840332,0.4580211639404297,0.5825643539428711
1772729035438183400,5.367183349609375,-1.0868072509765625,0.5182590484619141,0.7411399483680725
1772729035447701200,5.376701171875,-1.0381336212158203,0.5867452621459961,0.7795063853263855
1772729035457219000,5.386218994140625,-0.8865747451782227,0.6447815895080566,0.6676886677742004
1772729035466737000,5.39573681640625,-0.4828643798828125,0.7483060359954834,0.5012077689170837
1772729035476254700,5.405254638671875,-0.033347129821777344,0.7847893238067627,0.42164307832717896
1772729035485772500,5.4147724609375,0.21268939971923828,0.7574481964111328,0.43283364176750183
1772729035495290400,5.424290283203125,0.47847843170166016,0.6447739601135254,0.5625157952308655
1772729035504808200,5.43380810546875,0.6451959609985352,0.6191132068634033,0.59830242395401
1772729035514326000,5.443325927734375,0.7300615310668945,0.6312704086303711,0.4747577905654907
1772729035523843800,5.45284375,0.6925773620605469,0.6859490871429443,0.3387296497821808
1772729035533361700,5.462361572265625,0.4918861389160156,0.7153346538543701,0.28270232677459717
1772729035542879500,5.47187939453125,0.3566722869873047,0.7959284782409668,0.161858931183815
1772729035552397300,5.481397216796875,0.20712661743164062,0.8895845413208008,0.03564302250742912
1772729035561915100,5.4909150390625,0.04491901397705078,1.0772716999053955,-0.07018694281578064
1772729035571433000,5.500432861328125,-0.07834053039550781,1.1562137603759766,-0.11667319387197495
1772729035580950800,5.50995068359375,-0.1040334701538086,1.2368049621582031,-0.06154891103506088
1772729035590468600,5.519468505859375,-0.07118415832519531,1.3063945770263672,-0.0336853489279747
1772729035599986400,5.528986328125,0.06043815612792969,1.3536098003387451,-0.029195144772529602
1772729035609504300,5.538504150390625,0.26688671112060547,1.3684158325195312,-0.06688511371612549
1772729035619022000,5.54802197265625,0.5173616409301758,1.290032148361206,-0.07723872363567352
1772729035628540000,5.557539794921875,0.8408021926879883,1.1915020942687988,-0.035703107714653015
1772729035638057700,5.5670576171875,1.0773649215698242,1.0887272357940674,0.0130995512008667
1772729035647575600,5.576575439453125,1.3139610290527344,1.0128576755523682,0.07169725000858307
1772729035657093400,5.58609326171875,1.5396089553833008,0.896658182144165,0.11797486245632172
1772729035666611200,5.595611083984375,1.664536476135254,0.859513521194458,0.09616938978433609
1772729035676129000,5.60512890625,1.6321420669555664,0.8430290222167969,-0.015249915421009064
1772729035685646800,5.614646728515625,1.4689111709594727,0.891045331954956,-0.14708775281906128
1772729035695164700,5.62416455078125,1.2700567245483398,0.926598072052002,-0.33489900827407837
1772729035704682500,5.6336826171875,1.0563716888427734,1.0163440704345703,-0.5168997645378113
1772729035714200300,5.643200439453125,0.8842668533325195,1.0956542491912842,-0.6453121900558472
1772729035723718100,5.65271826171875,0.7883892059326172,1.109877109527588,-0.6298091411590576
1772729035733236000,5.662236083984375,0.8151788711547852,1.035618543624878,-0.5592287182807922
1772729035742753800,5.67175390625,0.8989267349243164,0.9231443405151367,-0.48153284192085266
1772729035752271600,5.681271728515625,1.0031194686889648,0.7834174633026123,-0.386749804019928
1772729035761789400,5.69078955078125,1.2184457778930664,0.49936938285827637,-0.2809385657310486
1772729035771307300,5.700307373046875,1.5885915756225586,0.20009112358093262,-0.1164647713303566
1772729035780825000,5.7098251953125,1.866903305053711,-0.09313559532165527,-0.10401450097560883
1772729035790343000,5.719343017578125,2.103839874267578,-0.48692870140075684,-0.08624162524938583
1772729035799860700,5.72886083984375,2.127208709716797,-0.9141755104064941,-0.026662619784474373
1772729035809378600,5.738378662109375,1.8453493118286133,-1.2785451412200928,0.021939020603895187
1772729035818896400,5.747896484375,1.3545217514038086,-1.5194833278656006,0.00950959324836731
1772729035828414200,5.757414306640625,0.6881551742553711,-1.5155882835388184,-0.12764783203601837
1772729035837932000,5.76693212890625,-0.02325439453125,-1.3786401748657227,-0.41839322447776794
1772729035847449900,5.776449951171875,-0.6763668060302734,-1.2293407917022705,-0.7224146723747253
1772729035856967700,5.7859677734375,-1.2280259132385254,-1.0999841690063477,-0.9521595239639282
1772729035866485500,5.795485595703125,-1.7302579879760742,-1.0498902797698975,-0.990587592124939
1772729035876003000,5.805003173828125,-2.043741226196289,-1.0338473320007324,-0.9688001275062561
1772729035885521000,5.81452099609375,-2.177273750305176,-0.9473495483398438,-1.004737138748169
1772729035895038700,5.824038818359375,-2.1654605865478516,-0.9110946655273438,-0.9955409169197083
1772729035904556500,5.833556640625,-2.0231261253356934,-0.9171757698059082,-0.8709433674812317
1772729035914074600,5.84307470703125,-1.8600282669067383,-0.9511756896972656,-0.6874392032623291
1772729035923592400,5.852592529296875,-1.5944700241088867,-1.037442684173584,-0.4279688894748688
1772729035933110300,5.8621103515625,-1.3118228912353516,-1.1030864715576172,-0.17482781410217285
1772729035942628000,5.871628173828125,-0.9803247451782227,-1.161452293395996,0.04112052917480469
1772729035952146000,5.88114599609375,-0.6253137588500977,-1.2050762176513672,0.1503888964653015
1772729035961663500,5.89066357421875,-0.1812124252319336,-1.2317283153533936,0.19828088581562042
1772729035971181300,5.900181396484375,0.14292430877685547,-1.2559621334075928,0.17898616194725037
1772729035980699100,5.90969921875,0.3721141815185547,-1.3036537170410156,0.15383195877075195
1772729035990217000,5.919217041015625,0.5072183609008789,-1.3763782978057861,0.14333802461624146
1772729035999734800,5.92873486328125,0.5438728332519531,-1.4054858684539795,0.13326339423656464
1772729036009252600,5.938252685546875,0.4657325744628906,-1.3748624324798584,0.0351739376783371
1772729036018770400,5.9477705078125,0.330230712890625,-1.27260422706604,-0.06503874063491821
1772729036028288300,5.957288330078125,0.18484115600585938,-1.1816892623901367,-0.1365954577922821
1772729036037806000,5.96680615234375,0.012601852416992188,-1.0585410594940186,-0.16334176063537598
1772729036047324000,5.976323974609375,-0.21766185760498047,-0.9360241889953613,-0.1865566074848175
1772729036056841700,5.985841796875,-0.47997188568115234,-0.8823926448822021,-0.1446065902709961
1772729036066359600,5.995359619140625,-0.6889572143554688,-0.8008220195770264,-0.1415691375732422
1772729036075877400,6.00487744140625,-0.8810644149780273,-0.6617710590362549,-0.13882049918174744
1772729036085395200,6.014395263671875,-1.0806703567504883,-0.5121450424194336,-0.21608343720436096
1772729036094913000,6.0239130859375,-1.2119245529174805,-0.37456798553466797,-0.16785645484924316
1772729036104430800,6.033430908203125,-1.3377904891967773,-0.3069779872894287,-0.083138108253479
1772729036113948700,6.04294873046875,-1.3797216415405273,-0.18208813667297363,-0.047277480363845825
1772729036123466500,6.052466552734375,-1.3640904426574707,-0.062032222747802734,-0.041302114725112915
1772729036132984300,6.061984375,-1.3075828552246094,0.03641629219055176,0.06881533563137054
1772729036142502100,6.071502197265625,-1.2052483558654785,0.10325407981872559,0.15948961675167084
1772729036152020000,6.08102001953125,-1.076028823852539,0.17385292053222656,0.26712632179260254
1772729036161537800,6.090537841796875,-0.9101295471191406,0.2952573299407959,0.32465606927871704
1772729036171055600,6.1000556640625,-0.7525701522827148,0.42824745178222656,0.3664162755012512
1772729036180573400,6.109573486328125,-0.5598220825195312,0.5285491943359375,0.3881039023399353
1772729036190091300,6.11909130859375,-0.33373355865478516,0.551769495010376,0.4431551694869995
1772729036199609000,6.128609130859375,-0.12619781494140625,0.5822341442108154,0.43202346563339233
1772729036209127000,6.138126953125,0.07530975341796875,0.5754823684692383,0.390688955783844
1772729036218644700,6.147644775390625,0.2879819869995117,0.5946769714355469,0.2750943899154663
1772729036228162600,6.15716259765625,0.44283294677734375,0.6341404914855957,0.13432106375694275
1772729036237680400,6.166680419921875,0.521021842956543,0.6432497501373291,0.08803537487983704
1772729036247198200,6.1761982421875,0.5199747085571289,0.6802263259887695,0.10052606463432312
1772729036256716000,6.185716064453125,0.5204687118530273,0.7273666858673096,0.1441907286643982
1772729036266233900,6.19523388671875,0.49582672119140625,0.8072583675384521,0.17272160947322845
1772729036275751700,6.204751708984375,0.570033073425293,0.8130011558532715,0.2207791805267334
1772729036285269500,6.21426953125,0.6399402618408203,0.7909872531890869,0.29286304116249084
1772729036294787300,6.223787353515625,0.7123985290527344,0.7613980770111084,0.3646250069141388
1772729036304305200,6.23330517578125,0.7965984344482422,0.7300326824188232,0.47700878977775574
1772729036313823000,6.242822998046875,0.8610715866088867,0.7169895172119141,0.5573408007621765
1772729036323340800,6.2523408203125,0.9128265380859375,0.7631580829620361,0.6030274033546448
1772729036332858600,6.261858642578125,1.0545415878295898,0.8324122428894043,0.6218319535255432
1772729036342376400,6.27137646484375,1.1573152542114258,0.8020868301391602,0.6459786295890808
1772729036351894300,6.280894287109375,1.1786298751831055,0.7044909000396729,0.7755366563796997
1772729036361412000,6.290412109375,1.1907730102539062,0.605278491973877,0.8024535775184631
1772729036370930000,6.299929931640625,1.1225242614746094,0.5443456172943115,0.7087017893791199
1772729036380447700,6.30944775390625,1.0123538970947266,0.5909545421600342,0.5017604827880859
1772729036389965600,6.318965576171875,0.8409996032714844,0.6264920234680176,0.27520763874053955
1772729036399483400,6.3284833984375,0.6558914184570312,0.6213626861572266,0.13926178216934204
1772729036409001200,6.338001220703125,0.5280961990356445,0.6296789646148682,0.07555867731571198
1772729036418519000,6.34751904296875,0.4402923583984375,0.6262121200561523,0.02167816460132599
1772729036428036600,6.35703662109375,0.40382957458496094,0.6049392223358154,0.07997637987136841
1772729036437554400,6.366554443359375,0.4110126495361328,0.5239272117614746,0.19836661219596863
1772729036447072300,6.376072265625,0.4471254348754883,0.5034406185150146,0.35732918977737427
1772729036456590300,6.38559033203125,0.579005241394043,0.4095897674560547,0.4199444651603699
1772729036466108200,6.395108154296875,0.7518444061279297,0.3157322406768799,0.4617622196674347
1772729036475626000,6.4046259765625,0.9373607635498047,0.22774720191955566,0.4469614624977112
1772729036485143800,6.414143798828125,1.18170166015625,-0.0785377025604248,0.48177725076675415
1772729036494661600,6.42366162109375,1.4572162628173828,-0.3549766540527344,0.3757930397987366
1772729036504179500,6.433179443359375,1.7270069122314453,-0.5864207744598389,0.19364655017852783
1772729036513697000,6.442697021484375,1.8395986557006836,-0.8794457912445068,0.041992127895355225
1772729036523214800,6.45221484375,1.7676658630371094,-1.1864113807678223,-0.005978614091873169
1772729036532732700,6.461732666015625,1.6506576538085938,-1.472724437713623,0.08690032362937927
1772729036542250500,6.47125048828125,1.3049507141113281,-1.5709600448608398,0.07715067267417908
1772729036551768300,6.480768310546875,0.849858283996582,-1.6032445430755615,0.08799713850021362
1772729036561286100,6.4902861328125,0.40399169921875,-1.4971458911895752,0.021486744284629822
1772729036570804000,6.499803955078125,-0.024402618408203125,-1.399742603302002,-0.0476209819316864
1772729036580321800,6.50932177734375,-0.44637298583984375,-1.2882637977600098,-0.08860981464385986
1772729036589839600,6.518839599609375,-0.8421974182128906,-1.2636618614196777,0.021933868527412415
1772729036599357400,6.528357421875,-1.1778535842895508,-1.2407782077789307,0.16938325762748718
1772729036608875300,6.537875244140625,-1.4526710510253906,-1.130347490310669,0.3082081079483032
1772729036618393000,6.54739306640625,-1.5700197219848633,-0.9638617038726807,0.38070279359817505
1772729036627911000,6.556910888671875,-1.521052360534668,-0.8317325115203857,0.36722156405448914
1772729036637428700,6.5664287109375,-1.365513801574707,-0.7086489200592041,0.3373972475528717
1772729036646946600,6.575946533203125,-1.176950454711914,-0.7204470634460449,0.3623928129673004
1772729036656464400,6.58546435546875,-0.8755674362182617,-0.823859453201294,0.44835156202316284
1772729036665982200,6.594982177734375,-0.5103187561035156,-0.8930089473724365,0.4345589578151703
1772729036675500000,6.6045,-0.2062091827392578,-0.9272315502166748,0.30907559394836426
1772729036685017900,6.614017822265625,0.03608512878417969,-0.9829509258270264,0.10866403579711914
1772729036694535700,6.62353564453125,0.2299022674560547,-1.034529209136963,-0.03414034843444824
1772729036704053500,6.633053466796875,0.2903881072998047,-1.0127665996551514,-0.19470667839050293
1772729036713571300,6.6425712890625,0.16328716278076172,-0.9639537334442139,-0.28677064180374146
1772729036723089200,6.652089111328125,0.02072906494140625,-0.8278541564941406,-0.35784658789634705
1772729036732607000,6.66160693359375,-0.10892963409423828,-0.6133244037628174,-0.3634296655654907
1772729036742124800,6.671124755859375,-0.3023824691772461,-0.39869141578674316,-0.19055405259132385
1772729036751642600,6.680642578125,-0.536036491394043,-0.29273080825805664,-0.026195794343948364
1772729036761160400,6.690160400390625,-0.6982450485229492,-0.20518851280212402,0.22042754292488098
1772729036770678300,6.69967822265625,-0.9240884780883789,-0.1377112865447998,0.3567398190498352
1772729036780196000,6.709196044921875,-1.150350570678711,-0.01289510726928711,0.39861559867858887
1772729036789714000,6.7187138671875,-1.347445011138916,0.09622383117675781,0.37957412004470825
1772729036799231700,6.728231689453125,-1.4927196502685547,0.1399078369140625,0.2948237955570221
1772729036808749600,6.73774951171875,-1.5129427909851074,0.20096826553344727,0.21148677170276642
1772729036818267400,6.747267333984375,-1.4155769348144531,0.2864952087402344,0.11149673163890839
1772729036827785200,6.75678515625,-1.233658790588379,0.27548694610595703,-0.030020520091056824
1772729036837303000,6.766302978515625,-1.0021696090698242,0.23022699356079102,-0.12428439408540726
1772729036846820900,6.77582080078125,-0.7223825454711914,0.18615221977233887,-0.1778172105550766
1772729036856338700,6.785338623046875,-0.4216604232788086,0.20908188819885254,-0.24877619743347168
1772729036865856500,6.7948564453125,-0.15838623046875,0.2619450092315674,-0.2505555748939514
1772729036875374300,6.804374267578125,0.051903724670410156,0.3011012077331543,-0.12485639750957489
1772729036884892200,6.81389208984375,0.12855052947998047,0.3323822021484375,0.10046979784965515
1772729036894410000,6.823409912109375,0.05989646911621094,0.3866105079650879,0.26135241985321045
1772729036903927800,6.832927734375,-0.08972549438476562,0.45070505142211914,0.3542880117893219
1772729036913445600,6.842445556640625,-0.24433326721191406,0.5432276725769043,0.30615806579589844
1772729036922963500,6.85196337890625,-0.46417999267578125,0.7159895896911621,0.09320515394210815
1772729036932481300,6.861481201171875,-0.6564531326293945,0.7862875461578369,-0.14574034512043
1772729036941999000,6.8709990234375,-0.8146495819091797,0.7846031188964844,-0.3400577902793884
1772729036951517000,6.880516845703125,-0.9656639099121094,0.7555437088012695,-0.47175759077072144
1772729036961034800,6.89003466796875,-1.0121240615844727,0.7625246047973633,-0.5571367740631104
1772729036970552600,6.899552490234375,-0.9832887649536133,0.8374407291412354,-0.6257120966911316
1772729036980070400,6.9090703125,-0.8009119033813477,0.9833660125732422,-0.5833994150161743
1772729036989588000,6.918587890625,-0.4938526153564453,1.0803968906402588,-0.5063459277153015
1772729036999105800,6.928105712890625,-0.10732746124267578,1.0868911743164062,-0.3614358603954315
1772729037008623600,6.93762353515625,0.27288150787353516,1.0164072513580322,-0.21800771355628967
1772729037018141400,6.947141357421875,0.5970907211303711,0.8942475318908691,-0.08457368612289429
1772729037027659300,6.9566591796875,0.9686450958251953,0.8192465305328369,-0.03221023082733154
1772729037037177300,6.96617724609375,1.3547210693359375,0.7678263187408447,-0.08368581533432007
1772729037046695200,6.975695068359375,1.8016948699951172,0.7273197174072266,-0.11278963088989258
1772729037056213000,6.985212890625,2.1026573181152344,0.6993951797485352,-0.1594667136669159
1772729037065730800,6.994730712890625,2.1867666244506836,0.6822841167449951,-0.12026098370552063
1772729037075248400,7.004248291015625,2.028231620788574,0.6309747695922852,-0.0908154845237732
1772729037084766200,7.01376611328125,1.7011337280273438,0.6003029346466064,-0.10223805904388428
1772729037094284000,7.023283935546875,1.3532085418701172,0.7290921211242676,-0.15947476029396057
1772729037103801900,7.0328017578125,1.0720396041870117,0.9766430854797363,-0.4134388267993927
1772729037113319700,7.042319580078125,0.784855842590332,1.1902174949645996,-0.6391525864601135
1772729037122837500,7.05183740234375,0.5383205413818359,1.3058428764343262,-0.7007789015769958
1772729037132355300,7.061355224609375,0.4364442825317383,1.3592910766601562,-0.7833855748176575
1772729037141873200,7.070873046875,0.33965587615966797,1.3309130668640137,-0.7961689233779907
1772729037151391000,7.080390869140625,0.40253162384033203,1.16725754737854,-0.6846727728843689
1772729037160908800,7.08990869140625,0.681671142578125,0.8813741207122803,-0.5150803923606873
1772729037170426600,7.099426513671875,1.1580028533935547,0.550814151763916,-0.41777303814888
1772729037179944400,7.1089443359375,1.5430727005004883,0.1894993782043457,-0.38959553837776184
1772729037189462300,7.118462158203125,1.8263921737670898,-0.29959702491760254,-0.3182990550994873
1772729037198980000,7.12797998046875,2.055121421813965,-0.7944738864898682,-0.30780744552612305
1772729037208498000,7.137497802734375,2.0827131271362305,-1.2821118831634521,-0.35922691226005554
1772729037218015700,7.147015625,1.8029718399047852,-1.66119384765625,-0.4153834879398346
1772729037227533600,7.156533447265625,1.3460407257080078,-1.835874080657959,-0.5400296449661255
1772729037237051400,7.166051513671875,0.8176975250244141,-1.738558053970337,-0.8612945079803467
1772729037246569200,7.1755693359375,0.2656288146972656,-1.5519638061523438,-1.2486859560012817
1772729037256087000,7.185087158203125,-0.3060894012451172,-1.3793272972106934,-1.4897515773773193
1772729037265604900,7.19460498046875,-0.8009567260742188,-1.25850248336792,-1.590311050415039
1772729037275122700,7.204122802734375,-1.215886116027832,-1.158215045928955,-1.5689260959625244
1772729037284640500,7.213640625,-1.5357818603515625,-1.049757480621338,-1.5123229026794434
1772729037294158300,7.223158447265625,-1.7693586349487305,-0.9712662696838379,-1.342002272605896
1772729037303676200,7.23267626953125,-1.9419450759887695,-0.9082000255584717,-1.1219435930252075
1772729037313194000,7.242194091796875,-1.9783382415771484,-0.88218092918396,-0.8460169434547424
1772729037322711800,7.2517119140625,-1.927180290222168,-0.8512275218963623,-0.5808520317077637
1772729037332229600,7.261229736328125,-1.7578973770141602,-0.8290743827819824,-0.35038530826568604
1772729037341747500,7.27074755859375,-1.4609770774841309,-0.863893985748291,-0.19634471833705902
1772729037351265300,7.280265380859375,-1.0861730575561523,-0.9497718811035156,-0.10582008212804794
1772729037360783000,7.289783203125,-0.7497577667236328,-1.0406975746154785,-0.00107671320438385
1772729037370301000,7.299301025390625,-0.3072023391723633,-1.096330165863037,0.0649988204240799
1772729037379818800,7.30881884765625,0.1257772445678711,-1.1725716590881348,0.06760674715042114
1772729037389336600,7.318336669921875,0.5269050598144531,-1.215559720993042,0.037425696849823
1772729037398854400,7.3278544921875,0.8907470703125,-1.243452787399292,-0.0789027065038681
1772729037408372200,7.337372314453125,1.1258649826049805,-1.2576360702514648,-0.23060165345668793
1772729037417890000,7.34689013671875,1.1907320022583008,-1.3062744140625,-0.31891822814941406
1772729037427408000,7.356407958984375,0.9954767227172852,-1.3162505626678467,-0.28528353571891785
1772729037436925700,7.36592578125,0.6477737426757812,-1.255561351776123,-0.2630450129508972
1772729037446443500,7.375443603515625,0.2522573471069336,-1.0340986251831055,-0.27232974767684937
1772729037455961000,7.384961181640625,-0.14902687072753906,-0.7381308078765869,-0.3675914704799652
1772729037465479000,7.39447900390625,-0.5262947082519531,-0.5058248043060303,-0.37865620851516724
1772729037474996700,7.403996826171875,-0.9287252426147461,-0.3649752140045166,-0.26196742057800293
1772729037484514600,7.4135146484375,-1.2454957962036133,-0.2501552104949951,-0.14525172114372253
1772729037494032400,7.423032470703125,-1.4850587844848633,-0.17562389373779297,-0.07495246827602386
1772729037503550200,7.43255029296875,-1.6099200248718262,-0.08047318458557129,-0.05336396396160126
1772729037513068000,7.442068115234375,-1.5869569778442383,-0.010045051574707031,0.020845532417297363
1772729037522586000,7.451586181640625,-1.5356359481811523,0.02808356285095215,0.11803941428661346
1772729037532104000,7.46110400390625,-1.4797043800354004,0.019299983978271484,0.24649055302143097
1772729037541621500,7.47062158203125,-1.3806257247924805,0.09421133995056152,0.32022228837013245
1772729037551139300,7.480139404296875,-1.1975288391113281,0.2183067798614502,0.34167540073394775
1772729037560657200,7.4896572265625,-1.0040245056152344,0.299452543258667,0.3296748697757721
1772729037570175000,7.499175048828125,-0.8449029922485352,0.32450222969055176,0.30388352274894714
1772729037579692800,7.50869287109375,-0.6503992080688477,0.2901465892791748,0.3457101285457611
1772729037589210600,7.518210693359375,-0.4583005905151367,0.24787306785583496,0.37005487084388733
1772729037598728400,7.527728515625,-0.34929656982421875,0.21327900886535645,0.31431901454925537
1772729037608246300,7.537246337890625,-0.2441549301147461,0.24531149864196777,0.27193933725357056
1772729037617764000,7.54676416015625,-0.15213489532470703,0.29530835151672363,0.19075490534305573
1772729037627282000,7.556281982421875,-0.013217926025390625,0.38145923614501953,0.10229267925024033
1772729037636799700,7.5657998046875,0.13936233520507812,0.4909341335296631,0.03509531542658806
1772729037646317600,7.575317626953125,0.14796829223632812,0.549842119216919,0.07792137563228607
1772729037655835400,7.58483544921875,0.13425064086914062,0.5832991600036621,0.20939046144485474
1772729037665353200,7.594353271484375,0.1645832061767578,0.6715283393859863,0.2389514446258545
1772729037674871000,7.60387109375,0.18592262268066406,0.7940902709960938,0.2342548817396164
1772729037684388900,7.613388916015625,0.19785213470458984,0.8876280784606934,0.2568356394767761
1772729037693906700,7.62290673828125,0.2261638641357422,0.8723280429840088,0.3723554015159607
1772729037703424500,7.632424560546875,0.33755970001220703,0.851292610168457,0.4535486698150635
1772729037712942300,7.6419423828125,0.4938077926635742,0.8287487030029297,0.4717108905315399
1772729037722460200,7.651460205078125,0.6902589797973633,0.8135273456573486,0.513964056968689
1772729037731978000,7.66097802734375,0.8961687088012695,0.7638709545135498,0.5480735898017883
1772729037741495800,7.670495849609375,1.0257492065429688,0.6767456531524658,0.5430995225906372
1772729037751013600,7.680013671875,1.0649394989013672,0.6305100917816162,0.5226318836212158
1772729037760531500,7.689531494140625,1.0497503280639648,0.6274011135101318,0.3983082175254822
1772729037770049300,7.69904931640625,0.958674430847168,0.6155180931091309,0.24338462948799133
1772729037779567000,7.708567138671875,0.8369112014770508,0.6391129493713379,0.12544003129005432
1772729037789085000,7.7180849609375,0.7701444625854492,0.6586811542510986,-0.045103102922439575
1772729037798602800,7.727602783203125,0.6957683563232422,0.8378503322601318,-0.246928408741951
1772729037808120600,7.73712060546875,0.5677452087402344,0.7867319583892822,-0.15915726125240326
1772729037817638400,7.746638427734375,0.5336437225341797,0.6506872177124023,0.04227510094642639
1772729037827156200,7.75615625,0.6024065017700195,0.603020191192627,0.15789029002189636
1772729037836674000,7.765674072265625,0.8287992477416992,0.4498291015625,0.33138957619667053
1772729037846191600,7.775191650390625,1.2224159240722656,0.38572168350219727,0.4041896462440491
1772729037855709400,7.78470947265625,1.6330060958862305,0.28688812255859375,0.43803834915161133
1772729037865227500,7.7942275390625,1.9514484405517578,0.0555424690246582,0.5939354300498962
1772729037874745300,7.803745361328125,2.288729667663574,-0.2511317729949951,0.7078505754470825
1772729037884263200,7.81326318359375,2.5837268829345703,-0.4836850166320801,0.619005024433136
1772729037893781000,7.822781005859375,2.72784423828125,-0.7232537269592285,0.4950870871543884
1772729037903298800,7.832298828125,2.6176185607910156,-0.9547240734100342,0.37584108114242554
1772729037912816600,7.841816650390625,2.307415008544922,-1.2424595355987549,0.3412940502166748
1772729037922334500,7.85133447265625,1.8628339767456055,-1.4762403964996338,0.29028385877609253
1772729037931852000,7.86085205078125,1.2960548400878906,-1.5132184028625488,0.21510028839111328
1772729037941369900,7.870369873046875,0.6378240585327148,-1.434349775314331,0.041702449321746826
1772729037950887700,7.8798876953125,0.09469890594482422,-1.3046879768371582,-0.08576807379722595
1772729037960405500,7.889405517578125,-0.4860515594482422,-1.2335426807403564,-0.1361064314842224
1772729037969923300,7.89892333984375,-1.0806493759155273,-1.1575367450714111,-0.07257935404777527
1772729037979441200,7.908441162109375,-1.5963115692138672,-1.0469334125518799,0.07128655910491943
1772729037988959000,7.917958984375,-1.9496612548828125,-0.9138236045837402,0.2367890179157257
1772729037998476800,7.927476806640625,-2.042304515838623,-0.7916340827941895,0.3546585440635681
1772729038007994600,7.93699462890625,-2.008936882019043,-0.7781975269317627,0.39962059259414673
1772729038017512400,7.946512451171875,-1.7896652221679688,-0.8582475185394287,0.39242181181907654
1772729038027030300,7.9560302734375,-1.4262933731079102,-0.9422211647033691,0.31086233258247375
1772729038036548000,7.965548095703125,-1.010101318359375,-1.0705347061157227,0.1561291217803955
1772729038046066000,7.97506591796875,-0.6248693466186523,-1.173886775970459,-0.10112670063972473
1772729038055583700,7.984583740234375,-0.3090505599975586,-1.2162048816680908,-0.3735826909542084
1772729038065101600,7.9941015625,-0.08239459991455078,-1.2323286533355713,-0.5827885866165161
1772729038074619400,8.003619384765624,0.07324790954589844,-1.1681735515594482,-0.7494208812713623
1772729038084137200,8.01313720703125,0.09658336639404297,-1.0806772708892822,-0.8035812973976135
1772729038093655000,8.022655029296875,-0.00954437255859375,-0.9848933219909668,-0.7702465057373047
1772729038103172900,8.0321728515625,-0.20703125,-0.8392763137817383,-0.7074580192565918
1772729038112690700,8.041690673828125,-0.47270870208740234,-0.6176249980926514,-0.6286884546279907
1772729038122208500,8.05120849609375,-0.7095861434936523,-0.3842647075653076,-0.5605188608169556
1772729038131726300,8.060726318359375,-0.9570331573486328,-0.14840173721313477,-0.4686180353164673
1772729038141244200,8.070244140625,-1.223280906677246,0.02344226837158203,-0.34031522274017334
1772729038150762000,8.079761962890625,-1.3539981842041016,0.13837814331054688,-0.20262795686721802
1772729038160279800,8.08927978515625,-1.5222797393798828,0.2416238784790039,-0.008874595165252686
1772729038169797600,8.098797607421876,-1.594996452331543,0.3204810619354248,0.09903591871261597
1772729038179315500,8.1083154296875,-1.5490007400512695,0.45493364334106445,0.20542648434638977
1772729038188833300,8.117833251953124,-1.4156246185302734,0.5779626369476318,0.27361252903938293
1772729038198351000,8.12735107421875,-1.2163724899291992,0.6676380634307861,0.3192065358161926
1772729038207869000,8.136868896484375,-0.9317007064819336,0.6772665977478027,0.34966617822647095
1772729038217386800,8.14638671875,-0.668370246887207,0.650353193283081,0.29825252294540405
1772729038226904600,8.155904541015625,-0.37280845642089844,0.5987906455993652,0.26343709230422974
1772729038236422400,8.16542236328125,-0.13959693908691406,0.596541166305542,0.20913830399513245
1772729038245940200,8.174940185546875,0.14473247528076172,0.595360517501831,0.13982242345809937
1772729038255458000,8.1844580078125,0.36876487731933594,0.6213901042938232,0.04820734262466431
1772729038264976000,8.193975830078125,0.4494905471801758,0.5394771099090576,-0.04358139634132385
1772729038274493700,8.20349365234375,0.38732147216796875,0.4472534656524658,-0.04696325957775116
1772729038284011500,8.213011474609376,0.2802753448486328,0.33814048767089844,-0.04389740526676178
1772729038293529300,8.222529296875,0.1829967498779297,0.30652284622192383,-0.15450772643089294
1772729038303047000,8.232046875,0.1091766357421875,0.3372533321380615,-0.3153552711009979
1772729038312564700,8.241564697265625,-0.12126445770263672,0.42571187019348145,-0.4732798635959625
1772729038322082600,8.25108251953125,-0.3872833251953125,0.49354004859924316,-0.4763553738594055
1772729038331600400,8.260600341796875,-0.5416641235351562,0.5311968326568604,-0.5387136936187744
1772729038341118200,8.2701181640625,-0.5849857330322266,0.6040043830871582,-0.5870779156684875
1772729038350636000,8.279635986328126,-0.5461597442626953,0.6162939071655273,-0.6588181257247925
1772729038360153900,8.28915380859375,-0.468170166015625,0.6081850528717041,-0.6230480670928955
1772729038369671700,8.298671630859374,-0.3198881149291992,0.6316688060760498,-0.5002104640007019
1772729038379189500,8.308189453125,-0.14661502838134766,0.6502442359924316,-0.38765764236450195
1772729038388707300,8.317707275390624,0.04458045959472656,0.7304236888885498,-0.2765313386917114
1772729038398225200,8.32722509765625,0.2540884017944336,0.7802877426147461,-0.19496220350265503
1772729038407743000,8.336742919921875,0.5638580322265625,0.8048801422119141,-0.2325902283191681
1772729038417260800,8.3462607421875,0.8048877716064453,0.8022701740264893,-0.25239115953445435
1772729038426778600,8.355778564453125,1.0280523300170898,0.7589626312255859,-0.256101131439209
1772729038436296400,8.36529638671875,1.217240333557129,0.7617909908294678,-0.263450562953949
1772729038445814300,8.374814208984375,1.3323659896850586,0.7354414463043213,-0.24634285271167755
1772729038455332000,8.38433203125,1.2399959564208984,0.7037718296051025,-0.2036214917898178
1772729038464850000,8.393849853515626,1.1074810028076172,0.67490553855896,-0.19247563183307648
1772729038474367700,8.40336767578125,0.8821868896484375,0.7954363822937012,-0.38748493790626526
1772729038483885600,8.412885498046874,0.6664609909057617,0.9306471347808838,-0.6086167097091675
1772729038493403400,8.4224033203125,0.48534107208251953,0.9809978008270264,-0.7323626279830933
1772729038502921200,8.431921142578124,0.21569061279296875,1.07645845413208,-0.7732368111610413
1772729038512439000,8.44143896484375,0.10718250274658203,1.1671245098114014,-0.7944871187210083
1772729038521956900,8.450956787109375,0.11298370361328125,1.2434215545654297,-0.7841967940330505
1772729038531474700,8.460474609375,0.20580101013183594,1.111175298690796,-0.6759006977081299
1772729038540992500,8.469992431640625,0.5356101989746094,0.8047680854797363,-0.5616534352302551
1772729038550510300,8.47951025390625,0.8780651092529297,0.4977378845214844,-0.45685192942619324
1772729038560028200,8.489028076171875,1.2918224334716797,0.11769890785217285,-0.3522314429283142
1772729038569546000,8.4985458984375,1.6904258728027344,-0.38332104682922363,-0.2534726560115814
1772729038579063800,8.508063720703126,1.997182846069336,-0.9222431182861328,-0.16601479053497314
1772729038588581600,8.51758154296875,2.099431037902832,-1.3625481128692627,-0.22720785439014435
1772729038598099500,8.527099365234376,1.8842086791992188,-1.6707713603973389,-0.3251284956932068
1772729038607617300,8.5366171875,1.5271072387695312,-1.7780070304870605,-0.5921643972396851
1772729038617135000,8.546135009765624,1.0811166763305664,-1.667118787765503,-0.9460486769676208
1772729038626653000,8.55565283203125,0.36190032958984375,-1.4313466548919678,-1.268251895904541
1772729038636170800,8.565170654296875,-0.49309635162353516,-1.4152204990386963,-1.3290703296661377
1772729038645688600,8.5746884765625,-1.1855387687683105,-1.3240389823913574,-1.2802609205245972
1772729038655206400,8.584206298828125,-1.757258415222168,-1.0880789756774902,-1.3861033916473389
1772729038664724200,8.59372412109375,-2.1371936798095703,-0.7729606628417969,-1.5696678161621094
1772729038674242000,8.603241943359375,-2.318007469177246,-0.5887198448181152,-1.580696940422058
1772729038683759900,8.612759765625,-2.4013671875,-0.5214154720306396,-1.4554593563079834
1772729038693277400,8.62227734375,-2.2848587036132812,-0.5966720581054688,-1.2382493019104004
1772729038702795300,8.631795166015625,-2.0542755126953125,-0.7285480499267578,-1.0313022136688232
1772729038712313000,8.64131298828125,-1.6944284439086914,-0.806041955947876,-0.8555951118469238
1772729038721831000,8.650830810546875,-1.1853241920471191,-0.8863189220428467,-0.7580879330635071
1772729038731348700,8.6603486328125,-0.561680793762207,-0.9315581321716309,-0.6717379689216614
1772729038740866600,8.669866455078125,-0.034423828125,-0.9953219890594482,-0.5989274978637695
1772729038750384400,8.67938427734375,0.49615001678466797,-1.0948154926300049,-0.47987014055252075
1772729038759902200,8.688902099609376,1.0363130569458008,-1.1400587558746338,-0.4175373613834381
1772729038769420000,8.698419921875,1.5994234085083008,-1.1586024761199951,-0.33110255002975464
1772729038778937900,8.707937744140626,2.036407470703125,-1.1517326831817627,-0.3257085680961609
1772729038788455700,8.71745556640625,2.384730339050293,-1.2019734382629395,-0.2719907760620117
1772729038797973500,8.726973388671874,2.404463768005371,-1.3020758628845215,-0.18748977780342102
1772729038807491300,8.7364912109375,2.0773839950561523,-1.4208905696868896,-0.09893330931663513
1772729038817009200,8.746009033203125,1.5872268676757812,-1.3912763595581055,-0.029231905937194824
1772729038826527000,8.75552685546875,1.0356664657592773,-1.1458792686462402,-0.19182848930358887
1772729038836044800,8.765044921875,0.42142391204833984,-0.8396170139312744,-0.4334172010421753
1772729038845562600,8.774562744140624,-0.1616077423095703,-0.5956110954284668,-0.4855128526687622
1772729038855080400,8.78408056640625,-0.683873176574707,-0.4877736568450928,-0.40607017278671265
1772729038864598300,8.793598388671874,-1.013014793395996,-0.4068777561187744,-0.3763103485107422
1772729038874116000,8.8031162109375,-1.2336807250976562,-0.3475677967071533,-0.32170039415359497
1772729038883634000,8.812634033203125,-1.3582653999328613,-0.27594637870788574,-0.3073742389678955
1772729038893151700,8.82215185546875,-1.4372210502624512,-0.24155116081237793,-0.235120952129364
1772729038902669600,8.831669677734375,-1.4252433776855469,-0.2415623664855957,-0.14555859565734863
1772729038912187400,8.8411875,-1.4058294296264648,-0.2635941505432129,-0.029699504375457764
1772729038921705200,8.850705322265625,-1.357377052307129,-0.26885008811950684,0.06578445434570312
1772729038931223000,8.86022314453125,-1.2322502136230469,-0.20907902717590332,0.19284260272979736
1772729038940740900,8.869740966796876,-1.0971364974975586,-0.10182380676269531,0.28275763988494873
1772729038950258700,8.8792587890625,-0.891810417175293,-0.006194114685058594,0.2869340181350708
1772729038959776500,8.888776611328124,-0.5892362594604492,0.0348207950592041,0.35129255056381226
1772729038969294300,8.89829443359375,-0.4105033874511719,0.023777246475219727,0.45917755365371704
1772729038978812200,8.907812255859374,-0.26402950286865234,0.0067691802978515625,0.6311022639274597
1772729038988330000,8.917330078125,-0.11637306213378906,-0.00910639762878418,0.7373319268226624
1772729038997847800,8.926847900390625,-0.15158367156982422,0.055755615234375,0.7262170314788818
1772729039007365600,8.93636572265625,-0.17633342742919922,0.1757948398590088,0.6253649592399597
1772729039016883500,8.945883544921875,-0.21251583099365234,0.29398512840270996,0.45172590017318726
1772729039026401300,8.9554013671875,-0.2531919479370117,0.34369826316833496,0.28727442026138306
1772729039035919000,8.964919189453125,-0.1837606430053711,0.37486815452575684,0.21923142671585083
1772729039045437000,8.97443701171875,-0.14279842376708984,0.37300753593444824,0.2312091588973999
1772729039054954500,8.98395458984375,-0.11584854125976562,0.39069366455078125,0.3044354319572449
1772729039064472600,8.99347265625,-0.15072154998779297,0.4186830520629883,0.3983084559440613
1772729039073990400,9.002990478515626,-0.1857004165649414,0.5106034278869629,0.49518895149230957
1772729039083508000,9.012508056640625,-0.16399288177490234,0.6003544330596924,0.5239161252975464
1772729039093025800,9.02202587890625,-0.03819561004638672,0.6721029281616211,0.5262779593467712
1772729039102543600,9.031543701171875,0.02708148956298828,0.7257914543151855,0.5364171862602234
1772729039112061400,9.0410615234375,0.1066579818725586,0.7272169589996338,0.47256505489349365
1772729039121579300,9.050579345703126,0.15060901641845703,0.6284453868865967,0.49880871176719666
1772729039131097000,9.06009716796875,0.2355976104736328,0.5816407203674316,0.5349938869476318
1772729039140615000,9.069614990234374,0.36004638671875,0.6367993354797363,0.4263915419578552
1772729039150132700,9.0791328125,0.5595512390136719,0.6355495452880859,0.3434332609176636
1772729039159650600,9.088650634765624,0.6949567794799805,0.7127840518951416,0.22214770317077637
1772729039169168400,9.09816845703125,0.6229839324951172,0.7738080024719238,0.05709892511367798
1772729039178686200,9.107686279296875,0.525054931640625,0.7125716209411621,-0.06584274768829346
1772729039188204000,9.1172041015625,0.3836545944213867,0.62941575050354,-0.023368239402770996
1772729039197721900,9.126721923828125,0.3413209915161133,0.6978919506072998,-0.0688403844833374
1772729039207239700,9.13623974609375,0.49283313751220703,0.872445821762085,-0.29223304986953735
