time,seconds_elapsed,z,y,x
1772729030166419700,0.095419677734375,9.09272575378418,3.610769271850586,-1.2275179624557495
1772729030175937500,0.1049375,9.169296264648438,3.6131622791290283,-1.1676974296569824
1772729030185455400,0.114455322265625,9.221938133239746,3.6466617584228516,-1.1270195245742798
1772729030194973200,0.12397314453125,9.265008926391602,3.6777684688568115,-1.1222338676452637
1772729030204491000,0.133490966796875,9.291330337524414,3.651447296142578,-1.155733346939087
1772729030214008800,0.1430087890625,9.324830055236816,3.627519130706787,-1.2323036193847656
1772729030223526700,0.152526611328125,9.34157943725586,3.603590965270996,-1.2490534782409668
1772729030233044500,0.16204443359375,9.324830055236816,3.610769271850586,-1.2562319040298462
1772729030242562300,0.171562255859375,9.30329418182373,3.6155550479888916,-1.2801600694656372
1772729030252080000,0.181080078125,9.336793899536133,3.620340585708618,-1.2586246728897095
1772729030261598000,0.190597900390625,9.346364974975586,3.603590965270996,-1.2801600694656372
1772729030271115800,0.20011572265625,9.339186668395996,3.617947816848755,-1.3351950645446777
1772729030280633600,0.209633544921875,9.308079719543457,3.6131622791290283,-1.3902299404144287
1772729030290151400,0.2191513671875,9.255437850952148,3.5916268825531006,-1.4404792785644531
1772729030299669200,0.228669189453125,9.21715259552002,3.570091485977173,-1.5361921787261963
1772729030309187000,0.23818701171875,9.154939651489258,3.5341989994049072,-1.6342978477478027
1772729030318705000,0.247704833984375,9.131011009216309,3.517449378967285,-1.6630117893218994
1772729030328222700,0.25722265625,9.121439933776855,3.4959139823913574,-1.710868239402771
1772729030337740500,0.266740478515625,9.119047164916992,3.5126636028289795,-1.7276179790496826
1772729030347258600,0.276258544921875,9.142974853515625,3.486342668533325,-1.6701902151107788
1772729030356776200,0.285776123046875,9.164510726928711,3.4648072719573975,-1.6247265338897705
1772729030366294000,0.2952939453125,9.135796546936035,3.5054850578308105,-1.581655740737915
1772729030375811800,0.304811767578125,9.10229778289795,3.5748770236968994,-1.5361921787261963
1772729030385329700,0.31432958984375,9.075976371765137,3.5772697925567627,-1.5170495510101318
1772729030394847500,0.323847412109375,9.044869422912598,3.5676984786987305,-1.4763715267181396
1772729030404365300,0.333365234375,9.011369705200195,3.531806230545044,-1.4476577043533325
1772729030413883400,0.34288330078125,9.042476654052734,3.541377544403076,-1.4428720474243164
1772729030423401200,0.352401123046875,9.083154678344727,3.531806230545044,-1.428515076637268
1772729030432919000,0.3619189453125,9.17886734008789,3.4959139823913574,-1.3758729696273804
1772729030442436600,0.3714365234375,9.317651748657227,3.460021495819092,-1.3184453248977661
1772729030451954400,0.380954345703125,9.45164966583252,3.4815568923950195,-1.2346965074539185
1772729030461472300,0.39047216796875,9.628718376159668,3.4719855785369873,-1.1126625537872314
1772729030470990000,0.399989990234375,9.803394317626953,3.4911282062530518,-0.9020941257476807
1772729030480508000,0.4095078125,9.990034103393555,3.500699520111084,-0.6652047038078308
1772729030490026000,0.41902587890625,10.205389022827148,3.445664644241333,-0.37806597352027893
1772729030499543800,0.428543701171875,10.336994171142578,3.3786656856536865,-0.11724831163883209
1772729030509061600,0.4380615234375,10.370492935180664,3.280559778213501,0.1459621787071228
1772729030518579500,0.447579345703125,10.370492935180664,3.1800613403320312,0.2847459018230438
1772729030528097000,0.457096923828125,10.336994171142578,3.074777126312256,0.25363919138908386
1772729030537614800,0.46661474609375,10.26042366027832,3.053241729736328,0.07178468257188797
1772729030547132700,0.476132568359375,10.1216402053833,2.981456995010376,-0.1339980661869049
1772729030556650500,0.485650390625,9.994820594787598,2.8977081775665283,-0.35892340540885925
1772729030566168600,0.49516845703125,9.860821723937988,2.8498518466949463,-0.48813581466674805
1772729030575686400,0.504686279296875,9.705288887023926,2.8043880462646484,-0.6029912829399109
1772729030585204200,0.514204345703125,9.57607650756836,2.691925525665283,-0.5623133182525635
1772729030594722000,0.52372216796875,9.442078590393066,2.56510591506958,-0.4785645306110382
1772729030604240000,0.533239990234375,9.322437286376953,2.50289249420166,-0.40677985548973083
1772729030613757400,0.54275732421875,9.29611587524414,2.579462766647339,-0.44027936458587646
1772729030623275300,0.552275146484375,9.18843936920166,2.6177480220794678,-0.5599204897880554
1772729030632793000,0.56179296875,9.047262191772461,2.5914268493652344,-0.5886343717575073
1772729030642311200,0.571311279296875,8.913264274597168,2.5363919734954834,-0.6484549641609192
1772729030651829000,0.5808291015625,8.8438720703125,2.5770699977874756,-0.8111668825149536
1772729030661346800,0.590346923828125,8.757730484008789,2.7397818565368652,-0.9379864931106567
1772729030670864600,0.59986474609375,8.590232849121094,2.8354947566986084,-0.9667003750801086
1772729030680382500,0.609382568359375,8.425128936767578,2.926422119140625,-0.8805587291717529
1772729030689900300,0.618900390625,8.252845764160156,3.0077781677246094,-0.7896314859390259
1772729030699417900,0.62841796875,8.051848411560059,3.153740167617798,-0.7585247755050659
1772729030708935700,0.637935791015625,8.001599311828613,3.3571300506591797,-0.7226324677467346
1772729030718453800,0.647453857421875,7.939385414123535,3.5437703132629395,-0.6556333899497986
1772729030727971600,0.6569716796875,7.865208148956299,3.6538400650024414,-0.46899324655532837
1772729030737489400,0.666489501953125,7.927421569824219,3.713660717010498,-0.34217363595962524
1772729030747007200,0.67600732421875,8.054241180419922,3.7495529651641846,-0.275174617767334
1772729030756525000,0.685525146484375,8.200202941894531,3.768695592880249,-0.27756741642951965
1772729030766043000,0.69504296875,8.458627700805664,3.7710886001586914,-0.33499518036842346
1772729030775560700,0.704560791015625,8.913264274597168,3.735196113586426,-0.4163511395454407
1772729030785078300,0.714078369140625,9.468399047851562,3.586841106414795,-0.5312066078186035
1772729030794596400,0.723596435546875,10.107282638549805,3.3786656856536865,-0.6317051649093628
1772729030804114200,0.7331142578125,10.64088249206543,3.136990547180176,-0.7369893789291382
1772729030813632000,0.742632080078125,11.11466121673584,2.991028308868408,-0.9906286001205444
1772729030823149800,0.75214990234375,11.437692642211914,2.9527430534362793,-1.2490534782409668
1772729030832667600,0.761667724609375,11.542976379394531,3.0029923915863037,-1.4715858697891235
1772729030842185500,0.771185546875,11.504691123962402,3.1274192333221436,-1.5792629718780518
1772729030851703300,0.780703369140625,11.289337158203125,3.2614171504974365,-1.5481562614440918
1772729030861221000,0.79022119140625,10.892128944396973,3.326023578643799,-1.31365966796875
1772729030870739000,0.799739013671875,10.375279426574707,3.4121651649475098,-1.0791629552841187
1772729030880256800,0.8092568359375,9.851250648498535,3.5772697925567627,-0.9475577473640442
1772729030889774600,0.818774658203125,9.384650230407715,3.7471601963043213,-0.8949156403541565
1772729030899292400,0.82829248046875,9.018548965454102,3.9194436073303223,-0.9403793215751648
1772729030908810200,0.837810302734375,8.6907320022583,4.067798614501953,-0.9068797826766968
1772729030918328000,0.847328125,8.410771369934082,4.161118507385254,-0.9188438653945923
1772729030927846000,0.856845947265625,8.22413158416748,4.192225456237793,-0.8901300430297852
1772729030937363700,0.86636376953125,8.183453559875488,4.132404804229736,-0.849452018737793
1772729030946881500,0.875881591796875,8.21695327758789,4.132404804229736,-0.8973084688186646
1772729030956399400,0.8853994140625,8.252845764160156,4.089334011077881,-0.9092726111412048
1772729030965917200,0.894917236328125,8.243273735046387,4.01754903793335,-0.9332008361816406
1772729030975435000,0.90443505859375,8.271987915039062,3.94097900390625,-0.9188438653945923
1772729030984952800,0.913952880859375,8.34138011932373,3.84765887260437,-0.9068797826766968
1772729030994470700,0.923470703125,8.496912956237793,3.7806596755981445,-0.9188438653945923
1772729031003988500,0.932988525390625,8.784051895141602,3.7016966342926025,-0.9379864931106567
1772729031013506300,0.94250634765625,9.121439933776855,3.6634113788604736,-0.9571290612220764
1772729031023024000,0.952024169921875,9.391828536987305,3.603590965270996,-0.914058268070221
1772729031032542000,0.9615419921875,9.559326171875,3.5533416271209717,-0.7896314859390259
1772729031042059800,0.971059814453125,9.681360244750977,3.4959139823913574,-0.6197410821914673
1772729031051577600,0.98057763671875,9.710074424743652,3.510270833969116,-0.5216353535652161
1772729031061095400,0.990095458984375,9.619147300720215,3.541377544403076,-0.4785645306110382
1772729031070613200,0.99961328125,9.521040916442871,3.594019651412964,-0.4498506486415863
1772729031080131000,1.009131103515625,9.487542152404785,3.6299118995666504,-0.4259224236011505
1772729031089649000,1.01864892578125,9.506684303283691,3.7016966342926025,-0.4618147611618042
1772729031099166700,1.028166748046875,9.57607650756836,3.744767427444458,-0.46899324655532837
1772729031108684500,1.0376845703125,9.628718376159668,3.751945972442627,-0.46420758962631226
1772729031118202400,1.047202392578125,9.556933403015137,3.720839262008667,-0.4163511395454407
1772729031127720200,1.05672021484375,9.42054271697998,3.6873397827148438,-0.3684946894645691
1772729031137238000,1.066238037109375,9.272188186645508,3.7423746585845947,-0.4450650215148926
1772729031146755800,1.075755859375,9.150154113769531,3.799802303314209,-0.4905286431312561
1772729031156273700,1.085273681640625,9.032905578613281,3.85483717918396,-0.5886343717575073
1772729031165791500,1.09479150390625,8.970691680908203,3.8811583518981934,-0.6675975322723389
1772729031175309300,1.104309326171875,8.882157325744629,3.902693748474121,-0.672383189201355
1772729031184827100,1.1138271484375,8.740981101989746,3.895515203475952,-0.6819544434547424
1772729031194345000,1.123344970703125,8.693124771118164,3.8907296657562256,-0.6652047038078308
1772729031203862800,1.13286279296875,8.614161491394043,3.9290146827697754,-0.7178468108177185
1772729031213380600,1.142380615234375,8.544769287109375,3.955335855484009,-0.7824530005455017
1772729031222898400,1.1518984375,8.504091262817383,3.9529430866241455,-0.7872386574745178
1772729031232416300,1.161416259765625,8.468199729919434,3.972085475921631,-0.8374879360198975
1772729031241934000,1.17093408203125,8.477770805358887,3.9696927070617676,-0.8590233325958252
1772729031251452000,1.180451904296875,8.496912956237793,3.950550079345703,-0.916451096534729
1772729031260969700,1.1899697265625,8.745766639709473,3.94097900390625,-0.9188438653945923
1772729031270487600,1.199487548828125,8.970691680908203,3.981656789779663,-0.8590233325958252
1772729031280005400,1.20900537109375,9.049654960632324,4.022335052490234,-0.7800601720809937
1772729031289523200,1.218523193359375,9.142974853515625,3.9529430866241455,-0.519242525100708
1772729031299041000,1.228041015625,9.255437850952148,3.926621913909912,-0.2919243574142456
1772729031308558800,1.237558837890625,9.353543281555176,3.8907296657562256,-0.1052841991186142
1772729031318076700,1.24707666015625,9.463613510131836,3.94097900390625,-0.07417750358581543
1772729031327594500,1.256594482421875,9.521040916442871,3.9194436073303223,-0.11485548317432404
1772729031337112300,1.2661123046875,9.55214786529541,3.845266103744507,-0.1818545162677765
1772729031346630100,1.275630126953125,9.556933403015137,3.7902309894561768,-0.3038884699344635
1772729031356148000,1.28514794921875,9.482755661010742,3.806980848312378,-0.5048855543136597
1772729031365665800,1.294665771484375,9.34875774383545,3.84765887260437,-0.6915257573127747
1772729031375183600,1.30418359375,9.214759826660156,3.900300979614258,-0.7752745151519775
1772729031384701400,1.313701416015625,9.068798065185547,3.9050865173339844,-0.8207381963729858
1772729031394219300,1.32321923828125,8.989834785461426,3.926621913909912,-0.8949156403541565
1772729031403737000,1.332737060546875,9.087940216064453,3.9744784832000732,-1.0289137363433838
1772729031413255000,1.3422548828125,9.370293617248535,4.029513359069824,-1.1676974296569824
1772729031422772700,1.351772705078125,9.736394882202148,4.039084434509277,-1.2538390159606934
1772729031432290600,1.36129052734375,9.987641334533691,3.9433717727661133,-1.1820544004440308
1772729031441808400,1.370808349609375,10.205389022827148,3.706482172012329,-1.0648061037063599
1772729031451326200,1.380326171875,9.89432144165039,3.3858439922332764,-0.8733802437782288
1772729031460844000,1.389843994140625,9.485149383544922,3.184846878051758,-1.1030912399291992
1772729031470361900,1.39936181640625,10.054640769958496,3.2303106784820557,-1.4021940231323242
1772729031479879700,1.408879638671875,10.475777626037598,3.3930225372314453,-1.550549030303955
1772729031489397200,1.418397216796875,10.652846336364746,3.4121651649475098,-1.4644074440002441
1772729031498915300,1.427915283203125,10.75813102722168,3.153740167617798,-1.0265209674835205
1772729031508433200,1.43743310546875,10.829915046691895,2.912065267562866,-0.6604190468788147
1772729031517951000,1.446950927734375,10.676774978637695,2.933600664138794,-0.5455635786056519
1772729031527468800,1.45646875,10.293923377990723,2.9479575157165527,-0.5575276613235474
1772729031536986600,1.465986572265625,9.81535816192627,2.8833513259887695,-0.4977070987224579
1772729031546504400,1.47550439453125,9.305686950683594,2.8283164501190186,-0.6604190468788147
1772729031556022300,1.485022216796875,8.941978454589844,2.9072794914245605,-1.0767701864242554
1772729031565540000,1.4945400390625,8.70508861541748,3.170490026473999,-1.6247265338897705
1772729031575058000,1.504057861328125,8.571090698242188,3.4097721576690674,-2.0673987865448
1772729031584575700,1.51357568359375,8.559126853942871,3.4815568923950195,-2.2372891902923584
1772729031594093600,1.523093505859375,8.566305160522461,3.4480574131011963,-2.091326951980591
1772729031603611400,1.532611328125,8.575876235961914,3.3332018852233887,-1.7922241687774658
1772729031613129200,1.542129150390625,8.669196128845215,3.2470602989196777,-1.5242279767990112
1772729031622647000,1.55164697265625,8.798408508300781,3.2685956954956055,-1.454836130142212
1772729031632164900,1.561164794921875,8.913264274597168,3.335594654083252,-1.495514154434204
1772729031641682700,1.5706826171875,8.975478172302246,3.38105845451355,-1.5649060010910034
1772729031651200500,1.580200439453125,9.08554744720459,3.366701364517212,-1.5672988891601562
1772729031660718300,1.58971826171875,9.176474571228027,3.383451223373413,-1.6319050788879395
1772729031670236200,1.599236083984375,9.31047248840332,3.390629768371582,-1.6701902151107788
1772729031679754000,1.60875390625,9.497113227844238,3.373879909515381,-1.6701902151107788
1772729031689271800,1.618271728515625,9.643074989318848,3.3690943717956543,-1.6175481081008911
1772729031698789600,1.62778955078125,9.717252731323242,3.314059257507324,-1.5385849475860596
1772729031708307500,1.637307373046875,9.755537986755371,3.2303106784820557,-1.4739787578582764
1772729031717825300,1.6468251953125,9.891928672790527,3.0963125228881836,-1.435693621635437
1772729031727343000,1.656343017578125,9.877572059631348,3.0269205570220947,-1.459621787071228
1772729031736861000,1.66586083984375,9.81535816192627,2.991028308868408,-1.5290136337280273
1772729031746378800,1.675378662109375,9.736394882202148,2.974278450012207,-1.557727575302124
1772729031755896600,1.684896484375,9.547362327575684,2.9862427711486816,-1.6151553392410278
1772729031765414400,1.694414306640625,9.317651748657227,3.0077781677246094,-1.6917256116867065
1772729031774932200,1.70393212890625,9.056833267211914,3.012563705444336,-1.734796404838562
1772729031784450000,1.713449951171875,8.874979019165039,3.060420274734497,-1.7491533756256104
1772729031793967900,1.7229677734375,8.769695281982422,3.1513473987579346,-1.7539390325546265
1772729031803485700,1.732485595703125,8.666803359985352,3.2757742404937744,-1.6606189012527466
1772729031813003500,1.74200341796875,8.578269004821777,3.3236305713653564,-1.5385849475860596
1772729031822521300,1.751521240234375,8.568697929382324,3.2997024059295654,-1.3926228284835815
1772729031832039200,1.7610390625,8.614161491394043,3.2853455543518066,-1.28255295753479
1772729031841557000,1.770556884765625,8.606983184814453,3.28773832321167,-1.277767300605774
1772729031851074800,1.78007470703125,8.549555778503418,3.3236305713653564,-1.2490534782409668
1772729031860592600,1.789592529296875,8.453842163085938,3.3068809509277344,-1.1653046607971191
1772729031870110500,1.7991103515625,8.422736167907715,3.352344512939453,-1.1868400573730469
1772729031879628300,1.808628173828125,8.439485549926758,3.421736478805542,-1.2681959867477417
1772729031889146000,1.81814599609375,8.417949676513672,3.517449378967285,-1.3232308626174927
1772729031898664000,1.827663818359375,8.365307807922363,3.570091485977173,-1.3040883541107178
1772729031908181800,1.837181640625,8.405985832214355,3.5916268825531006,-1.2562319040298462
1772729031917699600,1.846699462890625,8.496912956237793,3.6442689895629883,-1.196411371231079
1772729031927217400,1.856217529296875,8.513663291931152,3.6873397827148438,-1.124626636505127
1772729031936735200,1.8657353515625,8.551948547363281,3.6993038654327393,-1.0241280794143677
1772729031946253000,1.875253173828125,8.568697929382324,3.7423746585845947,-0.9643075466156006
1772729031955771000,1.88477099609375,8.535198211669922,3.7902309894561768,-0.9451649188995361
1772729031965288700,1.894288818359375,8.597412109375,3.902693748474121,-1.0049854516983032
1772729031974806500,1.903806640625,8.657232284545898,3.94097900390625,-1.0815558433532715
1772729031984324400,1.913324462890625,8.740981101989746,4.022335052490234,-1.0767701864242554
1772729031993842200,1.92284228515625,8.894122123718262,4.036691665649414,-1.0480563640594482
1772729032003360000,1.932360107421875,9.09272575378418,4.053441524505615,-0.9762716293334961
1772729032012877800,1.9418779296875,9.279366493225098,4.01754903793335,-0.8997012972831726
1772729032022395600,1.951395751953125,9.403793334960938,4.034298896789551,-0.8327022790908813
1772729032031913500,1.96091357421875,9.501898765563965,4.046263217926025,-0.7513462901115417
1772729032041431300,1.970431396484375,9.540184020996094,4.118047714233398,-0.7585247755050659
1772729032050949000,1.97994921875,9.547362327575684,4.223331928253174,-0.8183453679084778
1772729032060467000,1.989467041015625,9.585647583007812,4.252045631408691,-0.8039883971214294
1772729032069984800,1.99898486328125,9.707681655883789,4.271188259124756,-0.7154539823532104
1772729032079502600,2.008502685546875,9.789037704467773,4.29033088684082,-0.6173482537269592
1772729032089020400,2.0180205078125,9.863214492797852,4.34536600112915,-0.519242525100708
1772729032098538200,2.027538330078125,10.006784439086914,4.371686935424805,-0.4378865361213684
1772729032108056000,2.03705615234375,10.155138969421387,4.323830604553223,-0.3278166949748993
1772729032117574000,2.046573974609375,10.341779708862305,4.304687976837158,-0.32542386651039124
1772729032127091700,2.056091796875,10.518848419189453,4.264009952545166,-0.3900300860404968
1772729032136609500,2.065609619140625,10.61695384979248,4.144368648529053,-0.34695929288864136
1772729032146127400,2.07512744140625,10.638489723205566,4.098905086517334,-0.3445664644241333
1772729032155645200,2.084645263671875,10.566704750061035,4.120440483093262,-0.3924229145050049
1772729032165163000,2.0941630859375,10.327422142028809,4.206582069396973,-0.39960137009620667
1772729032174680800,2.103680908203125,9.951749801635742,4.287938117980957,-0.4091726839542389
1772729032184198700,2.11319873046875,9.619147300720215,4.393222332000732,-0.37088751792907715
1772729032193716500,2.122716552734375,9.353543281555176,4.493721008300781,-0.3684946894645691
1772729032203234300,2.132234375,9.073583602905273,4.572684288024902,-0.33499518036842346
1772729032212752100,2.141752197265625,8.81515884399414,4.709074974060059,-0.397208571434021
1772729032222270000,2.15127001953125,8.779266357421875,4.666004180908203,-0.24406790733337402
1772729032231787800,2.160787841796875,8.82951545715332,4.4721856117248535,0.009571290574967861
1772729032241305600,2.1703056640625,9.044869422912598,4.381258487701416,0.11964113265275955
1772729032250823400,2.179823486328125,9.408578872680664,4.295116424560547,0.11485548317432404
1772729032260341200,2.18934130859375,9.860821723937988,4.1036906242370605,0.11964113265275955
1772729032269859000,2.198859130859375,10.243673324584961,3.84765887260437,0.11964113265275955
1772729032279377000,2.208376953125,10.614561080932617,3.4911282062530518,0.059820566326379776
1772729032288894700,2.217894775390625,11.033305168151855,3.084348440170288,-0.07178468257188797
1772729032298412500,2.22741259765625,11.20080280303955,2.785245656967163,-0.3278166949748993
1772729032307930400,2.236930419921875,11.160124778747559,2.5770699977874756,-0.7226324677467346
1772729032317448200,2.2464482421875,10.978270530700684,2.4358935356140137,-0.9427721500396729
1772729032326966000,2.255966064453125,10.693524360656738,2.313859462738037,-1.0193424224853516
1772729032336483800,2.26548388671875,10.39920711517334,2.2205393314361572,-0.9595218896865845
1772729032346001700,2.275001708984375,10.085747718811035,2.249253273010254,-0.885344386100769
1772729032355519500,2.28451953125,9.755537986755371,2.3090739250183105,-0.7010970115661621
1772729032365037300,2.294037353515625,9.41336441040039,2.4191436767578125,-0.37806597352027893
1772729032374555100,2.30355517578125,9.07119083404541,2.5387847423553467,-0.040677983313798904
1772729032384073000,2.313072998046875,8.858229637145996,2.610569477081299,0.26560330390930176
1772729032393590800,2.3225908203125,8.757730484008789,2.6967110633850098,0.4666004180908203
1772729032403108600,2.332108642578125,8.788837432861328,2.785245656967163,0.5958128571510315
1772729032412626400,2.34162646484375,8.891729354858398,2.8211379051208496,0.605384111404419
1772729032422144300,2.351144287109375,8.994620323181152,2.8689942359924316,0.5575276613235474
1772729032431662000,2.360662109375,9.083154678344727,2.8929226398468018,0.4426721930503845
1772729032441180000,2.370179931640625,9.190832138061523,2.871387243270874,0.33020952343940735
1772729032450697700,2.37969775390625,9.190832138061523,2.8139593601226807,0.2727817893028259
1772729032460215600,2.389215576171875,9.049654960632324,2.8115665912628174,0.16510476171970367
1772729032469733400,2.3987333984375,8.86062240600586,2.8761727809906006,0.007178467698395252
1772729032479251200,2.408251220703125,8.662017822265625,2.9862427711486816,-0.22013968229293823
1772729032488769000,2.41776904296875,8.477770805358887,3.1202406883239746,-0.4259224236011505
1772729032498286800,2.427286865234375,8.228917121887207,3.2590243816375732,-0.5790630578994751
1772729032507804700,2.4368046875,7.9585280418396,3.34995174407959,-0.6484549641609192
1772729032517322200,2.446322265625,7.652246952056885,3.428914785385132,-0.605384111404419
1772729032526840300,2.45584033203125,7.460821151733398,3.5341989994049072,-0.5670989751815796
1772729032536358100,2.465358154296875,7.2813591957092285,3.672982692718506,-0.5527420043945312
1772729032545876000,2.4748759765625,7.154539585113525,3.8333017826080322,-0.4905286431312561
1772729032555393800,2.484393798828125,7.101897716522217,3.9146578311920166,-0.4043870270252228
1772729032564911600,2.49391162109375,7.226324558258057,3.9864425659179688,-0.25363919138908386
1772729032574429400,2.503429443359375,7.420143127441406,3.955335855484009,-0.10289137065410614
1772729032583947300,2.512947265625,7.714460372924805,3.957728624343872,-0.064606212079525
1772729032593465000,2.522465087890625,8.054241180419922,3.9625144004821777,-0.1339980661869049
1772729032602982700,2.531982666015625,8.34138011932373,3.9696927070617676,-0.19381862878799438
1772729032612500500,2.54150048828125,8.659625053405762,3.902693748474121,-0.23210379481315613
1772729032622018300,2.551018310546875,8.982656478881836,3.8356947898864746,-0.22013968229293823
1772729032631536400,2.560536376953125,9.200403213500977,3.82373046875,-0.1866401731967926
1772729032641054200,2.57005419921875,9.355937004089355,3.8045880794525146,-0.1459621787071228
1772729032650572000,2.579572021484375,9.501898765563965,3.799802303314209,-0.14835500717163086
1772729032660089900,2.58908984375,9.619147300720215,3.85483717918396,-0.12203395366668701
1772729032669607700,2.598607666015625,9.619147300720215,3.924229145050049,-0.10289137065410614
1772729032679125500,2.60812548828125,9.525827407836914,3.9984066486358643,-0.05742774158716202
1772729032688643000,2.61764306640625,9.370293617248535,4.053441524505615,0.07657032459974289
1772729032698161000,2.627160888671875,9.212367057800293,4.194618225097656,0.10767702013254166
1772729032707678700,2.6366787109375,9.080761909484863,4.400400638580322,0.08614161610603333
1772729032717196500,2.646196533203125,8.913264274597168,4.587040901184082,0.0933200865983963
1772729032726714600,2.655714599609375,8.7505521774292,4.6540398597717285,0.14117653667926788
1772729032736232400,2.665232421875,8.671588897705078,4.656432628631592,0.1746760457754135
1772729032745750300,2.674750244140625,8.673981666564941,4.632504463195801,0.11006984114646912
1772729032755268000,2.68426806640625,8.72901725769043,4.673182487487793,-0.019142581149935722
1772729032764786000,2.693785888671875,8.884550094604492,4.689932346343994,-0.11964113265275955
1772729032774303500,2.703303466796875,9.116654396057129,4.682754039764404,-0.16031911969184875
1772729032783821600,2.712821533203125,9.34875774383545,4.646861553192139,-0.19381862878799438
1772729032793339100,2.722339111328125,9.56889820098877,4.618147850036621,-0.24406790733337402
1772729032802857000,2.73185693359375,9.762716293334961,4.54636287689209,-0.28953152894973755
1772729032812374800,2.741374755859375,9.923035621643066,4.4721856117248535,-0.32542386651039124
1772729032821892900,2.750892822265625,10.097711563110352,4.390829563140869,-0.32542386651039124
1772729032831410700,2.76041064453125,10.238887786865234,4.350151538848877,-0.3565305769443512
1772729032840928500,2.769928466796875,10.315458297729492,4.342973232269287,-0.3924229145050049
1772729032850446300,2.7794462890625,10.313065528869629,4.393222332000732,-0.39481574296951294
1772729032859964000,2.7889638671875,10.236495018005371,4.383651256561279,-0.3613162338733673
1772729032869481700,2.798481689453125,10.109675407409668,4.409972190856934,-0.3517449200153351
1772729032878999600,2.80799951171875,9.930213928222656,4.491328239440918,-0.4546363055706024
1772729032888517400,2.817517333984375,9.717252731323242,4.6372904777526855,-0.6269195079803467
1772729032898035200,2.82703515625,9.571290969848633,4.718646049499512,-0.7585247755050659
1772729032907553000,2.836552978515625,9.442078590393066,4.780859470367432,-0.7704889178276062
1772729032917070800,2.84607080078125,9.389435768127441,4.7952165603637695,-0.763310432434082
1772729032926589000,2.8555888671875,9.446864128112793,4.742574691772461,-0.760917603969574
1772729032936106800,2.865106689453125,9.633503913879395,4.658825874328613,-0.7513462901115417
1772729032945624300,2.874624267578125,9.884750366210938,4.457828521728516,-0.6963114142417908
1772729032955142100,2.88414208984375,10.183853149414062,4.199403762817383,-0.6508477330207825
1772729032964660000,2.893659912109375,10.447063446044922,3.9290146827697754,-0.576670229434967
1772729032974177800,2.903177734375,10.703095436096191,3.6993038654327393,-0.5647061467170715
1772729032983695600,2.912695556640625,10.798809051513672,3.462414264678955,-0.6508477330207825
1772729032993213400,2.92221337890625,10.750951766967773,3.1896326541900635,-0.7178468108177185
1772729033002731300,2.931731201171875,10.559526443481445,2.9527430534362793,-0.7848458290100098
1772729033012249000,2.9412490234375,10.179067611694336,2.830709218978882,-0.9068797826766968
1772729033021767000,2.950766845703125,9.671789169311523,2.7972097396850586,-1.1222338676452637
1772729033031284700,2.96028466796875,9.166903495788574,2.902493953704834,-1.3902299404144287
1772729033040802600,2.969802490234375,8.664410591125488,3.060420274734497,-1.7012969255447388
1772729033050320400,2.9793203125,8.279166221618652,3.1992039680480957,-1.9286150932312012
1772729033059838200,2.988838134765625,7.89631462097168,3.273381471633911,-2.0195422172546387
1772729033069356000,2.99835595703125,7.523034572601318,3.314059257507324,-2.0195422172546387
1772729033078873900,3.007873779296875,7.255038261413574,3.4265220165252686,-2.03629207611084
1772729033088391700,3.0173916015625,7.168896675109863,3.538984775543213,-2.043470621109009
1772729033097909500,3.026909423828125,7.16650390625,3.651447296142578,-1.9860427379608154
1772729033107427300,3.03642724609375,7.278966426849365,3.6777684688568115,-1.801795482635498
1772729033116945200,3.045945068359375,7.5326056480407715,3.658625841140747,-1.5696916580200195
1772729033126463000,3.055462890625,7.8388872146606445,3.6323046684265137,-1.2945170402526855
1772729033135980800,3.064980712890625,8.228917121887207,3.562912940979004,-1.1389836072921753
1772729033145498600,3.07449853515625,8.642875671386719,3.4983067512512207,-0.8997012972831726
1772729033155016400,3.084016357421875,9.037691116333008,3.3690943717956543,-0.6891329288482666
1772729033164534300,3.0935341796875,9.387042999267578,3.239881753921509,-0.5431707501411438
1772729033174052000,3.103052001953125,9.789037704467773,3.1178479194641113,-0.4666004180908203
1772729033183570000,3.11256982421875,10.066604614257812,3.029313564300537,-0.5407779216766357
1772729033193087700,3.122087646484375,10.179067611694336,2.9240293502807617,-0.6508477330207825
1772729033202605600,3.13160546875,10.13599681854248,2.8522446155548096,-0.7752745151519775
1772729033212123400,3.141123291015625,9.944570541381836,2.8450660705566406,-0.9834501147270203
1772729033221641200,3.15064111328125,9.738788604736328,2.9455647468566895,-1.2059825658798218
1772729033231159000,3.160158935546875,9.45882797241211,3.105883836746216,-1.3806586265563965
1772729033240676900,3.1696767578125,9.169296264648438,3.2829527854919434,-1.4979069232940674
1772729033250194700,3.179194580078125,8.908478736877441,3.397808074951172,-1.4620146751403809
1772729033259712500,3.18871240234375,8.60459041595459,3.4504501819610596,-1.34476637840271
1772729033269230300,3.198230224609375,8.358129501342773,3.4552359580993652,-1.2299108505249023
1772729033278748200,3.207748046875,8.15234661102295,3.524627685546875,-1.2059825658798218
1772729033288266000,3.217265869140625,8.037490844726562,3.610769271850586,-1.1653046607971191
1772729033297783800,3.22678369140625,7.9585280418396,3.6777684688568115,-1.1318050622940063
1772729033307301600,3.236301513671875,7.903493404388428,3.7639100551605225,-1.062413215637207
1772729033316819500,3.2458193359375,7.932207107543945,3.840480327606201,-0.9906286001205444
1772729033326337300,3.255337158203125,7.987242221832275,3.902693748474121,-0.8542376756668091
1772729033335855000,3.264855224609375,8.039883613586426,3.9529430866241455,-0.6771687865257263
1772729033345373000,3.274373046875,8.073383331298828,4.0079779624938965,-0.5144568681716919
1772729033354890800,3.283890869140625,8.13798999786377,4.0319061279296875,-0.3924229145050049
1772729033364408600,3.29340869140625,8.274380683898926,4.113262176513672,-0.31824541091918945
1772729033373926400,3.302926513671875,8.427521705627441,4.192225456237793,-0.2991028428077698
1772729033383444200,3.3124443359375,8.585447311401367,4.2281174659729,-0.2991028428077698
1772729033392962000,3.321962158203125,8.760123252868652,4.192225456237793,-0.3278166949748993
1772729033402479900,3.33147998046875,8.927620887756348,4.175475597381592,-0.4331009089946747
1772729033411997700,3.340997802734375,9.028120040893555,4.170690059661865,-0.5264210104942322
1772729033421515500,3.350515625,9.123832702636719,4.213760852813721,-0.6101697683334351
1772729033431033300,3.360033447265625,9.18843936920166,4.302295207977295,-0.6508477330207825
1772729033440551200,3.36955126953125,9.245866775512695,4.4243292808532715,-0.7010970115661621
1772729033450069000,3.379069091796875,9.375079154968262,4.567898273468018,-0.6364908218383789
1772729033459586800,3.3885869140625,9.45164966583252,4.634897232055664,-0.5742774605751038
1772729033469104600,3.398104736328125,9.55214786529541,4.711467742919922,-0.45224347710609436
1772729033478622500,3.40762255859375,9.674181938171387,4.718646049499512,-0.2799602448940277
1772729033488140300,3.417140380859375,9.789037704467773,4.697110652923584,-0.02871387079358101
1772729033497658000,3.426658203125,9.951749801635742,4.697110652923584,0.20817556977272034
1772729033507176000,3.436176025390625,10.164710998535156,4.7234320640563965,0.4163511395454407
1772729033516693800,3.44569384765625,10.451848983764648,4.673182487487793,0.5431707501411438
1772729033526211600,3.455211669921875,10.676774978637695,4.5583271980285645,0.6699903607368469
1772729033535729400,3.4647294921875,10.839486122131348,4.376472473144531,0.7058826684951782
1772729033545247200,3.474247314453125,10.939985275268555,4.2281174659729,0.6317051649093628
1772729033554765000,3.48376513671875,10.908878326416016,4.146761417388916,0.3756731450557709
1772729033564283000,3.493282958984375,10.77248764038086,4.130012035369873,0.05503492057323456
1772729033573800700,3.50280078125,10.595418930053711,4.139583110809326,-0.24885354936122894
1772729033583318500,3.512318603515625,10.363314628601074,4.182653903961182,-0.46420758962631226
1772729033592836400,3.52183642578125,10.097711563110352,4.254438877105713,-0.5790630578994751
1772729033602354200,3.531354248046875,9.906285285949707,4.280759811401367,-0.6125625967979431
1772729033611872000,3.5408720703125,9.643074989318848,4.2281174659729,-0.5670989751815796
1772729033621389800,3.550389892578125,9.389435768127441,4.175475597381592,-0.42352959513664246
1772729033630907600,3.55990771484375,9.20997428894043,4.077369689941406,-0.20578274130821228
1772729033640425500,3.569425537109375,9.128618240356445,4.005585193634033,0.02153540402650833
1772729033649943300,3.578943359375,9.111868858337402,3.972085475921631,0.24885354936122894
1772729033659461000,3.588461181640625,9.181260108947754,3.972085475921631,0.46899324655532837
1772729033668979000,3.59797900390625,9.401400566101074,3.8428730964660645,0.6436693072319031
1772729033678496500,3.60749658203125,9.698110580444336,3.6394832134246826,0.727418065071106
1772729033688014600,3.6170146484375,10.013962745666504,3.4121651649475098,0.7130611538887024
1772729033697532400,3.626532470703125,10.308279991149902,3.1824541091918945,0.5240281820297241
1772729033707050200,3.63605029296875,10.621739387512207,2.8354947566986084,0.46420758962631226
1772729033716568000,3.645568115234375,10.782058715820312,2.581855535507202,0.40677985548973083
1772729033726086000,3.6550859375,10.789237022399902,2.4287149906158447,0.3086741268634796
1772729033735603700,3.664603759765625,10.72702407836914,2.4646072387695312,0.1866401731967926
1772729033745121500,3.67412158203125,10.554740905761719,2.581855535507202,0.0526420995593071
1772729033754639400,3.683639404296875,10.246066093444824,2.691925525665283,0.05742774158716202
1772729033764157000,3.693156982421875,9.832108497619629,2.737389087677002,0.31106695532798767
1772729033773674800,3.7026748046875,9.370293617248535,2.785245656967163,0.6245267391204834
1772729033783192600,3.712192626953125,8.891729354858398,2.895315408706665,0.9044869542121887
1772729033792710400,3.72171044921875,8.542376518249512,3.0340991020202637,1.0839486122131348
1772729033802228500,3.731228515625,8.295916557312012,3.170490026473999,1.1078768968582153
1772729033811746300,3.740746337890625,8.135597229003906,3.2757742404937744,1.1222338676452637
1772729033821264100,3.75026416015625,8.066205024719238,3.3092737197875977,1.0097711086273193
1772729033830782000,3.759781982421875,8.13081169128418,3.2997024059295654,0.8159525394439697
1772729033840299800,3.7692998046875,8.26241683959961,3.2207393646240234,0.5144568681716919
1772729033849817300,3.7788173828125,8.432307243347168,3.1489546298980713,0.22492532432079315
1772729033859335200,3.788335205078125,8.597412109375,3.115455150604248,-0.031106693670153618
1772729033868853000,3.79785302734375,8.702695846557617,3.170490026473999,-0.25363919138908386
1772729033878370800,3.807370849609375,8.738588333129883,3.2685956954956055,-0.4426721930503845
1772729033887888600,3.816888671875,8.745766639709473,3.34995174407959,-0.5024927258491516
1772729033897406500,3.826406494140625,8.733802795410156,3.414557933807373,-0.5000999569892883
1772729033906924300,3.83592431640625,8.652446746826172,3.493520975112915,-0.38285163044929504
1772729033916442400,3.8454423828125,8.561519622802734,3.531806230545044,-0.24167509377002716
1772729033925960200,3.854960205078125,8.410771369934082,3.579662561416626,-0.05742774158716202
1772729033935477800,3.864477783203125,8.219346046447754,3.6131622791290283,0.08853443711996078
1772729033944995600,3.87399560546875,8.056633949279785,3.6705899238586426,0.2225325107574463
1772729033954513400,3.883513427734375,7.910671710968018,3.7902309894561768,0.37806597352027893
1772729033964031200,3.89303125,7.75753116607666,3.8883368968963623,0.46420758962631226
1772729033973549000,3.902549072265625,7.716853141784668,4.0319061279296875,0.4426721930503845
1772729033983067000,3.91206689453125,7.733603000640869,4.132404804229736,0.397208571434021
1772729033992584700,3.921584716796875,7.908278942108154,4.113262176513672,0.3900300860404968
1772729034002102500,3.9311025390625,8.200202941894531,4.089334011077881,0.24885354936122894
1772729034011620400,3.940620361328125,8.46580696105957,4.024727821350098,0.1698904037475586
1772729034021138200,3.95013818359375,8.702695846557617,3.972085475921631,0.062213387340307236
1772729034030656000,3.959656005859375,8.85344409942627,3.933800458908081,0.08135596662759781
1772729034040173800,3.969173828125,8.937192916870117,3.9529430866241455,0.15314064919948578
1772729034049691600,3.978691650390625,9.047262191772461,4.046263217926025,0.13639089465141296
1772729034059209500,3.98820947265625,9.080761909484863,4.137190341949463,0.20817556977272034
1772729034068727300,3.997727294921875,9.035298347473145,4.225724697113037,0.28235307335853577
1772729034078245000,4.0072451171875,8.987442016601562,4.29033088684082,0.2799602448940277
1772729034087763000,4.016762939453125,8.915657043457031,4.275974273681641,0.34695929288864136
1772729034097280800,4.02628076171875,8.891729354858398,4.295116424560547,0.24646073579788208
1772729034106798600,4.035798583984375,8.803194046020508,4.328616142272949,0.08374879509210587
1772729034116316400,4.04531640625,8.693124771118164,4.42193603515625,-0.11964113265275955
1772729034125834200,4.054834228515625,8.578269004821777,4.536791801452637,-0.22971096634864807
1772729034135352000,4.06435205078125,8.451449394226074,4.620540618896484,-0.34217363595962524
1772729034144870000,4.073869873046875,8.38684368133545,4.761716842651367,-0.38285163044929504
1772729034154387700,4.0833876953125,8.38684368133545,4.847858905792236,-0.37088751792907715
1772729034163905500,4.092905517578125,8.477770805358887,4.934000492095947,-0.31345975399017334
1772729034173423400,4.10242333984375,8.733802795410156,5.027320384979248,-0.24646073579788208
1772729034182941200,4.111941162109375,9.044869422912598,5.06082010269165,-0.15553347766399384
1772729034192459000,4.121458984375,9.389435768127441,5.01296329498291,-0.007178467698395252
1772729034201976800,4.130976806640625,9.765109062194824,4.895715236663818,0.20578274130821228
1772729034211494700,4.14049462890625,10.028319358825684,4.764110088348389,0.3278166949748993
1772729034221012500,4.150012451171875,10.334601402282715,4.677968502044678,0.3158525824546814
1772729034230530300,4.1595302734375,10.628918647766113,4.668396949768066,0.18424734473228455
1772729034240048000,4.169048095703125,10.820343971252441,4.651647090911865,0.02871387079358101
1772729034249566000,4.17856591796875,10.8969144821167,4.613361835479736,-0.08853443711996078
1772729034259083800,4.188083740234375,10.861021995544434,4.6061835289001465,-0.20099709928035736
1772729034268601600,4.1976015625,10.750951766967773,4.622933387756348,-0.3038884699344635
1772729034278119400,4.207119384765625,10.585846900939941,4.692325115203857,-0.4833501875400543
1772729034287637200,4.21663720703125,10.39920711517334,4.764110088348389,-0.6269195079803467
1772729034297155000,4.226155029296875,10.248459815979004,4.8502516746521,-0.727418065071106
1772729034306673000,4.2356728515625,10.159924507141113,4.847858905792236,-0.7585247755050659
1772729034316190700,4.245190673828125,10.107282638549805,4.855037212371826,-0.7920243144035339
1772729034325708500,4.25470849609375,10.047462463378906,4.776073932647705,-0.7513462901115417
1772729034335226400,4.264226318359375,10.068997383117676,4.666004180908203,-0.6795616149902344
1772729034344744200,4.273744140625,10.126425743103027,4.508078098297119,-0.5527420043945312
1772729034354262000,4.283261962890625,10.229316711425781,4.3070807456970215,-0.4091726839542389
1772729034363779800,4.29277978515625,10.382457733154297,4.170690059661865,-0.2919243574142456
1772729034373297700,4.302297607421875,10.463813781738281,3.9840497970581055,-0.19621145725250244
1772729034382815500,4.3118154296875,10.461421012878418,3.7902309894561768,-0.11006984114646912
1772729034392333300,4.321333251953125,10.305887222290039,3.649054527282715,-0.0933200865983963
1772729034401851100,4.33085107421875,9.982855796813965,3.493520975112915,-0.19142581522464752
1772729034411369000,4.340368896484375,9.56889820098877,3.4025938510894775,-0.30149564146995544
1772729034420886800,4.34988671875,9.119047164916992,3.3954153060913086,-0.5216353535652161
1772729034430404600,4.359404541015625,8.72183895111084,3.4576287269592285,-0.6939185857772827
1772729034439922400,4.36892236328125,8.26241683959961,3.5270206928253174,-0.8542376756668091
1772729034449440300,4.378440185546875,7.82692289352417,3.6059837341308594,-0.9284151792526245
1772729034458958000,4.3879580078125,7.463213920593262,3.586841106414795,-0.9667003750801086
1772729034468476000,4.397475830078125,7.264609336853027,3.617947816848755,-1.0145567655563354
1772729034477993700,4.40699365234375,7.140182971954346,3.696911096572876,-1.1126625537872314
1772729034487511300,4.41651123046875,7.142575740814209,3.792623996734619,-1.2059825658798218
1772729034497029000,4.426029052734375,7.195217609405518,3.792623996734619,-1.2442678213119507
1772729034506547200,4.435547119140625,7.393822193145752,3.751945972442627,-1.1892328262329102
1772729034516065000,4.44506494140625,7.740781307220459,3.696911096572876,-1.1030912399291992
1772729034525582800,4.454582763671875,8.13798999786377,3.610769271850586,-0.8973084688186646
1772729034535100700,4.4641005859375,8.547162055969238,3.5054850578308105,-0.6747759580612183
1772729034544618500,4.473618408203125,8.973084449768066,3.407379388809204,-0.4378865361213684
1772729034554136300,4.48313623046875,9.308079719543457,3.2709884643554688,-0.27756741642951965
1772729034563654100,4.492654052734375,9.58325481414795,3.1680972576141357,-0.17946170270442963
1772729034573171700,4.502171630859375,9.765109062194824,3.1106693744659424,-0.1698904037475586
1772729034582689500,4.511689453125,9.803394317626953,3.0652058124542236,-0.2392822653055191
1772729034592207400,4.521207275390625,9.734002113342285,3.0891339778900146,-0.3445664644241333
1772729034601725200,4.53072509765625,9.511469841003418,3.1441688537597656,-0.49292147159576416
1772729034611243000,4.540242919921875,9.298508644104004,3.266202926635742,-0.7202396392822266
1772729034620761000,4.549760986328125,9.121439933776855,3.3954153060913086,-0.9427721500396729
1772729034630279000,4.55927880859375,8.910871505737305,3.517449378967285,-1.1318050622940063
1772729034639796700,4.568796630859375,8.652446746826172,3.6442689895629883,-1.1509476900100708
1772729034649314600,4.578314453125,8.37966537475586,3.7184464931488037,-1.0767701864242554
1772729034658832100,4.58783203125,8.13798999786377,3.8907296657562256,-0.916451096534729
1772729034668350000,4.597349853515625,7.946564197540283,4.101297855377197,-0.8063812255859375
1772729034677867800,4.60686767578125,7.822137355804443,4.295116424560547,-0.6795616149902344
1772729034687385600,4.616385498046875,7.664210796356201,4.450650215148926,-0.5216353535652161
1772729034696903400,4.6259033203125,7.5708909034729,4.560719966888428,-0.3924229145050049
1772729034706421200,4.635421142578125,7.573283672332764,4.656432628631592,-0.2991028428077698
1772729034715939000,4.64493896484375,7.582854747772217,4.721039295196533,-0.24885354936122894
1772729034725457000,4.654456787109375,7.587640762329102,4.721039295196533,-0.1866401731967926
1772729034734974700,4.663974609375,7.63310432434082,4.737788677215576,-0.15074782073497772
1772729034744492500,4.673492431640625,7.740781307220459,4.778466701507568,-0.13160525262355804
1772729034754010400,4.68301025390625,7.867600917816162,4.814359188079834,-0.20099709928035736
1772729034763528200,4.692528076171875,8.140382766723633,4.833501815795898,-0.3086741268634796
1772729034773046000,4.7020458984375,8.372486114501953,4.7952165603637695,-0.32303106784820557
1772729034782563800,4.711563720703125,8.566305160522461,4.768895626068115,-0.31345975399017334
1772729034792081700,4.72108154296875,8.678768157958984,4.706682205200195,-0.32303106784820557
1772729034801599500,4.730599609375,8.781659126281738,4.682754039764404,-0.4043870270252228
1772729034811117300,4.740117431640625,8.839086532592773,4.694717884063721,-0.5718846321105957
1772729034820635100,4.74963525390625,8.884550094604492,4.804787635803223,-0.7704889178276062
1772729034830153000,4.759153076171875,8.839086532592773,4.869394302368164,-0.8207381963729858
1772729034839670800,4.7686708984375,8.762516975402832,4.917250633239746,-0.8327022790908813
1772729034849188600,4.778188720703125,8.774480819702148,4.977071285247803,-0.7441678643226624
1772729034858706400,4.78770654296875,8.786444664001465,5.048855781555176,-0.6245267391204834
1772729034868224300,4.797224365234375,8.803194046020508,5.111069202423096,-0.4570291340351105
1772729034877742000,4.8067421875,8.908478736877441,5.108676433563232,-0.2153540402650833
1772729034887260000,4.816260009765625,9.116654396057129,5.125426292419434,-0.05742774158716202
1772729034896777700,4.82577783203125,9.403793334960938,5.154139995574951,0.031106693670153618
1772729034906295600,4.835295654296875,9.664610862731934,5.149354457855225,0.07896314561367035
1772729034915813400,4.8448134765625,9.851250648498535,5.0464630126953125,0.10289137065410614
1772729034925331200,4.854331298828125,10.047462463378906,4.895715236663818,0.06939185410737991
1772729034934849000,4.86384912109375,10.191031455993652,4.804787635803223,-0.0933200865983963
1772729034944366800,4.873366943359375,10.265209197998047,4.766502857208252,-0.33738797903060913
1772729034953884700,4.882884765625,10.246066093444824,4.776073932647705,-0.5670989751815796
1772729034963402500,4.892402587890625,10.124032974243164,4.756931304931641,-0.6652047038078308
1772729034972920300,4.90192041015625,9.903892517089844,4.790431022644043,-0.6771687865257263
1772729034982438100,4.911438232421875,9.707681655883789,4.8191447257995605,-0.6269195079803467
1772729034991956000,4.9209560546875,9.559326171875,4.847858905792236,-0.4953143000602722
1772729035001473800,4.930473876953125,9.415757179260254,4.833501815795898,-0.363709032535553
1772729035010991600,4.93999169921875,9.243474006652832,4.797609329223633,-0.2225325107574463
1772729035020509400,4.949509521484375,9.164510726928711,4.811966419219971,-0.05503492057323456
1772729035030027300,4.95902734375,9.107083320617676,4.845465660095215,0.016749758273363113
1772729035039545000,4.968545166015625,9.111868858337402,4.898108005523682,0.062213387340307236
1772729035049063000,4.97806298828125,9.238688468933105,4.7952165603637695,0.1459621787071228
1772729035058580700,4.987580810546875,9.578469276428223,4.620540618896484,0.2392822653055191
1772729035068098600,4.9970986328125,10.016355514526367,4.462614059448242,0.2512463629245758
1772729035077616400,5.006616455078125,10.451848983764648,4.177868366241455,0.22971096634864807
1772729035087134200,5.01613427734375,10.920842170715332,3.957728624343872,0.09092725813388824
1772729035096652000,5.025652099609375,11.432906150817871,3.373879909515381,0.30628129839897156
1772729035106169900,5.035169921875,11.693724632263184,3.0029923915863037,0.25363919138908386
1772729035115687700,5.044687744140625,11.645867347717285,2.682354211807251,0.09092725813388824
1772729035125205500,5.05420556640625,11.327622413635254,2.5363919734954834,-0.12921242415905
1772729035134723300,5.063723388671875,10.815558433532715,2.438286304473877,-0.2871387302875519
1772729035144241200,5.0732412109375,10.258030891418457,2.3545374870300293,-0.37806597352027893
1772729035153759000,5.082759033203125,9.753145217895508,2.4023938179016113,-0.4905286431312561
1772729035163276800,5.09227685546875,9.355937004089355,2.4981069564819336,-0.6197410821914673
1772729035172794600,5.101794677734375,8.95394229888916,2.581855535507202,-0.6460621356964111
1772729035182312400,5.1113125,8.551948547363281,2.572284460067749,-0.5240281820297241
1772729035191830300,5.120830322265625,8.128418922424316,2.5842485427856445,-0.31106695532798767
1772729035201348000,5.13034814453125,7.738388538360596,2.651247501373291,-0.13639089465141296
1772729035210866000,5.139865966796875,7.465606689453125,2.785245656967163,-0.02153540402650833
1772729035220383500,5.149383544921875,7.322037220001221,2.933600664138794,-0.009571290574967861
1772729035229901300,5.1589013671875,7.3052873611450195,3.0580272674560547,0
1772729035239419100,5.168419189453125,7.420143127441406,3.1130621433258057,0.0526420995593071
1772729035248937000,5.17793701171875,7.5326056480407715,3.0652058124542236,0.035892341285943985
1772729035258455000,5.187455078125,7.747959613800049,3.029313564300537,-0.016749758273363113
1772729035267972900,5.196972900390625,8.032705307006836,2.9551360607147217,-0.07896314561367035
1772729035277490700,5.20649072265625,8.331808090209961,2.9359934329986572,-0.16031911969184875
1772729035287008500,5.216008544921875,8.583054542541504,2.909672260284424,-0.2967100143432617
1772729035296526000,5.225526123046875,8.731410026550293,2.9383862018585205,-0.3900300860404968
1772729035306044000,5.2350439453125,8.767302513122559,3.014956474304199,-0.45942193269729614
1772729035315561700,5.244561767578125,8.83669376373291,3.1441688537597656,-0.4378865361213684
1772729035325079600,5.25407958984375,8.812766075134277,3.3164522647857666,-0.36610186100006104
1772729035334597400,5.263597412109375,8.681160926818848,3.4791641235351562,-0.2512463629245758
1772729035344115200,5.273115234375,8.518448829650879,3.617947816848755,-0.1818545162677765
1772729035353633000,5.282633056640625,8.384450912475586,3.7112679481506348,-0.1339980661869049
1772729035363150800,5.29215087890625,8.240880966186523,3.7974095344543457,-0.09092725813388824
1772729035372668700,5.301668701171875,8.104490280151367,3.8261234760284424,-0.07657032459974289
1772729035382186800,5.311186767578125,8.030312538146973,3.8285162448883057,-0.009571290574967861
1772729035391704300,5.320704345703125,7.977670669555664,3.862015724182129,0.06939185410737991
1772729035401222100,5.33022216796875,7.9585280418396,3.933800458908081,0.13639089465141296
1772729035410740000,5.339739990234375,7.999206066131592,4.060619831085205,0.26560330390930176
1772729035420257800,5.3492578125,8.11406135559082,4.1970109939575195,0.4019941985607147
1772729035429775600,5.358775634765625,8.142775535583496,4.208974838256836,0.5862415432929993
1772729035439293400,5.36829345703125,8.212167739868164,4.2209391593933105,0.6484549641609192
1772729035448811300,5.377811279296875,8.38684368133545,4.216153621673584,0.5599204897880554
1772729035458329000,5.3873291015625,8.81515884399414,4.254438877105713,0.41874396800994873
1772729035467847000,5.396846923828125,9.28893756866455,4.2281174659729,0.363709032535553
1772729035477364700,5.40636474609375,9.556933403015137,4.144368648529053,0.39481574296951294
1772729035486882600,5.415882568359375,9.841679573059082,3.9840497970581055,0.5407779216766357
1772729035496400400,5.425400390625,10.023533821105957,3.9218363761901855,0.5886343717575073
1772729035505918200,5.434918212890625,10.119247436523438,3.90987229347229,0.4713860750198364
1772729035515436000,5.44443603515625,10.088140487670898,3.9529430866241455,0.33499518036842346
1772729035524953900,5.453953857421875,9.889535903930664,3.981656789779663,0.275174617767334
1772729035534471700,5.4634716796875,9.753145217895508,4.070191383361816,0.15314064919948578
1772729035543989500,5.472989501953125,9.600004196166992,4.177868366241455,0.031106693670153618
1772729035553507300,5.48250732421875,9.432506561279297,4.383651256561279,-0.06699903309345245
1772729035563025200,5.492025146484375,9.30329418182373,4.481756687164307,-0.10289137065410614
1772729035572543000,5.50154296875,9.272188186645508,4.579862594604492,-0.03349951654672623
1772729035582060800,5.511060791015625,9.300901412963867,4.66361141204834,0.01196411345154047
1772729035591578600,5.52057861328125,9.430113792419434,4.721039295196533,0.035892341285943985
1772729035601096400,5.530096435546875,9.635896682739258,4.742574691772461,0.016749758273363113
1772729035610614300,5.5396142578125,9.8871431350708,4.668396949768066,0.02392822690308094
1772729035620132000,5.549132080078125,10.212567329406738,4.572684288024902,0.08135596662759781
1772729035629650000,5.55864990234375,10.451848983764648,4.4721856117248535,0.14117653667926788
1772729035639167700,5.568167724609375,10.691131591796875,4.400400638580322,0.20338992774486542
1772729035648685600,5.577685546875,10.918449401855469,4.292723655700684,0.24406790733337402
1772729035658203400,5.587203369140625,11.042876243591309,4.271188259124756,0.20578274130821228
1772729035667721200,5.59672119140625,11.006983757019043,4.278367042541504,0.06699903309345245
1772729035677239000,5.606239013671875,10.837093353271484,4.357329845428467,-0.09810572862625122
1772729035686756900,5.6157568359375,10.628918647766113,4.429114818572998,-0.31824541091918945
1772729035696274700,5.625274658203125,10.403992652893066,4.5583271980285645,-0.5264210104942322
1772729035705792500,5.63479248046875,10.219745635986328,4.677968502044678,-0.672383189201355
1772729035715310300,5.644310302734375,10.112068176269531,4.730610370635986,-0.6652047038078308
1772729035724828200,5.653828125,10.12881851196289,4.689932346343994,-0.5934200286865234
1772729035734346000,5.663345947265625,10.205389022827148,4.603790760040283,-0.5072783827781677
1772729035743863800,5.67286376953125,10.305887222290039,4.481756687164307,-0.39960137009620667
1772729035753381600,5.682381591796875,10.521241188049316,4.206582069396973,-0.27756741642951965
1772729035762899500,5.6918994140625,10.894521713256836,3.90987229347229,-0.09571290761232376
1772729035772417000,5.7014169921875,11.176874160766602,3.617947816848755,-0.07417750358581543
1772729035781935000,5.71093505859375,11.416156768798828,3.2303106784820557,-0.062213387340307236
1772729035791453000,5.720452880859375,11.437692642211914,2.8187451362609863,-0.02871387079358101
1772729035800970800,5.729970703125,11.148160934448242,2.4813570976257324,-0.02871387079358101
1772729035810488600,5.739488525390625,10.643275260925293,2.2779672145843506,-0.11006984114646912
1772729035820006400,5.74900634765625,9.956535339355469,2.328216314315796,-0.33020952343940735
1772729035829524200,5.758524169921875,9.219545364379883,2.517249345779419,-0.7082754969596863
1772729035839042000,5.7680419921875,8.537590980529785,2.720639228820801,-1.093519926071167
1772729035848559900,5.777559814453125,7.956135272979736,2.902493953704834,-1.3902299404144287
1772729035858077400,5.787077392578125,7.424928665161133,3.0005996227264404,-1.4787644147872925
1772729035867595300,5.79659521484375,7.085147857666016,3.0580272674560547,-1.4883357286453247
1772729035877113000,5.806113037109375,6.929614543914795,3.177668571472168,-1.5361921787261963
1772729035886631000,5.815630859375,6.92482852935791,3.2374889850616455,-1.5194423198699951
1772729035896148700,5.825148681640625,7.056434154510498,3.2446675300598145,-1.3710874319076538
1772729035905666600,5.83466650390625,7.214360237121582,3.2135608196258545,-1.153340458869934
1772729035915184600,5.8441845703125,7.479963779449463,3.1202406883239746,-0.8542376756668091
1772729035924702500,5.853702392578125,7.767102241516113,3.0388846397399902,-0.5599204897880554
1772729035934220300,5.86322021484375,8.10688304901123,2.957528829574585,-0.3038884699344635
1772729035943737900,5.87273779296875,8.47298526763916,2.885744094848633,-0.1579262912273407
1772729035953255700,5.882255615234375,8.930013656616211,2.8283164501190186,-0.07896314561367035
1772729035962773500,5.8917734375,9.267401695251465,2.7732813358306885,-0.07657032459974289
1772729035972291300,5.901291259765625,9.509077072143555,2.6967110633850098,-0.09092725813388824
1772729035981809200,5.91080908203125,9.65503978729248,2.5986053943634033,-0.10049854964017868
1772729035991327000,5.920326904296875,9.7005033493042,2.548356056213379,-0.11724831163883209
1772729036000844800,5.9298447265625,9.628718376159668,2.562713146209717,-0.2273181527853012
1772729036010362600,5.939362548828125,9.497113227844238,2.6536402702331543,-0.34217363595962524
1772729036019880400,5.94888037109375,9.353543281555176,2.737389087677002,-0.42831525206565857
1772729036029398300,5.958398193359375,9.181260108947754,2.857030153274536,-0.46899324655532837
1772729036038916000,5.967916015625,8.949156761169434,2.9790642261505127,-0.5072783827781677
1772729036048434000,5.977433837890625,8.683553695678711,3.0340991020202637,-0.48095735907554626
1772729036057951700,5.98695166015625,8.470592498779297,3.1178479194641113,-0.4905286431312561
1772729036067469600,5.996469482421875,8.274380683898926,3.2590243816375732,-0.4953143000602722
1772729036076987400,6.0059873046875,8.070990562438965,3.4097721576690674,-0.5742774605751038
1772729036086505200,6.015505126953125,7.936992645263672,3.5461630821228027,-0.5216353535652161
1772729036096023000,6.02502294921875,7.810173034667969,3.6083765029907227,-0.4259224236011505
1772729036105540900,6.034540771484375,7.769495010375977,3.7232320308685303,-0.3732803463935852
1772729036115058700,6.04405859375,7.788637638092041,3.8285162448883057,-0.34695929288864136
1772729036124576500,6.053576416015625,7.850851058959961,3.9074792861938477,-0.2153540402650833
1772729036134094300,6.06309423828125,7.960920810699463,3.950550079345703,-0.10289137065410614
1772729036143612200,6.072612060546875,8.09970474243164,3.9936211109161377,0.02632104977965355
1772729036153130000,6.0821298828125,8.276773452758789,4.084548473358154,0.1052841991186142
1772729036162647800,6.091647705078125,8.446663856506348,4.185046672821045,0.16749759018421173
1772729036172165600,6.10116552734375,8.652446746826172,4.252045631408691,0.20817556977272034
1772729036181683500,6.110683349609375,8.891729354858398,4.242474555969238,0.2799602448940277
1772729036191201300,6.120201171875,9.111868858337402,4.242474555969238,0.28235307335853577
1772729036200719000,6.129718994140625,9.324830055236816,4.208974838256836,0.2512463629245758
1772729036210237000,6.13923681640625,9.547362327575684,4.206582069396973,0.14356936514377594
1772729036219754800,6.148754638671875,9.710074424743652,4.230510234832764,0.009571290574967861
1772729036229272600,6.1582724609375,9.7938232421875,4.230510234832764,-0.02871387079358101
1772729036238790400,6.167790283203125,9.796216011047363,4.264009952545166,-0.004785645287483931
1772729036248308200,6.17730810546875,9.798608779907227,4.311866283416748,0.05503492057323456
1772729036257826000,6.186825927734375,9.774680137634277,4.395615100860596,0.1052841991186142
1772729036267344000,6.19634375,9.848857879638672,4.40757942199707,0.1818545162677765
1772729036276861700,6.20586181640625,9.91825008392334,4.393222332000732,0.28953152894973755
1772729036286379500,6.215379638671875,9.990034103393555,4.371686935424805,0.4019941985607147
1772729036295897300,6.2248974609375,10.073782920837402,4.347758769989014,0.5575276613235474
1772729036305415200,6.234415283203125,10.138389587402344,4.340580463409424,0.6795616149902344
1772729036314933000,6.24393310546875,10.191031455993652,4.390829563140869,0.763310432434082
1772729036324450800,6.253450927734375,10.334601402282715,4.462614059448242,0.8159525394439697
1772729036333968600,6.26296875,10.439885139465332,4.433900356292725,0.8662018179893494
1772729036343486500,6.272486572265625,10.463813781738281,4.338187217712402,1.0097711086273193
1772729036362522000,6.291522216796875,10.411170959472656,4.187439441680908,0.9379864931106567
1772729036372040000,6.3010400390625,10.301101684570312,4.242474555969238,0.7202396392822266
1772729036381557800,6.310557861328125,10.12881851196289,4.287938117980957,0.4833501875400543
1772729036391075600,6.32007568359375,9.942177772521973,4.292723655700684,0.34217363595962524
1772729036400593400,6.329593505859375,9.812965393066406,4.309473514556885,0.2799602448940277
1772729036410111200,6.339111328125,9.724431037902832,4.311866283416748,0.23210379481315613
1772729036419628800,6.34862890625,9.688538551330566,4.292723655700684,0.2991028428077698
1772729036429146600,6.358146728515625,9.698110580444336,4.208974838256836,0.42831525206565857
1772729036438664400,6.36766455078125,9.738788604736328,4.180261135101318,0.6005984544754028
1772729036448182300,6.377182373046875,9.877572059631348,4.07258415222168,0.6795616149902344
1772729036457700400,6.386700439453125,10.059426307678223,3.9601213932037354,0.7393822073936462
1772729036467218200,6.39621826171875,10.255638122558594,3.8500516414642334,0.7417750358581543
1772729036476736000,6.405736083984375,10.511670112609863,3.5198421478271484,0.7920243144035339
1772729036486253800,6.41525390625,10.798809051513672,3.2207393646240234,0.698704183101654
1772729036495771600,6.424771728515625,11.078768730163574,2.9718856811523438,0.5240281820297241
1772729036505289200,6.434289306640625,11.198410034179688,2.6703901290893555,0.37088751792907715
1772729036514807000,6.44380712890625,11.12901782989502,2.366501569747925,0.31106695532798767
1772729036524324900,6.453324951171875,11.009376525878906,2.0961127281188965,0.38285163044929504
1772729036533842700,6.4628427734375,10.65523910522461,2.0267207622528076,0.3445664644241333
1772729036543360500,6.472360595703125,10.186245918273926,2.0338993072509766,0.32542386651039124
1772729036552878300,6.48187841796875,9.722038269042969,2.187039852142334,0.23449662327766418
1772729036562396200,6.491396240234375,9.272188186645508,2.335394859313965,0.15074782073497772
1772729036571914000,6.5009140625,8.827122688293457,2.4981069564819336,0.1052841991186142
1772729036581431800,6.510431884765625,8.408378601074219,2.5698914527893066,0.22013968229293823
1772729036590949600,6.51994970703125,8.051848411560059,2.6321048736572266,0.37806597352027893
1772729036600467500,6.529467529296875,7.759923934936523,2.770888566970825,0.5312066078186035
1772729036609985300,6.5389853515625,7.630711555480957,2.9527430534362793,0.6197410821914673
1772729036619503000,6.548503173828125,7.6737823486328125,3.0867412090301514,0.6221339106559753
1772729036629021000,6.55802099609375,7.829315662384033,3.1992039680480957,0.605384111404419
1772729036638538800,6.567538818359375,8.023134231567383,3.1657042503356934,0.638883650302887
1772729036648056600,6.577056640625,8.334200859069824,3.0317063331604004,0.729810893535614
1772729036657574400,6.586574462890625,8.71226692199707,2.926422119140625,0.7178468108177185
1772729036667092200,6.59609228515625,9.030512809753418,2.854637384414673,0.5886343717575073
1772729036676610000,6.605610107421875,9.286544799804688,2.7637102603912354,0.37806597352027893
1772729036686127900,6.6151279296875,9.492327690124512,2.682354211807251,0.22013968229293823
1772729036695645700,6.624645751953125,9.561718940734863,2.682354211807251,0.040677983313798904
1772729036705163500,6.63416357421875,9.439684867858887,2.7182464599609375,-0.07178468257188797
1772729036714681300,6.643681396484375,9.298508644104004,2.8498518466949463,-0.16031911969184875
1772729036724199200,6.65319921875,9.166903495788574,3.067598581314087,-0.17706887423992157
1772729036733717000,6.662717041015625,8.96829891204834,3.2925238609313965,-0.009571290574967861
1772729036743234800,6.67223486328125,8.726624488830566,3.414557933807373,0.15314064919948578
1772729036752752600,6.681752685546875,8.554341316223145,3.5222349166870117,0.4019941985607147
1772729036762270500,6.6912705078125,8.317451477050781,3.610769271850586,0.5431707501411438
1772729036771788300,6.700788330078125,8.080561637878418,3.7543387413024902,0.5910272002220154
1772729036781306000,6.71030615234375,7.874779224395752,3.8763725757598877,0.5790630578994751
1772729036790824000,6.719823974609375,7.724031448364258,3.924229145050049,0.5024927258491516
1772729036800341800,6.729341796875,7.70249605178833,3.9792640209198,0.42831525206565857
1772729036809859600,6.738859619140625,7.802994728088379,4.048655986785889,0.33738797903060913
1772729036819377400,6.74837744140625,7.992027759552002,4.012763500213623,0.20338992774486542
1772729036828895200,6.757895263671875,8.233702659606934,3.9361932277679443,0.11485548317432404
1772729036838413000,6.7674130859375,8.525627136230469,3.8572301864624023,0.06699903309345245
1772729036847931000,6.776930908203125,8.839086532592773,3.845266103744507,0.0023928226437419653
1772729036857448700,6.78644873046875,9.114261627197266,3.8668015003204346,0.007178467698395252
1772729036866966500,6.795966552734375,9.33440113067627,3.8811583518981934,0.13878370821475983
1772729036876484400,6.805484375,9.418149948120117,3.895515203475952,0.36610186100006104
1772729036886002200,6.815002197265625,9.353543281555176,3.94097900390625,0.5216353535652161
1772729036895520000,6.82452001953125,9.205188751220703,4.00319242477417,0.6029912829399109
1772729036905037800,6.834037841796875,9.049654960632324,4.098905086517334,0.5407779216766357
1772729036914555600,6.8435556640625,8.827122688293457,4.278367042541504,0.31345975399017334
1772729036924073500,6.853073486328125,8.630910873413086,4.357329845428467,0.062213387340307236
1772729036933591300,6.86259130859375,8.468199729919434,4.364508628845215,-0.14117653667926788
1772729036943109000,6.872109130859375,8.312665939331055,4.342973232269287,-0.27756741642951965
1772729036952627000,6.881626953125,8.26241683959961,4.3549370765686035,-0.3613162338733673
1772729036962144800,6.891144775390625,8.288737297058105,4.431507587432861,-0.4211367964744568
1772729036971662300,6.900662353515625,8.470592498779297,4.575077056884766,-0.363709032535553
1772729036981180200,6.91018017578125,8.779266357421875,4.666004180908203,-0.26560330390930176
1772729036990698000,6.919697998046875,9.169296264648438,4.66361141204834,-0.09571290761232376
1772729037000215800,6.9292158203125,9.554540634155273,4.5822553634643555,0.07417750358581543
1772729037009733600,6.938733642578125,9.884750366210938,4.4482574462890625,0.23449662327766418
1772729037019251500,6.94825146484375,10.262816429138184,4.362115859985352,0.31345975399017334
1772729037028769300,6.957769287109375,10.65523910522461,4.302295207977295,0.2871387302875519
1772729037038287400,6.967287353515625,11.10748291015625,4.2592244148254395,0.2799602448940277
1772729037047805200,6.97680517578125,11.411371231079102,4.237689018249512,0.24646073579788208
1772729037057322800,6.98632275390625,11.49512004852295,4.237689018249512,0.2847459018230438
1772729037066840600,6.995840576171875,11.33240795135498,4.213760852813721,0.2991028428077698
1772729037076358400,7.0053583984375,10.99741268157959,4.218546390533447,0.2632105052471161
1772729037085876200,7.014876220703125,10.638489723205566,4.388436794281006,0.17946170270442963
1772729037095394000,7.02439404296875,10.344172477722168,4.680361270904541,-0.09810572862625122
1772729037104912000,7.033911865234375,10.04267692565918,4.938786029815674,-0.34217363595962524
1772729037114429700,7.0434296875,9.781859397888184,5.096712112426758,-0.4139583110809326
1772729037123947500,7.052947509765625,9.667003631591797,5.1876397132873535,-0.4977070987224579
1772729037133465300,7.06246533203125,9.559326171875,5.190032482147217,-0.5024927258491516
1772729037142983200,7.071983154296875,9.614361763000488,5.048855781555176,-0.3732803463935852
1772729037152501000,7.0815009765625,9.889535903930664,4.776073932647705,-0.1746760457754135
1772729037162018800,7.091018798828125,10.365707397460938,4.450650215148926,-0.040677983313798904
1772729037171536600,7.10053662109375,10.753344535827637,4.089334011077881,0.02153540402650833
1772729037181054500,7.110054443359375,11.040483474731445,3.5988051891326904,0.11485548317432404
1772729037190572300,7.119572265625,11.272587776184082,3.105883836746216,0.12681959569454193
1772729037200090000,7.129090087890625,11.301301002502441,2.6273193359375,0.05024927482008934
1772729037209608000,7.13860791015625,11.018948554992676,2.266003131866455,-0.059820566326379776
1772729037219125800,7.148125732421875,10.554740905761719,2.117648124694824,-0.26081767678260803
1772729037228643600,7.1576435546875,10.013962745666504,2.249253273010254,-0.6699903607368469
1772729037238161400,7.167161376953125,9.44447135925293,2.4765713214874268,-1.1461620330810547
1772729037247679200,7.17667919921875,8.851051330566406,2.6943182945251465,-1.466800332069397
1772729037257197000,7.186197021484375,8.331808090209961,2.861815929412842,-1.6295121908187866
1772729037266715000,7.19571484375,7.891529083251953,3.0077781677246094,-1.648654818534851
1772729037276232700,7.205232666015625,7.546962738037109,3.1585259437561035,-1.6103696823120117
1772729037285750500,7.21475048828125,7.29093074798584,3.273381471633911,-1.4380863904953003
1772729037295268400,7.224268310546875,7.0995049476623535,3.3643085956573486,-1.1988041400909424
1772729037304786200,7.2337861328125,7.04925537109375,3.407379388809204,-0.8901300430297852
1772729037314304000,7.243303955078125,7.0923261642456055,3.4432718753814697,-0.5838487148284912
1772729037323821800,7.25282177734375,7.259823799133301,3.4576287269592285,-0.3086741268634796
1772729037333339600,7.262339599609375,7.561319351196289,3.4025938510894775,-0.11006984114646912
1772729037342857500,7.271857421875,7.946564197540283,3.2853455543518066,0.02153540402650833
1772729037352375300,7.281375244140625,8.298309326171875,3.153740167617798,0.16031911969184875
1772729037361893000,7.29089306640625,8.760123252868652,3.050848960876465,0.2512463629245758
1772729037371411000,7.300410888671875,9.214759826660156,2.9240293502807617,0.2679961323738098
1772729037380928800,7.3099287109375,9.638289451599121,2.830709218978882,0.24167509377002716
1772729037390446600,7.319446533203125,10.023533821105957,2.7565317153930664,0.11964113265275955
1772729037399964400,7.32896435546875,10.277173042297363,2.7038896083831787,-0.04785645380616188
1772729037409482200,7.338482177734375,10.356136322021484,2.6273193359375,-0.16271193325519562
1772729037419000000,7.348,10.169496536254883,2.6009981632232666,-0.16510476171970367
1772729037428518000,7.357517822265625,9.824930191040039,2.6560330390930176,-0.18424734473228455
1772729037438035700,7.36703564453125,9.42772102355957,2.8809585571289062,-0.23449662327766418
1772729037447553300,7.37655322265625,9.020941734313965,3.187239646911621,-0.36610186100006104
1772729037457071000,7.386071044921875,8.635697364807129,3.4337005615234375,-0.40677985548973083
1772729037466589000,7.3955888671875,8.22413158416748,3.589233875274658,-0.31106695532798767
1772729037476106800,7.405106689453125,7.898707389831543,3.7160534858703613,-0.20578274130821228
1772729037485624600,7.41462451171875,7.652246952056885,3.7974095344543457,-0.13878370821475983
1772729037495142400,7.424142333984375,7.523034572601318,3.893122434616089,-0.11485548317432404
1772729037504660200,7.43366015625,7.544569969177246,3.957728624343872,-0.035892341285943985
1772729037514178000,7.443177978515625,7.597211837768555,3.9840497970581055,0.064606212079525
1772729037523696000,7.452696044921875,7.657032489776611,3.957728624343872,0.19381862878799438
1772729037533213700,7.462213623046875,7.762316703796387,4.01037073135376,0.2679961323738098
1772729037542731500,7.4717314453125,7.953742504119873,4.108476638793945,0.2919243574142456
1772729037552249300,7.481249267578125,8.157132148742676,4.161118507385254,0.2847459018230438
1772729037561767200,7.49076708984375,8.327022552490234,4.156332969665527,0.26560330390930176
1772729037571285000,7.500284912109375,8.532805442810059,4.091726779937744,0.3158525824546814
1772729037580802800,7.509802734375,8.73619556427002,4.019941806793213,0.349352091550827
1772729037590320600,7.519320556640625,8.855836868286133,3.957728624343872,0.30149564146995544
1772729037599838500,7.52883837890625,8.970691680908203,3.964907169342041,0.26560330390930176
1772729037609356300,7.538356201171875,9.07119083404541,3.9936211109161377,0.19142581522464752
1772729037618874000,7.5478740234375,9.21715259552002,4.063013076782227,0.11246266216039658
1772729037628392000,7.557391845703125,9.375079154968262,4.161118507385254,0.05742774158716202
1772729037637909800,7.56690966796875,9.387042999267578,4.213760852813721,0.11485548317432404
1772729037647427600,7.576427490234375,9.375079154968262,4.244867324829102,0.26560330390930176
1772729037656945400,7.5859453125,9.4061861038208,4.333401679992676,0.3206382393836975
1772729037666463200,7.595463134765625,9.42772102355957,4.457828521728516,0.34695929288864136
1772729037675981000,7.60498095703125,9.439684867858887,4.553541660308838,0.4043870270252228
1772729037685499000,7.614498779296875,9.468399047851562,4.5391845703125,0.5575276613235474
1772729037695016700,7.6240166015625,9.580862045288086,4.517649173736572,0.6771687865257263
1772729037704534500,7.633534423828125,9.738788604736328,4.493721008300781,0.7322037220001221
1772729037714052400,7.64305224609375,9.937392234802246,4.47697114944458,0.8087740540504456
1772729037723570200,7.652570068359375,10.145567893981934,4.426722049713135,0.8733802437782288
1772729037733088000,7.662087890625,10.277173042297363,4.340580463409424,0.8925228714942932
1772729037742605800,7.671605712890625,10.317851066589355,4.297509670257568,0.8877372145652771
1772729037752123600,7.68112353515625,10.303494453430176,4.299902439117432,0.7704889178276062
1772729037761641500,7.690641357421875,10.212567329406738,4.295116424560547,0.6173482537269592
1772729037771159300,7.7001591796875,10.090533256530762,4.326223373413086,0.5000999569892883
1772729037780677000,7.709677001953125,10.023533821105957,4.35254430770874,0.3326023519039154
1772729037790195000,7.71919482421875,9.949356079101562,4.536791801452637,0.13878370821475983
1772729037799712800,7.728712646484375,9.822537422180176,4.486542224884033,0.24167509377002716
1772729037809230600,7.738230712890625,9.791430473327637,4.34536600112915,0.4666004180908203
1772729037818748400,7.74774853515625,9.865608215332031,4.285545349121094,0.6149554252624512
1772729037828266000,7.757265869140625,10.100104331970215,4.113262176513672,0.8279166221618652
1772729037837783800,7.76678369140625,10.504491806030273,4.024727821350098,0.9427721500396729
1772729037847301600,7.776301513671875,10.928021430969238,3.8979079723358154,1.0169496536254883
1772729037856819500,7.7858193359375,11.26062297821045,3.6370904445648193,1.2083754539489746
1772729037866337500,7.795337646484375,11.6123685836792,3.3020951747894287,1.3519448041915894
1772729037875855400,7.80485546875,11.921042442321777,3.046063184738159,1.28255295753479
1772729037885373200,7.814373291015625,12.076576232910156,2.792423963546753,1.160519003868103
1772729037894891000,7.82389111328125,11.973684310913086,2.5603201389312744,1.0217353105545044
1772729037904408800,7.833408935546875,11.665010452270508,2.287538528442383,0.9499505758285522
1772729037913926400,7.842926513671875,11.21515941619873,2.084148406982422,0.851844847202301
1772729037923444200,7.8524443359375,10.636096954345703,2.091326951980591,0.727418065071106
1772729037932962000,7.861962158203125,9.958928108215332,2.225325107574463,0.5096712112426758
1772729037942480000,7.87147998046875,9.391828536987305,2.416750907897949,0.349352091550827
1772729037951997700,7.880997802734375,8.784051895141602,2.550748825073242,0.2799602448940277
1772729037961515500,7.890515625,8.161917686462402,2.6847469806671143,0.33738797903060913
1772729037971033300,7.900033447265625,7.621140003204346,2.8426733016967773,0.48574298620224
1772729037980551200,7.90955126953125,7.247859954833984,3.0077781677246094,0.6628118753433228
1772729037990069000,7.919069091796875,7.142575740814209,3.1441688537597656,0.794417142868042
1772729037999586800,7.9285869140625,7.171289443969727,3.153740167617798,0.849452018737793
1772729038009104600,7.938104736328125,7.393822193145752,3.053241729736328,0.8446664214134216
1772729038018622500,7.94762255859375,7.767102241516113,2.9359934329986572,0.7561319470405579
1772729038028140300,7.957140380859375,8.197810173034668,2.7661030292510986,0.5862415432929993
1772729038037658000,7.966658203125,8.599804878234863,2.6177480220794678,0.3086741268634796
1772729038047176000,7.976176025390625,8.93240737915039,2.531606435775757,0.014356935396790504
1772729038056693800,7.98569384765625,9.174081802368164,2.4765713214874268,-0.2153540402650833
1772729038066211600,7.995211669921875,9.34157943725586,2.510071039199829,-0.39960137009620667
1772729038075729400,8.0047294921875,9.372686386108398,2.5770699977874756,-0.46899324655532837
1772729038085247200,8.014247314453126,9.269794464111328,2.6632115840911865,-0.4498506486415863
1772729038094765000,8.02376513671875,9.07119083404541,2.809173822402954,-0.39960137009620667
1772729038104283000,8.033282958984374,8.800801277160645,3.0388846397399902,-0.33020952343940735
1772729038113800700,8.04280078125,8.556734085083008,3.2853455543518066,-0.2679961323738098
1772729038123318500,8.052318603515625,8.300702095031738,3.5365917682647705,-0.17946170270442963
1772729038132836400,8.06183642578125,8.025527000427246,3.7232320308685303,-0.0526420995593071
1772729038142354200,8.071354248046875,7.886743545532227,3.8500516414642334,0.08614161610603333
1772729038151872000,8.0808720703125,7.712067604064941,3.9601213932037354,0.28235307335853577
1772729038161389800,8.090389892578125,7.635497093200684,4.039084434509277,0.39481574296951294
1772729038170907600,8.09990771484375,7.680960655212402,4.1659040451049805,0.5072783827781677
1772729038180425500,8.109425537109376,7.817351341247559,4.273581027984619,0.5814558863639832
1772729038189943300,8.118943359375,8.023134231567383,4.340580463409424,0.6317051649093628
1772729038199461000,8.128461181640626,8.317451477050781,4.321437835693359,0.6652047038078308
1772729038208979000,8.13797900390625,8.592626571655273,4.261617183685303,0.6149554252624512
1772729038218496500,8.14749658203125,8.901300430297852,4.175475597381592,0.5790630578994751
1772729038228014600,8.1570146484375,9.147761344909668,4.139583110809326,0.5216353535652161
1772729038237532400,8.166532470703125,9.44447135925293,4.108476638793945,0.4498506486415863
1772729038247050200,8.17605029296875,9.678967475891113,4.110869407653809,0.3565305769443512
1772729038256568000,8.185568115234375,9.767501831054688,4.012763500213623,0.26081767678260803
1772729038266086000,8.1950859375,9.710074424743652,3.9122650623321533,0.24885354936122894
1772729038275603700,8.204603759765625,9.604789733886719,3.8021950721740723,0.2392822653055191
1772729038285121500,8.21412158203125,9.506684303283691,3.775874137878418,0.11485548317432404
1772729038294639400,8.223639404296875,9.430113792419434,3.81655216217041,-0.059820566326379776
1772729038304157000,8.233156982421875,9.19561767578125,3.91705060005188,-0.23210379481315613
1772729038313674800,8.2426748046875,8.925228118896484,3.996013879776001,-0.24885354936122894
1772729038323192600,8.252192626953125,8.767302513122559,4.041477680206299,-0.32303106784820557
1772729038332710400,8.26171044921875,8.72183895111084,4.118047714233398,-0.380458801984787
1772729038342228200,8.271228271484375,8.760123252868652,4.130012035369873,-0.45942193269729614
1772729038351746000,8.28074609375,8.839086532592773,4.118047714233398,-0.4307080805301666
1772729038361263900,8.290263916015626,8.989834785461426,4.1347975730896,-0.3158525824546814
1772729038370781700,8.29978173828125,9.166903495788574,4.144368648529053,-0.21296121180057526
1772729038380299500,8.309299560546876,9.363115310668945,4.213760852813721,-0.11246266216039658
1772729038389817300,8.3188173828125,9.578469276428223,4.252045631408691,-0.040677983313798904
1772729038399335200,8.328335205078124,9.89432144165039,4.266402721405029,-0.08614161610603333
1772729038408853000,8.33785302734375,10.140782356262207,4.256831645965576,-0.11246266216039658
1772729038418370800,8.347370849609375,10.3681001663208,4.211368083953857,-0.12203395366668701
1772729038427888600,8.356888671875,10.559526443481445,4.218546390533447,-0.13639089465141296
1772729038437406500,8.366406494140625,10.674382209777832,4.204189300537109,-0.13160525262355804
1772729038446924300,8.37592431640625,10.578668594360352,4.192225456237793,-0.11006984114646912
1772729038456442000,8.385442138671875,10.439885139465332,4.18983268737793,-0.12921242415905
1772729038465960000,8.3949599609375,10.205389022827148,4.342973232269287,-0.3613162338733673
1772729038475477800,8.404477783203125,9.978070259094238,4.515256404876709,-0.6197410821914673
1772729038484995600,8.41399560546875,9.784252166748047,4.603790760040283,-0.7752745151519775
1772729038494513400,8.423513427734376,9.501898765563965,4.735395908355713,-0.8422735929489136
1772729038504031200,8.43303125,9.382257461547852,4.8574299812316895,-0.882951557636261
1772729038513549000,8.442549072265624,9.379864692687988,4.957928657531738,-0.8805587291717529
1772729038523067000,8.45206689453125,9.468399047851562,4.840680122375488,-0.763310432434082
1772729038532584700,8.461584716796875,9.798608779907227,4.5391845703125,-0.6221339106559753
1772729038542102500,8.4711025390625,10.145567893981934,4.2281174659729,-0.4785645306110382
1772729038551620400,8.480620361328125,10.566704750061035,3.838087558746338,-0.33499518036842346
1772729038561138200,8.49013818359375,10.973484992980957,3.326023578643799,-0.20817556977272034
1772729038570656000,8.499656005859375,11.286944389343262,2.7804598808288574,-0.11485548317432404
1772729038580173800,8.509173828125,11.392229080200195,2.342573404312134,-0.20099709928035736
1772729038589691600,8.518691650390625,11.174481391906738,2.0482561588287354,-0.3565305769443512
1772729038599209200,8.528209228515625,10.808380126953125,1.9669002294540405,-0.7058826684951782
1772729038608727300,8.537727294921876,10.346565246582031,2.115255117416382,-1.155733346939087
1772729038618245000,8.5472451171875,9.604789733886719,2.3976082801818848,-1.581655740737915
1772729038627763000,8.556762939453124,8.72183895111084,2.4646072387695312,-1.7467604875564575
1772729038637280800,8.56628076171875,7.999206066131592,2.6057839393615723,-1.7922241687774658
1772729038646798600,8.575798583984374,7.3986077308654785,2.885744094848633,-1.97407865524292
1772729038656316400,8.58531640625,6.994220733642578,3.2350962162017822,-2.210968017578125
1772729038665834200,8.594834228515625,6.795616149902344,3.4408788681030273,-2.251646041870117
1772729038675352000,8.60435205078125,6.702296257019043,3.5150563716888428,-2.1343977451324463
1772729038684869600,8.61386962890625,6.8171515464782715,3.431307554244995,-1.9070796966552734
1772729038694387500,8.623387451171874,7.054041385650635,3.2757742404937744,-1.6773686408996582
1772729038703905300,8.6329052734375,7.427321434020996,3.160918712615967,-1.4715858697891235
1772729038713423000,8.642423095703125,7.956135272979736,3.0317063331604004,-1.337587833404541
1772729038722941000,8.65194091796875,8.60459041595459,2.9288148880004883,-1.2083754539489746
1772729038732458800,8.661458740234375,9.159725189208984,2.801995277404785,-1.0887342691421509
1772729038741976600,8.6709765625,9.719645500183105,2.6368906497955322,-0.9236295223236084
1772729038751494400,8.680494384765625,10.289137840270996,2.526820659637451,-0.8207381963729858
1772729038761012200,8.69001220703125,10.88016414642334,2.447857618331909,-0.7034898400306702
1772729038770530000,8.699530029296875,11.341979026794434,2.4023938179016113,-0.6819544434547424
1772729038780048000,8.7090478515625,11.710474014282227,2.311466693878174,-0.6317051649093628
1772729038789565700,8.718565673828126,11.743973731994629,2.1846470832824707,-0.5742774605751038
1772729038799083500,8.72808349609375,11.423335075378418,2.053041934967041,-0.5359922647476196
1772729038808601300,8.737601318359374,10.932806968688965,2.0817556381225586,-0.5335994362831116
1772729038818119200,8.747119140625,10.375279426574707,2.335394859313965,-0.7728816866874695
1772729038827637000,8.756636962890624,9.750752449035645,2.6560330390930176,-1.093519926071167
1772729038837154800,8.76615478515625,9.154939651489258,2.9168508052825928,-1.2203395366668701
1772729038846672600,8.775672607421875,8.61894702911377,3.0412776470184326,-1.2059825658798218
1772729038856190500,8.7851904296875,8.276773452758789,3.136990547180176,-1.2275179624557495
1772729038865708300,8.794708251953125,8.044670104980469,3.208775281906128,-1.2083754539489746
1772729038875226000,8.80422607421875,7.910671710968018,3.290131092071533,-1.215553879737854
1772729038884744000,8.813743896484375,7.824530124664307,3.3308091163635254,-1.153340458869934
1772729038894261800,8.82326171875,7.8317084312438965,3.3332018852233887,-1.0648061037063599
1772729038903779600,8.832779541015626,7.848458290100098,3.3092737197875977,-0.9451649188995361
1772729038913297400,8.84229736328125,7.89631462097168,3.297309637069702,-0.8446664214134216
1772729038922815200,8.851815185546876,8.023134231567383,3.345165967941284,-0.7130611538887024
1772729038932333000,8.8613330078125,8.161917686462402,3.436093330383301,-0.6197410821914673
1772729038941851000,8.870850830078124,8.372486114501953,3.5126636028289795,-0.6125625967979431
1772729038951368700,8.88036865234375,8.681160926818848,3.5341989994049072,-0.5455635786056519
1772729038960886500,8.889886474609375,8.865407943725586,3.5054850578308105,-0.4378865361213684
1772729038970404400,8.899404296875,9.016156196594238,3.4743785858154297,-0.2679961323738098
1772729038979922000,8.908921875,9.166903495788574,3.4480574131011963,-0.16510476171970367
1772729038989440000,8.91843994140625,9.133403778076172,3.5054850578308105,-0.1818545162677765
1772729038998957800,8.927957763671875,9.109476089477539,3.620340585708618,-0.28953152894973755
1772729039008475600,8.9374755859375,9.073583602905273,3.735196113586426,-0.46899324655532837
1772729039017993500,8.946993408203125,9.032905578613281,3.783052682876587,-0.6364908218383789
1772729039027511300,8.95651123046875,9.10229778289795,3.814159393310547,-0.7034898400306702
1772729039037029000,8.966029052734376,9.142974853515625,3.814159393310547,-0.6867401003837585
1772729039046547000,8.975546875,9.169296264648438,3.8356947898864746,-0.605384111404419
1772729039056064500,8.985064453125,9.133403778076172,3.869194269180298,-0.5000999569892883
1772729039065582300,8.994582275390625,9.097511291503906,3.9672999382019043,-0.38763725757598877
1772729039075100200,9.00410009765625,9.119047164916992,4.063013076782227,-0.33738797903060913
1772729039084618000,9.013617919921876,9.245866775512695,4.139583110809326,-0.3086741268634796
1772729039094135800,9.0231357421875,9.312865257263184,4.1970109939575195,-0.27038896083831787
1772729039103653600,9.032653564453126,9.394221305847168,4.201796531677246,-0.3086741268634796
1772729039113171500,9.04217138671875,9.439684867858887,4.106083869934082,-0.26081767678260803
1772729039122689300,9.051689208984374,9.525827407836914,4.063013076782227,-0.20578274130821228
1772729039132207000,9.06120703125,9.650253295898438,4.125226020812988,-0.2991028428077698
1772729039141725000,9.070724853515625,9.848857879638672,4.1347975730896,-0.36610186100006104
1772729039151242800,9.08024267578125,9.982855796813965,4.225724697113037,-0.46899324655532837
1772729039160760600,9.089760498046875,9.908679008483887,4.302295207977295,-0.6149554252624512
1772729039170278400,9.0992783203125,9.80817985534668,4.256831645965576,-0.7178468108177185
1772729039179796200,9.108796142578125,9.664610862731934,4.187439441680908,-0.6532405614852905
1772729039189314000,9.11831396484375,9.621540069580078,4.266402721405029,-0.672383189201355
1772729039198831900,9.127831787109375,9.774680137634277,4.4482574462890625,-0.8590233325958252
1772729039208349700,9.137349609375,10.147960662841797,4.565505504608154,-0.8087740540504456
