time,seconds_elapsed,z,y,x
1772729030165309700,0.094309814453125,0.18081597983837128,-0.037262752652168274,-0.13988803327083588
1772729030174827500,0.10382763671875,0.18203771114349365,-0.046425722539424896,-0.13988803327083588
1772729030184345300,0.113345458984375,0.17592905461788177,-0.06047561392188072,-0.13500112295150757
1772729030193863200,0.12286328125,0.16859868168830872,-0.07147117704153061,-0.12950333952903748
1772729030203381000,0.132381103515625,0.16310089826583862,-0.07391463965177536,-0.12034036219120026
1772729030212898800,0.14189892578125,0.16249002516269684,-0.06963858753442764,-0.10934479534626007
1772729030222416600,0.151416748046875,0.16737695038318634,-0.06841685622930527,-0.09834922850131989
1772729030231934500,0.1609345703125,0.17653992772102356,-0.059864748269319534,-0.0922405794262886
1772729030241452300,0.170452392578125,0.18814635276794434,-0.0360410213470459,-0.08918625861406326
1772729030250970000,0.17997021484375,0.20158538222312927,-0.009773836471140385,-0.08613193035125732
1772729030260488000,0.189488037109375,0.2101374864578247,0.0054977829568088055,-0.0818558782339096
1772729030270006000,0.199006103515625,0.21685700118541718,0.017715077847242355,-0.07635809481143951
1772729030279523800,0.20852392578125,0.22174391150474548,0.03298669680953026,-0.06841685622930527
1772729030289041400,0.21804150390625,0.2254091054201126,0.043982263654470444,-0.06230820715427399
1772729030298559200,0.227559326171875,0.2315177470445633,0.04459312930703163,-0.05803215503692627
1772729030308077000,0.2370771484375,0.24434591829776764,0.04153880476951599,-0.056810423731803894
1772729030317595000,0.246594970703125,0.2669478952884674,0.03787361457943916,-0.056199558079242706
1772729030327112700,0.25611279296875,0.2932150959968567,0.03176496922969818,-0.05742128938436508
1772729030336630500,0.265630615234375,0.3194822669029236,0.03848448023200035,-0.056810423731803894
1772729030346148600,0.275148681640625,0.34208428859710693,0.05925388261675835,-0.05253437161445618
1772729030355666400,0.28466650390625,0.3591884970664978,0.0769689604640007,-0.04520399495959282
1772729030365184300,0.294184326171875,0.3695732057094574,0.08307760953903198,-0.037262752652168274
1772729030374701800,0.303701904296875,0.37690356373786926,0.08979712426662445,-0.029932374134659767
1772729030384219600,0.3132197265625,0.3811796307563782,0.09529490768909454,-0.021991131827235222
1772729030393737500,0.322737548828125,0.3799578845500946,0.09712749719619751,-0.01588248461484909
1772729030403255300,0.33225537109375,0.37690356373786926,0.10690133273601532,-0.017104214057326317
1772729030412773400,0.3417734375,0.3805687427520752,0.12034036219120026,-0.0256563201546669
1772729030422291200,0.351291259765625,0.39339691400527954,0.13255766034126282,-0.036651886999607086
1772729030431809000,0.36080908203125,0.4159989058971405,0.13927717506885529,-0.04886918142437935
1772729030441326800,0.370326904296875,0.44348782300949097,0.1288924664258957,-0.05864302068948746
1772729030450844700,0.3798447265625,0.46975502371788025,0.09834922850131989,-0.06597339361906052
1772729030460362200,0.3893623046875,0.49052441120147705,0.05497783049941063,-0.06719512492418289
1772729030469880000,0.398880126953125,0.5027416944503784,0.006108647678047419,-0.0665842592716217
1772729030479398000,0.40839794921875,0.5088503360748291,-0.03787361457943916,-0.06352993845939636
1772729030488916000,0.417916015625,0.5027416944503784,-0.07147117704153061,-0.05497783049941063
1772729030498433800,0.427433837890625,0.48013970255851746,-0.07757982611656189,-0.043371398001909256
1772729030507951600,0.43695166015625,0.4428769648075104,-0.03787361457943916,-0.033597562462091446
1772729030517469400,0.446469482421875,0.39217519760131836,0.03848448023200035,-0.033597562462091446
1772729030526987300,0.4559873046875,0.34208428859710693,0.13255766034126282,-0.039706211537122726
1772729030536505000,0.465505126953125,0.30970844626426697,0.235793799161911,-0.04459312930703163
1772729030546022700,0.475022705078125,0.2981020212173462,0.33047783374786377,-0.043371398001909256
1772729030555540500,0.48454052734375,0.30482152104377747,0.3946186602115631,-0.03848448023200035
1772729030565058600,0.49405859375,0.3237583339214325,0.40317076444625854,-0.036651886999607086
1772729030574576400,0.503576416015625,0.3549124300479889,0.38728827238082886,-0.03787361457943916
1772729030584094200,0.51309423828125,0.39278605580329895,0.3787361681461334,-0.03848448023200035
1772729030593612000,0.522612060546875,0.42943793535232544,0.3897317349910736,-0.04581485688686371
1772729030603129900,0.5321298828125,0.46059203147888184,0.4318813979625702,-0.06108647957444191
1772729030612647700,0.541647705078125,0.49418962001800537,0.48441576957702637,-0.08002328872680664
1772729030622165500,0.55116552734375,0.5400044918060303,0.5381718873977661,-0.08979712426662445
1772729030631683000,0.56068310546875,0.5955931544303894,0.5913171172142029,-0.0873536616563797
1772729030641201200,0.570201171875,0.6591231226921082,0.6218603253364563,-0.06902772188186646
1772729030650719000,0.579718994140625,0.7250964641571045,0.6126973628997803,-0.04764745384454727
1772729030660236800,0.58923681640625,0.7855721116065979,0.5564978122711182,-0.021991131827235222
1772729030669754600,0.598754638671875,0.8460476994514465,0.5021308660507202,0.010384701192378998
1772729030679272400,0.6082724609375,0.9034690260887146,0.4728093445301056,0.047036588191986084
1772729030698308000,0.62730810546875,0.9676098227500916,0.4196641147136688,0.10079269111156464
1772729030707826000,0.636825927734375,0.972496747970581,0.3897317349910736,0.10445787757635117
1772729030717343700,0.64634375,0.962722897529602,0.3439168632030487,0.08857539296150208
1772729030726861600,0.655861572265625,0.9407317638397217,0.3090975880622864,0.05497783049941063
1772729030736379400,0.66537939453125,0.9010255336761475,0.27550002932548523,-0.001221729558892548
1772729030745897200,0.674897216796875,0.8466585874557495,0.22235478460788727,-0.0818558782339096
1772729030755415000,0.6844150390625,0.7831286191940308,0.17348559200763702,-0.1844811588525772
1772729030764932900,0.693932861328125,0.7244856357574463,0.13927717506885529,-0.29565855860710144
1772729030774450700,0.70345068359375,0.675616443157196,0.08674279600381851,-0.4050033390522003
1772729030783968500,0.712968505859375,0.638353705406189,0.014660755172371864,-0.49968740344047546
1772729030793486300,0.722486328125,0.6212494969367981,-0.014049889519810677,-0.5607738494873047
1772729030803004200,0.732004150390625,0.6291907429695129,0.04214967042207718,-0.5790998339653015
1772729030812522000,0.74152197265625,0.6676751971244812,0.17837251722812653,-0.5497782826423645
1772729030822039800,0.751039794921875,0.7409789562225342,0.33169957995414734,-0.47464191913604736
1772729030831557600,0.7605576171875,0.841160774230957,0.45998117327690125,-0.37140578031539917
1772729030841075500,0.770075439453125,0.953559935092926,0.5345066785812378,-0.25350889563560486
1772729030850593300,0.77959326171875,1.0519092082977295,0.5583304166793823,-0.1337793916463852
1772729030860111000,0.789111083984375,1.1227694749832153,0.5693259835243225,-0.017715077847242355
1772729030869629000,0.79862890625,1.163697361946106,0.5955931544303894,0.08307760953903198
1772729030879146800,0.808146728515625,1.1783581972122192,0.6414080262184143,0.16126830875873566
1772729030888664600,0.81766455078125,1.1710277795791626,0.6646208763122559,0.20769402384757996
1772729030898182400,0.827182373046875,1.1557561159133911,0.6359102129936218,0.22663083672523499
1772729030907700200,0.8367001953125,1.1349867582321167,0.5760455131530762,0.22235478460788727
1772729030917218000,0.846218017578125,1.1026109457015991,0.5198459029197693,0.2009745091199875
1772729030926736000,0.85573583984375,1.0677915811538696,0.472198486328125,0.16310089826583862
1772729030936253700,0.865253662109375,1.0231984853744507,0.3964512348175049,0.10873392969369888
1772729030945771500,0.874771484375,0.9779945015907288,0.33536475896835327,0.06291907280683517
1772729030955289300,0.884289306640625,0.9388991594314575,0.29077163338661194,0.024434590712189674
1772729030964807200,0.89380712890625,0.9016364216804504,0.24495677649974823,-0.023823726922273636
1772729030974325000,0.903324951171875,0.8710931539535522,0.21930044889450073,-0.08002328872680664
1772729030983842800,0.9128427734375,0.8527672290802002,0.21991132199764252,-0.13927717506885529
1772729030993360600,0.922360595703125,0.8491020202636719,0.22357651591300964,-0.19425499439239502
1772729031002878500,0.93187841796875,0.8558215498924255,0.2052505612373352,-0.2412915825843811
1772729031012396300,0.941396240234375,0.870482325553894,0.1649334877729416,-0.268169641494751
1772729031021914000,0.9509140625,0.8894191384315491,0.13439024984836578,-0.2675587832927704
1772729031031432000,0.960431884765625,0.9053016304969788,0.13255766034126282,-0.2406807243824005
1772729031040949800,0.96994970703125,0.9101884961128235,0.15149445831775665,-0.19792018830776215
1772729031050467600,0.979467529296875,0.9010255336761475,0.17653992772102356,-0.15271618962287903
1772729031059985400,0.9889853515625,0.8894191384315491,0.205861434340477,-0.10934479534626007
1772729031069503200,0.998503173828125,0.8753692507743835,0.23762640357017517,-0.07574722915887833
1772729031079021000,1.00802099609375,0.8588758707046509,0.2467893660068512,-0.05742128938436508
1772729031088539000,1.017538818359375,0.8429933786392212,0.2211330533027649,-0.05497783049941063
1772729031098056700,1.027056640625,0.8289434909820557,0.1954767256975174,-0.05925388261675835
1772729031107574500,1.036574462890625,0.8197805285453796,0.19364413619041443,-0.05558869615197182
1772729031117092400,1.04609228515625,0.8106175661087036,0.2309068888425827,-0.04276053607463837
1772729031126610200,1.055610107421875,0.7947350740432739,0.30054548382759094,-0.028099779039621353
1772729031136128000,1.0651279296875,0.7727439403533936,0.360410213470459,-0.024434590712189674
1772729031145645800,1.074645751953125,0.7574723362922668,0.379347026348114,-0.034208428114652634
1772729031155163600,1.08416357421875,0.7519745230674744,0.3805687427520752,-0.050090912729501724
1772729031164681500,1.093681396484375,0.7556397318840027,0.3811796307563782,-0.0665842592716217
1772729031174199300,1.10319921875,0.7623592615127563,0.3707949221134186,-0.0818558782339096
1772729031183717000,1.112717041015625,0.767857015132904,0.3640754222869873,-0.09529490768909454
1772729031193235000,1.12223486328125,0.7715222239494324,0.3610210716724396,-0.10567960888147354
1772729031202752800,1.131752685546875,0.7745765447616577,0.34208428859710693,-0.11239911615848541
1772729031212270600,1.1412705078125,0.7788525819778442,0.31093016266822815,-0.1233946830034256
1772729031221788400,1.150788330078125,0.7849612236022949,0.2577849328517914,-0.13988803327083588
1772729031231306200,1.16030615234375,0.794124186038971,0.20463970303535461,-0.16004657745361328
1772729031240824000,1.169823974609375,0.8100066781044006,0.16310089826583862,-0.1802051067352295
1772729031250342000,1.179341796875,0.832608699798584,0.1331685185432434,-0.19853104650974274
1772729031259859700,1.188859619140625,0.8576541543006897,0.08124501258134842,-0.21197007596492767
1772729031269377500,1.19837744140625,0.880256175994873,-0.010995565913617611,-0.2156352698802948
1772729031278895400,1.207895263671875,0.9040798544883728,-0.06719512492418289,-0.20341797173023224
1772729031288413200,1.2174130859375,0.916297197341919,-0.0616973415017128,-0.17776164412498474
1772729031297931000,1.226930908203125,0.9040798544883728,-0.039706211537122726,-0.15149445831775665
1772729031307448800,1.23644873046875,0.8680388331413269,-0.015271619893610477,-0.13255766034126282
1772729031316966700,1.245966552734375,0.822834849357605,0.050090912729501724,-0.1178968995809555
1772729031326484500,1.255484375,0.7880155444145203,0.14660754799842834,-0.10018182545900345
1772729031336002300,1.265002197265625,0.7641918659210205,0.2565632164478302,-0.07635809481143951
1772729031345520000,1.27452001953125,0.749531090259552,0.3597993552684784,-0.05558869615197182
1772729031355038000,1.284037841796875,0.750141978263855,0.4520399272441864,-0.0360410213470459
1772729031364555800,1.2935556640625,0.7666352987289429,0.5424479246139526,-0.020158538594841957
1772729031374073600,1.303073486328125,0.7910698652267456,0.6169734001159668,-0.011606430634856224
1772729031383591400,1.31259130859375,0.8100066781044006,0.6676751971244812,-0.013439024798572063
1772729031393109200,1.322109130859375,0.8191696405410767,0.6902772188186646,-0.029932374134659767
1772729031402627000,1.331626953125,0.8203914165496826,0.667064368724823,-0.06108647957444191
1772729031412145000,1.341144775390625,0.8210022449493408,0.5864301919937134,-0.09896009415388107
1772729031421662700,1.350662841796875,0.8216131329536438,0.4630354940891266,-0.13194678723812103
1772729031431180500,1.3601806640625,0.8240565657615662,0.3530798554420471,-0.15149445831775665
1772729031440698400,1.369698486328125,0.8179479241371155,0.3170388340950012,-0.15210533142089844
1772729031450216200,1.37921630859375,0.8032872080802917,0.3433060050010681,-0.13988803327083588
1772729031459734000,1.388734130859375,0.7812960743904114,0.4874700903892517,-0.13133592903614044
1772729031469251800,1.398251953125,0.7544180154800415,0.43921178579330444,-0.14477495849132538
1772729031478769700,1.407769775390625,0.7379246354103088,0.05742128938436508,-0.17165300250053406
1772729031488287200,1.417287353515625,0.7574723362922668,-0.27000224590301514,-0.17104214429855347
1772729031497805300,1.426805419921875,0.7776308655738831,-0.35674503445625305,-0.12644900381565094
1772729031507323100,1.4363232421875,0.768467903137207,-0.27366742491722107,-0.0616973415017128
1772729031516841000,1.445841064453125,0.7422007322311401,-0.11056652665138245,0.006108647678047419
1772729031526358800,1.45535888671875,0.7122683525085449,0.1233946830034256,0.06902772188186646
1772729031535876600,1.464876708984375,0.6860011219978333,0.39889469742774963,0.1081230640411377
1772729031545394400,1.47439453125,0.6609556674957275,0.6609556674957275,0.12034036219120026
1772729031554912300,1.483912353515625,0.6426297426223755,0.7996219992637634,0.10567960888147354
1772729031564430000,1.49343017578125,0.6462949514389038,0.7764091491699219,0.07330377399921417
1772729031573948000,1.502947998046875,0.6798924803733826,0.6511818766593933,0.0360410213470459
1772729031583465700,1.5124658203125,0.7318159937858582,0.48441576957702637,0.0030543238390237093
1772729031592983600,1.521983642578125,0.7831286191940308,0.3249800503253937,-0.01954767294228077
1772729031602501400,1.53150146484375,0.8112284541130066,0.21441353857517242,-0.03481929376721382
1772729031612019200,1.541019287109375,0.8081740736961365,0.16554436087608337,-0.047036588191986084
1772729031621537000,1.550537109375,0.7825177907943726,0.16126830875873566,-0.059864748269319534
1772729031631054800,1.560054931640625,0.759304940700531,0.19181154668331146,-0.07269290834665298
1772729031640572700,1.56957275390625,0.7458658814430237,0.24006985127925873,-0.08491020649671555
1772729031650090500,1.579090576171875,0.7324268817901611,0.2632827162742615,-0.10140355676412582
1772729031659608300,1.5886083984375,0.7165443897247314,0.2461785078048706,-0.12156209349632263
1772729031669126100,1.598126220703125,0.7024945020675659,0.22296564280986786,-0.14110976457595825
1772729031678644000,1.60764404296875,0.6914989352226257,0.19181154668331146,-0.15821397304534912
1772729031688161800,1.617161865234375,0.6786707639694214,0.1588248461484909,-0.17104214429855347
1772729031697679600,1.6266796875,0.6640099883079529,0.1588248461484909,-0.17592905461788177
1772729031707197400,1.636197509765625,0.6462949514389038,0.20463970303535461,-0.17226386070251465
1772729031716715300,1.64571533203125,0.6267472505569458,0.2663370370864868,-0.1594357043504715
1772729031726233000,1.655233154296875,0.6194168925285339,0.3347539007663727,-0.13439024984836578
1772729031735751000,1.6647509765625,0.6194168925285339,0.42332929372787476,-0.10201441496610641
1772729031745268700,1.674268798828125,0.6267472505569458,0.5015199780464172,-0.0665842592716217
1772729031754786600,1.68378662109375,0.6328558921813965,0.5418370366096497,-0.0360410213470459
1772729031764304400,1.693304443359375,0.6395754218101501,0.5705476999282837,-0.012217295356094837
1772729031773822200,1.702822265625,0.6524035930633545,0.583375871181488,-0.000610864779446274
1772729031783340000,1.712340087890625,0.667064368724823,0.5632173418998718,-0.004276053514331579
1772729031792857900,1.72185791015625,0.6805033683776855,0.5045742988586426,-0.024434590712189674
1772729031802375700,1.731375732421875,0.6957749724388123,0.4416552484035492,-0.05070177838206291
1772729031811893500,1.7408935546875,0.711046576499939,0.40744680166244507,-0.07574722915887833
1772729031821411300,1.750411376953125,0.7098248600959778,0.3811796307563782,-0.09712749719619751
1772729031830929200,1.75992919921875,0.6933315396308899,0.3402516841888428,-0.11484257876873016
1772729031840447000,1.769447021484375,0.6719512343406677,0.3066541254520416,-0.12767073512077332
1772729031849964800,1.77896484375,0.6554579138755798,0.3121519088745117,-0.13072505593299866
1772729031859482600,1.788482666015625,0.6389645338058472,0.34147340059280396,-0.12950333952903748
1772729031869000400,1.79800048828125,0.6175842881202698,0.3597993552684784,-0.13439024984836578
1772729031878518300,1.807518310546875,0.5974257588386536,0.3439168632030487,-0.14233149588108063
1772729031888036000,1.8170361328125,0.5907062292098999,0.31093016266822815,-0.1496618688106537
1772729031897554000,1.826553955078125,0.5937605500221252,0.27977606654167175,-0.15515965223312378
1772729031907071700,1.83607177734375,0.5888736248016357,0.235793799161911,-0.164322629570961
1772729031916589600,1.845589599609375,0.5693259835243225,0.1698204129934311,-0.17592905461788177
1772729031926107400,1.855107421875,0.5473348498344421,0.12583814561367035,-0.18203771114349365
1772729031935625200,1.864625244140625,0.5253437161445618,0.11911863088607788,-0.18387030065059662
1772729031945143000,1.87414306640625,0.4972439408302307,0.1178968995809555,-0.18631376326084137
1772729031954660900,1.883660888671875,0.4685332775115967,0.1178968995809555,-0.1893680840730667
1772729031964178700,1.8931787109375,0.44409868121147156,0.09957095980644226,-0.1948658674955368
1772729031973696500,1.902696533203125,0.4263836145401001,0.049480047076940536,-0.20463970303535461
1772729031983214300,1.91221435546875,0.41905322670936584,-0.017104214057326317,-0.21441353857517242
1772729031992732200,1.921732177734375,0.4147771894931793,-0.08613193035125732,-0.21930044889450073
1772729032002250000,1.93125,0.4105011224746704,-0.13927717506885529,-0.21197007596492767
1772729032011767800,1.940767822265625,0.40744680166244507,-0.16126830875873566,-0.1893680840730667
1772729032021285600,1.95028564453125,0.3995055556297302,-0.15088360011577606,-0.1533270627260208
1772729032030803500,1.959803466796875,0.3842339515686035,-0.13927717506885529,-0.11056652665138245
1772729032040321300,1.9693212890625,0.370184063911438,-0.143553227186203,-0.06902772188186646
1772729032049839000,1.978839111328125,0.36163195967674255,-0.15699224174022675,-0.02932151034474373
1772729032059357000,1.98835693359375,0.35674503445625305,-0.19120067358016968,0.004886918235570192
1772729032068874800,1.997874755859375,0.34697118401527405,-0.2614501118659973,0.029932374134659767
1772729032078392600,2.007392578125,0.3329212963581085,-0.3500255048274994,0.04581485688686371
1772729032087910400,2.016910400390625,0.3139844834804535,-0.4214966893196106,0.0513126403093338
1772729032097428200,2.02642822265625,0.2919933497905731,-0.49663305282592773,0.04825831577181816
1772729032106946000,2.035946044921875,0.2675587832927704,-0.5626064538955688,0.04214967042207718
1772729032116463900,2.0454638671875,0.24251331388950348,-0.5888736248016357,0.047036588191986084
1772729032125981700,2.054981689453125,0.22663083672523499,-0.583375871181488,0.07391463965177536
1772729032135499500,2.06449951171875,0.21991132199764252,-0.5412262082099915,0.12950333952903748
1772729032145017300,2.074017333984375,0.21685700118541718,-0.45387253165245056,0.20769402384757996
1772729032154535200,2.08353515625,0.21197007596492767,-0.3390299379825592,0.29626941680908203
1772729032164053000,2.093052978515625,0.20341797173023224,-0.23273947834968567,0.38179048895835876
1772729032173570800,2.10257080078125,0.18875721096992493,-0.15027274191379547,0.4428769648075104
1772729032183088600,2.112088623046875,0.16676609218120575,-0.11239911615848541,0.46914416551589966
1772729032192606500,2.1216064453125,0.1380554437637329,-0.13622283935546875,0.4563159942626953
1772729032202124300,2.131124267578125,0.10323614627122879,-0.18692462146282196,0.4105011224746704
1772729032211642000,2.14064208984375,0.06597339361906052,-0.20219624042510986,0.34086254239082336
1772729032221160000,2.150159912109375,0.036651886999607086,-0.20769402384757996,0.24923282861709595
1772729032230677800,2.159677734375,-0.014049889519810677,-0.25534147024154663,0.13744457066059113
1772729032240195600,2.169195556640625,-0.08613193035125732,-0.30054548382759094,0.020158538594841957
1772729032249713400,2.17871337890625,-0.16065743565559387,-0.328645259141922,-0.08429934084415436
1772729032259231200,2.188231201171875,-0.23457208275794983,-0.35185810923576355,-0.1692095398902893
1772729032268749000,2.1977490234375,-0.3017672002315521,-0.3585776388645172,-0.22846342623233795
1772729032278267000,2.207266845703125,-0.3555232882499695,-0.32070401310920715,-0.2528980076313019
1772729032287784700,2.21678466796875,-0.3946186602115631,-0.22846342623233795,-0.22418737411499023
1772729032297302500,2.226302490234375,-0.41355544328689575,-0.11972949653863907,-0.13988803327083588
1772729032306820400,2.2358203125,-0.39889469742774963,-0.015271619893610477,-0.027488915249705315
1772729032316338200,2.245338134765625,-0.34208428859710693,0.06475166976451874,0.10018182545900345
1772729032325856000,2.25485595703125,-0.26511532068252563,0.12217295914888382,0.22418737411499023
1772729032335373800,2.264373779296875,-0.1795942485332489,0.13439024984836578,0.3335321843624115
1772729032344891600,2.2738916015625,-0.10384701192378998,0.09590577334165573,0.41844236850738525
1772729032354409500,2.283409423828125,-0.046425722539424896,0.0256563201546669,0.4770853817462921
1772729032363927300,2.29292724609375,-0.007330377586185932,-0.0616973415017128,0.4984656572341919
1772729032373445000,2.302445068359375,0.006719512399286032,-0.13622283935546875,0.48075059056282043
1772729032382963000,2.311962890625,-0.0054977829568088055,-0.17287473380565643,0.42821621894836426
1772729032392480800,2.321480712890625,-0.03848448023200035,-0.19303326308727264,0.35124725103378296
1772729032401998600,2.33099853515625,-0.08613193035125732,-0.19364413619041443,0.25961753726005554
1772729032411516400,2.340516357421875,-0.14110976457595825,-0.1844811588525772,0.16798780858516693
1772729032421034200,2.3500341796875,-0.19181154668331146,-0.1490510106086731,0.08979712426662445
1772729032430552000,2.359552001953125,-0.2315177470445633,-0.08613193035125732,0.028099779039621353
1772729032440070000,2.36906982421875,-0.2614501118659973,-0.01649334840476513,-0.015271619893610477
1772729032449587700,2.378587646484375,-0.27000224590301514,0.07391463965177536,-0.0360410213470459
1772729032459105500,2.38810546875,-0.2620609998703003,0.1802051067352295,-0.03237583488225937
1772729032468623400,2.397623291015625,-0.24312418699264526,0.27427828311920166,-0.011606430634856224
1772729032478141200,2.40714111328125,-0.21746785938739777,0.32681265473365784,0.01954767294228077
1772729032487659000,2.416658935546875,-0.18753549456596375,0.3249800503253937,0.05864302068948746
1772729032497176800,2.4261767578125,-0.1496618688106537,0.28588470816612244,0.09590577334165573
1772729032506694700,2.435694580078125,-0.10934479534626007,0.23518294095993042,0.13072505593299866
1772729032516212500,2.44521240234375,-0.07269290834665298,0.1899789422750473,0.15210533142089844
1772729032525730300,2.454730224609375,-0.046425722539424896,0.13255766034126282,0.15515965223312378
1772729032535248100,2.464248046875,-0.026878049597144127,0.047036588191986084,0.13255766034126282
1772729032544766000,2.473765869140625,-0.014049889519810677,-0.03909534588456154,0.08857539296150208
1772729032554283800,2.48328369140625,-0.01282816007733345,-0.10995566099882126,0.021380268037319183
1772729032563801600,2.492801513671875,-0.025045456364750862,-0.15027274191379547,-0.05925388261675835
1772729032573319400,2.5023193359375,-0.04764745384454727,-0.15577052533626556,-0.14172062277793884
1772729032582837200,2.511837158203125,-0.07391463965177536,-0.14538581669330597,-0.21868959069252014
1772729032592355000,2.52135498046875,-0.0977383628487587,-0.143553227186203,-0.2828303873538971
1772729032601873000,2.530872802734375,-0.1130099818110466,-0.1490510106086731,-0.33047783374786377
1772729032611390500,2.540390380859375,-0.11362084746360779,-0.16004657745361328,-0.35735589265823364
1772729032620908300,2.549908203125,-0.10384701192378998,-0.1802051067352295,-0.3646862804889679
1772729032630426400,2.55942626953125,-0.08491020649671555,-0.19303326308727264,-0.35246896743774414
1772729032639944200,2.568944091796875,-0.06108647957444191,-0.1740964651107788,-0.3225366175174713
1772729032649462000,2.5784619140625,-0.034208428114652634,-0.14172062277793884,-0.27977606654167175
1772729032658979800,2.587979736328125,-0.002443459117785096,-0.11606431007385254,-0.22357651591300964
1772729032668497700,2.59749755859375,0.03176496922969818,-0.08857539296150208,-0.15699224174022675
1772729032678015500,2.607015380859375,0.0665842592716217,-0.05864302068948746,-0.0873536616563797
1772729032687533300,2.616533203125,0.09651663154363632,-0.02932151034474373,-0.020769402384757996
1772729032697051000,2.62605078125,0.11728604137897491,-0.010384701192378998,0.036651886999607086
1772729032706568700,2.635568603515625,0.1282816082239151,-0.0030543238390237093,0.07757982611656189
1772729032716086500,2.64508642578125,0.13011419773101807,0.0054977829568088055,0.10323614627122879
1772729032725604600,2.6546044921875,0.11728604137897491,0.021991131827235222,0.11178825795650482
1772729032735122400,2.664122314453125,0.09285144507884979,0.02932151034474373,0.10384701192378998
1772729032744640300,2.67364013671875,0.06291907280683517,0.002443459117785096,0.07941242307424545
1772729032754158000,2.683157958984375,0.037262752652168274,-0.036651886999607086,0.04886918142437935
1772729032763676000,2.692676025390625,0.025045456364750862,-0.06047561392188072,0.017104214057326317
1772729032773193700,2.70219384765625,0.021380268037319183,-0.07819069176912308,-0.01282816007733345
1772729032782711600,2.711711669921875,0.020769402384757996,-0.0922405794262886,-0.037262752652168274
1772729032792229000,2.72122900390625,0.01893680728971958,-0.08979712426662445,-0.05497783049941063
1772729032801747000,2.730746826171875,0.020769402384757996,-0.06414080411195755,-0.06352993845939636
1772729032811264800,2.7402646484375,0.029932374134659767,-0.01954767294228077,-0.0616973415017128
1772729032820782800,2.749782958984375,0.046425722539424896,0.01649334840476513,-0.049480047076940536
1772729032830300700,2.75930078125,0.06963858753442764,0.03787361457943916,-0.023823726922273636
1772729032839818500,2.768818603515625,0.09896009415388107,0.05864302068948746,0.017104214057326317
1772729032849336300,2.77833642578125,0.12705987691879272,0.10445787757635117,0.06963858753442764
1772729032858854100,2.787854248046875,0.1496618688106537,0.17104214429855347,0.12644900381565094
1772729032868371700,2.797371826171875,0.16554436087608337,0.22479823231697083,0.17898337543010712
1772729032877889500,2.8068896484375,0.17653992772102356,0.2565632164478302,0.21930044889450073
1772729032887407400,2.816407470703125,0.1844811588525772,0.25961753726005554,0.23945899307727814
1772729032896925200,2.82592529296875,0.19608759880065918,0.23212862014770508,0.2370155304670334
1772729032906443000,2.835443115234375,0.20769402384757996,0.17776164412498474,0.20891575515270233
1772729032915960800,2.8449609375,0.2162461280822754,0.11423171311616898,0.15699224174022675
1772729032925479000,2.85447900390625,0.21685700118541718,0.047036588191986084,0.08918625861406326
1772729032934996700,2.863996826171875,0.21258094906806946,-0.026878049597144127,0.017715077847242355
1772729032944514600,2.8735146484375,0.20280711352825165,-0.0873536616563797,-0.046425722539424896
1772729032954032000,2.8830322265625,0.1893680840730667,-0.1331685185432434,-0.09285144507884979
1772729032963550000,2.892550048828125,0.17287473380565643,-0.16004657745361328,-0.11911863088607788
1772729032973067800,2.90206787109375,0.16187916696071625,-0.15515965223312378,-0.12583814561367035
1772729032982585600,2.911585693359375,0.164322629570961,-0.10934479534626007,-0.10323614627122879
1772729032992103400,2.921103515625,0.1844811588525772,0,-0.05070177838206291
1772729033001621200,2.930621337890625,0.21380266547203064,0.15271618962287903,0.02871064469218254
1772729033011139000,2.94013916015625,0.24740023910999298,0.33047783374786377,0.12278381735086441
1772729033020657000,2.949656982421875,0.2816086709499359,0.500298261642456,0.21441353857517242
1772729033030175000,2.959175048828125,0.32131487131118774,0.6230821013450623,0.2889390289783478
1772729033039692500,2.968692626953125,0.37323838472366333,0.6823359727859497,0.3451386094093323
1772729033049210400,2.97821044921875,0.42943793535232544,0.6780598759651184,0.38240134716033936
1772729033058728200,2.987728271484375,0.4838049113750458,0.6071996092796326,0.3946186602115631
1772729033068246000,2.99724609375,0.5253437161445618,0.4984656572341919,0.37751442193984985
1772729033077763800,3.006763916015625,0.5485565662384033,0.37812530994415283,0.3280344009399414
1772729033087281700,3.01628173828125,0.5595521330833435,0.24312418699264526,0.25473061203956604
1772729033096799500,3.025799560546875,0.5674933791160583,0.09834922850131989,0.164322629570961
1772729033106317300,3.0353173828125,0.5705476999282837,-0.03481929376721382,0.06841685622930527
1772729033115835100,3.044835205078125,0.564439058303833,-0.15088360011577606,-0.02932151034474373
1772729033125353000,3.05435302734375,0.545502245426178,-0.25961753726005554,-0.12583814561367035
1772729033134870800,3.063870849609375,0.5125155448913574,-0.3445277214050293,-0.21380266547203064
1772729033144388600,3.073388671875,0.4728093445301056,-0.3897317349910736,-0.2883281707763672
1772729033153906400,3.082906494140625,0.42821621894836426,-0.3915643095970154,-0.34574946761131287
1772729033163424300,3.09242431640625,0.3805687427520752,-0.3390299379825592,-0.3854556679725647
1772729033172942000,3.101942138671875,0.3329212963581085,-0.22907429933547974,-0.4068359434604645
1772729033182460000,3.1114599609375,0.29138249158859253,-0.0720820426940918,-0.4050033390522003
1772729033191977700,3.120977783203125,0.2663370370864868,0.1331685185432434,-0.3744601011276245
1772729033201495600,3.13049560546875,0.2626718580722809,0.3549124300479889,-0.3170388340950012
1772729033211013400,3.140013427734375,0.277332603931427,0.5424479246139526,-0.24556763470172882
1772729033220531200,3.14953125,0.30482152104377747,0.6524035930633545,-0.1747073233127594
1772729033230049000,3.159049072265625,0.34147340059280396,0.676227331161499,-0.11178825795650482
1772729033239566800,3.16856689453125,0.38667741417884827,0.6462949514389038,-0.05925388261675835
1772729033249084700,3.178084716796875,0.4318813979625702,0.593149721622467,-0.014660755172371864
1772729033258602500,3.1876025390625,0.46608981490135193,0.5332849621772766,0.017104214057326317
1772729033268120300,3.197120361328125,0.4831940531730652,0.47586366534233093,0.033597562462091446
1772729033277638100,3.20663818359375,0.4868592321872711,0.4221075773239136,0.03176496922969818
1772729033287156000,3.216156005859375,0.4874700903892517,0.37201663851737976,0.015271619893610477
1772729033296673800,3.225673828125,0.4880809485912323,0.3182605504989624,-0.01282816007733345
1772729033306191600,3.235191650390625,0.49113526940345764,0.26389357447624207,-0.05070177838206291
1772729033315709400,3.24470947265625,0.49480047821998596,0.2156352698802948,-0.09529490768909454
1772729033325227300,3.254227294921875,0.49541133642196655,0.17898337543010712,-0.1380554437637329
1772729033334745000,3.2637451171875,0.4917461574077606,0.17104214429855347,-0.17043127119541168
1772729033344263000,3.273262939453125,0.47525280714035034,0.18264856934547424,-0.19120067358016968
1772729033353780700,3.28278076171875,0.44470956921577454,0.18753549456596375,-0.205861434340477
1772729033363298600,3.292298583984375,0.40317076444625854,0.16859868168830872,-0.21746785938739777
1772729033372816400,3.30181640625,0.360410213470459,0.1282816082239151,-0.22418737411499023
1772729033382334200,3.311334228515625,0.3249800503253937,0.08429934084415436,-0.22235478460788727
1772729033391852000,3.32085205078125,0.2987128794193268,0.053145237267017365,-0.2107483446598053
1772729033401369900,3.330369873046875,0.27916520833969116,0.030543239787220955,-0.19120067358016968
1772729033410887700,3.3398876953125,0.2718348205089569,0.023212861269712448,-0.16310089826583862
1772729033420405500,3.349405517578125,0.2767217457294464,0.03298669680953026,-0.12705987691879272
1772729033429923300,3.35892333984375,0.29077163338661194,0.02871064469218254,-0.08613193035125732
1772729033439441200,3.368441162109375,0.3078758418560028,-0.0054977829568088055,-0.04520399495959282
1772729033448959000,3.377958984375,0.3176496922969818,-0.07086031138896942,-0.008552107028663158
1772729033458476800,3.387476806640625,0.32070401310920715,-0.15271618962287903,0.02260199747979641
1772729033467994600,3.39699462890625,0.31642794609069824,-0.235793799161911,0.053756099194288254
1772729033477512400,3.406512451171875,0.3035998046398163,-0.3127627670764923,0.07819069176912308
1772729033487030300,3.4160302734375,0.2779434621334076,-0.4050033390522003,0.09040798991918564
1772729033496548000,3.425548095703125,0.235793799161911,-0.4978547990322113,0.0873536616563797
1772729033506066000,3.43506591796875,0.18264856934547424,-0.564439058303833,0.06719512492418289
1772729033515583700,3.444583740234375,0.12461641430854797,-0.5790998339653015,0.037262752652168274
1772729033525101600,3.4541015625,0.06597339361906052,-0.5210676789283752,0.0054977829568088055
1772729033534619400,3.463619384765625,0.010384701192378998,-0.3897317349910736,-0.015271619893610477
1772729033544137200,3.47313720703125,-0.037262752652168274,-0.2052505612373352,-0.020769402384757996
1772729033553655000,3.482655029296875,-0.07086031138896942,-0.007941242307424545,-0.000610864779446274
1772729033563172900,3.4921728515625,-0.07941242307424545,0.164322629570961,0.04276053607463837
1772729033572690700,3.501690673828125,-0.07269290834665298,0.2571740746498108,0.10445787757635117
1772729033582208500,3.51120849609375,-0.05864302068948746,0.2528980076313019,0.17104214429855347
1772729033591726300,3.520726318359375,-0.046425722539424896,0.16859868168830872,0.2315177470445633
1772729033601244200,3.530244140625,-0.040317077189683914,0.03848448023200035,0.2809978127479553
1772729033610762000,3.539761962890625,-0.039706211537122726,-0.07819069176912308,0.3176496922969818
1772729033620279800,3.54927978515625,-0.04581485688686371,-0.1545487940311432,0.33658650517463684
1772729033629797600,3.558797607421875,-0.06475166976451874,-0.22357651591300964,0.3280344009399414
1772729033639315500,3.5683154296875,-0.09651663154363632,-0.3139844834804535,0.2822195291519165
1772729033648833300,3.577833251953125,-0.14110976457595825,-0.4214966893196106,0.19853104650974274
1772729033658351000,3.58735107421875,-0.2003636509180069,-0.5161807537078857,0.08368847519159317
1772729033667869000,3.596868896484375,-0.2730565667152405,-0.5778780579566956,-0.053145237267017365
1772729033677386800,3.60638671875,-0.35185810923576355,-0.5876519083976746,-0.18875721096992493
1772729033686904600,3.615904541015625,-0.4166097939014435,-0.516791582107544,-0.3023780584335327
1772729033696422400,3.62542236328125,-0.46059203147888184,-0.35735589265823364,-0.37812530994415283
1772729033705940200,3.634940185546875,-0.4679224193096161,-0.14660754799842834,-0.39339691400527954
1772729033715458000,3.6444580078125,-0.43982264399528503,0.06963858753442764,-0.3384190797805786
1772729033724975900,3.653975830078125,-0.389120876789093,0.2467893660068512,-0.22663083672523499
1772729033734493700,3.66349365234375,-0.33231043815612793,0.3298669755458832,-0.07880155742168427
1772729033744011500,3.673011474609375,-0.28527384996414185,0.30604326725006104,0.0818558782339096
1772729033753529300,3.682529296875,-0.24862197041511536,0.2003636509180069,0.23884813487529755
1772729033763047200,3.692047119140625,-0.2254091054201126,0.056199558079242706,0.37323838472366333
1772729033772564700,3.701564697265625,-0.22357651591300964,-0.08674279600381851,0.4667007029056549
1772729033782082600,3.71108251953125,-0.24312418699264526,-0.18142683804035187,0.5039634704589844
1772729033791600400,3.720600341796875,-0.2816086709499359,-0.20647229254245758,0.481361448764801
1772729033801118500,3.730118408203125,-0.3335321843624115,-0.20402882993221283,0.4043924808502197
1772729033810636300,3.73963623046875,-0.39339691400527954,-0.18142683804035187,0.2883281707763672
1772729033820154000,3.749154052734375,-0.4520399272441864,-0.13561198115348816,0.1484401375055313
1772729033829672000,3.758671875,-0.49968740344047546,-0.07330377399921417,0.006719512399286032
1772729033839189800,3.768189697265625,-0.5271763205528259,0.001832594396546483,-0.1130099818110466
1772729033848707600,3.77770751953125,-0.5296197533607483,0.07147117704153061,-0.1948658674955368
1772729033858225200,3.78722509765625,-0.5106829404830933,0.11545344442129135,-0.2364046722650528
1772729033867743000,3.796742919921875,-0.4740310609340668,0.1282816082239151,-0.24006985127925873
1772729033877260800,3.8062607421875,-0.4251618981361389,0.11728604137897491,-0.21258094906806946
1772729033886778600,3.815778564453125,-0.3695732057094574,0.08918625861406326,-0.1594357043504715
1772729033896296400,3.82529638671875,-0.3170388340950012,0.02871064469218254,-0.09101885557174683
1772729033905814300,3.834814208984375,-0.27366742491722107,-0.053756099194288254,-0.01649334840476513
1772729033915332400,3.844332275390625,-0.24251331388950348,-0.13011419773101807,0.056199558079242706
1772729033924850200,3.85385009765625,-0.22418737411499023,-0.19120067358016968,0.11484257876873016
1772729033934368000,3.863367919921875,-0.21258094906806946,-0.22846342623233795,0.15088360011577606
1772729033943885600,3.872885498046875,-0.2101374864578247,-0.24434591829776764,0.16126830875873566
1772729033953403400,3.8824033203125,-0.21868959069252014,-0.258395791053772,0.14110976457595825
1772729033962921200,3.891921142578125,-0.24006985127925873,-0.27916520833969116,0.08918625861406326
1772729033972439000,3.90143896484375,-0.2712239623069763,-0.30115634202957153,0.009773836471140385
1772729033981956900,3.910956787109375,-0.3023780584335327,-0.3133736252784729,-0.08613193035125732
1772729033991474700,3.920474609375,-0.32131487131118774,-0.30970844626426697,-0.18264856934547424
1772729034000992500,3.929992431640625,-0.3249800503253937,-0.30482152104377747,-0.2620609998703003
1772729034010510300,3.93951025390625,-0.30970844626426697,-0.29993459582328796,-0.3133736252784729
1772729034020028200,3.949028076171875,-0.2767217457294464,-0.2779434621334076,-0.3280344009399414
1772729034029546000,3.9585458984375,-0.23762640357017517,-0.2559523284435272,-0.3121519088745117
1772729034039063800,3.968063720703125,-0.1997527778148651,-0.23884813487529755,-0.27855435013771057
1772729034048581600,3.97758154296875,-0.16798780858516693,-0.24434591829776764,-0.23396120965480804
1772729034058099500,3.987099365234375,-0.13988803327083588,-0.25534147024154663,-0.18264856934547424
1772729034067617300,3.9966171875,-0.12278381735086441,-0.235793799161911,-0.12767073512077332
1772729034077135000,4.006135009765625,-0.11545344442129135,-0.18142683804035187,-0.07269290834665298
1772729034086653000,4.01565283203125,-0.1185077652335167,-0.11239911615848541,-0.023823726922273636
1772729034096170800,4.025170654296875,-0.12644900381565094,-0.043371398001909256,0.02260199747979641
1772729034105688600,4.0346884765625,-0.1282816082239151,0.01282816007733345,0.06780599057674408
1772729034115206400,4.044206298828125,-0.11972949653863907,0.0616973415017128,0.10873392969369888
1772729034124724200,4.05372412109375,-0.10445787757635117,0.09590577334165573,0.14172062277793884
1772729034134242000,4.063241943359375,-0.08613193035125732,0.09896009415388107,0.15638138353824615
1772729034143760000,4.072759765625,-0.06902772188186646,0.06841685622930527,0.15271618962287903
1772729034153277700,4.082277587890625,-0.05742128938436508,0.017104214057326317,0.12644900381565094
1772729034162795500,4.09179541015625,-0.04459312930703163,-0.05803215503692627,0.08124501258134842
1772729034172313300,4.101313232421875,-0.031154103577136993,-0.14172062277793884,0.028099779039621353
1772729034181831200,4.1108310546875,-0.023823726922273636,-0.21807873249053955,-0.025045456364750862
1772729034191349000,4.120348876953125,-0.023823726922273636,-0.2620609998703003,-0.0665842592716217
1772729034200866800,4.12986669921875,-0.03481929376721382,-0.2669478952884674,-0.09285144507884979
1772729034210384600,4.139384521484375,-0.056810423731803894,-0.23335035145282745,-0.10323614627122879
1772729034219902500,4.14890234375,-0.07513637095689774,-0.15577052533626556,-0.0977383628487587
1772729034229420300,4.158420166015625,-0.08124501258134842,-0.06352993845939636,-0.0769689604640007
1772729034238938000,4.167938232421875,-0.07452550530433655,0.03481929376721382,-0.03848448023200035
1772729034248456000,4.1774560546875,-0.053756099194288254,0.1484401375055313,0.018325943499803543
1772729034257973800,4.186973876953125,-0.0256563201546669,0.2620609998703003,0.08796452730894089
1772729034267491600,4.19649169921875,0,0.34086254239082336,0.16126830875873566
1772729034277009400,4.206009521484375,0.01893680728971958,0.36835145950317383,0.2315177470445633
1772729034286527200,4.21552734375,0.037262752652168274,0.3500255048274994,0.2889390289783478
1772729034296045000,4.225045166015625,0.05497783049941063,0.3084867000579834,0.3298669755458832
1772729034305563000,4.23456298828125,0.06902772188186646,0.2406807243824005,0.34574946761131287
1772729034315080700,4.244080810546875,0.08063415437936783,0.14599667489528656,0.3384190797805786
1772729034324598500,4.2535986328125,0.09101885557174683,0.04764745384454727,0.31093016266822815
1772729034334116400,4.263116455078125,0.10690133273601532,-0.028099779039621353,0.27000224590301514
1772729034343634200,4.27263427734375,0.12583814561367035,-0.06291907280683517,0.2260199636220932
1772729034353152000,4.282152099609375,0.14477495849132538,-0.043982263654470444,0.1893680840730667
1772729034362669800,4.291669921875,0.16126830875873566,0.004276053514331579,0.1698204129934311
1772729034372187600,4.301187744140625,0.1740964651107788,0.0824667438864708,0.17837251722812653
1772729034381705500,4.31070556640625,0.18387030065059662,0.18325942754745483,0.21930044889450073
1772729034391223300,4.320223388671875,0.185092031955719,0.28466299176216125,0.2889390289783478
1772729034400741000,4.3297412109375,0.18081597983837128,0.3915643095970154,0.3756818473339081
1772729034410259000,4.339259033203125,0.17653992772102356,0.4990765154361725,0.4673115611076355
1772729034419776800,4.34877685546875,0.17348559200763702,0.5717694163322449,0.5412262082099915
1772729034429294600,4.358294677734375,0.17531819641590118,0.5986474752426147,0.5888736248016357
1772729034438812400,4.3678125,0.1844811588525772,0.593149721622467,0.6047561168670654
1772729034448330200,4.377330322265625,0.19425499439239502,0.574212908744812,0.5907062292098999
1772729034457848000,4.38684814453125,0.19730933010578156,0.5381718873977661,0.5412262082099915
1772729034467366000,4.396365966796875,0.19242240488529205,0.4667007029056549,0.45875945687294006
1772729034476883700,4.4058837890625,0.18387030065059662,0.35796675086021423,0.3500255048274994
1772729034486401500,4.415401611328125,0.17898337543010712,0.23212862014770508,0.22174391150474548
1772729034495919400,4.42491943359375,0.17837251722812653,0.10140355676412582,0.08307760953903198
1772729034505437200,4.434437255859375,0.1795942485332489,-0.027488915249705315,-0.06047561392188072
1772729034514955000,4.443955078125,0.18325942754745483,-0.14538581669330597,-0.19853104650974274
1772729034524472800,4.453472900390625,0.19181154668331146,-0.2461785078048706,-0.318871408700943
1772729034533990700,4.46299072265625,0.19730933010578156,-0.3090975880622864,-0.41355544328689575
1772729034543508500,4.472508544921875,0.1948658674955368,-0.32009315490722656,-0.4770853817462921
1772729034553026300,4.4820263671875,0.18570289015769958,-0.2669478952884674,-0.5051851868629456
1772729034562544000,4.491544189453125,0.1740964651107788,-0.14660754799842834,-0.5009090900421143
1772729034572062000,4.50106201171875,0.16187916696071625,0.012217295356094837,-0.46364638209342957
1772729034581579800,4.510579833984375,0.15210533142089844,0.19120067358016968,-0.4001164436340332
1772729034591097300,4.520097412109375,0.15210533142089844,0.3640754222869873,-0.3182605504989624
1772729034600615200,4.529615234375,0.16065743565559387,0.5021308660507202,-0.23273947834968567
1772729034610133000,4.539133056640625,0.18081597983837128,0.593149721622467,-0.15210533142089844
1772729034619651000,4.548651123046875,0.2162461280822754,0.6261364221572876,-0.07819069176912308
1772729034629169000,4.5581689453125,0.2669478952884674,0.6065887212753296,-0.007941242307424545
1772729034638686700,4.567686767578125,0.318871408700943,0.5589412450790405,0.05253437161445618
1772729034648204500,4.57720458984375,0.36285367608070374,0.4984656572341919,0.09896009415388107
1772729034657722400,4.586722412109375,0.3897317349910736,0.4318813979625702,0.1282816082239151
1772729034667240200,4.596240234375,0.3995055556297302,0.3640754222869873,0.14110976457595825
1772729034676757800,4.6057578125,0.3946186602115631,0.2816086709499359,0.13744457066059113
1772729034686275600,4.615275634765625,0.37140578031539917,0.1954767256975174,0.1178968995809555
1772729034695793400,4.62479345703125,0.33658650517463684,0.12156209349632263,0.08429934084415436
1772729034705311200,4.634311279296875,0.2932150959968567,0.053145237267017365,0.0360410213470459
1772729034714829000,4.6438291015625,0.2510654330253601,0.009773836471140385,-0.020158538594841957
1772729034724347000,4.653346923828125,0.21258094906806946,0.01588248461484909,-0.07513637095689774
1772729034733864700,4.66286474609375,0.1747073233127594,0.047036588191986084,-0.13133592903614044
1772729034743382500,4.672382568359375,0.13561198115348816,0.06047561392188072,-0.18753549456596375
1772729034752900600,4.681900634765625,0.10018182545900345,0.059864748269319534,-0.2364046722650528
1772729034762418200,4.691418212890625,0.07269290834665298,0.043371398001909256,-0.268169641494751
1772729034771936000,4.70093603515625,0.04825831577181816,0.012217295356094837,-0.2834412455558777
1772729034781453800,4.710453857421875,0.027488915249705315,-0.004276053514331579,-0.27366742491722107
1772729034790971600,4.7199716796875,0.007330377586185932,0.009162971749901772,-0.2419024556875229
1772729034800489500,4.729489501953125,-0.009773836471140385,0.029932374134659767,-0.19608759880065918
1772729034810007300,4.73900732421875,-0.01893680728971958,0.03298669680953026,-0.14233149588108063
1772729034819525000,4.748525146484375,-0.014049889519810677,0.013439024798572063,-0.08674279600381851
1772729034829043000,4.75804296875,0.004886918235570192,-0.023212861269712448,-0.03481929376721382
1772729034838560800,4.767560791015625,0.028099779039621353,-0.07880155742168427,0.003665188793092966
1772729034848078600,4.77707861328125,0.046425722539424896,-0.16187916696071625,0.023212861269712448
1772729034857596400,4.786596435546875,0.05803215503692627,-0.24984370172023773,0.023823726922273636
1772729034867114200,4.7961142578125,0.06291907280683517,-0.32131487131118774,0.007330377586185932
1772729034876632000,4.805632080078125,0.053756099194288254,-0.38240134716033936,-0.025045456364750862
1772729034886150000,4.81514990234375,0.028099779039621353,-0.4410443603992462,-0.07269290834665298
1772729034895667700,4.824667724609375,-0.001221729558892548,-0.4789179861545563,-0.12095122784376144
1772729034905185500,4.834185546875,-0.03176496922969818,-0.47097674012184143,-0.15760311484336853
1772729034914703400,4.843703369140625,-0.05925388261675835,-0.4043924808502197,-0.17653992772102356
1772729034924221200,4.85322119140625,-0.08429934084415436,-0.29626941680908203,-0.17653992772102356
1772729034933739000,4.862739013671875,-0.09834922850131989,-0.19120067358016968,-0.1533270627260208
1772729034943256800,4.8722568359375,-0.09651663154363632,-0.10873392969369888,-0.10629047453403473
1772729034952774700,4.881774658203125,-0.0824667438864708,-0.06475166976451874,-0.0409279391169548
1772729034962292500,4.89129248046875,-0.0616973415017128,-0.06719512492418289,0.031154103577136993
1772729034971810300,4.900810302734375,-0.04153880476951599,-0.10751219838857651,0.09712749719619751
1772729034981328100,4.910328125,-0.026878049597144127,-0.1740964651107788,0.1484401375055313
1772729034990846000,4.919845947265625,-0.023212861269712448,-0.2669478952884674,0.17715078592300415
1772729035000363800,4.92936376953125,-0.03481929376721382,-0.35185810923576355,0.18264856934547424
1772729035009881600,4.938881591796875,-0.059864748269319534,-0.3842339515686035,0.16554436087608337
1772729035019399400,4.9483994140625,-0.09712749719619751,-0.3689623177051544,0.12278381735086441
1772729035028917200,4.957917236328125,-0.1496618688106537,-0.3500255048274994,0.0513126403093338
1772729035038435000,4.96743505859375,-0.20952661335468292,-0.3335321843624115,-0.043371398001909256
1772729035047953000,4.976952880859375,-0.27427828311920166,-0.3243691921234131,-0.15210533142089844
1772729035057470700,4.986470703125,-0.34636032581329346,-0.3646862804889679,-0.2663370370864868
1772729035066988500,4.995988525390625,-0.42455101013183594,-0.4459312856197357,-0.3707949221134186
1772729035076506400,5.00550634765625,-0.49418962001800537,-0.4935787320137024,-0.44898560643196106
1772729035086024200,5.015024169921875,-0.5412262082099915,-0.4630354940891266,-0.48502662777900696
1772729035095542000,5.0245419921875,-0.5613847374916077,-0.35796675086021423,-0.45998117327690125
1772729035105059800,5.034059814453125,-0.5974257588386536,-0.25350889563560486,-0.3707949221134186
1772729035114577700,5.04357763671875,-0.6096430420875549,-0.10445787757635117,-0.22663083672523499
1772729035124095500,5.053095458984375,-0.5919279456138611,0.029932374134659767,-0.07086031138896942
1772729035133613300,5.06261328125,-0.545502245426178,0.1692095398902893,0.07880155742168427
1772729035143131100,5.072131103515625,-0.48502662777900696,0.287106454372406,0.205861434340477
1772729035152649000,5.08164892578125,-0.43004879355430603,0.34208428859710693,0.2974911332130432
1772729035162166800,5.091166748046875,-0.37812530994415283,0.32620179653167725,0.36224281787872314
1772729035171684600,5.1006845703125,-0.32559093832969666,0.2510654330253601,0.40378162264823914
1772729035181202400,5.110202392578125,-0.27855435013771057,0.1539379209280014,0.4202749729156494
1772729035190720300,5.11972021484375,-0.24740023910999298,0.06780599057674408,0.40866854786872864
1772729035200238000,5.129238037109375,-0.23273947834968567,0.003665188793092966,0.36163195967674255
1772729035209756000,5.138755859375,-0.23457208275794983,-0.046425722539424896,0.28038692474365234
1772729035219273700,5.148273681640625,-0.24373504519462585,-0.10384701192378998,0.17287473380565643
1772729035228791300,5.157791259765625,-0.2577849328517914,-0.17348559200763702,0.04520399495959282
1772729035238309000,5.16730908203125,-0.28466299176216125,-0.24740023910999298,-0.09285144507884979
1772729035247827000,5.176826904296875,-0.3133736252784729,-0.3072649836540222,-0.23029601573944092
1772729035257345000,5.186344970703125,-0.33536475896835327,-0.31520622968673706,-0.3500255048274994
1772729035266862800,5.19586279296875,-0.3396408259868622,-0.28405213356018066,-0.4379900395870209
1772729035276380700,5.205380615234375,-0.3231474757194519,-0.22479823231697083,-0.48930269479751587
1772729035285898500,5.2148984375,-0.29077163338661194,-0.1637117564678192,-0.5021308660507202
1772729035295416000,5.224416015625,-0.24923282861709595,-0.11728604137897491,-0.4874700903892517
1772729035304934100,5.23393408203125,-0.20402882993221283,-0.07330377399921417,-0.44898560643196106
1772729035314451700,5.24345166015625,-0.16187916696071625,-0.03176496922969818,-0.3915643095970154
1772729035323969500,5.252969482421875,-0.12156209349632263,-0.01282816007733345,-0.3225366175174713
1772729035333487400,5.2624873046875,-0.09529490768909454,-0.013439024798572063,-0.2510654330253601
1772729035343005200,5.272005126953125,-0.09346231073141098,-0.039706211537122726,-0.18753549456596375
1772729035352523000,5.28152294921875,-0.10873392969369888,-0.0977383628487587,-0.14233149588108063
1772729035362040800,5.291040771484375,-0.1337793916463852,-0.18875721096992493,-0.12156209349632263
1772729035371558700,5.30055859375,-0.15638138353824615,-0.2614501118659973,-0.12217295914888382
1772729035381076700,5.31007666015625,-0.17104214429855347,-0.2968802750110626,-0.13927717506885529
1772729035390594300,5.31959423828125,-0.17837251722812653,-0.3231474757194519,-0.1747073233127594
1772729035400112000,5.329112060546875,-0.1795942485332489,-0.3549124300479889,-0.23212862014770508
1772729035409630000,5.3386298828125,-0.17531819641590118,-0.3805687427520752,-0.30543237924575806
1772729035419147800,5.348147705078125,-0.1747073233127594,-0.3946186602115631,-0.3903425931930542
1772729035428665600,5.35766552734375,-0.185092031955719,-0.38667741417884827,-0.4770853817462921
1772729035438183400,5.367183349609375,-0.21258094906806946,-0.3646862804889679,-0.5705476999282837
1772729035447701200,5.376701171875,-0.2419024556875229,-0.35246896743774414,-0.6652317643165588
1772729035457219000,5.386218994140625,-0.2516762912273407,-0.35063639283180237,-0.7373138070106506
1772729035466737000,5.39573681640625,-0.23273947834968567,-0.36835145950317383,-0.7666352987289429
1772729035476254700,5.405254638671875,-0.1997527778148651,-0.34697118401527405,-0.7391464114189148
1772729035485772500,5.4147724609375,-0.1698204129934311,-0.2816086709499359,-0.6652317643165588
1772729035495290400,5.424290283203125,-0.15699224174022675,-0.2309068888425827,-0.5626064538955688
1772729035504808200,5.43380810546875,-0.15149445831775665,-0.1795942485332489,-0.4367683231830597
1772729035514326000,5.443325927734375,-0.14172062277793884,-0.11423171311616898,-0.2974911332130432
1772729035523843800,5.45284375,-0.1282816082239151,-0.03848448023200035,-0.1588248461484909
1772729035533361700,5.462361572265625,-0.11667517572641373,0.002443459117785096,-0.037262752652168274
1772729035542879500,5.47187939453125,-0.10567960888147354,-0.02626718580722809,0.056810423731803894
1772729035552397300,5.481397216796875,-0.09101885557174683,-0.08491020649671555,0.12217295914888382
1772729035561915100,5.4909150390625,-0.0769689604640007,-0.12278381735086441,0.16249002516269684
1772729035571433000,5.500432861328125,-0.07330377399921417,-0.15515965223312378,0.17226386070251465
1772729035580950800,5.50995068359375,-0.08491020649671555,-0.19914191961288452,0.15149445831775665
1772729035590468600,5.519468505859375,-0.10323614627122879,-0.24251331388950348,0.11178825795650482
1772729035599986400,5.528986328125,-0.11362084746360779,-0.2669478952884674,0.06597339361906052
1772729035609504300,5.538504150390625,-0.11423171311616898,-0.258395791053772,0.02626718580722809
1772729035619022000,5.54802197265625,-0.10751219838857651,-0.24495677649974823,0
1772729035628540000,5.557539794921875,-0.0922405794262886,-0.21991132199764252,-0.01282816007733345
1772729035638057700,5.5670576171875,-0.07147117704153061,-0.15638138353824615,-0.01588248461484909
1772729035647575600,5.576575439453125,-0.053756099194288254,-0.06536252796649933,0.006719512399286032
1772729035657093400,5.58609326171875,-0.04214967042207718,0.043371398001909256,0.059864748269319534
1772729035666611200,5.595611083984375,-0.031154103577136993,0.16859868168830872,0.14049890637397766
1772729035676129000,5.60512890625,-0.015271619893610477,0.2932150959968567,0.2315177470445633
1772729035685646800,5.614646728515625,0.000610864779446274,0.36163195967674255,0.3121519088745117
1772729035695164700,5.62416455078125,0.01282816007733345,0.35063639283180237,0.3707949221134186
1772729035704682500,5.6336826171875,0.0256563201546669,0.2816086709499359,0.4050033390522003
1772729035714200300,5.643200439453125,0.030543239787220955,0.18325942754745483,0.41294458508491516
1772729035723718100,5.65271826171875,0.020769402384757996,0.07635809481143951,0.3915643095970154
1772729035733236000,5.662236083984375,-0.003665188793092966,-0.03848448023200035,0.3396408259868622
1772729035742753800,5.67175390625,-0.034208428114652634,-0.13011419773101807,0.2614501118659973
1772729035752271600,5.681271728515625,-0.05558869615197182,-0.18631376326084137,0.16798780858516693
1772729035761789400,5.69078955078125,-0.07574722915887833,-0.22907429933547974,0.07635809481143951
1772729035771307300,5.700307373046875,-0.08674279600381851,-0.2419024556875229,0.013439024798572063
1772729035780825000,5.7098251953125,-0.07757982611656189,-0.1441640853881836,0.007330377586185932
1772729035790343000,5.719343017578125,-0.050090912729501724,0.03543015569448471,0.07330377399921417
1772729035799860700,5.72886083984375,-0.021380268037319183,0.277332603931427,0.19303326308727264
1772729035809378600,5.738378662109375,0.001832594396546483,0.5424479246139526,0.33108872175216675
1772729035818896400,5.747896484375,0.028099779039621353,0.7831286191940308,0.4575377106666565
1772729035828414200,5.757414306640625,0.06719512492418289,0.9560033679008484,0.5571087002754211
1772729035837932000,5.76693212890625,0.12217295914888382,1.0225876569747925,0.6175842881202698
1772729035847449900,5.776449951171875,0.18387030065059662,0.9743293523788452,0.6346884965896606
1772729035856967700,5.7859677734375,0.2412915825843811,0.8338304162025452,0.6108647584915161
1772729035866485500,5.795485595703125,0.2809978127479553,0.6609556674957275,0.5564978122711182
1772729035876003000,5.805003173828125,0.3072649836540222,0.4612029194831848,0.4789179861545563
1772729035885521000,5.81452099609375,0.3225366175174713,0.24556763470172882,0.3811796307563782
1772729035895038700,5.824038818359375,0.3280344009399414,0.025045456364750862,0.27000224590301514
1772729035904556500,5.833556640625,0.32620179653167725,-0.1588248461484909,0.15210533142089844
1772729035914074600,5.84307470703125,0.31642794609069824,-0.27916520833969116,0.03481929376721382
1772729035923592400,5.852592529296875,0.30054548382759094,-0.34147340059280396,-0.07574722915887833
1772729035933110300,5.8621103515625,0.2761108875274658,-0.3634645342826843,-0.17165300250053406
1772729035942628000,5.871628173828125,0.24740023910999298,-0.35796675086021423,-0.2516762912273407
1772729035952146000,5.88114599609375,0.21930044889450073,-0.328645259141922,-0.3078758418560028
1772729035961663500,5.89066357421875,0.19608759880065918,-0.2730565667152405,-0.33536475896835327
1772729035971181300,5.900181396484375,0.18142683804035187,-0.17226386070251465,-0.3335321843624115
1772729035980699100,5.90969921875,0.17531819641590118,-0.05070177838206291,-0.3090975880622864
1772729035990217000,5.919217041015625,0.17592905461788177,0.06230820715427399,-0.2663370370864868
1772729035999734800,5.92873486328125,0.185092031955719,0.15271618962287903,-0.21685700118541718
1772729036009252600,5.938252685546875,0.20891575515270233,0.2205221801996231,-0.16249002516269684
1772729036018770400,5.9477705078125,0.23945899307727814,0.2608392536640167,-0.10995566099882126
1772729036028288300,5.957288330078125,0.26511532068252563,0.26878049969673157,-0.06597339361906052
1772729036037806000,5.96680615234375,0.2877173125743866,0.27000224590301514,-0.02871064469218254
1772729036047324000,5.976323974609375,0.31031930446624756,0.2919933497905731,0.001221729558892548
1772729036056841700,5.985841796875,0.3280344009399414,0.3072649836540222,0.020158538594841957
1772729036066359600,5.995359619140625,0.3426951467990875,0.27916520833969116,0.0256563201546669
1772729036075877400,6.00487744140625,0.35674503445625305,0.22724169492721558,0.020158538594841957
1772729036085395200,6.014395263671875,0.3695732057094574,0.1637117564678192,0.003665188793092966
1772729036094913000,6.0239130859375,0.37323838472366333,0.09651663154363632,-0.026878049597144127
1772729036104430800,6.033430908203125,0.3659079968929291,0.020158538594841957,-0.07635809481143951
1772729036113948700,6.04294873046875,0.35674503445625305,-0.049480047076940536,-0.13255766034126282
1772729036123466500,6.052466552734375,0.3488037884235382,-0.09407317638397217,-0.1893680840730667
1772729036132984300,6.061984375,0.3347539007663727,-0.11056652665138245,-0.24495677649974823
1772729036142502100,6.071502197265625,0.31520622968673706,-0.12034036219120026,-0.29443681240081787
1772729036152020000,6.08102001953125,0.2877173125743866,-0.12705987691879272,-0.337808221578598
1772729036161537800,6.090537841796875,0.2565632164478302,-0.13744457066059113,-0.37323838472366333
1772729036171055600,6.1000556640625,0.22357651591300964,-0.13927717506885529,-0.39828383922576904
1772729036180573400,6.109573486328125,0.18692462146282196,-0.13744457066059113,-0.40866854786872864
1772729036190091300,6.11909130859375,0.15210533142089844,-0.12461641430854797,-0.401949018239975
1772729036199609000,6.128609130859375,0.1233946830034256,-0.10018182545900345,-0.3750709891319275
1772729036209127000,6.138126953125,0.10323614627122879,-0.0720820426940918,-0.33169957995414734
1772729036218644700,6.147644775390625,0.09346231073141098,-0.053145237267017365,-0.2730565667152405
1772729036228162600,6.15716259765625,0.09590577334165573,-0.043371398001909256,-0.2052505612373352
1772729036237680400,6.166680419921875,0.10384701192378998,-0.05558869615197182,-0.13255766034126282
1772729036247198200,6.1761982421875,0.1026252806186676,-0.09468404203653336,-0.06963858753442764
1772729036256716000,6.185716064453125,0.0922405794262886,-0.15088360011577606,-0.023212861269712448
1772729036266233900,6.19523388671875,0.07757982611656189,-0.21868959069252014,0.010384701192378998
1772729036275751700,6.204751708984375,0.06597339361906052,-0.2987128794193268,0.037262752652168274
1772729036285269500,6.21426953125,0.053145237267017365,-0.38179048895835876,0.05436696484684944
1772729036294787300,6.223787353515625,0.03481929376721382,-0.44470956921577454,0.059864748269319534
1772729036304305200,6.23330517578125,0.011606430634856224,-0.4783071279525757,0.053756099194288254
1772729036313823000,6.242822998046875,-0.01588248461484909,-0.47036588191986084,0.0360410213470459
1772729036323340800,6.2523408203125,-0.040317077189683914,-0.4373791813850403,0.014049889519810677
1772729036332858600,6.261858642578125,-0.06414080411195755,-0.39828383922576904,-0.006108647678047419
1772729036342376400,6.27137646484375,-0.09162971377372742,-0.32070401310920715,-0.01649334840476513
1772729036361412000,6.290412109375,-0.15515965223312378,-0.06597339361906052,0.008552107028663158
1772729036370930000,6.299929931640625,-0.18753549456596375,0.015271619893610477,0.036651886999607086
1772729036380447700,6.30944775390625,-0.21135921776294708,0.04581485688686371,0.06352993845939636
1772729036389965600,6.318965576171875,-0.2260199636220932,0.028099779039621353,0.07941242307424545
1772729036399483400,6.3284833984375,-0.2364046722650528,-0.03787361457943916,0.07941242307424545
1772729036409001200,6.338001220703125,-0.24434591829776764,-0.11911863088607788,0.06230820715427399
1772729036418519000,6.34751904296875,-0.2522871494293213,-0.17531819641590118,0.03298669680953026
1772729036428036600,6.35703662109375,-0.2675587832927704,-0.2101374864578247,-0.009162971749901772
1772729036437554400,6.366554443359375,-0.29565855860710144,-0.2419024556875229,-0.06291907280683517
1772729036447072300,6.376072265625,-0.33658650517463684,-0.2816086709499359,-0.12583814561367035
1772729036456590300,6.38559033203125,-0.3811796307563782,-0.33108872175216675,-0.18814635276794434
1772729036466108200,6.395108154296875,-0.42455101013183594,-0.3646862804889679,-0.2412915825843811
1772729036475626000,6.4046259765625,-0.4612029194831848,-0.3689623177051544,-0.27977606654167175
1772729036485143800,6.414143798828125,-0.4874700903892517,-0.35674503445625305,-0.2932150959968567
1772729036494661600,6.42366162109375,-0.4935787320137024,-0.3292561173439026,-0.2718348205089569
1772729036504179500,6.433179443359375,-0.47525280714035034,-0.2675587832927704,-0.205861434340477
1772729036513697000,6.442697021484375,-0.43860089778900146,-0.15638138353824615,-0.09590577334165573
1772729036523214800,6.45221484375,-0.40255987644195557,-0.027488915249705315,0.043982263654470444
1772729036532732700,6.461732666015625,-0.3744601011276245,0.08918625861406326,0.19792018830776215
1772729036542250500,6.47125048828125,-0.3536907136440277,0.1795942485332489,0.347582072019577
1772729036551768300,6.480768310546875,-0.3433060050010681,0.19914191961288452,0.46975502371788025
1772729036561286100,6.4902861328125,-0.3402516841888428,0.13439024984836578,0.5540543794631958
1772729036570804000,6.499803955078125,-0.33658650517463684,0.021991131827235222,0.5974257588386536
1772729036580321800,6.50932177734375,-0.3347539007663727,-0.09529490768909454,0.5992583632469177
1772729036589839600,6.518839599609375,-0.33719736337661743,-0.1948658674955368,0.5540543794631958
1772729036599357400,6.528357421875,-0.3500255048274994,-0.268169641494751,0.46486809849739075
1772729036608875300,6.537875244140625,-0.3744601011276245,-0.32009315490722656,0.33658650517463684
1772729036618393000,6.54739306640625,-0.411722868680954,-0.3549124300479889,0.18264856934547424
1772729036627911000,6.556910888671875,-0.4465421438217163,-0.3689623177051544,0.023212861269712448
1772729036637428700,6.5664287109375,-0.4783071279525757,-0.35124725103378296,-0.12461641430854797
1772729036646946600,6.575946533203125,-0.5088503360748291,-0.31031930446624756,-0.2522871494293213
1772729036656464400,6.58546435546875,-0.5406153202056885,-0.27916520833969116,-0.35185810923576355
1772729036665982200,6.594982177734375,-0.5607738494873047,-0.24984370172023773,-0.41355544328689575
1772729036675500000,6.6045,-0.5607738494873047,-0.18753549456596375,-0.42821621894836426
1772729036685017900,6.614017822265625,-0.5418370366096497,-0.10995566099882126,-0.39828383922576904
1772729036694535700,6.62353564453125,-0.5070177912712097,-0.04153880476951599,-0.3329212963581085
1772729036704053500,6.633053466796875,-0.4581485986709595,0.017715077847242355,-0.24006985127925873
1772729036713571300,6.6425712890625,-0.39828383922576904,0.056810423731803894,-0.1386663019657135
1772729036723089200,6.652089111328125,-0.32559093832969666,0.05070177838206291,-0.04459312930703163
1772729036732607000,6.66160693359375,-0.2626718580722809,0.004276053514331579,0.03848448023200035
1772729036742124800,6.671124755859375,-0.22174391150474548,-0.040317077189683914,0.11362084746360779
1772729036751642600,6.680642578125,-0.2107483446598053,-0.07391463965177536,0.17653992772102356
1772729036761160400,6.690160400390625,-0.2315177470445633,-0.11972949653863907,0.21991132199764252
1772729036770678300,6.69967822265625,-0.2712239623069763,-0.16249002516269684,0.22785256803035736
1772729036780196000,6.709196044921875,-0.31459537148475647,-0.19242240488529205,0.19730933010578156
1772729036789714000,6.7187138671875,-0.3451386094093323,-0.21868959069252014,0.12705987691879272
1772729036799231700,6.728231689453125,-0.3610210716724396,-0.2406807243824005,0.0256563201546669
1772729036808749600,6.73774951171875,-0.3695732057094574,-0.2577849328517914,-0.09285144507884979
1772729036818267400,6.747267333984375,-0.3634645342826843,-0.2565632164478302,-0.2107483446598053
1772729036827785200,6.75678515625,-0.3390299379825592,-0.23212862014770508,-0.30970844626426697
1772729036837303000,6.766302978515625,-0.30115634202957153,-0.19792018830776215,-0.3805687427520752
1772729036846820900,6.77582080078125,-0.2516762912273407,-0.17776164412498474,-0.41844236850738525
1772729036856338700,6.785338623046875,-0.19303326308727264,-0.16310089826583862,-0.4172206521034241
1772729036865856500,6.7948564453125,-0.13439024984836578,-0.14172062277793884,-0.37629270553588867
1772729036875374300,6.804374267578125,-0.08552107214927673,-0.11117739230394363,-0.3017672002315521
1772729036884892200,6.81389208984375,-0.05925388261675835,-0.050090912729501724,-0.21258094906806946
1772729036894410000,6.823409912109375,-0.053756099194288254,0.039706211537122726,-0.12156209349632263
1772729036903927800,6.832927734375,-0.06597339361906052,0.1081230640411377,-0.04581485688686371
1772729036913445600,6.842445556640625,-0.08368847519159317,0.1282816082239151,0.008552107028663158
1772729036922963500,6.85196337890625,-0.0873536616563797,0.12400554865598679,0.043371398001909256
1772729036932481300,6.861481201171875,-0.07086031138896942,0.10018182545900345,0.06414080411195755
1772729036941999000,6.8709990234375,-0.0409279391169548,0.06963858753442764,0.06719512492418289
1772729036951517000,6.880516845703125,-0.002443459117785096,0.031154103577136993,0.053756099194288254
1772729036961034800,6.89003466796875,0.037262752652168274,-0.027488915249705315,0.0256563201546669
1772729036970552600,6.899552490234375,0.07086031138896942,-0.09712749719619751,-0.013439024798572063
1772729036980070400,6.9090703125,0.0977383628487587,-0.15760311484336853,-0.06230820715427399
1772729036989588000,6.918587890625,0.11606431007385254,-0.2156352698802948,-0.10690133273601532
1772729036999105800,6.928105712890625,0.12583814561367035,-0.2522871494293213,-0.1380554437637329
1772729037008623600,6.93762353515625,0.12400554865598679,-0.2657261788845062,-0.15821397304534912
1772729037018141400,6.947141357421875,0.11545344442129135,-0.27000224590301514,-0.16554436087608337
1772729037027659300,6.9566591796875,0.11423171311616898,-0.2657261788845062,-0.15515965223312378
1772729037037177300,6.96617724609375,0.13439024984836578,-0.24312418699264526,-0.12156209349632263
1772729037046695200,6.975695068359375,0.17226386070251465,-0.19303326308727264,-0.05253437161445618
1772729037056213000,6.985212890625,0.22418737411499023,-0.07574722915887833,0.05192350596189499
1772729037065730800,6.994730712890625,0.277332603931427,0.10506874322891235,0.17592905461788177
1772729037075248400,7.004248291015625,0.32131487131118774,0.2834412455558777,0.29504770040512085
1772729037084766200,7.01376611328125,0.35124725103378296,0.401949018239975,0.38789913058280945
1772729037094284000,7.023283935546875,0.3744601011276245,0.43432486057281494,0.44837474822998047
1772729037103801900,7.0328017578125,0.4007273018360138,0.4068359434604645,0.4789179861545563
1772729037113319700,7.042319580078125,0.4263836145401001,0.3536907136440277,0.4789179861545563
1772729037122837500,7.05183740234375,0.43860089778900146,0.2663370370864868,0.4471530318260193
1772729037132355300,7.061355224609375,0.4312705397605896,0.16065743565559387,0.3909534513950348
1772729037141873200,7.070873046875,0.4050033390522003,0.047036588191986084,0.31520622968673706
1772729037151391000,7.080390869140625,0.36163195967674255,-0.07757982611656189,0.22479823231697083
1772729037160908800,7.08990869140625,0.31093016266822815,-0.22235478460788727,0.12522727251052856
1772729037170426600,7.099426513671875,0.2712239623069763,-0.3237583339214325,0.043371398001909256
1772729037179944400,7.1089443359375,0.24801109731197357,-0.3023780584335327,-0.004886918235570192
1772729037189462300,7.118462158203125,0.24251331388950348,-0.16554436087608337,-0.006719512399286032
1772729037198980000,7.12797998046875,0.2565632164478302,0.07513637095689774,0.047036588191986084
1772729037208498000,7.137497802734375,0.29443681240081787,0.39339691400527954,0.143553227186203
1772729037218015700,7.147015625,0.3390299379825592,0.7391464114189148,0.25411975383758545
1772729037227533600,7.156533447265625,0.3860665261745453,1.0128138065338135,0.35613417625427246
1772729037237051400,7.166051513671875,0.45020735263824463,1.1655299663543701,0.4428769648075104
1772729037246569200,7.1755693359375,0.5326740741729736,1.204014539718628,0.5088503360748291
1772729037256087000,7.185087158203125,0.6224712133407593,1.1362085342407227,0.5510000586509705
1772729037265604900,7.19460498046875,0.7024945020675659,0.9749401807785034,0.5619956254959106
1772729037275122700,7.204122802734375,0.7531962990760803,0.7556397318840027,0.544891357421875
1772729037284640500,7.213640625,0.7770199775695801,0.5174024701118469,0.5015199780464172
1772729037294158300,7.223158447265625,0.7739656567573547,0.29077163338661194,0.4312705397605896
1772729037303676200,7.23267626953125,0.7452550530433655,0.08674279600381851,0.3329212963581085
1772729037313194000,7.242194091796875,0.7000510096549988,-0.0818558782339096,0.20952661335468292
1772729037322711800,7.2517119140625,0.648127555847168,-0.1954767256975174,0.07086031138896942
1772729037332229600,7.261229736328125,0.5900954008102417,-0.258395791053772,-0.07513637095689774
1772729037341747500,7.27074755859375,0.5351175665855408,-0.27916520833969116,-0.2162461280822754
1772729037351265300,7.280265380859375,0.4838049113750458,-0.2614501118659973,-0.34147340059280396
1772729037360783000,7.289783203125,0.4361574649810791,-0.2003636509180069,-0.4453204274177551
1772729037370301000,7.299301025390625,0.39400777220726013,-0.1130099818110466,-0.5186241865158081
1772729037379818800,7.30881884765625,0.36712974309921265,-0.0030543238390237093,-0.5534434914588928
1772729037389336600,7.318336669921875,0.35674503445625305,0.1081230640411377,-0.5479456782341003
1772729037398854400,7.3278544921875,0.3659079968929291,0.21685700118541718,-0.4990765154361725
1772729037408372200,7.337372314453125,0.3964512348175049,0.3396408259868622,-0.40744680166244507
1772729037417890000,7.34689013671875,0.43860089778900146,0.4764745235443115,-0.28466299176216125
1772729037427408000,7.356407958984375,0.48013970255851746,0.6023126840591431,-0.15210533142089844
1772729037436925700,7.36592578125,0.5119046568870544,0.6768381595611572,-0.03298669680953026
1772729037446443500,7.375443603515625,0.5369501113891602,0.6823359727859497,0.06291907280683517
1772729037455961000,7.384961181640625,0.5613847374916077,0.637742817401886,0.13072505593299866
1772729037465479000,7.39447900390625,0.5754346251487732,0.5674933791160583,0.16615521907806396
1772729037474996700,7.403996826171875,0.5717694163322449,0.471587598323822,0.16676609218120575
1772729037484514600,7.4135146484375,0.546113133430481,0.3555232882499695,0.13194678723812103
1772729037494032400,7.423032470703125,0.5112938284873962,0.24984370172023773,0.07024945318698883
1772729037503550200,7.43255029296875,0.4825831651687622,0.17348559200763702,-0.004276053514331579
1772729037513068000,7.442068115234375,0.4630354940891266,0.13927717506885529,-0.07941242307424545
1772729037522586000,7.451586181640625,0.4459312856197357,0.15088360011577606,-0.1490510106086731
1772729037532104000,7.46110400390625,0.42088583111763,0.17226386070251465,-0.21441353857517242
1772729037541621500,7.47062158203125,0.3842339515686035,0.16126830875873566,-0.2706131041049957
1772729037551139300,7.480139404296875,0.3426951467990875,0.11972949653863907,-0.31642794609069824
1772729037560657200,7.4896572265625,0.3029889166355133,0.07452550530433655,-0.34697118401527405
1772729037570175000,7.499175048828125,0.2712239623069763,0.03848448023200035,-0.36224281787872314
1772729037579692800,7.50869287109375,0.24740023910999298,0.008552107028663158,-0.3652971386909485
1772729037589210600,7.518210693359375,0.2309068888425827,-0.006719512399286032,-0.3549124300479889
1772729037598728400,7.527728515625,0.22479823231697083,0.0030543238390237093,-0.33169957995414734
1772729037608246300,7.537246337890625,0.22785256803035736,0.018325943499803543,-0.30054548382759094
1772729037617764000,7.54676416015625,0.23762640357017517,0.013439024798572063,-0.2608392536640167
1772729037627282000,7.556281982421875,0.25045454502105713,-0.01282816007733345,-0.21135921776294708
1772729037636799700,7.5657998046875,0.2632827162742615,-0.040317077189683914,-0.15271618962287903
1772729037646317600,7.575317626953125,0.26450446248054504,-0.0665842592716217,-0.09590577334165573
1772729037655835400,7.58483544921875,0.24923282861709595,-0.12217295914888382,-0.05192350596189499
1772729037665353200,7.594353271484375,0.2260199636220932,-0.2009745091199875,-0.023823726922273636
1772729037674871000,7.60387109375,0.20341797173023224,-0.2730565667152405,-0.009162971749901772
1772729037684388900,7.613388916015625,0.17898337543010712,-0.32559093832969666,-0.007941242307424545
1772729037693906700,7.62290673828125,0.1484401375055313,-0.3659079968929291,-0.021380268037319183
1772729037703424500,7.632424560546875,0.1185077652335167,-0.3848448097705841,-0.037262752652168274
1772729037712942300,7.6419423828125,0.0873536616563797,-0.3787361681461334,-0.047036588191986084
1772729037722460200,7.651460205078125,0.05558869615197182,-0.3610210716724396,-0.04886918142437935
1772729037731978000,7.66097802734375,0.01893680728971958,-0.33108872175216675,-0.03787361457943916
1772729037741495800,7.670495849609375,-0.021991131827235222,-0.27488914132118225,-0.01893680728971958
1772729037751013600,7.680013671875,-0.06352993845939636,-0.19608759880065918,0.0054977829568088055
1772729037760531500,7.689531494140625,-0.10079269111156464,-0.11667517572641373,0.030543239787220955
1772729037770049300,7.69904931640625,-0.1331685185432434,-0.07391463965177536,0.04764745384454727
1772729037779567000,7.708567138671875,-0.15699224174022675,-0.07452550530433655,0.05070177838206291
1772729037789085000,7.7180849609375,-0.17104214429855347,-0.11178825795650482,0.0409279391169548
1772729037798602800,7.727602783203125,-0.17592905461788177,-0.17592905461788177,0.01649334840476513
1772729037808120600,7.73712060546875,-0.20158538222312927,-0.26450446248054504,-0.031154103577136993
1772729037817638400,7.746638427734375,-0.24434591829776764,-0.3707949221134186,-0.0977383628487587
1772729037827156200,7.75615625,-0.29077163338661194,-0.49052441120147705,-0.17898337543010712
1772729037836674000,7.765674072265625,-0.34574946761131287,-0.5827649831771851,-0.2571740746498108
1772729037846191600,7.775191650390625,-0.38850998878479004,-0.6255255341529846,-0.3194822669029236
1772729037855709400,7.78470947265625,-0.41294458508491516,-0.6126973628997803,-0.3597993552684784
1772729037865227500,7.7942275390625,-0.43432486057281494,-0.5601630210876465,-0.37262752652168274
1772729037874745300,7.803745361328125,-0.4508182108402252,-0.49480047821998596,-0.3530798554420471
1772729037884263200,7.81326318359375,-0.44959646463394165,-0.3799578845500946,-0.2926042377948761
1772729037893781000,7.822781005859375,-0.42394015192985535,-0.1747073233127594,-0.17837251722812653
1772729037903298800,7.832298828125,-0.38728827238082886,0.0769689604640007,-0.017715077847242355
1772729037912816600,7.841816650390625,-0.3585776388645172,0.28527384996414185,0.16859868168830872
1772729037922334500,7.85133447265625,-0.3433060050010681,0.3995055556297302,0.35124725103378296
1772729037931852000,7.86085205078125,-0.3390299379825592,0.4221075773239136,0.5094612240791321
1772729037941369900,7.870369873046875,-0.33719736337661743,0.36163195967674255,0.6334667801856995
1772729037950887700,7.8798876953125,-0.34086254239082336,0.2254091054201126,0.7073814272880554
1772729037960405500,7.889405517578125,-0.3488037884235382,0.06291907280683517,0.7202095985412598
1772729037969923300,7.89892333984375,-0.36774060130119324,-0.0922405794262886,0.6646208763122559
1772729037979441200,7.908441162109375,-0.39767298102378845,-0.22357651591300964,0.5406153202056885
1772729037988959000,7.917958984375,-0.43921178579330444,-0.3194822669029236,0.3610210716724396
1772729037998476800,7.927476806640625,-0.4838049113750458,-0.36163195967674255,0.15210533142089844
1772729038007994600,7.93699462890625,-0.5247328281402588,-0.33658650517463684,-0.05742128938436508
1772729038017512400,7.946512451171875,-0.5564978122711182,-0.2620609998703003,-0.2467893660068512
1772729038027030300,7.9560302734375,-0.573602020740509,-0.16249002516269684,-0.3915643095970154
1772729038036548000,7.965548095703125,-0.5705476999282837,-0.06963858753442764,-0.481361448764801
1772729038046066000,7.97506591796875,-0.5436696410179138,-0.004276053514331579,-0.5143481492996216
1772729038055583700,7.984583740234375,-0.4935787320137024,0.02871064469218254,-0.49541133642196655
1772729038065101600,7.9941015625,-0.42332929372787476,0.03787361457943916,-0.43432486057281494
1772729038074619400,8.003619384765624,-0.34086254239082336,0.03481929376721382,-0.337808221578598
1772729038084137200,8.01313720703125,-0.2571740746498108,0.040317077189683914,-0.2211330533027649
1772729038093655000,8.022655029296875,-0.18264856934547424,0.05925388261675835,-0.0977383628487587
1772729038103172900,8.0321728515625,-0.12583814561367035,0.06475166976451874,0.013439024798572063
1772729038112690700,8.041690673828125,-0.08857539296150208,0.04581485688686371,0.09590577334165573
1772729038122208500,8.05120849609375,-0.06780599057674408,0.017104214057326317,0.14721840620040894
1772729038131726300,8.060726318359375,-0.0616973415017128,-0.007330377586185932,0.16676609218120575
1772729038141244200,8.070244140625,-0.06902772188186646,-0.028099779039621353,0.15515965223312378
1772729038150762000,8.079761962890625,-0.08307760953903198,-0.05925388261675835,0.1185077652335167
1772729038160279800,8.08927978515625,-0.10506874322891235,-0.07819069176912308,0.05742128938436508
1772729038169797600,8.098797607421876,-0.12767073512077332,-0.1081230640411377,-0.021991131827235222
1772729038179315500,8.1083154296875,-0.1545487940311432,-0.1331685185432434,-0.11484257876873016
1772729038188833300,8.117833251953124,-0.17898337543010712,-0.13988803327083588,-0.20708316564559937
1772729038198351000,8.12735107421875,-0.20463970303535461,-0.1331685185432434,-0.2938259541988373
1772729038207869000,8.136868896484375,-0.23029601573944092,-0.1233946830034256,-0.3640754222869873
1772729038217386800,8.14638671875,-0.24740023910999298,-0.10934479534626007,-0.4105011224746704
1772729038226904600,8.155904541015625,-0.2516762912273407,-0.08552107214927673,-0.4276053309440613
1772729038236422400,8.16542236328125,-0.24251331388950348,-0.05925388261675835,-0.4159989058971405
1772729038245940200,8.174940185546875,-0.22174391150474548,-0.059864748269319534,-0.37262752652168274
1772729038255458000,8.1844580078125,-0.2003636509180069,-0.06230820715427399,-0.30115634202957153
1772729038264976000,8.193975830078125,-0.17837251722812653,-0.031154103577136993,-0.21380266547203064
1772729038274493700,8.20349365234375,-0.15577052533626556,0.029932374134659767,-0.12095122784376144
1772729038284011500,8.213011474609376,-0.12461641430854797,0.0873536616563797,-0.034208428114652634
1772729038293529300,8.222529296875,-0.08613193035125732,0.11178825795650482,0.03848448023200035
1772729038303047000,8.232046875,-0.03481929376721382,0.12644900381565094,0.09162971377372742
1772729038312564700,8.241564697265625,0.018325943499803543,0.14782927930355072,0.11423171311616898
1772729038322082600,8.25108251953125,0.0616973415017128,0.15638138353824615,0.10323614627122879
1772729038331600400,8.260600341796875,0.09407317638397217,0.14599667489528656,0.06536252796649933
1772729038341118200,8.2701181640625,0.12644900381565094,0.12583814561367035,0.018325943499803543
1772729038350636000,8.279635986328126,0.16249002516269684,0.11667517572641373,-0.027488915249705315
1772729038360153900,8.28915380859375,0.19242240488529205,0.12705987691879272,-0.0665842592716217
1772729038369671700,8.298671630859374,0.20769402384757996,0.14660754799842834,-0.09957095980644226
1772729038379189500,8.308189453125,0.20952661335468292,0.1692095398902893,-0.12583814561367035
1772729038388707300,8.317707275390624,0.20708316564559937,0.18203771114349365,-0.1484401375055313
1772729038398225200,8.32722509765625,0.21258094906806946,0.17653992772102356,-0.1588248461484909
1772729038407743000,8.336742919921875,0.23273947834968567,0.16065743565559387,-0.1441640853881836
1772729038417260800,8.3462607421875,0.26022839546203613,0.15515965223312378,-0.10690133273601532
1772729038426778600,8.355778564453125,0.2877173125743866,0.15760311484336853,-0.0513126403093338
1772729038436296400,8.36529638671875,0.31459537148475647,0.1802051067352295,0.021991131827235222
1772729038445814300,8.374814208984375,0.34086254239082336,0.25045454502105713,0.10873392969369888
1772729038455332000,8.38433203125,0.3634645342826843,0.360410213470459,0.19608759880065918
1772729038464850000,8.393849853515626,0.39278605580329895,0.47525280714035034,0.2724456787109375
1772729038474367700,8.40336767578125,0.4361574649810791,0.564439058303833,0.33719736337661743
1772729038483885600,8.412885498046874,0.48075059056282043,0.5797106623649597,0.38240134716033936
1772729038493403400,8.4224033203125,0.5125155448913574,0.5290089249610901,0.39217519760131836
1772729038502921200,8.431921142578124,0.5253437161445618,0.471587598323822,0.3652971386909485
1772729038512439000,8.44143896484375,0.5222893953323364,0.3964512348175049,0.3078758418560028
1772729038521956900,8.450956787109375,0.5088503360748291,0.2626718580722809,0.22418737411499023
1772729038531474700,8.460474609375,0.47952884435653687,0.06414080411195755,0.12400554865598679
1772729038540992500,8.469992431640625,0.4410443603992462,-0.15149445831775665,0.01954767294228077
1772729038550510300,8.47951025390625,0.39828383922576904,-0.29993459582328796,-0.07147117704153061
1772729038560028200,8.489028076171875,0.3597993552684784,-0.31459537148475647,-0.12644900381565094
1772729038569546000,8.4985458984375,0.3488037884235382,-0.19303326308727264,-0.12278381735086441
1772729038579063800,8.508063720703126,0.370184063911438,0.06902772188186646,-0.056810423731803894
1772729038588581600,8.51758154296875,0.41844236850738525,0.43493571877479553,0.05803215503692627
1772729038598099500,8.527099365234376,0.48441576957702637,0.8283326625823975,0.1948658674955368
1772729038607617300,8.5366171875,0.5668824911117554,1.1349867582321167,0.3292561173439026
1772729038617135000,8.546135009765624,0.6597339510917664,1.3206896781921387,0.4508182108402252
1772729038626653000,8.55565283203125,0.7544180154800415,1.4440842866897583,0.5387827157974243
1772729038636170800,8.565170654296875,0.8283326625823975,1.4874557256698608,0.5772672295570374
1772729038645688600,8.5746884765625,0.8729257583618164,1.4025455713272095,0.555276095867157
1772729038655206400,8.584206298828125,0.9053016304969788,1.2131774425506592,0.471587598323822
1772729038664724200,8.59372412109375,0.9266818761825562,0.9639446139335632,0.3439168632030487
1772729038674242000,8.603241943359375,0.9315688014030457,0.6982184648513794,0.18875721096992493
1772729038683759900,8.612759765625,0.9175189137458801,0.44837474822998047,0.017104214057326317
1772729038693277400,8.62227734375,0.8888082504272461,0.23335035145282745,-0.15577052533626556
1772729038702795300,8.631795166015625,0.8594867587089539,0.07880155742168427,-0.3231474757194519
1772729038712313000,8.64131298828125,0.8307760953903198,-0.01588248461484909,-0.4740310609340668
1772729038721831000,8.650830810546875,0.8032872080802917,-0.1026252806186676,-0.5992583632469177
1772729038731348700,8.6603486328125,0.7757982611656189,-0.1893680840730667,-0.6914989352226257
1772729038740866600,8.669866455078125,0.7544180154800415,-0.2461785078048706,-0.7446441650390625
1772729038750384400,8.67938427734375,0.739757239818573,-0.24434591829776764,-0.7641918659210205
1772729038759902200,8.688902099609376,0.7293725609779358,-0.18875721096992493,-0.7476984858512878
1772729038769420000,8.698419921875,0.7281508445739746,-0.08063415437936783,-0.6921098232269287
1772729038778937900,8.707937744140626,0.7360920310020447,0.08429934084415436,-0.5974257588386536
1772729038788455700,8.71745556640625,0.7452550530433655,0.3066541254520416,-0.4630354940891266
1772729038797973500,8.726973388671874,0.7538071274757385,0.5748237371444702,-0.3035998046398163
1772729038807491300,8.7364912109375,0.759304940700531,0.8381064534187317,-0.14660754799842834
1772729038817009200,8.746009033203125,0.768467903137207,1.0341941118240356,-0.01893680728971958
1772729038826527000,8.75552685546875,0.7929024696350098,1.1447606086730957,0.06963858753442764
1772729038836044800,8.765044921875,0.8313869833946228,1.1808016300201416,0.12095122784376144
1772729038845562600,8.774562744140624,0.8698714375495911,1.1478148698806763,0.13194678723812103
1772729038855080400,8.78408056640625,0.896138608455658,1.0543526411056519,0.1178968995809555
1772729038864598300,8.793598388671874,0.9071341753005981,0.9065233469009399,0.08918625861406326
1772729038874116000,8.8031162109375,0.9016364216804504,0.7293725609779358,0.05742128938436508
1772729038883634000,8.812634033203125,0.8796452879905701,0.565049946308136,0.023823726922273636
1772729038893151700,8.82215185546875,0.8484911918640137,0.4263836145401001,-0.014660755172371864
1772729038902669600,8.831669677734375,0.8185588121414185,0.31581708788871765,-0.056199558079242706
1772729038912187400,8.8411875,0.7959567904472351,0.2559523284435272,-0.10201441496610641
1772729038921705200,8.850705322265625,0.7800742983818054,0.23823726177215576,-0.1545487940311432
1772729038931223000,8.86022314453125,0.768467903137207,0.2419024556875229,-0.21380266547203064
1772729038940740900,8.869740966796876,0.7599157691001892,0.2528980076313019,-0.2657261788845062
1772729038950258700,8.8792587890625,0.750141978263855,0.2522871494293213,-0.2981020212173462
1772729038959776500,8.888776611328124,0.7244856357574463,0.2467893660068512,-0.30115634202957153
1772729038969294300,8.89829443359375,0.6835576891899109,0.26511532068252563,-0.2761108875274658
1772729038978812200,8.907812255859374,0.6334667801856995,0.2706131041049957,-0.23029601573944092
1772729038988330000,8.917330078125,0.5784889459609985,0.2669478952884674,-0.18325942754745483
1772729038997847800,8.926847900390625,0.5308414697647095,0.27427828311920166,-0.14660754799842834
1772729039007365600,8.93636572265625,0.5033525824546814,0.27427828311920166,-0.12217295914888382
1772729039016883500,8.945883544921875,0.4984656572341919,0.2559523284435272,-0.10445787757635117
1772729039026401300,8.9554013671875,0.5088503360748291,0.22357651591300964,-0.09040798991918564
1772729039035919000,8.964919189453125,0.5253437161445618,0.18142683804035187,-0.07269290834665298
1772729039045437000,8.97443701171875,0.5375609993934631,0.1441640853881836,-0.05192350596189499
1772729039054954500,8.98395458984375,0.5351175665855408,0.10751219838857651,-0.02932151034474373
1772729039064472600,8.99347265625,0.5186241865158081,0.06719512492418289,-0.009162971749901772
1772729039073990400,9.002990478515626,0.49602219462394714,0.014660755172371864,-0.001221729558892548
1772729039083508000,9.012508056640625,0.4783071279525757,-0.05803215503692627,-0.003665188793092966
1772729039093025800,9.02202587890625,0.4618137776851654,-0.1185077652335167,-0.01588248461484909
1772729039102543600,9.031543701171875,0.4526508152484894,-0.14172062277793884,-0.027488915249705315
1772729039112061400,9.0410615234375,0.4459312856197357,-0.11667517572641373,-0.029932374134659767
1772729039121579300,9.050579345703126,0.43004879355430603,-0.0769689604640007,-0.028099779039621353
1772729039131097000,9.06009716796875,0.40866854786872864,-0.05253437161445618,-0.01649334840476513
1772729039140615000,9.069614990234374,0.3787361681461334,-0.02626718580722809,0.02260199747979641
1772729039150132700,9.0791328125,0.337808221578598,-0.0513126403093338,0.06902772188186646
1772729039159650600,9.088650634765624,0.31031930446624756,-0.0922405794262886,0.10201441496610641
1772729039169168400,9.09816845703125,0.3066541254520416,-0.10567960888147354,0.12217295914888382
1772729039178686200,9.107686279296875,0.3078758418560028,-0.11911863088607788,0.12705987691879272
1772729039188204000,9.1172041015625,0.30604326725006104,-0.14172062277793884,0.10751219838857651
1772729039197721900,9.126721923828125,0.30970844626426697,-0.18875721096992493,0.06902772188186646
1772729039207239700,9.13623974609375,0.31459537148475647,-0.31093016266822815,0.02871064469218254
