time,seconds_elapsed,z,y,x
1772725782080226000,0.11922607421875,0.004123337101191282,-0.030695954337716103,-0.029626941308379173
1772725782089743000,0.1287431640625,0.005345067009329796,-0.04535670951008797,-0.032681263983249664
1772725782099260400,0.138260498046875,0.009010255336761475,-0.04780016839504242,-0.025350889191031456
1772725782108777500,0.147777587890625,0.012675444595515728,-0.03558287397027016,-0.005803215317428112
1772725782118294500,0.15729443359375,0.019394956529140472,-0.016646064817905426,0.019853105768561363
1772725782127811800,0.166811767578125,0.027336198836565018,0.003512472379952669,0.04428769648075104
1772725782137329000,0.176328857421875,0.0383317656815052,0.016340631991624832,0.060781046748161316
1772725782146846000,0.185845947265625,0.04932733252644539,0.021838415414094925,0.07116574794054031
1772725782156363300,0.19536328125,0.0591011680662632,0.018784092739224434,0.07299833744764328
1772725782165880300,0.20488037109375,0.06765327602624893,0.004123337101191282,0.06933315098285675
1772725782175397600,0.214397705078125,0.07376192510128021,-0.009315688163042068,0.07055488228797913
1772725782184914700,0.223914794921875,0.07254019379615784,-0.020922118797898293,0.08460476994514465
1772725782194431700,0.233431640625,0.06520981341600418,-0.0154243353754282,0.10598503798246384
1772725782203949000,0.242948974609375,0.05299251899123192,0.018784092739224434,0.12736530601978302
1772725782213466000,0.252466064453125,0.037720900028944016,0.06215549260377884,0.14202606678009033
1772725782222983200,0.261983154296875,0.021227551624178886,0.0798705667257309,0.14080433547496796
1772725782232500500,0.27150048828125,0.009621120058000088,0.05971203371882439,0.12736530601978302
1772725782242017500,0.281017578125,0.005345067009329796,0.018173227086663246,0.11087195575237274
1772725782251534800,0.290534912109375,0.010842849500477314,-0.012980876490473747,0.09071341902017593
1772725782261052000,0.300052001953125,0.017562363296747208,-0.01908952370285988,0.07055488228797913
1772725782270569000,0.30956884765625,0.014508038759231567,-0.017256930470466614,0.05100720748305321
1772725782280086300,0.319086181640625,0.004734201822429895,-0.009926552884280682,0.03329212963581085
1772725782289603300,0.328603271484375,-0.0032070400193333626,0.002290742937475443,0.01740964688360691
1772725782299120400,0.338120361328125,-0.006872228812426329,0.008399390615522861,0.0021380267571657896
1772725782308637700,0.3476376953125,-0.008093958720564842,0.009621120058000088,-0.01435532234609127
1772725782318154800,0.35715478515625,-0.008704823441803455,0.001679878099821508,-0.03023780696094036
1772725782327671800,0.366671875,-0.007483093533664942,-0.010537417605519295,-0.04245510324835777
1772725782337189000,0.376189208984375,-0.0062613640911877155,-0.023365577682852745,-0.04734202101826668
1772725782346706200,0.3857060546875,-0.0019853105768561363,-0.03497200831770897,-0.048563748598098755
1772725782356223500,0.395223388671875,0.00045814859913662076,-0.03558287397027016,-0.04673115536570549
1772725782365740500,0.404740478515625,0.002901607658714056,-0.029474224895238876,-0.04428769648075104
1772725782375257600,0.414257568359375,0.007177661173045635,-0.02458730712532997,-0.041844237595796585
1772725782384775000,0.42377490234375,0.012675444595515728,-0.020922118797898293,-0.03756818547844887
1772725782394292000,0.4332919921875,0.02000582218170166,-0.014202605932950974,-0.03390299528837204
1772725782403809000,0.44280908203125,0.021227551624178886,-0.012980876490473747,-0.035735588520765305
1772725782413326300,0.452326416015625,0.0102319847792387,-0.010537417605519295,-0.03940077871084213
1772725782422843400,0.461843505859375,0.001679878099821508,-0.01359174121171236,-0.04550942778587341
1772725782432360400,0.4713603515625,0.001679878099821508,-0.02458730712532997,-0.05039634555578232
1772725782441877800,0.480877685546875,0.009010255336761475,-0.03802633285522461,-0.05406153202056885
1772725782451394800,0.490394775390625,0.011453714221715927,-0.05329795181751251,-0.05955931544303894
1772725782460912000,0.499912109375,0.008399390615522861,-0.061850059777498245,-0.06261363625526428
1772725782470429200,0.50942919921875,0.0010690133785828948,-0.05146535858511925,-0.06505709886550903
1772725782479946200,0.5189462890625,-0.007483093533664942,-0.0386371985077858,-0.06505709886550903
1772725782489463300,0.52846337890625,-0.01847865991294384,-0.022754713892936707,-0.060781046748161316
1772725782498980600,0.537980712890625,-0.02519817277789116,-0.007483093533664942,-0.054672397673130035
1772725782508497700,0.54749755859375,-0.026419902220368385,0.0010690133785828948,-0.051618073135614395
1772725782518015000,0.557014892578125,-0.02458730712532997,-0.005039634648710489,-0.05528326332569122
1772725782527532000,0.566531982421875,-0.02458730712532997,-0.02153298258781433,-0.06322450190782547
1772725782537049000,0.576049072265625,-0.02214384824037552,-0.03802633285522461,-0.06872228533029556
1772725782546566400,0.58556640625,-0.01847865991294384,-0.03802633285522461,-0.06627883017063141
1772725782556083500,0.59508349609375,-0.017867794260382652,-0.017867794260382652,-0.0565049909055233
1772725782565600800,0.604600830078125,-0.01908952370285988,0.005955931730568409,-0.0461202897131443
1772725782575117800,0.614117919921875,-0.019700389355421066,0.021838415414094925,-0.03634645417332649
1772725782584635000,0.623634765625,-0.020311253145337105,0.02672533318400383,-0.02718348242342472
1772725782594152200,0.633152099609375,-0.01847865991294384,0.02367101050913334,-0.0204639695584774
1772725782603669200,0.642669189453125,-0.011759147047996521,0.014508038759231567,-0.016187917441129684
1772725782613186300,0.652186279296875,-0.0025961752980947495,-0.007483093533664942,-0.016187917441129684
1772725782622703600,0.66170361328125,0.006566796451807022,-0.03252854943275452,-0.01740964688360691
1772725782632220700,0.671220703125,0.012675444595515728,-0.045967575162649155,-0.01435532234609127
1772725782641737700,0.68073779296875,0.012675444595515728,-0.03436114266514778,-0.00946840364485979
1772725782651255000,0.690255126953125,0.009010255336761475,-0.017256930470466614,-0.0015271619195118546
1772725782660772000,0.699772216796875,0.007788525894284248,-0.006872228812426329,0.007024944759905338
1772725782670289400,0.709289306640625,0.009621120058000088,-0.005039634648710489,0.016187917441129684
1772725782679806500,0.718806396484375,0.010842849500477314,-0.008704823441803455,0.02107483521103859
1772725782689323500,0.728323486328125,0.001679878099821508,-0.0032070400193333626,0.021685699000954628
1772725782698840800,0.7378408203125,-0.011148282326757908,0.005955931730568409,0.02412915788590908
1772725782708358000,0.74735791015625,-0.02153298258781433,0.002901607658714056,0.026572618633508682
1772725782717875000,0.756875,-0.02764163166284561,-0.009926552884280682,0.03451386094093323
1772725782727392300,0.766392333984375,-0.036804601550102234,0.0010690133785828948,0.04245510324835777
1772725782736909300,0.775909423828125,-0.04657844081521034,0.031612250953912735,0.04550942778587341
1772725782746426400,0.78542626953125,-0.052076224237680435,0.057268574833869934,0.04367683082818985
1772725782755943700,0.794943603515625,-0.05451968312263489,0.0639880821108818,0.03695731982588768
1772725782765460700,0.804460693359375,-0.0539088174700737,0.05604684352874756,0.02412915788590908
1772725782774978000,0.81397802734375,-0.05696314200758934,0.03588830679655075,0.004581485874950886
1772725782784495000,0.8234951171875,-0.05940660089254379,-0.0001527161948615685,-0.015577051788568497
1772725782794012200,0.83301220703125,-0.05513054504990578,-0.02153298258781433,-0.03023780696094036
1772725782803529500,0.842529541015625,-0.04841103404760361,-0.02214384824037552,-0.03817904740571976
1772725782813046500,0.852046630859375,-0.04657844081521034,-0.016646064817905426,-0.04306596517562866
1772725782822563600,0.8615634765625,-0.04474584385752678,-0.020922118797898293,-0.04306596517562866
1772725782832081000,0.871080810546875,-0.04413498193025589,-0.023976443335413933,-0.035735588520765305
1772725782841598000,0.880597900390625,-0.036804601550102234,-0.011759147047996521,-0.02107483521103859
1772725782851115300,0.890115234375,-0.026419902220368385,0.007177661173045635,-0.00946840364485979
1772725782860632300,0.89963232421875,-0.02153298258781433,0.019394956529140472,-0.003970621153712273
1772725782870149400,0.9091494140625,-0.01908952370285988,0.018784092739224434,-0.003970621153712273
1772725782879666700,0.918666748046875,-0.014813470654189587,0.010842849500477314,-0.008246674202382565
1772725782889183700,0.928183837890625,-0.005650499369949102,0.003512472379952669,-0.008857538923621178
1772725782898700800,0.93770068359375,0.003512472379952669,-0.0032070400193333626,-0.003970621153712273
1772725782908218000,0.947218017578125,0.005345067009329796,0.001679878099821508,0.0027488914784044027
1772725782917735200,0.956735107421875,0.001679878099821508,0.004123337101191282,0.008246674202382565
1772725782927252200,0.966252197265625,-0.0025961752980947495,-0.005650499369949102,0.014966187067329884
1772725782936769500,0.97576953125,-0.0032070400193333626,-0.010537417605519295,0.022296564653515816
1772725782946286600,0.98528662109375,-0.0038179049734026194,-0.0038179049734026194,0.028405211865901947
1772725782955804000,0.994803955078125,-0.005650499369949102,0.004123337101191282,0.03329212963581085
1772725782965321000,1.004321044921875,-0.006872228812426329,0.015729768201708794,0.03695731982588768
1772725782974838300,1.01383837890625,-0.0062613640911877155,0.024281874299049377,0.038789913058280945
1772725782984355300,1.023355224609375,-0.005039634648710489,0.024281874299049377,0.04062250629067421
1772725782993872400,1.032872314453125,-0.0013744457392022014,0.024892739951610565,0.03817904740571976
1772725783003389400,1.042389404296875,-0.0013744457392022014,0.02367101050913334,0.028405211865901947
1772725783012906800,1.05190673828125,-0.0007635809597559273,0.006566796451807022,0.010079269297420979
1772725783022423800,1.061423828125,0.005955931730568409,-0.02825249545276165,-0.008857538923621178
1772725783031940900,1.07094091796875,0.011453714221715927,-0.052076224237680435,-0.023518294095993042
1772725783041458200,1.080458251953125,0.009621120058000088,-0.04718930274248123,-0.03145953640341759
1772725783050975200,1.089975341796875,0.003512472379952669,-0.026419902220368385,-0.03451386094093323
1772725783060492500,1.099492431640625,-0.0038179049734026194,-0.0001527161948615685,-0.03329212963581085
1772725783070009600,1.109009521484375,-0.011759147047996521,0.019394956529140472,-0.03023780696094036
1772725783079527000,1.11852685546875,-0.017256930470466614,0.02672533318400383,-0.03023780696094036
1772725783089044000,1.1280439453125,-0.0154243353754282,0.016340631991624832,-0.03023780696094036
1772725783098561000,1.13756103515625,-0.007483093533664942,-0.008704823441803455,-0.02779434807598591
1772725783108078000,1.147078125,-0.0019853105768561363,-0.014813470654189587,-0.019853105768561363
1772725783117595400,1.156595458984375,-0.0019853105768561363,-0.005039634648710489,-0.008246674202382565
1772725783127112400,1.166112548828125,-0.005650499369949102,0.009621120058000088,0.0015271619195118546
1772725783136629500,1.17562939453125,-0.01359174121171236,0.024892739951610565,0.011911863461136818
1772725783146146800,1.185146728515625,-0.017256930470466614,0.02916879393160343,0.016798781231045723
1772725783155664000,1.194663818359375,-0.01359174121171236,0.0206166859716177,0.01802051067352295
1772725783165181200,1.20418115234375,-0.005039634648710489,0.007177661173045635,0.015577051788568497
1772725783174698200,1.2136982421875,0.001679878099821508,0.002290742937475443,0.01435532234609127
1772725783184215600,1.223215576171875,0.004734201822429895,-0.0007635809597559273,0.01435532234609127
1772725783193732600,1.232732666015625,0.004734201822429895,-0.0007635809597559273,0.01740964688360691
1772725783203249700,1.242249755859375,0.005345067009329796,0.004734201822429895,0.02412915788590908
1772725783212767000,1.25176708984375,0.005955931730568409,0.01511890348047018,0.03145953640341759
1772725783222284000,1.261283935546875,0.004734201822429895,0.02000582218170166,0.032070402055978775
1772725783231801000,1.270801025390625,0.010842849500477314,0.015729768201708794,0.02718348242342472
1772725783241318100,1.280318115234375,0.018173227086663246,0.005345067009329796,0.016798781231045723
1772725783250835500,1.28983544921875,0.02916879393160343,-0.007483093533664942,0.003359756199643016
1772725783260352800,1.299352783203125,0.03711003437638283,-0.014202605932950974,-0.010690134018659592
1772725783269869800,1.308869873046875,0.04016435891389847,-0.016035201027989388,-0.024740023538470268
1772725783279387000,1.318386962890625,0.03894263133406639,-0.012980876490473747,-0.03329212963581085
1772725783288904200,1.327904296875,0.0334448479115963,-0.011759147047996521,-0.03940077871084213
1772725783298421200,1.337421142578125,0.02306014485657215,-0.0038179049734026194,-0.038789913058280945
1772725783307938300,1.346938232421875,0.016340631991624832,0.0102319847792387,-0.035735588520765305
1772725783317455600,1.35645556640625,0.01206457894295454,0.019394956529140472,-0.032681263983249664
1772725783326972700,1.36597265625,0.008399390615522861,0.016340631991624832,-0.032681263983249664
1772725783336489700,1.37548974609375,0.004734201822429895,0.004734201822429895,-0.03023780696094036
1772725783346007000,1.385007080078125,0.002290742937475443,0.001679878099821508,-0.03023780696094036
1772725783355524000,1.394524169921875,0.00045814859913662076,0.004123337101191282,-0.03145953640341759
1772725783365041400,1.40404150390625,0.00045814859913662076,-0.0062613640911877155,-0.032681263983249664
1772725783374558500,1.413558349609375,0.0010690133785828948,-0.016035201027989388,-0.025961752980947495
1772725783384075500,1.423075439453125,-0.0007635809597559273,-0.006872228812426329,-0.011911863461136818
1772725783393592800,1.4325927734375,-0.004428769461810589,0.012675444595515728,0.0009162971982732415
1772725783403110000,1.44210986328125,-0.009926552884280682,0.02367101050913334,0.010690134018659592
1772725783412627000,1.451626953125,-0.014813470654189587,0.022449281066656113,0.016798781231045723
1772725783422144300,1.461144287109375,-0.017867794260382652,0.0102319847792387,0.019242240116000175
1772725783431661300,1.470661376953125,-0.014813470654189587,-0.007483093533664942,0.01740964688360691
1772725783441178400,1.480178466796875,-0.006872228812426329,-0.01359174121171236,0.016187917441129684
1772725783450695700,1.48969580078125,-0.004428769461810589,-0.0019853105768561363,0.013744457624852657
1772725783460212700,1.499212646484375,-0.0032070400193333626,0.017562363296747208,0.015577051788568497
1772725783469730000,1.50872998046875,-0.0007635809597559273,0.034666575491428375,0.016798781231045723
1772725783479247000,1.5182470703125,-0.0007635809597559273,0.0334448479115963,0.01435532234609127
1772725783488764200,1.52776416015625,0.00045814859913662076,0.018784092739224434,0.0021380267571657896
1772725783498281500,1.537281494140625,0.001679878099821508,-0.004428769461810589,-0.018631376326084137
1772725783507798500,1.546798583984375,0.004734201822429895,-0.03375028073787689,-0.035735588520765305
1772725783517315600,1.556315673828125,0.010842849500477314,-0.05024362727999687,-0.04245510324835777
1772725783526833000,1.5658330078125,0.01511890348047018,-0.03497200831770897,-0.035124726593494415
1772725783536350000,1.575349853515625,0.014508038759231567,-0.005039634648710489,-0.016187917441129684
1772725783545867000,1.584866943359375,0.01206457894295454,0.017562363296747208,0.0027488914784044027
1772725783555384300,1.59438427734375,0.010842849500477314,0.031612250953912735,0.019242240116000175
1772725783564901400,1.6039013671875,0.0102319847792387,0.034666575491428375,0.025350889191031456
1772725783574418700,1.613418701171875,0.0102319847792387,0.024281874299049377,0.023518294095993042
1772725783583935700,1.622935791015625,0.0102319847792387,0.003512472379952669,0.013744457624852657
1772725783593452800,1.632452880859375,0.007177661173045635,-0.012980876490473747,0.005192350596189499
1772725783602970000,1.64197021484375,0.001679878099821508,-0.016035201027989388,-0.0027488914784044027
1772725783612487200,1.651487060546875,-0.0038179049734026194,-0.016035201027989388,-0.006414080038666725
1772725783622004200,1.661004150390625,-0.008704823441803455,-0.017256930470466614,-0.006414080038666725
1772725783631521500,1.670521484375,-0.011148282326757908,-0.006872228812426329,-0.0021380267571657896
1772725783641038600,1.68003857421875,-0.017256930470466614,0.008399390615522861,0.0009162971982732415
1772725783650555600,1.6895556640625,-0.02519817277789116,0.013286309316754341,0.0009162971982732415
1772725783660073000,1.699072998046875,-0.028863361105322838,0.005955931730568409,-0.0009162971982732415
1772725783669590000,1.708590087890625,-0.02764163166284561,0.0010690133785828948,-0.0027488914784044027
1772725783679107300,1.718107421875,-0.02764163166284561,-0.0001527161948615685,-0.003359756199643016
1772725783688624400,1.727624267578125,-0.02825249545276165,0.002290742937475443,-0.0021380267571657896
1772725783698141400,1.737141357421875,-0.02519817277789116,0.004734201822429895,0.0027488914784044027
1772725783707658800,1.74665869140625,-0.01908952370285988,0.009010255336761475,0.008857538923621178
1772725783717175800,1.75617578125,-0.009315688163042068,0.009621120058000088,0.011911863461136818
1772725783726692900,1.76569287109375,0.00045814859913662076,0.0010690133785828948,0.00946840364485979
1772725783736210200,1.775210205078125,0.004734201822429895,-0.008093958720564842,0.006414080038666725
1772725783745727200,1.784727294921875,0.004123337101191282,-0.0025961752980947495,0.003970621153712273
1772725783755244300,1.794244384765625,-0.0001527161948615685,0.005345067009329796,-0.0009162971982732415
1772725783764761600,1.80376171875,-0.0013744457392022014,-0.008704823441803455,-0.006414080038666725
1772725783774279000,1.81327880859375,0.001679878099821508,-0.02214384824037552,-0.011911863461136818
1772725783783796000,1.8227958984375,0.006566796451807022,-0.02153298258781433,-0.016798781231045723
1772725783793313000,1.83231298828125,0.007177661173045635,-0.008704823441803455,-0.021685699000954628
1772725783802830300,1.841830322265625,0.004123337101191282,-0.0032070400193333626,-0.024740023538470268
1772725783812347400,1.851347412109375,-0.0007635809597559273,-0.0038179049734026194,-0.023518294095993042
1772725783821864400,1.860864501953125,-0.0062613640911877155,0.004734201822429895,-0.01740964688360691
1772725783831381800,1.8703818359375,-0.012980876490473747,0.013286309316754341,-0.012522728182375431
1772725783840898800,1.87989892578125,-0.017256930470466614,0.0102319847792387,-0.011911863461136818
1772725783850415900,1.889415771484375,-0.016646064817905426,-0.0007635809597559273,-0.013133592903614044
1772725783859933200,1.89893310546875,-0.009315688163042068,-0.011759147047996521,-0.01435532234609127
1772725783869450200,1.9084501953125,-0.0019853105768561363,-0.009315688163042068,-0.011911863461136818
1772725783878967600,1.917967529296875,0.00045814859913662076,-0.0013744457392022014,-0.008857538923621178
1772725783888484600,1.927484619140625,0.00045814859913662076,0.002290742937475443,-0.007635809946805239
1772725783898001700,1.937001708984375,0.001679878099821508,0.001679878099821508,-0.003970621153712273
1772725783907519000,1.94651904296875,0.005955931730568409,-0.0032070400193333626,-0.000305432389723137
1772725783917036000,1.9560361328125,0.007177661173045635,-0.0019853105768561363,0.003970621153712273
1772725783926553000,1.965552978515625,0.009010255336761475,0.0010690133785828948,0.007024944759905338
1772725783936070400,1.9750703125,0.008399390615522861,-0.0032070400193333626,0.006414080038666725
1772725783945587500,1.98458740234375,0.012675444595515728,-0.009315688163042068,0.005192350596189499
1772725783955104500,1.9941044921875,0.017562363296747208,-0.009926552884280682,0.003970621153712273
1772725783964621800,2.003621826171875,0.021227551624178886,-0.009926552884280682,0.000305432389723137
1772725783974139000,2.013138916015625,0.021227551624178886,-0.014202605932950974,-0.0021380267571657896
1772725783983656200,2.02265625,0.019394956529140472,-0.011148282326757908,-0.0009162971982732415
1772725783993173200,2.03217333984375,0.017562363296747208,0.002290742937475443,0.003359756199643016
1772725784002690300,2.041690185546875,0.01695149764418602,0.013897174037992954,0.007024944759905338
1772725784012207600,2.05120751953125,0.01511890348047018,0.018784092739224434,0.007024944759905338
1772725784021724700,2.060724609375,0.012675444595515728,0.016340631991624832,0.0021380267571657896
1772725784031241700,2.07024169921875,0.010842849500477314,0.007177661173045635,-0.007024944759905338
1772725784040759000,2.079759033203125,0.0102319847792387,-0.009926552884280682,-0.014966187067329884
1772725784050276000,2.089276123046875,0.013897174037992954,-0.02764163166284561,-0.021685699000954628
1772725784059793200,2.098793212890625,0.016340631991624832,-0.03252854943275452,-0.025961752980947495
1772725784069310500,2.108310546875,0.01695149764418602,-0.02153298258781433,-0.0204639695584774
1772725784078827500,2.11782763671875,0.010842849500477314,0.003512472379952669,-0.013133592903614044
1772725784088344800,2.1273447265625,0.005345067009329796,0.018173227086663246,-0.005192350596189499
1772725784097862000,2.13686181640625,0.00045814859913662076,0.015729768201708794,0.0009162971982732415
1772725784107379000,2.14637890625,-0.0001527161948615685,0.005955931730568409,0.007024944759905338
1772725784116896300,2.155896240234375,-0.0007635809597559273,-0.005650499369949102,0.012522728182375431
1772725784126413300,2.165413330078125,-0.0032070400193333626,-0.008093958720564842,0.01802051067352295
1772725784135930400,2.174930419921875,-0.008704823441803455,-0.007483093533664942,0.022296564653515816
1772725784145447700,2.18444775390625,-0.012370011769235134,-0.005650499369949102,0.02718348242342472
1772725784154964700,2.19396484375,-0.012980876490473747,-0.0025961752980947495,0.0308486707508564
1772725784164481800,2.203481689453125,-0.012980876490473747,0.0010690133785828948,0.032070402055978775
1772725784173999000,2.2129990234375,-0.012980876490473747,0.01206457894295454,0.032070402055978775
1772725784183516200,2.22251611328125,-0.010537417605519295,0.027947064489126205,0.03390299528837204
1772725784193033500,2.232033447265625,-0.008704823441803455,0.03955349326133728,0.03695731982588768
1772725784202550500,2.241550537109375,-0.011759147047996521,0.03955349326133728,0.038789913058280945
1772725784212067800,2.25106787109375,-0.014813470654189587,0.0206166859716177,0.03451386094093323
1772725784221585000,2.2605849609375,-0.017867794260382652,-0.0032070400193333626,0.021685699000954628
1772725784231102000,2.27010205078125,-0.016035201027989388,-0.02519817277789116,0.00946840364485979
1772725784240619300,2.279619384765625,-0.014813470654189587,-0.03802633285522461,-0.000305432389723137
1772725784250136300,2.28913623046875,-0.014202605932950974,-0.03558287397027016,-0.005192350596189499
1772725784259653400,2.2986533203125,-0.016035201027989388,-0.014813470654189587,-0.0027488914784044027
1772725784269170400,2.30817041015625,-0.017867794260382652,0.007788525894284248,0.0027488914784044027
1772725784278687700,2.317687744140625,-0.0154243353754282,0.013286309316754341,0.007635809946805239
1772725784288205000,2.327205078125,-0.009926552884280682,0.004734201822429895,0.013133592903614044
1772725784297722000,2.33672216796875,-0.005039634648710489,0.005345067009329796,0.018631376326084137
1772725784307239200,2.3462392578125,-0.0038179049734026194,0.007177661173045635,0.01740964688360691
1772725784316756500,2.355756591796875,-0.004428769461810589,0.00045814859913662076,0.011911863461136818
1772725784326273500,2.3652734375,-0.0007635809597559273,-0.008704823441803455,0.004581485874950886
1772725784335790600,2.37479052734375,-0.0001527161948615685,-0.008704823441803455,-0.0015271619195118546
1772725784345308000,2.384307861328125,-0.004428769461810589,-0.0038179049734026194,-0.00946840364485979
1772725784354825000,2.393824951171875,-0.016646064817905426,-0.0025961752980947495,-0.018631376326084137
1772725784364342000,2.403342041015625,-0.02825249545276165,-0.008704823441803455,-0.02718348242342472
1772725784373859300,2.412859375,-0.03130681812763214,-0.02519817277789116,-0.0308486707508564
1772725784383376400,2.42237646484375,-0.030695954337716103,-0.039858926087617874,-0.032070402055978775
1772725784392893700,2.431893798828125,-0.030085090547800064,-0.04108065739274025,-0.026572618633508682
1772725784402410800,2.44141064453125,-0.03191768378019333,-0.023976443335413933,-0.016187917441129684
1772725784411927800,2.450927734375,-0.036193739622831345,0.011453714221715927,0.000305432389723137
1772725784421445000,2.460445068359375,-0.04169152304530144,0.04260781779885292,0.014966187067329884
1772725784430962200,2.469962158203125,-0.045967575162649155,0.0487164668738842,0.02107483521103859
1772725784440479200,2.479479248046875,-0.045967575162649155,0.030390523374080658,0.019242240116000175
1772725784449996500,2.48899658203125,-0.04108065739274025,0.005345067009329796,0.011300998739898205
1772725784459513600,2.498513671875,-0.03375028073787689,-0.017256930470466614,-0.000305432389723137
1772725784469030700,2.50803076171875,-0.023365577682852745,-0.03375028073787689,-0.013744457624852657
1772725784478548000,2.5175478515625,-0.010537417605519295,-0.0386371985077858,-0.029016077518463135
1772725784488065000,2.52706494140625,0.00045814859913662076,-0.04413498193025589,-0.041844237595796585
1772725784497582300,2.536582275390625,0.011453714221715927,-0.04230238497257233,-0.047952886670827866
1772725784507099400,2.546099365234375,0.011453714221715927,-0.02153298258781433,-0.044898562133312225
1772725784516616700,2.55561669921875,0.002290742937475443,-0.0019853105768561363,-0.038789913058280945
1772725784526133800,2.5651337890625,-0.008704823441803455,-0.0001527161948615685,-0.0308486707508564
1772725784535650800,2.57465087890625,-0.01359174121171236,-0.0032070400193333626,-0.0204639695584774
1772725784545168100,2.584168212890625,-0.014202605932950974,0.01206457894295454,-0.010079269297420979
1772725784554685200,2.593685302734375,-0.017256930470466614,0.018784092739224434,-0.003970621153712273
1772725784564202200,2.6032021484375,-0.01847865991294384,0.009621120058000088,-0.0021380267571657896
1772725784573719600,2.612719482421875,-0.014813470654189587,-0.0038179049734026194,-0.0015271619195118546
1772725784583236600,2.622236572265625,-0.009315688163042068,-0.012370011769235134,0.0009162971982732415
1772725784592753700,2.631753662109375,-0.008704823441803455,-0.01908952370285988,0.005803215317428112
1772725784602271000,2.64127099609375,-0.014202605932950974,-0.02519817277789116,0.011300998739898205
1772725784611788000,2.6507880859375,-0.020311253145337105,-0.014813470654189587,0.018631376326084137
1772725784621305300,2.660305419921875,-0.022754713892936707,-0.0007635809597559273,0.02412915788590908
1772725784630822400,2.669822509765625,-0.01908952370285988,0.007788525894284248,0.02718348242342472
1772725784640339500,2.67933935546875,-0.014813470654189587,0.013286309316754341,0.026572618633508682
1772725784649856800,2.688856689453125,-0.010537417605519295,0.011453714221715927,0.019242240116000175
1772725784659373800,2.698373779296875,-0.005650499369949102,-0.0007635809597559273,0.011911863461136818
1772725784668891000,2.707890869140625,-0.004428769461810589,-0.012370011769235134,0.004581485874950886
1772725784678408200,2.717408203125,-0.005039634648710489,-0.012980876490473747,0.0015271619195118546
1772725784687925200,2.72692529296875,-0.005039634648710489,-0.009926552884280682,-0.0021380267571657896
1772725784697442600,2.736442626953125,-0.0025961752980947495,-0.012370011769235134,-0.007024944759905338
1772725784706959600,2.745959716796875,0.007177661173045635,-0.010537417605519295,-0.010690134018659592
1772725784716476700,2.7554765625,0.015729768201708794,-0.0025961752980947495,-0.013133592903614044
1772725784725994000,2.764993896484375,0.0206166859716177,0.002901607658714056,-0.018631376326084137
1772725784735511000,2.774510986328125,0.02306014485657215,-0.0019853105768561363,-0.025961752980947495
1772725784745028000,2.784028076171875,0.02611446939408779,-0.01359174121171236,-0.0308486707508564
1772725784754545400,2.79354541015625,0.028557928279042244,-0.017256930470466614,-0.03145953640341759
1772725784764062500,2.8030625,0.030390523374080658,-0.012980876490473747,-0.029626941308379173
1772725784773579500,2.81257958984375,0.02916879393160343,-0.008093958720564842,-0.024740023538470268
1772725784783096800,2.822096923828125,0.027336198836565018,-0.008704823441803455,-0.021685699000954628
1772725784792614000,2.83161376953125,0.02367101050913334,-0.012370011769235134,-0.019853105768561363
1772725784802131200,2.841131103515625,0.01695149764418602,-0.022754713892936707,-0.018631376326084137
1772725784811648300,2.850648193359375,0.010842849500477314,-0.02458730712532997,-0.01435532234609127
1772725784821165600,2.86016552734375,0.002290742937475443,-0.016646064817905426,-0.008246674202382565
1772725784830682600,2.8696826171875,-0.0032070400193333626,-0.005039634648710489,-0.0021380267571657896
1772725784840199700,2.87919970703125,-0.004428769461810589,0.005955931730568409,0.004581485874950886
1772725784849717000,2.888717041015625,-0.0007635809597559273,0.010842849500477314,0.00946840364485979
1772725784859234000,2.898234130859375,0.001679878099821508,0.009621120058000088,0.011300998739898205
1772725784868751000,2.907751220703125,0.0010690133785828948,0.002901607658714056,0.011300998739898205
1772725784878268400,2.917268310546875,-0.0019853105768561363,-0.008704823441803455,0.010690134018659592
1772725784887785500,2.926785400390625,-0.005039634648710489,-0.019700389355421066,0.006414080038666725
1772725784897302500,2.936302490234375,-0.007483093533664942,-0.023976443335413933,-0.000305432389723137
1772725784906819800,2.94581982421875,-0.008093958720564842,-0.0154243353754282,-0.007024944759905338
1772725784916337000,2.9553369140625,-0.0062613640911877155,-0.004428769461810589,-0.011300998739898205
1772725784925854200,2.964854248046875,-0.0007635809597559273,0.004734201822429895,-0.011911863461136818
1772725784935371300,2.974371337890625,0.005345067009329796,0.009010255336761475,-0.011300998739898205
1772725784944888300,2.983888427734375,0.005345067009329796,0.013286309316754341,-0.016187917441129684
1772725784954405600,2.993405517578125,-0.0013744457392022014,0.007177661173045635,-0.025961752980947495
1772725784963922700,3.002922607421875,-0.006872228812426329,-0.008093958720564842,-0.0412333719432354
1772725784973439700,3.012439697265625,-0.008093958720564842,-0.01908952370285988,-0.05222893878817558
1772725784982957000,3.02195703125,-0.005039634648710489,-0.02764163166284561,-0.05711585655808449
1772725784992474000,3.03147412109375,0.00045814859913662076,-0.03130681812763214,-0.05406153202056885
1772725785001991200,3.0409912109375,0.007788525894284248,-0.03130681812763214,-0.04550942778587341
1772725785011508500,3.050508544921875,0.014508038759231567,-0.03191768378019333,-0.03329212963581085
1772725785021025500,3.060025634765625,0.016340631991624832,-0.02825249545276165,-0.019242240116000175
1772725785030542800,3.06954296875,0.02000582218170166,-0.01908952370285988,-0.004581485874950886
1772725785040060000,3.079059814453125,0.0206166859716177,-0.0007635809597559273,0.013133592903614044
1772725785049577200,3.0885771484375,0.015729768201708794,0.02367101050913334,0.03023780696094036
1772725785059094300,3.09809423828125,0.009010255336761475,0.041386090219020844,0.04062250629067421
1772725785068611300,3.107611328125,0.004734201822429895,0.04199695214629173,0.04428769648075104
1772725785078128600,3.117128662109375,0.002290742937475443,0.027336198836565018,0.0412333719432354
1772725785087645700,3.126645751953125,0.001679878099821508,0.003512472379952669,0.035735588520765305
1772725785097162800,3.136162841796875,-0.0001527161948615685,-0.0154243353754282,0.03145953640341759
1772725785106680000,3.14568017578125,-0.0019853105768561363,-0.017867794260382652,0.028405211865901947
1772725785116197000,3.155197021484375,-0.005650499369949102,-0.01847865991294384,0.022907428443431854
1772725785125714400,3.16471435546875,-0.004428769461810589,-0.01847865991294384,0.018631376326084137
1772725785135231500,3.1742314453125,0.004123337101191282,-0.010537417605519295,0.01740964688360691
1772725785144748500,3.18374853515625,0.010842849500477314,0.008399390615522861,0.019242240116000175
1772725785154265900,3.193265869140625,0.013286309316754341,0.021838415414094925,0.021685699000954628
1772725785163783000,3.202782958984375,0.014508038759231567,0.02611446939408779,0.0204639695584774
1772725785173300000,3.212300048828125,0.015729768201708794,0.024892739951610565,0.016798781231045723
1772725785182817300,3.2218173828125,0.0206166859716177,0.01695149764418602,0.006414080038666725
1772725785192334300,3.231334228515625,0.02611446939408779,-0.005650499369949102,-0.006414080038666725
1772725785201851400,3.240851318359375,0.031001387163996696,-0.029474224895238876,-0.01802051067352295
1772725785211368700,3.25036865234375,0.0334448479115963,-0.042913250625133514,-0.02412915788590908
1772725785220885800,3.2598857421875,0.03283398225903511,-0.042913250625133514,-0.026572618633508682
1772725785230403000,3.269403076171875,0.02916879393160343,-0.02825249545276165,-0.025961752980947495
1772725785239920000,3.278920166015625,0.025503603741526604,-0.011148282326757908,-0.0204639695584774
1772725785249437400,3.2884375,0.025503603741526604,-0.0013744457392022014,-0.010690134018659592
1772725785258954500,3.29795458984375,0.025503603741526604,0.004123337101191282,0.0021380267571657896
1772725785268471600,3.307471435546875,0.021838415414094925,0.007177661173045635,0.015577051788568497
1772725785277988900,3.31698876953125,0.016340631991624832,0.003512472379952669,0.02718348242342472
1772725785287506000,3.326505859375,0.009621120058000088,0.001679878099821508,0.03634645417332649
1772725785297023000,3.33602294921875,0.003512472379952669,0.008399390615522861,0.0412333719432354
1772725785306540300,3.345540283203125,-0.005650499369949102,0.01511890348047018,0.03695731982588768
1772725785316057300,3.355057373046875,-0.017867794260382652,0.011453714221715927,0.02718348242342472
1772725785325574400,3.364574462890625,-0.023365577682852745,-0.0019853105768561363,0.016798781231045723
1772725785335091700,3.374091796875,-0.026419902220368385,-0.02214384824037552,0.008246674202382565
1772725785344608800,3.38360888671875,-0.025809036567807198,-0.03375028073787689,0.005803215317428112
1772725785354126000,3.3931259765625,-0.023365577682852745,-0.03191768378019333,0.011911863461136818
1772725785363643100,3.40264306640625,-0.016646064817905426,-0.01359174121171236,0.024740023538470268
1772725785373160200,3.41216015625,-0.01359174121171236,0.007177661173045635,0.03817904740571976
1772725785382677500,3.421677490234375,-0.012980876490473747,0.01511890348047018,0.04367683082818985
1772725785392194600,3.431194580078125,-0.012980876490473747,0.015729768201708794,0.04428769648075104
1772725785401711600,3.440711669921875,-0.010537417605519295,0.004734201822429895,0.04001164436340332
1772725785411229000,3.45022900390625,-0.007483093533664942,-0.008704823441803455,0.03329212963581085
1772725785420746000,3.45974609375,-0.0019853105768561363,-0.019700389355421066,0.023518294095993042
1772725785430263000,3.469262939453125,0.004123337101191282,-0.028863361105322838,0.013133592903614044
1772725785439780400,3.4787802734375,0.011453714221715927,-0.03436114266514778,0.005192350596189499
1772725785449297700,3.488297607421875,0.018784092739224434,-0.033139415085315704,0.0021380267571657896
1772725785458814700,3.497814697265625,0.024892739951610565,-0.02825249545276165,0.003970621153712273
1772725785468331800,3.507331787109375,0.02611446939408779,-0.017256930470466614,0.010079269297420979
1772725785477849000,3.51684912109375,0.02000582218170166,-0.0032070400193333626,0.018631376326084137
1772725785487366100,3.5263662109375,0.009010255336761475,0.006566796451807022,0.026572618633508682
1772725785496883200,3.53588330078125,-0.0019853105768561363,0.007177661173045635,0.03145953640341759
1772725785506400500,3.545400390625,-0.009315688163042068,0.004123337101191282,0.03451386094093323
1772725785515917600,3.55491748046875,-0.012370011769235134,-0.0025961752980947495,0.032070402055978775
1772725785525434600,3.5644345703125,-0.011148282326757908,-0.0154243353754282,0.029016077518463135
1772725785534952000,3.573951904296875,-0.0038179049734026194,-0.023976443335413933,0.028405211865901947
1772725785544469000,3.583468994140625,0.002901607658714056,-0.023976443335413933,0.02718348242342472
1772725785553986300,3.592986328125,0.002290742937475443,-0.020922118797898293,0.026572618633508682
1772725785563503400,3.60250341796875,-0.005039634648710489,-0.01908952370285988,0.029626941308379173
1772725785573020400,3.6120205078125,-0.016035201027989388,-0.009926552884280682,0.04062250629067421
1772725785582537700,3.621537841796875,-0.030695954337716103,0.010842849500477314,0.051618073135614395
1772725785592054800,3.6310546875,-0.04413498193025589,0.025503603741526604,0.0565049909055233
1772725785601571800,3.64057177734375,-0.05024362727999687,0.025503603741526604,0.05222893878817558
1772725785611089200,3.650089111328125,-0.04230238497257233,0.013286309316754341,0.04550942778587341
1772725785620606200,3.659606201171875,-0.023365577682852745,0.004123337101191282,0.03940077871084213
1772725785630123300,3.669123291015625,-0.0025961752980947495,0.002290742937475443,0.035124726593494415
1772725785639640600,3.678640625,0.007788525894284248,0.0010690133785828948,0.02107483521103859
1772725785649157600,3.68815771484375,0.005955931730568409,-0.011759147047996521,0.0015271619195118546
1772725785658675000,3.697675048828125,-0.0032070400193333626,-0.02825249545276165,-0.021685699000954628
1772725785668192000,3.70719189453125,-0.008704823441803455,-0.04535670951008797,-0.044898562133312225
1772725785677709300,3.716709228515625,-0.011148282326757908,-0.05451968312263489,-0.05711585655808449
1772725785687226400,3.726226318359375,-0.011148282326757908,-0.05513054504990578,-0.05894844979047775
1772725785696743400,3.735743408203125,-0.005650499369949102,-0.05146535858511925,-0.05039634555578232
1772725785706260700,3.7452607421875,0.001679878099821508,-0.042913250625133514,-0.032681263983249664
1772725785715777800,3.75477783203125,0.010842849500477314,-0.01908952370285988,-0.010079269297420979
1772725785725294800,3.764294921875,0.01695149764418602,0.016340631991624832,0.012522728182375431
1772725785734812200,3.773812255859375,0.016340631991624832,0.041386090219020844,0.028405211865901947
1772725785744329200,3.7833291015625,0.013286309316754341,0.04932733252644539,0.03756818547844887
1772725785753846300,3.79284619140625,0.011453714221715927,0.03711003437638283,0.038789913058280945
1772725785763363600,3.802363525390625,0.0102319847792387,0.013897174037992954,0.03390299528837204
1772725785772880600,3.811880615234375,0.009010255336761475,-0.011759147047996521,0.029016077518463135
1772725785782398000,3.82139794921875,0.010842849500477314,-0.030695954337716103,0.029016077518463135
1772725785791915000,3.8309150390625,0.01511890348047018,-0.03802633285522461,0.032681263983249664
1772725785801432300,3.840432373046875,0.018173227086663246,-0.03375028073787689,0.03695731982588768
1772725785810949400,3.849949462890625,0.018784092739224434,-0.02153298258781433,0.041844237595796585
1772725785820466400,3.859466552734375,0.01511890348047018,-0.0062613640911877155,0.048563748598098755
1772725785829983700,3.868983642578125,0.013897174037992954,0.006566796451807022,0.05406153202056885
1772725785839500800,3.878500732421875,0.01206457894295454,0.022449281066656113,0.061391908675432205
1772725785849017900,3.888017822265625,0.006566796451807022,0.043829549103975296,0.06750056147575378
1772725785858535200,3.89753515625,-0.004428769461810589,0.05482511222362518,0.060781046748161316
1772725785868052200,3.90705224609375,-0.010537417605519295,0.04505127668380737,0.04550942778587341
1772725785877569500,3.916569580078125,-0.005039634648710489,0.018784092739224434,0.025961752980947495
1772725785887086600,3.926086669921875,0.007788525894284248,-0.005039634648710489,0.0015271619195118546
1772725785896603600,3.935603759765625,0.02000582218170166,-0.028863361105322838,-0.023518294095993042
1772725785906121000,3.945120849609375,0.02916879393160343,-0.052687086164951324,-0.04367683082818985
1772725785915638000,3.954637939453125,0.034666575491428375,-0.06062832847237587,-0.054672397673130035
1772725785925155000,3.964155029296875,0.03649916872382164,-0.04841103404760361,-0.05833758786320686
1772725785934672400,3.97367236328125,0.03405570983886719,-0.023976443335413933,-0.05283980444073677
1772725785944189400,3.983189453125,0.03222311660647392,-0.008704823441803455,-0.03940077871084213
1772725785953706500,3.99270654296875,0.02672533318400383,0.005955931730568409,-0.019242240116000175
1772725785963223800,4.002223876953125,0.018784092739224434,0.027947064489126205,0.003970621153712273
1772725785972740900,4.011740966796875,0.009621120058000088,0.046883873641490936,0.02107483521103859
1772725785982258200,4.021258056640625,0.007177661173045635,0.04810560122132301,0.03145953640341759
1772725785991775200,4.030775146484375,0.010842849500477314,0.027336198836565018,0.03329212963581085
1772725786001292500,4.04029248046875,0.01511890348047018,-0.0013744457392022014,0.03329212963581085
1772725786010809600,4.0498095703125,0.016340631991624832,-0.023976443335413933,0.03390299528837204
1772725786020326700,4.05932666015625,0.01695149764418602,-0.03130681812763214,0.038789913058280945
1772725786029844000,4.068843994140625,0.013897174037992954,-0.0154243353754282,0.04917461425065994
1772725786039361000,4.078361083984375,0.007788525894284248,0.009621120058000088,0.05894844979047775
1772725786048878000,4.087878173828125,0.003512472379952669,0.025503603741526604,0.06383536756038666
1772725786058395100,4.09739501953125,0.00045814859913662076,0.02977965772151947,0.06200277432799339
1772725786067912400,4.106912353515625,-0.004428769461810589,0.02367101050913334,0.05406153202056885
1772725786077429500,4.116429443359375,-0.007483093533664942,0.007177661173045635,0.041844237595796585
1772725786086946800,4.12594677734375,-0.008093958720564842,-0.011148282326757908,0.032070402055978775
1772725786096464000,4.1354638671875,-0.008093958720564842,-0.023365577682852745,0.022907428443431854
1772725786105981200,4.144981201171875,-0.006872228812426329,-0.02214384824037552,0.015577051788568497
1772725786115498200,4.154498291015625,-0.005039634648710489,-0.012370011769235134,0.011300998739898205
1772725786125015600,4.164015625,-0.004428769461810589,0.004123337101191282,0.007635809946805239
1772725786134532600,4.17353271484375,-0.005039634648710489,0.022449281066656113,-0.000305432389723137
1772725786144049700,4.183049560546875,-0.0062613640911877155,0.025503603741526604,-0.013744457624852657
1772725786153567000,4.19256689453125,-0.0032070400193333626,0.005345067009329796,-0.029626941308379173
1772725786163084000,4.202083984375,0.005345067009329796,-0.02214384824037552,-0.03940077871084213
1772725786172601000,4.21160107421875,0.01206457894295454,-0.03375028073787689,-0.04306596517562866
1772725786182118400,4.221118408203125,0.013897174037992954,-0.025809036567807198,-0.04367683082818985
1772725786191635500,4.230635498046875,0.011453714221715927,-0.01359174121171236,-0.0412333719432354
1772725786201152800,4.24015283203125,0.013286309316754341,-0.005650499369949102,-0.035735588520765305
1772725786210669800,4.249669921875,0.017562363296747208,-0.0019853105768561363,-0.029016077518463135
1772725786220187100,4.259187255859375,0.015729768201708794,-0.0001527161948615685,-0.023518294095993042
1772725786229704200,4.2687041015625,0.008399390615522861,0.002901607658714056,-0.019853105768561363
1772725786239221200,4.27822119140625,0.00045814859913662076,-0.0062613640911877155,-0.014966187067329884
1772725786248738600,4.287738525390625,-0.007483093533664942,-0.020311253145337105,-0.006414080038666725
1772725786258255600,4.297255615234375,-0.014813470654189587,-0.016646064817905426,0.004581485874950886
1772725786267772700,4.306772705078125,-0.022754713892936707,-0.0001527161948615685,0.016187917441129684
1772725786277290000,4.3162900390625,-0.022754713892936707,0.01511890348047018,0.02412915788590908
1772725786286807000,4.32580712890625,-0.0154243353754282,0.025503603741526604,0.03145953640341759
1772725786296324000,4.335323974609375,-0.007483093533664942,0.031612250953912735,0.03451386094093323
1772725786305841400,4.34484130859375,-0.0019853105768561363,0.02611446939408779,0.0308486707508564
1772725786315358500,4.3543583984375,0.003512472379952669,0.01206457894295454,0.016187917441129684
1772725786324875800,4.363875732421875,0.005345067009329796,-0.0038179049734026194,-0.005803215317428112
1772725786334392800,4.373392822265625,0.006566796451807022,-0.02214384824037552,-0.029626941308379173
1772725786343910000,4.382909912109375,0.006566796451807022,-0.04841103404760361,-0.04734202101826668
1772725786353427200,4.39242724609375,0.007177661173045635,-0.06856957077980042,-0.05283980444073677
1772725786362944300,4.4019443359375,0.007788525894284248,-0.06368265300989151,-0.04367683082818985
1772725786372461300,4.41146142578125,0.009010255336761475,-0.036804601550102234,-0.024740023538470268
1772725786381978600,4.420978515625,0.010842849500477314,-0.005650499369949102,-0.005192350596189499
1772725786391495700,4.43049560546875,0.013286309316754341,0.02306014485657215,0.007635809946805239
1772725786401013000,4.440012939453125,0.013286309316754341,0.04505127668380737,0.013133592903614044
1772725786410530000,4.449530029296875,0.009010255336761475,0.051159925758838654,0.011911863461136818
1772725786420047000,4.459047119140625,-0.0007635809597559273,0.04505127668380737,0.007024944759905338
1772725786429564400,4.468564453125,-0.009315688163042068,0.031612250953912735,0.000305432389723137
1772725786439081500,4.47808154296875,-0.011148282326757908,0.007788525894284248,-0.005803215317428112
1772725786448598800,4.487598876953125,-0.009926552884280682,-0.0154243353754282,-0.008857538923621178
1772725786458115800,4.49711572265625,-0.005039634648710489,-0.03436114266514778,-0.004581485874950886
1772725786467633000,4.5066328125,0.002901607658714056,-0.03497200831770897,0.006414080038666725
1772725786477150200,4.516150146484375,0.008399390615522861,-0.017256930470466614,0.01435532234609127
1772725786486667300,4.525667236328125,0.005345067009329796,0.008399390615522861,0.01435532234609127
1772725786496184300,4.535184326171875,-0.0013744457392022014,0.02367101050913334,0.010690134018659592
1772725786505701600,4.54470166015625,-0.0032070400193333626,0.025503603741526604,0.003359756199643016
1772725786515218700,4.55421875,-0.0007635809597559273,0.015729768201708794,-0.004581485874950886
1772725786524735700,4.56373583984375,0.002901607658714056,-0.0001527161948615685,-0.011300998739898205
1772725786534253000,4.573253173828125,0.007788525894284248,-0.016646064817905426,-0.014966187067329884
1772725786543770400,4.582770263671875,0.013897174037992954,-0.017867794260382652,-0.011911863461136818
1772725786553287400,4.592287353515625,0.018173227086663246,-0.010537417605519295,-0.007024944759905338
1772725786562804500,4.601804443359375,0.021227551624178886,-0.0038179049734026194,-0.0027488914784044027
1772725786572321800,4.61132177734375,0.02916879393160343,0.004734201822429895,-0.000305432389723137
1772725786581838800,4.6208388671875,0.034666575491428375,0.015729768201708794,0.003359756199643016
1772725786591356000,4.63035595703125,0.03711003437638283,0.015729768201708794,0.007024944759905338
1772725786600873200,4.639873291015625,0.034666575491428375,0.006566796451807022,0.008857538923621178
1772725786610390300,4.649390380859375,0.031001387163996696,0.00045814859913662076,0.008857538923621178
1772725786619907300,4.6589072265625,0.02977965772151947,0.001679878099821508,0.007024944759905338
1772725786629424600,4.668424560546875,0.02916879393160343,0.006566796451807022,0.005803215317428112
1772725786638941700,4.677941650390625,0.02977965772151947,0.010842849500477314,0.007635809946805239
1772725786648459000,4.687458984375,0.02672533318400383,0.0206166859716177,0.010079269297420979
1772725786657976000,4.69697607421875,0.018173227086663246,0.034666575491428375,0.00946840364485979
1772725786667493400,4.706493408203125,0.009621120058000088,0.04016435891389847,0.005192350596189499
1772725786677010400,4.716010498046875,0.002901607658714056,0.03222311660647392,-0.0027488914784044027
1772725786686527500,4.725527587890625,0.001679878099821508,0.019394956529140472,-0.00946840364485979
1772725786696044800,4.735044921875,0.0010690133785828948,0.007177661173045635,-0.013744457624852657
1772725786705561900,4.744561767578125,-0.0038179049734026194,0.007788525894284248,-0.019853105768561363
1772725786715079000,4.754078857421875,-0.0062613640911877155,0.003512472379952669,-0.026572618633508682
1772725786724596200,4.76359619140625,-0.007483093533664942,0.0010690133785828948,-0.032070402055978775
1772725786734113300,4.77311328125,-0.007483093533664942,0.007788525894284248,-0.03634645417332649
1772725786743630300,4.78263037109375,-0.006872228812426329,0.0102319847792387,-0.04062250629067421
1772725786753147600,4.792147705078125,-0.0013744457392022014,-0.012370011769235134,-0.04306596517562866
1772725786762664700,4.801664794921875,0.0102319847792387,-0.029474224895238876,-0.03390299528837204
1772725786772182000,4.81118212890625,0.01511890348047018,-0.01908952370285988,-0.01740964688360691
1772725786781699000,4.820698974609375,0.013286309316754341,0.002290742937475443,0.0027488914784044027
1772725786791216400,4.83021630859375,0.009621120058000088,0.021838415414094925,0.021685699000954628
1772725786800733400,4.8397333984375,0.009010255336761475,0.03222311660647392,0.03390299528837204
1772725786810250500,4.84925048828125,0.010842849500477314,0.03527744114398956,0.04428769648075104
1772725786819767800,4.858767822265625,0.013897174037992954,0.027336198836565018,0.0461202897131443
1772725786829284900,4.868284912109375,0.01511890348047018,0.011453714221715927,0.0412333719432354
1772725786838802000,4.877802001953125,0.016340631991624832,-0.0001527161948615685,0.032681263983249664
1772725786848319200,4.8873193359375,0.016340631991624832,-0.007483093533664942,0.022907428443431854
1772725786857836300,4.896836181640625,0.016340631991624832,-0.02214384824037552,0.013744457624852657
1772725786867353600,4.906353515625,0.016340631991624832,-0.03436114266514778,0.010079269297420979
1772725786876870700,4.91587060546875,0.01511890348047018,-0.025809036567807198,0.016798781231045723
1772725786886388000,4.925387939453125,0.010842849500477314,-0.0062613640911877155,0.02779434807598591
1772725786895905000,4.934905029296875,0.003512472379952669,0.01206457894295454,0.035735588520765305
1772725786905422000,4.944422119140625,-0.004428769461810589,0.024281874299049377,0.03817904740571976
1772725786914939400,4.953939453125,-0.011148282326757908,0.030390523374080658,0.032681263983249664
1772725786924456400,4.96345654296875,-0.016646064817905426,0.022449281066656113,0.016187917441129684
1772725786933973500,4.972973388671875,-0.017867794260382652,0.008399390615522861,-0.004581485874950886
1772725786943490800,4.98249072265625,-0.014202605932950974,0.001679878099821508,-0.022907428443431854
1772725786953007900,4.9920078125,-0.008704823441803455,0.001679878099821508,-0.03756818547844887
1772725786962525000,5.00152490234375,-0.0038179049734026194,-0.0013744457392022014,-0.048563748598098755
1772725786972042200,5.011042236328125,-0.0038179049734026194,-0.0062613640911877155,-0.051618073135614395
1772725786981559300,5.020559326171875,-0.006872228812426329,-0.010537417605519295,-0.05100720748305321
1772725786991076600,5.03007666015625,-0.009926552884280682,-0.020922118797898293,-0.047952886670827866
1772725787000593700,5.03959375,-0.006872228812426329,-0.025809036567807198,-0.04550942778587341
1772725787010111000,5.049111083984375,-0.0019853105768561363,-0.023976443335413933,-0.04245510324835777
1772725787019628000,5.0586279296875,0.003512472379952669,-0.020922118797898293,-0.03451386094093323
1772725787029145000,5.06814501953125,0.005345067009329796,-0.01847865991294384,-0.01802051067352295
1772725787038662400,5.077662353515625,0.009010255336761475,-0.01359174121171236,0.0021380267571657896
1772725787048179500,5.087179443359375,0.01206457894295454,-0.0032070400193333626,0.023518294095993042
1772725787057696500,5.096696533203125,0.012675444595515728,0.01511890348047018,0.04245510324835777
1772725787067213800,5.1062138671875,0.010842849500477314,0.030390523374080658,0.05589412897825241
1772725787076731000,5.11573095703125,0.007177661173045635,0.03222311660647392,0.0565049909055233
1772725787086248000,5.125248046875,0.00045814859913662076,0.02000582218170166,0.0461202897131443
1772725787095765200,5.13476513671875,-0.005650499369949102,-0.0007635809597559273,0.026572618633508682
1772725787105282600,5.144282470703125,-0.005650499369949102,-0.019700389355421066,0.005803215317428112
1772725787114799600,5.153799560546875,-0.0013744457392022014,-0.03802633285522461,-0.014966187067329884
1772725787124316700,5.163316650390625,-0.0007635809597559273,-0.04230238497257233,-0.03023780696094036
1772725787133834000,5.172833984375,-0.005039634648710489,-0.02825249545276165,-0.03634645417332649
1772725787143351000,5.18235107421875,-0.01359174121171236,-0.012980876490473747,-0.03695731982588768
1772725787152868000,5.1918681640625,-0.025809036567807198,-0.0001527161948615685,-0.03451386094093323
1772725787162385400,5.201385498046875,-0.0386371985077858,0.010842849500477314,-0.0308486707508564
1772725787171902500,5.21090234375,-0.04718930274248123,0.02367101050913334,-0.023518294095993042
1772725787181419500,5.22041943359375,-0.04780016839504242,0.027947064489126205,-0.01740964688360691
1772725787190936800,5.229936767578125,-0.04413498193025589,0.018784092739224434,-0.012522728182375431
1772725787200454000,5.239453857421875,-0.0386371985077858,0.0010690133785828948,-0.013744457624852657
1772725787209971200,5.24897119140625,-0.03191768378019333,-0.019700389355421066,-0.016187917441129684
1772725787219488300,5.25848828125,-0.02458730712532997,-0.03130681812763214,-0.013744457624852657
1772725787229005600,5.268005615234375,-0.016035201027989388,-0.02764163166284561,-0.008857538923621178
1772725787238522600,5.277522705078125,-0.011148282326757908,-0.0154243353754282,-0.003359756199643016
1772725787248039700,5.287039794921875,-0.005039634648710489,-0.0038179049734026194,0.0021380267571657896
1772725787257557000,5.296556884765625,-0.0013744457392022014,0.005955931730568409,0.003359756199643016
1772725787267074000,5.306073974609375,0.001679878099821508,0.004734201822429895,0.000305432389723137
1772725787276591000,5.315591064453125,0.003512472379952669,-0.005039634648710489,-0.0021380267571657896
1772725787286108400,5.3251083984375,0.006566796451807022,-0.016035201027989388,-0.000305432389723137
1772725787295625500,5.33462548828125,0.011453714221715927,-0.025809036567807198,0.005192350596189499
1772725787305142500,5.344142578125,0.013286309316754341,-0.028863361105322838,0.019242240116000175
1772725787314659800,5.353659912109375,0.009010255336761475,-0.009926552884280682,0.035735588520765305
1772725787324177000,5.363177001953125,0.004123337101191282,0.02000582218170166,0.05222893878817558
1772725787333694200,5.372694091796875,0.0010690133785828948,0.04566214233636856,0.05955931544303894
1772725787343211300,5.382211181640625,-0.0001527161948615685,0.053603384643793106,0.05589412897825241
1772725787352728600,5.391728515625,0.00045814859913662076,0.044440411031246185,0.04306596517562866
1772725787362245600,5.40124560546875,0.00045814859913662076,0.02672533318400383,0.024740023538470268
1772725787371762700,5.4107626953125,-0.0001527161948615685,0.001679878099821508,-0.000305432389723137
1772725787381280000,5.420280029296875,-0.0007635809597559273,-0.027030766010284424,-0.024740023538470268
1772725787390797000,5.429797119140625,0.001679878099821508,-0.049021899700164795,-0.04306596517562866
1772725787400314000,5.439314208984375,0.005955931730568409,-0.05696314200758934,-0.051618073135614395
1772725787409831400,5.44883154296875,0.007177661173045635,-0.05513054504990578,-0.05345066636800766
1772725787419348500,5.458348388671875,0.007177661173045635,-0.0435241162776947,-0.048563748598098755
1772725787428865500,5.467865478515625,0.003512472379952669,-0.017256930470466614,-0.03817904740571976
1772725787438382800,5.4773828125,0.0010690133785828948,0.007788525894284248,-0.025350889191031456
1772725787447900200,5.486900146484375,0.00045814859913662076,0.013897174037992954,-0.012522728182375431
1772725787457417200,5.496417236328125,0.004734201822429895,0.006566796451807022,0.0015271619195118546
1772725787466934300,5.505934326171875,0.0102319847792387,-0.0032070400193333626,0.014966187067329884
1772725787476451600,5.51545166015625,0.01511890348047018,-0.0154243353754282,0.025350889191031456
1772725787485968600,5.52496875,0.022449281066656113,-0.023976443335413933,0.028405211865901947
1772725787495485700,5.534485595703125,0.024281874299049377,-0.01908952370285988,0.02779434807598591
1772725787505003000,5.5440029296875,0.024892739951610565,-0.017256930470466614,0.028405211865901947
1772725787514520000,5.55352001953125,0.022449281066656113,-0.01359174121171236,0.032070402055978775
1772725787524037000,5.563037109375,0.018784092739224434,0.00045814859913662076,0.04062250629067421
1772725787533554400,5.572554443359375,0.013286309316754341,0.018173227086663246,0.04734202101826668
1772725787543071500,5.582071533203125,0.008399390615522861,0.02672533318400383,0.04734202101826668
1772725787552588800,5.5915888671875,-0.0007635809597559273,0.022449281066656113,0.04734202101826668
1772725787562105900,5.60110595703125,-0.010537417605519295,0.021227551624178886,0.0461202897131443
1772725787571623200,5.610623046875,-0.016646064817905426,0.018784092739224434,0.04062250629067421
1772725787581140200,5.62014013671875,-0.020311253145337105,0.009010255336761475,0.02779434807598591
1772725787590657300,5.6296572265625,-0.01847865991294384,-0.005650499369949102,0.014966187067329884
1772725787600174600,5.639174560546875,-0.011148282326757908,-0.016035201027989388,0.007024944759905338
1772725787609691600,5.648691650390625,-0.0013744457392022014,-0.0154243353754282,0.007024944759905338
1772725787619209000,5.658208984375,0.002901607658714056,-0.008093958720564842,0.007635809946805239
1772725787628726000,5.66772607421875,-0.0001527161948615685,0.00045814859913662076,0.007635809946805239
1772725787638243000,5.6772431640625,-0.0038179049734026194,0.001679878099821508,0.000305432389723137
1772725787647760400,5.686760498046875,-0.0062613640911877155,-0.005039634648710489,-0.011300998739898205
1772725787657277400,5.69627734375,-0.0062613640911877155,-0.016035201027989388,-0.021685699000954628
1772725787666794500,5.70579443359375,-0.0038179049734026194,-0.027030766010284424,-0.022296564653515816
1772725787676311800,5.715311767578125,0.0010690133785828948,-0.023976443335413933,-0.011300998739898205
1772725787685829000,5.7248291015625,0.007788525894284248,-0.004428769461810589,0.0027488914784044027
1772725787695346200,5.73434619140625,0.01206457894295454,0.018784092739224434,0.011300998739898205
1772725787704863200,5.74386328125,0.018784092739224434,0.02367101050913334,0.010079269297420979
1772725787714380500,5.753380615234375,0.025503603741526604,0.005955931730568409,0.003970621153712273
1772725787723897600,5.762897705078125,0.031612250953912735,-0.01847865991294384,0.000305432389723137
1772725787733414700,5.77241455078125,0.03527744114398956,-0.03191768378019333,0.006414080038666725
1772725787742932000,5.781931884765625,0.02916879393160343,-0.02153298258781433,0.019853105768561363
1772725787752449000,5.791448974609375,0.013897174037992954,0.007177661173045635,0.032681263983249664
1772725787761966000,5.800966064453125,-0.0025961752980947495,0.037720900028944016,0.04062250629067421
1772725787771483400,5.8104833984375,-0.008093958720564842,0.053603384643793106,0.03695731982588768
1772725787781000400,5.82000048828125,-0.006872228812426329,0.04505127668380737,0.022907428443431854
1772725787790517800,5.829517822265625,0.001679878099821508,0.018173227086663246,0.0009162971982732415
1772725787800034800,5.839034912109375,0.007788525894284248,-0.009926552884280682,-0.021685699000954628
1772725787809552100,5.84855224609375,0.009010255336761475,-0.03802633285522461,-0.04062250629067421
1772725787819069200,5.858069091796875,0.009621120058000088,-0.06123919412493706,-0.04367683082818985
1772725787828586200,5.867586181640625,0.005955931730568409,-0.05513054504990578,-0.029626941308379173
1772725787838103600,5.877103515625,-0.004428769461810589,-0.017256930470466614,-0.006414080038666725
1772725787847620600,5.88662060546875,-0.017867794260382652,0.02672533318400383,0.015577051788568497
1772725787857137700,5.8961376953125,-0.029474224895238876,0.05604684352874756,0.02779434807598591
1772725787866655000,5.905655029296875,-0.03191768378019333,0.06704241037368774,0.026572618633508682
1772725787876172000,5.915172119140625,-0.026419902220368385,0.05543597787618637,0.011300998739898205
1772725787885689000,5.924689208984375,-0.01847865991294384,0.02306014485657215,-0.00946840364485979
1772725787895206400,5.934206298828125,-0.008704823441803455,-0.016646064817905426,-0.032681263983249664
1772725787904723500,5.943723388671875,-0.0013744457392022014,-0.05085449293255806,-0.05039634555578232
1772725787914240800,5.95324072265625,0.002290742937475443,-0.0691804364323616,-0.05528326332569122
1772725787923757800,5.9627578125,0.002901607658714056,-0.05940660089254379,-0.04673115536570549
1772725787933275100,5.972275146484375,0.00045814859913662076,-0.033139415085315704,-0.029016077518463135
1772725787942792200,5.981792236328125,-0.0038179049734026194,-0.0025961752980947495,-0.00946840364485979
1772725787952309200,5.991309326171875,-0.004428769461810589,0.02000582218170166,0.00946840364485979
1772725787961826600,6.00082666015625,-0.005039634648710489,0.031001387163996696,0.018631376326084137
1772725787971343600,6.010343505859375,-0.006872228812426329,0.030390523374080658,0.02107483521103859
1772725787980861000,6.01986083984375,-0.010537417605519295,0.024281874299049377,0.019853105768561363
1772725787990378000,6.0293779296875,-0.012370011769235134,0.012675444595515728,0.014966187067329884
1772725787999895000,6.03889501953125,-0.011148282326757908,0.002290742937475443,0.00946840364485979
1772725788009412400,6.048412353515625,-0.006872228812426329,-0.004428769461810589,0.004581485874950886
1772725788018929400,6.057929443359375,-0.0038179049734026194,-0.012980876490473747,-0.0009162971982732415
1772725788028446700,6.06744677734375,-0.0019853105768561363,-0.023365577682852745,-0.0015271619195118546
1772725788037963800,6.0769638671875,0.002290742937475443,-0.03130681812763214,-0.0009162971982732415
1772725788047480800,6.086480712890625,0.006566796451807022,-0.03252854943275452,0.004581485874950886
1772725788056998100,6.095998046875,0.005955931730568409,-0.03191768378019333,0.010079269297420979
1772725788066515200,6.10551513671875,0.002901607658714056,-0.02825249545276165,0.016187917441129684
1772725788076032500,6.115032470703125,-0.004428769461810589,-0.020922118797898293,0.0204639695584774
1772725788085549600,6.124549560546875,-0.008093958720564842,-0.011759147047996521,0.02412915788590908
1772725788095066600,6.134066650390625,-0.0062613640911877155,0.001679878099821508,0.024740023538470268
1772725788104584000,6.143583984375,-0.0001527161948615685,0.011453714221715927,0.024740023538470268
1772725788114101000,6.15310107421875,0.002901607658714056,0.01206457894295454,0.023518294095993042
1772725788123618000,6.1626181640625,0.0010690133785828948,0.004734201822429895,0.019853105768561363
1772725788133135400,6.17213525390625,0.0010690133785828948,-0.0032070400193333626,0.016187917441129684
1772725788142652400,6.18165234375,0.005345067009329796,-0.0062613640911877155,0.013133592903614044
1772725788152169700,6.191169677734375,0.009010255336761475,-0.0062613640911877155,0.011911863461136818
1772725788161686800,6.200686767578125,0.013286309316754341,-0.0013744457392022014,0.014966187067329884
1772725788171204000,6.2102041015625,0.01695149764418602,0.009621120058000088,0.013744457624852657
1772725788180721200,6.21972119140625,0.018784092739224434,0.02367101050913334,0.005192350596189499
1772725788190238200,6.22923828125,0.017562363296747208,0.024281874299049377,-0.005192350596189499
1772725788199755500,6.238755615234375,0.013286309316754341,0.005345067009329796,-0.013133592903614044
1772725788209272600,6.2482724609375,0.013897174037992954,-0.023365577682852745,-0.016798781231045723
1772725788218789600,6.25778955078125,0.01511890348047018,-0.03741546720266342,-0.01435532234609127
1772725788228307000,6.267306884765625,0.01206457894295454,-0.023365577682852745,-0.008857538923621178
1772725788237824000,6.276823974609375,0.007788525894284248,0.005955931730568409,0.000305432389723137
1772725788247341000,6.286341064453125,0.005955931730568409,0.030390523374080658,0.013133592903614044
1772725788256858400,6.2958583984375,0.009010255336761475,0.043829549103975296,0.02412915788590908
1772725788266375700,6.305375732421875,0.007788525894284248,0.037720900028944016,0.024740023538470268
1772725788275892700,6.314892822265625,0.003512472379952669,0.013286309316754341,0.011911863461136818
1772725788285409800,6.324409912109375,0.003512472379952669,-0.017256930470466614,-0.003970621153712273
1772725788294927000,6.333927001953125,0.011453714221715927,-0.036193739622831345,-0.01435532234609127
1772725788304444200,6.343444091796875,0.0206166859716177,-0.03741546720266342,-0.016187917441129684
1772725788313961200,6.352961181640625,0.024892739951610565,-0.016035201027989388,-0.006414080038666725
1772725788323478500,6.362478515625,0.02367101050913334,0.017562363296747208,0.005803215317428112
1772725788332995600,6.37199560546875,0.0206166859716177,0.04505127668380737,0.016798781231045723
1772725788342513000,6.381512939453125,0.018784092739224434,0.04566214233636856,0.019853105768561363
1772725788352030000,6.391030029296875,0.019394956529140472,0.02367101050913334,0.01802051067352295
1772725788361547000,6.400547119140625,0.02000582218170166,-0.0038179049734026194,0.011911863461136818
1772725788371064300,6.410064208984375,0.02000582218170166,-0.023365577682852745,0.006414080038666725
1772725788380581400,6.419581298828125,0.017562363296747208,-0.03375028073787689,0.0027488914784044027
1772725788390098700,6.4290986328125,0.014508038759231567,-0.028863361105322838,0.003970621153712273
1772725788399615700,6.43861572265625,0.011453714221715927,-0.008704823441803455,0.00946840364485979
1772725788409133000,6.448133056640625,0.004734201822429895,0.0102319847792387,0.013133592903614044
1772725788418650000,6.457650146484375,-0.005650499369949102,0.016340631991624832,0.013744457624852657
1772725788428167200,6.467167236328125,-0.014202605932950974,0.005345067009329796,0.011911863461136818
1772725788437684500,6.4766845703125,-0.016646064817905426,-0.011759147047996521,0.010079269297420979
1772725788447201500,6.486201416015625,-0.01908952370285988,-0.0154243353754282,0.011300998739898205
1772725788456718600,6.495718505859375,-0.02214384824037552,0.0010690133785828948,0.014966187067329884
1772725788466236000,6.50523583984375,-0.02458730712532997,0.02000582218170166,0.022296564653515816
1772725788475753000,6.5147529296875,-0.023365577682852745,0.030390523374080658,0.026572618633508682
1772725788485270000,6.52427001953125,-0.020922118797898293,0.031612250953912735,0.02718348242342472
1772725788494787300,6.533787353515625,-0.01908952370285988,0.012675444595515728,0.0204639695584774
1772725788504304600,6.5433046875,-0.0154243353754282,-0.019700389355421066,0.011300998739898205
1772725788513821700,6.55282177734375,-0.005039634648710489,-0.04657844081521034,0.004581485874950886
1772725788523338800,6.5623388671875,0.005955931730568409,-0.049021899700164795,0.0015271619195118546
1772725788532856000,6.57185595703125,0.010842849500477314,-0.029474224895238876,0.0027488914784044027
1772725788542373000,6.581373046875,0.009010255336761475,-0.0019853105768561363,0.007635809946805239
1772725788551890200,6.59089013671875,0.005345067009329796,0.01511890348047018,0.011300998739898205
1772725788561407500,6.600407470703125,0.002290742937475443,0.01511890348047018,0.013744457624852657
1772725788570924500,6.609924560546875,0.0010690133785828948,0.010842849500477314,0.014966187067329884
1772725788580441900,6.61944189453125,0.001679878099821508,-0.0013744457392022014,0.013133592903614044
1772725788589959000,6.628958984375,0.005955931730568409,-0.02153298258781433,0.013133592903614044
1772725788599476000,6.63847607421875,0.01511890348047018,-0.033139415085315704,0.01802051067352295
1772725788608993300,6.6479931640625,0.018784092739224434,-0.020922118797898293,0.025961752980947495
1772725788618510300,6.65751025390625,0.013286309316754341,0.009010255336761475,0.032681263983249664
1772725788628027600,6.667027587890625,0.007788525894284248,0.02367101050913334,0.03756818547844887
1772725788637544700,6.676544677734375,0.002901607658714056,0.021227551624178886,0.03940077871084213
1772725788647062000,6.68606201171875,-0.0025961752980947495,0.010842849500477314,0.03695731982588768
1772725788656579000,6.6955791015625,-0.008704823441803455,-0.0038179049734026194,0.03451386094093323
1772725788666096000,6.70509619140625,-0.014813470654189587,-0.016035201027989388,0.032070402055978775
1772725788675613400,6.714613525390625,-0.023976443335413933,-0.0154243353754282,0.03390299528837204
1772725788685130500,6.724130615234375,-0.03436114266514778,-0.0038179049734026194,0.03634645417332649
1772725788694647600,6.7336474609375,-0.039858926087617874,0.007788525894284248,0.04001164436340332
1772725788704164900,6.743164794921875,-0.036804601550102234,0.013286309316754341,0.04062250629067421
1772725788713682000,6.752681884765625,-0.03130681812763214,0.011453714221715927,0.04062250629067421
1772725788723199000,6.762198974609375,-0.02458730712532997,0.006566796451807022,0.041844237595796585
1772725788732716300,6.77171630859375,-0.020922118797898293,0.002290742937475443,0.04062250629067421
1772725788742233600,6.781233642578125,-0.016035201027989388,-0.008704823441803455,0.04062250629067421
1772725788751750700,6.790750732421875,-0.016035201027989388,-0.0025961752980947495,0.038789913058280945
1772725788761267700,6.800267822265625,-0.017867794260382652,0.013286309316754341,0.03329212963581085
1772725788770785000,6.809784912109375,-0.0154243353754282,0.012675444595515728,0.02779434807598591
1772725788780302000,6.819302001953125,-0.007483093533664942,0.00045814859913662076,0.02107483521103859
1772725788789819400,6.8288193359375,-0.0013744457392022014,-0.011759147047996521,0.010690134018659592
1772725788799336400,6.83833642578125,-0.0019853105768561363,-0.023365577682852745,0.0021380267571657896
1772725788808853500,6.847853515625,-0.008704823441803455,-0.030695954337716103,-0.000305432389723137
1772725788818370800,6.857370849609375,-0.012370011769235134,-0.03436114266514778,0.0021380267571657896
1772725788827887900,6.866887939453125,-0.01359174121171236,-0.02825249545276165,0.007024944759905338
1772725788837405000,6.876405029296875,-0.016035201027989388,-0.004428769461810589,0.013744457624852657
1772725788846922200,6.885922119140625,-0.01847865991294384,0.02367101050913334,0.016187917441129684
1772725788856439300,6.895439208984375,-0.019700389355421066,0.04627300798892975,0.016798781231045723
1772725788865956600,6.90495654296875,-0.017867794260382652,0.047494735568761826,0.013133592903614044
1772725788875473700,6.9144736328125,-0.014813470654189587,0.034666575491428375,0.003359756199643016
1772725788884991000,6.923990966796875,-0.01359174121171236,0.0102319847792387,-0.01435532234609127
1772725788894508000,6.933508056640625,-0.0154243353754282,-0.022754713892936707,-0.032681263983249664
1772725788904025000,6.943025146484375,-0.01359174121171236,-0.05085449293255806,-0.04673115536570549
1772725788913542400,6.95254248046875,-0.009315688163042068,-0.05635227635502815,-0.04917461425065994
1772725788923059500,6.9620595703125,-0.005039634648710489,-0.03741546720266342,-0.04306596517562866
1772725788932576500,6.971576416015625,-0.0013744457392022014,-0.016035201027989388,-0.03145953640341759
1772725788942093800,6.98109375,0.0010690133785828948,-0.006872228812426329,-0.016798781231045723
1772725788951611000,6.99061083984375,0.003512472379952669,-0.007483093533664942,-0.003970621153712273
1772725788961128200,7.000128173828125,0.005345067009329796,-0.0032070400193333626,0.006414080038666725
1772725788970645200,7.009645263671875,0.003512472379952669,0.010842849500477314,0.014966187067329884
1772725788980162600,7.01916259765625,-0.0013744457392022014,0.021227551624178886,0.01435532234609127
1772725788989679600,7.0286796875,-0.005039634648710489,0.021838415414094925,0.008857538923621178
1772725788999197000,7.038197021484375,-0.0032070400193333626,0.015729768201708794,-0.0015271619195118546
1772725789008714000,7.0477138671875,0.0010690133785828948,0.006566796451807022,-0.012522728182375431
1772725789018231000,7.05723095703125,0.002290742937475443,-0.0038179049734026194,-0.022907428443431854
1772725789027748400,7.066748291015625,-0.0038179049734026194,-0.017256930470466614,-0.03329212963581085
1772725789037265400,7.076265380859375,-0.011759147047996521,-0.02825249545276165,-0.03940077871084213
1772725789046782500,7.085782470703125,-0.020311253145337105,-0.03436114266514778,-0.041844237595796585
1772725789056299800,7.0952998046875,-0.025809036567807198,-0.03252854943275452,-0.03817904740571976
1772725789065816800,7.10481689453125,-0.02764163166284561,-0.020922118797898293,-0.025350889191031456
1772725789075334000,7.114333984375,-0.02519817277789116,-0.0013744457392022014,-0.010079269297420979
1772725789084851200,7.123851318359375,-0.02458730712532997,0.0206166859716177,0.007635809946805239
1772725789094368300,7.1333681640625,-0.02519817277789116,0.041386090219020844,0.02107483521103859
1772725789103885600,7.142885498046875,-0.02458730712532997,0.047494735568761826,0.025350889191031456
1772725789113402600,7.152402587890625,-0.020922118797898293,0.024892739951610565,0.025350889191031456
1772725789122920000,7.161919921875,-0.009926552884280682,-0.0038179049734026194,0.021685699000954628
1772725789132437000,7.17143701171875,-0.0019853105768561363,-0.020311253145337105,0.019242240116000175
1772725789141954000,7.1809541015625,0.00045814859913662076,-0.020311253145337105,0.018631376326084137
1772725789151471400,7.190471435546875,0.003512472379952669,-0.010537417605519295,0.019242240116000175
1772725789160988400,7.199988525390625,0.005955931730568409,0.010842849500477314,0.016187917441129684
1772725789170505700,7.209505615234375,0.010842849500477314,0.03222311660647392,0.008857538923621178
1772725789180022800,7.219022705078125,0.015729768201708794,0.03527744114398956,0.000305432389723137
1772725789189539800,7.228539794921875,0.02000582218170166,0.021227551624178886,-0.008857538923621178
1772725789199057200,7.23805712890625,0.024281874299049377,0.001679878099821508,-0.019242240116000175
1772725789208574200,7.24757421875,0.02916879393160343,-0.011759147047996521,-0.02779434807598591
1772725789218091300,7.25709130859375,0.034666575491428375,-0.014202605932950974,-0.03390299528837204
1772725789227608600,7.266608642578125,0.03588830679655075,-0.004428769461810589,-0.04001164436340332
1772725789237126000,7.2761259765625,0.03588830679655075,0.004123337101191282,-0.04245510324835777
1772725789246643000,7.285642822265625,0.0334448479115963,0.016340631991624832,-0.04428769648075104
1772725789256160000,7.295159912109375,0.030390523374080658,0.024892739951610565,-0.04550942778587341
1772725789265677300,7.30467724609375,0.02916879393160343,0.024281874299049377,-0.04428769648075104
1772725789275194400,7.3141943359375,0.028557928279042244,0.019394956529140472,-0.04062250629067421
1772725789284711400,7.32371142578125,0.02611446939408779,0.01511890348047018,-0.03634645417332649
1772725789294228700,7.333228759765625,0.02306014485657215,0.015729768201708794,-0.03145953640341759
1772725789303745800,7.342745849609375,0.018784092739224434,0.018784092739224434,-0.025961752980947495
1772725789313263000,7.35226318359375,0.014508038759231567,0.02611446939408779,-0.019853105768561363
1772725789322780200,7.3617802734375,0.009621120058000088,0.02916879393160343,-0.016187917441129684
1772725789332297200,7.371297119140625,0.007177661173045635,0.019394956529140472,-0.011911863461136818
1772725789341814500,7.380814453125,0.006566796451807022,0.0010690133785828948,-0.007024944759905338
1772725789351331600,7.39033154296875,0.009010255336761475,-0.008093958720564842,-0.0021380267571657896
1772725789360849000,7.399848876953125,0.008399390615522861,-0.0001527161948615685,0.0015271619195118546
1772725789370366000,7.409365966796875,0.004734201822429895,0.011453714221715927,0.003970621153712273
1772725789379883300,7.41888330078125,0.005345067009329796,0.021227551624178886,0.011911863461136818
1772725789389400300,7.428400390625,0.007177661173045635,0.02611446939408779,0.01740964688360691
1772725789398917400,7.43791748046875,0.009010255336761475,0.024892739951610565,0.019242240116000175
1772725789408434700,7.4474345703125,0.010842849500477314,0.017562363296747208,0.02107483521103859
1772725789417951700,7.45695166015625,0.007788525894284248,0.007177661173045635,0.023518294095993042
1772725789427468800,7.46646875,0.002290742937475443,0.00045814859913662076,0.026572618633508682
1772725789436986000,7.475986083984375,-0.004428769461810589,0.005955931730568409,0.029016077518463135
1772725789446503200,7.485503173828125,-0.008704823441803455,0.018784092739224434,0.02779434807598591
1772725789456020500,7.4950205078125,-0.008093958720564842,0.0334448479115963,0.021685699000954628
1772725789465537500,7.50453759765625,-0.0032070400193333626,0.03588830679655075,0.010690134018659592
1772725789475054800,7.514054931640625,0.003512472379952669,0.02306014485657215,-0.007024944759905338
1772725789484572000,7.523572021484375,0.006566796451807022,0.001679878099821508,-0.02779434807598591
1772725789494089000,7.5330888671875,0.01206457894295454,-0.02519817277789116,-0.04550942778587341
1772725789503606300,7.542606201171875,0.015729768201708794,-0.04841103404760361,-0.054672397673130035
1772725789513123300,7.552123291015625,0.018173227086663246,-0.058795735239982605,-0.05589412897825241
1772725789522640600,7.561640625,0.018173227086663246,-0.0539088174700737,-0.05100720748305321
1772725789532157700,7.57115771484375,0.013897174037992954,-0.03497200831770897,-0.03817904740571976
1772725789541674800,7.5806748046875,0.009621120058000088,-0.008704823441803455,-0.018631376326084137
1772725789551192000,7.590192138671875,0.002290742937475443,0.016340631991624832,0.0009162971982732415
1772725789560709000,7.599709228515625,-0.0038179049734026194,0.027947064489126205,0.015577051788568497
1772725789570226200,7.60922607421875,-0.007483093533664942,0.0206166859716177,0.021685699000954628
1772725789579743500,7.618743408203125,-0.0025961752980947495,0.002901607658714056,0.02107483521103859
1772725789589260500,7.628260498046875,0.005955931730568409,-0.006872228812426329,0.01802051067352295
1772725789598777900,7.63777783203125,0.006566796451807022,-0.0038179049734026194,0.015577051788568497
1772725789608295000,7.647294921875,0.00045814859913662076,0.0010690133785828948,0.013133592903614044
1772725789617812200,7.656812255859375,-0.009315688163042068,0.002290742937475443,0.011911863461136818
1772725789627329300,7.666329345703125,-0.0154243353754282,0.003512472379952669,0.012522728182375431
1772725789636846600,7.6758466796875,-0.01847865991294384,0.009010255336761475,0.011911863461136818
1772725789646363600,7.68536376953125,-0.023365577682852745,0.011453714221715927,0.006414080038666725
1772725789655880700,7.694880615234375,-0.029474224895238876,0.001679878099821508,-0.004581485874950886
1772725789665398000,7.70439794921875,-0.030695954337716103,-0.0154243353754282,-0.015577051788568497
1772725789674915000,7.7139150390625,-0.02764163166284561,-0.023365577682852745,-0.02107483521103859
1772725789684432100,7.72343212890625,-0.022754713892936707,-0.011759147047996521,-0.016187917441129684
1772725789693949400,7.732949462890625,-0.02214384824037552,0.014508038759231567,-0.006414080038666725
1772725789703466500,7.742466552734375,-0.026419902220368385,0.02977965772151947,-0.0021380267571657896
1772725789712983800,7.75198388671875,-0.03191768378019333,0.027947064489126205,-0.0015271619195118546
1772725789722500900,7.7615009765625,-0.030085090547800064,0.0206166859716177,-0.003970621153712273
1772725789732018200,7.77101806640625,-0.02458730712532997,0.007177661173045635,-0.008857538923621178
1772725789741535200,7.78053515625,-0.016035201027989388,-0.008704823441803455,-0.016187917441129684
1772725789751052300,7.79005224609375,-0.009315688163042068,-0.01908952370285988,-0.023518294095993042
1772725789760569600,7.799569580078125,-0.004428769461810589,-0.0154243353754282,-0.029016077518463135
1772725789770086700,7.809086669921875,-0.0007635809597559273,-0.004428769461810589,-0.03451386094093323
1772725789779604000,7.81860400390625,-0.0001527161948615685,0.004734201822429895,-0.035735588520765305
1772725789789121000,7.82812109375,0.002290742937475443,0.009010255336761475,-0.03451386094093323
1772725789798638000,7.83763818359375,0.004734201822429895,0.010842849500477314,-0.03145953640341759
1772725789808155400,7.8471552734375,0.002901607658714056,0.015729768201708794,-0.02779434807598591
1772725789817672400,7.85667236328125,-0.006872228812426329,0.0206166859716177,-0.02107483521103859
1772725789827189500,7.866189453125,-0.020311253145337105,0.02000582218170166,-0.015577051788568497
1772725789836706800,7.875706787109375,-0.03191768378019333,0.016340631991624832,-0.011300998739898205
1772725789846224000,7.885223876953125,-0.03558287397027016,0.018173227086663246,-0.013133592903614044
1772725789855741200,7.8947412109375,-0.03130681812763214,0.02000582218170166,-0.02107483521103859
1772725789865258200,7.90425830078125,-0.022754713892936707,0.021838415414094925,-0.029016077518463135
1772725789874775600,7.913775634765625,-0.0154243353754282,0.02367101050913334,-0.035735588520765305
1772725789884292600,7.923292724609375,-0.010537417605519295,0.027947064489126205,-0.04306596517562866
1772725789893809700,7.9328095703125,-0.0038179049734026194,0.025503603741526604,-0.048563748598098755
1772725789903327000,7.942326904296875,0.002901607658714056,0.0102319847792387,-0.04978547990322113
1772725789912844000,7.951843994140625,0.008399390615522861,-0.0062613640911877155,-0.04550942778587341
1772725789922361300,7.961361328125,0.008399390615522861,-0.011148282326757908,-0.03634645417332649
1772725789941395500,7.9803955078125,-0.0062613640911877155,0.016340631991624832,-0.024740023538470268
1772725789950912800,7.989912841796875,-0.01359174121171236,0.028557928279042244,-0.025961752980947495
1772725789960429800,7.999429931640625,-0.017256930470466614,0.022449281066656113,-0.03329212963581085
1772725789969947100,8.008947021484374,-0.017256930470466614,0.002290742937475443,-0.04428769648075104
1772725789979464200,8.018464111328125,-0.014202605932950974,-0.012370011769235134,-0.05406153202056885
1772725789988981500,8.0279814453125,-0.006872228812426329,-0.012370011769235134,-0.05528326332569122
1772725789998498600,8.03749853515625,0.001679878099821508,-0.009926552884280682,-0.05222893878817558
1772725790008015600,8.047015625,0.01206457894295454,-0.012980876490473747,-0.04306596517562866
1772725790017533000,8.056532958984375,0.019394956529140472,-0.0154243353754282,-0.035124726593494415
1772725790027050000,8.066050048828124,0.025503603741526604,-0.005039634648710489,-0.025350889191031456
1772725790036567000,8.075567138671875,0.024281874299049377,0.009010255336761475,-0.016798781231045723
1772725790046084400,8.08508447265625,0.013897174037992954,0.015729768201708794,-0.00946840364485979
1772725790055601400,8.094601318359375,-0.0001527161948615685,0.017562363296747208,0.0015271619195118546
1772725790065118700,8.10411865234375,-0.011759147047996521,0.018784092739224434,0.01435532234609127
1772725790074635800,8.1136357421875,-0.014813470654189587,0.02306014485657215,0.024740023538470268
1772725790084152800,8.12315283203125,-0.014813470654189587,0.02977965772151947,0.0308486707508564
1772725790093670100,8.132670166015625,-0.0062613640911877155,0.03711003437638283,0.03145953640341759
1772725790103187500,8.1421875,0.004734201822429895,0.03711003437638283,0.028405211865901947
1772725790112704500,8.15170458984375,0.011453714221715927,0.027336198836565018,0.019853105768561363
1772725790122221600,8.1612216796875,0.01206457894295454,0.008399390615522861,0.005192350596189499
1772725790131739000,8.17073876953125,0.007788525894284248,-0.009926552884280682,-0.011911863461136818
1772725790141256000,8.180255859375,0.004734201822429895,-0.025809036567807198,-0.03023780696094036
1772725790150773000,8.18977294921875,0.002901607658714056,-0.023976443335413933,-0.0461202897131443
1772725790160290300,8.199290283203124,0.001679878099821508,-0.017256930470466614,-0.0565049909055233
1772725790169807400,8.208807373046875,-0.0013744457392022014,-0.010537417605519295,-0.06811141967773438
1772725790179324700,8.21832470703125,-0.005650499369949102,-0.0062613640911877155,-0.0717766135931015
1772725790188841700,8.227841796875,-0.004428769461810589,0.009010255336761475,-0.0668896958231926
1772725790198358800,8.23735888671875,-0.0001527161948615685,0.022449281066656113,-0.05039634555578232
1772725790207876000,8.2468759765625,0.007177661173045635,0.030390523374080658,-0.02412915788590908
1772725790217393200,8.25639306640625,0.013286309316754341,0.031001387163996696,0.0015271619195118546
1772725790226910500,8.265910400390625,0.010842849500477314,0.031612250953912735,0.011300998739898205
1772725790236427500,8.275427490234375,0.007788525894284248,0.028557928279042244,0.004581485874950886
1772725790245944800,8.28494482421875,0.004734201822429895,0.022449281066656113,-0.008857538923621178
1772725790255462000,8.2944619140625,0.002290742937475443,0.011453714221715927,-0.018631376326084137
1772725790264979000,8.30397900390625,-0.0013744457392022014,0.013897174037992954,-0.022907428443431854
1772725790274496300,8.313496337890625,-0.0025961752980947495,0.013286309316754341,-0.019853105768561363
1772725790284013300,8.323013427734375,-0.005650499369949102,0.016340631991624832,-0.01435532234609127
1772725790293530600,8.332530517578125,-0.011759147047996521,0.03222311660647392,-0.006414080038666725
1772725790303047700,8.342047607421875,-0.01847865991294384,0.04993819445371628,-0.0009162971982732415
1772725790312564700,8.351564697265625,-0.022754713892936707,0.06765327602624893,0.0021380267571657896
1772725790322082000,8.36108203125,-0.02519817277789116,0.08536835014820099,0.0027488914784044027
1772725790331599000,8.37059912109375,-0.022754713892936707,0.09575305134057999,0.000305432389723137
1772725790341116200,8.3801162109375,-0.016646064817905426,0.0743727833032608,-0.0009162971982732415
1772725790350633500,8.389633544921875,-0.011759147047996521,0.027947064489126205,-0.0009162971982732415
1772725790360150800,8.39915087890625,-0.0025961752980947495,-0.02214384824037552,-0.003359756199643016
1772725790369667800,8.408667724609375,0.006566796451807022,-0.05146535858511925,-0.01435532234609127
1772725790379185000,8.418184814453125,0.01511890348047018,-0.05329795181751251,-0.02718348242342472
1772725790388702000,8.427701904296875,0.01695149764418602,-0.03558287397027016,-0.03329212963581085
1772725790398219300,8.43721923828125,0.011453714221715927,-0.010537417605519295,-0.03023780696094036
1772725790407736300,8.446736328125,0.007788525894284248,0.013286309316754341,-0.02107483521103859
1772725790417253600,8.456253662109376,0.006566796451807022,0.028557928279042244,-0.015577051788568497
1772725790426770700,8.465770751953125,0.008399390615522861,0.031612250953912735,-0.01435532234609127
1772725790436287700,8.475287841796876,0.010842849500477314,0.0206166859716177,-0.016187917441129684
1772725790445805000,8.48480517578125,0.014508038759231567,0.00045814859913662076,-0.019242240116000175
1772725790455322000,8.494322021484376,0.013286309316754341,-0.011148282326757908,-0.02107483521103859
1772725790464839400,8.50383935546875,0.007177661173045635,-0.009926552884280682,-0.01802051067352295
1772725790474356500,8.5133564453125,0.001679878099821508,-0.006872228812426329,-0.011911863461136818
1772725790483873800,8.522873779296875,-0.0038179049734026194,-0.0007635809597559273,-0.0027488914784044027
1772725790493390800,8.532390869140626,-0.004428769461810589,0.007177661173045635,0.005803215317428112
1772725790502908200,8.541908203125,-0.0007635809597559273,0.012675444595515728,0.012522728182375431
1772725790512425200,8.55142529296875,0.003512472379952669,0.015729768201708794,0.014966187067329884
1772725790521942300,8.5609423828125,0.002290742937475443,0.018784092739224434,0.011911863461136818
1772725790531459600,8.57045947265625,0.00045814859913662076,0.016340631991624832,0.003970621153712273
1772725790540976600,8.5799765625,0.0010690133785828948,0.004734201822429895,-0.003970621153712273
1772725790550494000,8.589493896484376,0.00045814859913662076,-0.006872228812426329,-0.00946840364485979
1772725790560011000,8.599010986328125,-0.0007635809597559273,-0.012980876490473747,-0.008857538923621178
1772725790569528000,8.608528076171876,-0.004428769461810589,-0.010537417605519295,-0.005803215317428112
1772725790579045400,8.61804541015625,-0.010537417605519295,-0.0019853105768561363,0.0009162971982732415
1772725790588562400,8.6275625,-0.014202605932950974,0.007177661173045635,0.00946840364485979
1772725790598079700,8.637079833984375,-0.012980876490473747,0.014508038759231567,0.019242240116000175
1772725790607596800,8.6465966796875,-0.007483093533664942,0.015729768201708794,0.022907428443431854
1772725790617114000,8.656114013671875,-0.0032070400193333626,0.007177661173045635,0.019242240116000175
1772725790626631200,8.665631103515626,0.00045814859913662076,-0.006872228812426329,0.012522728182375431
1772725790636148200,8.675148193359375,0.002901607658714056,-0.012370011769235134,0.005803215317428112
1772725790645665500,8.68466552734375,-0.0001527161948615685,-0.009926552884280682,0.000305432389723137
1772725790655182600,8.6941826171875,-0.004428769461810589,-0.008093958720564842,-0.0027488914784044027
1772725790664700000,8.703699951171876,-0.006872228812426329,-0.006872228812426329,-0.0015271619195118546
1772725790674217000,8.713217041015625,-0.0038179049734026194,-0.007483093533664942,-0.0021380267571657896
1772725790683734000,8.722734130859376,-0.0013744457392022014,-0.017256930470466614,-0.003359756199643016
1772725790693251000,8.7322509765625,-0.0032070400193333626,-0.030085090547800064,-0.003359756199643016
1772725790702768400,8.741768310546876,-0.008704823441803455,-0.02825249545276165,0.004581485874950886
1772725790712285400,8.751285400390625,-0.012980876490473747,-0.0062613640911877155,0.011911863461136818
1772725790721802800,8.760802734375,-0.016035201027989388,0.018784092739224434,0.015577051788568497
1772725790731319800,8.77031982421875,-0.011759147047996521,0.03588830679655075,0.016798781231045723
1772725790740837000,8.779837158203126,-0.007483093533664942,0.04260781779885292,0.013744457624852657
1772725790750354200,8.789354248046875,-0.0013744457392022014,0.037720900028944016,0.011911863461136818
1772725790759871500,8.79887158203125,0.005955931730568409,0.018173227086663246,0.010690134018659592
1772725790769388500,8.808388427734375,0.011453714221715927,-0.004428769461810589,0.003970621153712273
1772725790778905900,8.81790576171875,0.009010255336761475,-0.023976443335413933,-0.007024944759905338
1772725790788423000,8.8274228515625,0.003512472379952669,-0.03802633285522461,-0.022907428443431854
1772725790797940000,8.83693994140625,0.004123337101191282,-0.05024362727999687,-0.03451386094093323
1772725790807457300,8.846457275390625,0.006566796451807022,-0.04780016839504242,-0.04062250629067421
1772725790816974300,8.855974365234376,0.006566796451807022,-0.036804601550102234,-0.03817904740571976
1772725790826491400,8.865491455078125,0.007788525894284248,-0.02764163166284561,-0.025350889191031456
1772725790836008700,8.8750087890625,0.013286309316754341,-0.012370011769235134,-0.010079269297420979
1772725790845525800,8.88452587890625,0.018784092739224434,0.013897174037992954,0.003970621153712273
1772725790855043000,8.89404296875,0.018784092739224434,0.031612250953912735,0.01435532234609127
1772725790864560000,8.90356005859375,0.018784092739224434,0.02977965772151947,0.01802051067352295
1772725790874077400,8.913077392578124,0.015729768201708794,0.015729768201708794,0.018631376326084137
1772725790883594500,8.922594482421875,0.010842849500477314,-0.005039634648710489,0.013133592903614044
1772725790893111800,8.93211181640625,0.008399390615522861,-0.017867794260382652,0.006414080038666725
1772725790902628900,8.94162890625,0.009621120058000088,-0.014813470654189587,0.003359756199643016
1772725790912146000,8.95114599609375,0.009621120058000088,-0.0032070400193333626,0.000305432389723137
1772725790921663200,8.960663330078125,0.005345067009329796,0.0010690133785828948,-0.003970621153712273
1772725790931180300,8.97018017578125,0.0010690133785828948,-0.0001527161948615685,-0.00946840364485979
1772725790940697300,8.979697265625,-0.005039634648710489,0.00045814859913662076,-0.012522728182375431
1772725790950214700,8.989214599609374,-0.008704823441803455,0.007177661173045635,-0.011911863461136818
1772725790959731700,8.998731689453125,-0.011148282326757908,0.01511890348047018,-0.011300998739898205
1772725790969249000,9.0082490234375,-0.011148282326757908,0.013897174037992954,-0.01435532234609127
1772725790978766000,9.01776611328125,-0.008093958720564842,0.001679878099821508,-0.019242240116000175
1772725790988283400,9.027283447265624,-0.0019853105768561363,-0.017867794260382652,-0.025350889191031456
1772725790997800400,9.036800537109375,0.008399390615522861,-0.042913250625133514,-0.02718348242342472
1772725791007317800,9.04631787109375,0.018784092739224434,-0.05146535858511925,-0.025961752980947495
1772725791016834800,9.055834716796875,0.024892739951610565,-0.036193739622831345,-0.021685699000954628
1772725791026351900,9.065351806640624,0.025503603741526604,-0.011148282326757908,-0.016798781231045723
1772725791035869200,9.074869140625,0.022449281066656113,0.0102319847792387,-0.011300998739898205
1772725791045386200,9.08438623046875,0.018784092739224434,0.0206166859716177,-0.005192350596189499
1772725791054903300,9.0939033203125,0.01511890348047018,0.03222311660647392,-0.004581485874950886
1772725791064420600,9.103420654296874,0.01206457894295454,0.03588830679655075,-0.012522728182375431
1772725791073937700,9.112937744140625,0.018173227086663246,-0.005650499369949102,-0.023518294095993042
1772725791083455000,9.122455078125,0.027336198836565018,-0.04535670951008797,-0.03023780696094036
1772725791092972000,9.131971923828125,0.03283398225903511,-0.05024362727999687,-0.02718348242342472
1772725791102489000,9.141489013671874,0.031001387163996696,-0.033139415085315704,-0.016187917441129684
1772725791112006400,9.15100634765625,0.027336198836565018,-0.011759147047996521,-0.003359756199643016
1772725791121523500,9.1605234375,0.02367101050913334,0.003512472379952669,0.006414080038666725
1772725791131040800,9.170040771484375,0.024281874299049377,0.012675444595515728,0.014966187067329884
1772725791140557800,9.179557861328124,0.024281874299049377,0.017562363296747208,0.025350889191031456
1772725791150075100,9.1890751953125,0.016340631991624832,0.016340631991624832,0.029626941308379173
1772725791159592200,9.19859228515625,0.005345067009329796,0.003512472379952669,0.024740023538470268
1772725791169109200,9.208109130859375,0.0010690133785828948,-0.014813470654189587,0.01740964688360691
1772725791178626600,9.21762646484375,0.005955931730568409,-0.023976443335413933,0.011911863461136818
1772725791188143600,9.2271435546875,0.01206457894295454,-0.023365577682852745,0.010079269297420979
1772725791197661000,9.236660888671874,0.017562363296747208,-0.0154243353754282,0.011300998739898205
1772725791207178000,9.246177978515625,0.016340631991624832,-0.014202605932950974,0.012522728182375431
1772725791216695000,9.255695068359374,0.009010255336761475,-0.017256930470466614,0.013744457624852657
1772725791226212400,9.26521240234375,-0.0001527161948615685,-0.016035201027989388,0.02107483521103859
1772725791235729400,9.2747294921875,-0.005039634648710489,-0.011759147047996521,0.032070402055978775
1772725791245246700,9.284246826171875,-0.0062613640911877155,-0.005650499369949102,0.04367683082818985
1772725791254763800,9.293763671875,-0.005650499369949102,-0.0019853105768561363,0.04978547990322113
1772725791264281000,9.303281005859375,-0.0013744457392022014,-0.0019853105768561363,0.05039634555578232
1772725791273798100,9.312798095703124,0.007177661173045635,-0.0038179049734026194,0.04550942778587341
1772725791283315200,9.322315185546875,0.01511890348047018,-0.008704823441803455,0.035735588520765305
1772725791292832500,9.33183251953125,0.02000582218170166,-0.012980876490473747,0.023518294095993042
1772725791302349600,9.341349609375,0.017562363296747208,-0.016035201027989388,0.010079269297420979
1772725791311867000,9.350866943359375,0.013286309316754341,-0.016035201027989388,-0.0009162971982732415
1772725791321384000,9.360384033203125,0.013286309316754341,-0.01847865991294384,-0.008857538923621178
1772725791330901000,9.36990087890625,0.014508038759231567,-0.02519817277789116,-0.014966187067329884
1772725791340418300,9.379418212890625,0.015729768201708794,-0.023365577682852745,-0.013133592903614044
1772725791349935400,9.388935302734374,0.013897174037992954,-0.014813470654189587,-0.005192350596189499
1772725791359452400,9.398452392578125,0.0102319847792387,-0.009926552884280682,0.005803215317428112
1772725791368969700,9.4079697265625,0.002290742937475443,0.003512472379952669,0.014966187067329884
1772725791378486800,9.41748681640625,-0.0032070400193333626,0.022449281066656113,0.022296564653515816
1772725791388004000,9.427004150390625,-0.009926552884280682,0.0383317656815052,0.022296564653515816
1772725791397521200,9.436521240234375,-0.01847865991294384,0.03649916872382164,0.010690134018659592
1772725791407038500,9.44603857421875,-0.023976443335413933,0.01206457894295454,-0.005803215317428112
1772725791416555500,9.455555419921875,-0.02458730712532997,-0.020311253145337105,-0.023518294095993042
1772725791426072800,9.46507275390625,-0.022754713892936707,-0.0539088174700737,-0.03451386094093323
1772725791435590000,9.47458984375,-0.017867794260382652,-0.07040216773748398,-0.038789913058280945
1772725791445107000,9.48410693359375,-0.012980876490473747,-0.06062832847237587,-0.032070402055978775
1772725791454624300,9.493624267578125,-0.004428769461810589,-0.03252854943275452,-0.013133592903614044
1772725791464141300,9.503141357421875,0.004734201822429895,0.004123337101191282,0.010690134018659592
1772725791473658600,9.51265869140625,0.010842849500477314,0.030390523374080658,0.0308486707508564
1772725791483175700,9.52217578125,0.014508038759231567,0.03222311660647392,0.04245510324835777
1772725791492692700,9.531692626953125,0.018173227086663246,0.02306014485657215,0.04673115536570549
1772725791502210000,9.5412099609375,0.021838415414094925,0.006566796451807022,0.04306596517562866
1772725791511727000,9.55072705078125,0.02367101050913334,-0.011759147047996521,0.03451386094093323
1772725791521244400,9.560244384765625,0.018784092739224434,-0.02458730712532997,0.02107483521103859
1772725791530761500,9.569761474609376,0.007177661173045635,-0.03130681812763214,0.007635809946805239
1772725791540278800,9.57927880859375,-0.004428769461810589,-0.03497200831770897,-0.0021380267571657896
1772725791549795800,9.5887958984375,-0.009926552884280682,-0.03130681812763214,-0.003970621153712273
1772725791559313000,9.59831298828125,-0.012980876490473747,-0.02214384824037552,0.005192350596189499
1772725791568830200,9.607830322265626,-0.014813470654189587,0.00045814859913662076,0.02107483521103859
1772725791578347300,9.61734716796875,-0.011759147047996521,0.024281874299049377,0.03634645417332649
1772725791587864600,9.626864501953126,-0.005650499369949102,0.04321868345141411,0.04734202101826668
1772725791597381600,9.636381591796875,0.001679878099821508,0.054214250296354294,0.047952886670827866
1772725791606898700,9.645898681640626,0.006566796451807022,0.050549060106277466,0.038789913058280945
1772725791616416000,9.655416015625,0.011453714221715927,0.03222311660647392,0.025961752980947495
1772725791625933000,9.66493310546875,0.013897174037992954,0.01206457894295454,0.008857538923621178
1772725791635450400,9.674450439453125,0.010842849500477314,0.01206457894295454,-0.010079269297420979
1772725791644967400,9.683967529296876,0.0010690133785828948,0.02611446939408779,-0.026572618633508682
1772725791654484700,9.693484619140625,-0.011759147047996521,0.034666575491428375,-0.044898562133312225
1772725791664001800,9.703001708984376,-0.030695954337716103,0.04321868345141411,-0.06261363625526428
1772725791673518800,9.712518798828125,-0.049632761627435684,0.08414662629365921,-0.05345066636800766
1772725791683036200,9.7220361328125,-0.0844520553946495,0.15012001991271973,-0.022907428443431854
1772725791692553200,9.73155322265625,-0.09178243577480316,0.1415679156780243,-0.032681263983249664
1772725791702070300,9.7410703125,-0.0691804364323616,0.09086613357067108,-0.05283980444073677
1772725791711587600,9.750587646484375,-0.036193739622831345,0.030390523374080658,-0.07788526266813278
1772725791721104600,9.760104736328126,-0.0154243353754282,-0.006872228812426329,-0.11392628401517868
1772725791730622000,9.7696220703125,-0.005650499369949102,-0.039248060435056686,-0.1542433500289917
1772725791740139000,9.779138916015626,0.005345067009329796,-0.08689551800489426,-0.18784092366695404
1772725791749656300,9.78865625,0.02000582218170166,-0.1516471803188324,-0.21777328848838806
1772725791759173400,9.79817333984375,0.02000582218170166,-0.19624030590057373,-0.22815799713134766
1772725791768690400,9.8076904296875,0.002290742937475443,-0.19379685819149017,-0.2049451321363449
1772725791778207700,9.817207763671876,-0.01359174121171236,-0.1253799945116043,-0.14996729791164398
