time,seconds_elapsed,z,y,x
1772725782090853000,0.12985302734375,9.305686950683594,3.7734813690185547,-0.5359922647476196
1772725782100370400,0.139370361328125,9.379864692687988,3.7256247997283936,-0.5335994362831116
1772725782109887500,0.148887451171875,9.45882797241211,3.680161237716675,-0.5383850932121277
1772725782119404500,0.158404541015625,9.468399047851562,3.656233072280884,-0.5551348328590393
1772725782128921900,0.167921875,9.4061861038208,3.6394832134246826,-0.605384111404419
1772725782138439000,0.17743896484375,9.317651748657227,3.651447296142578,-0.6293123364448547
1772725782147956000,0.1869560546875,9.236295700073242,3.7160534858703613,-0.6460621356964111
1772725782157473300,0.196473388671875,9.214759826660156,3.7543387413024902,-0.6005984544754028
1772725782166990300,0.205990234375,9.293723106384277,3.8261234760284424,-0.5790630578994751
1772725782176507600,0.215507568359375,9.41336441040039,3.8739798069000244,-0.5958128571510315
1772725782186024700,0.225024658203125,9.473184585571289,3.85483717918396,-0.5000999569892883
1772725782195541800,0.234541748046875,9.425328254699707,3.8045880794525146,-0.42831525206565857
1772725782205059000,0.24405908203125,9.281759262084961,3.7782669067382812,-0.3445664644241333
1772725782214576000,0.253576171875,9.138189315795898,3.840480327606201,-0.33020952343940735
1772725782224093200,0.26309326171875,9.025727272033691,3.9218363761901855,-0.33499518036842346
1772725782233610500,0.272610595703125,8.975478172302246,3.9696927070617676,-0.44027936458587646
1772725782243127600,0.28212744140625,8.934800148010254,3.9912281036376953,-0.519242525100708
1772725782252644600,0.29164453125,8.834300994873047,3.9984066486358643,-0.49292147159576416
1772725782262162000,0.301161865234375,8.781659126281738,3.9385859966278076,-0.40677985548973083
1772725782271679000,0.310678955078125,8.791230201721191,3.8907296657562256,-0.34695929288864136
1772725782281196300,0.3201962890625,8.819944381713867,3.895515203475952,-0.35892340540885925
1772725782290713300,0.32971337890625,8.839086532592773,3.9050865173339844,-0.4091726839542389
1772725782300230400,0.33923046875,8.874979019165039,3.9074792861938477,-0.4378865361213684
1772725782309747700,0.348747802734375,8.894122123718262,3.9146578311920166,-0.45224347710609436
1772725782319264800,0.3582646484375,8.956335067749023,3.902693748474121,-0.4977070987224579
1772725782328781800,0.36778173828125,9.028120040893555,3.8739798069000244,-0.5024927258491516
1772725782338299100,0.377299072265625,9.107083320617676,3.8596229553222656,-0.5048855543136597
1772725782347816200,0.386816162109375,9.166903495788574,3.88594388961792,-0.5168496966362
1772725782357333200,0.396333251953125,9.152546882629395,3.862015724182129,-0.5000999569892883
1772725782366850600,0.4058505859375,9.164510726928711,3.871587038040161,-0.5144568681716919
1772725782376367600,0.41536767578125,9.18843936920166,3.902693748474121,-0.5670989751815796
1772725782385885000,0.424885009765625,9.174081802368164,3.893122434616089,-0.5694918036460876
1772725782395402000,0.434402099609375,9.157332420349121,3.8835511207580566,-0.5240281820297241
1772725782404919000,0.4439189453125,9.123832702636719,3.8907296657562256,-0.39960137009620667
1772725782414436400,0.453436279296875,9.083154678344727,3.9050865173339844,-0.35892340540885925
1772725782423953400,0.462953369140625,9.119047164916992,3.9529430866241455,-0.42831525206565857
1772725782433470500,0.472470458984375,9.126225471496582,3.9672999382019043,-0.47617170214653015
1772725782442987800,0.48198779296875,9.109476089477539,3.9433717727661133,-0.4570291340351105
1772725782452504800,0.4915048828125,9.123832702636719,3.8979079723358154,-0.40677985548973083
1772725782462022100,0.501022216796875,9.09990406036377,3.869194269180298,-0.34217363595962524
1772725782471539200,0.510539306640625,9.121439933776855,3.864408493041992,-0.31345975399017334
1772725782481056300,0.52005615234375,9.164510726928711,3.8333017826080322,-0.31106695532798767
1772725782490573300,0.5295732421875,9.1716890335083,3.8021950721740723,-0.3397808074951172
1772725782500090600,0.539090576171875,9.174081802368164,3.814159393310547,-0.37088751792907715
1772725782509607700,0.548607666015625,9.131011009216309,3.799802303314209,-0.4378865361213684
1772725782519125000,0.558125,9.09990406036377,3.81655216217041,-0.4307080805301666
1772725782528642000,0.56764208984375,9.159725189208984,3.8213376998901367,-0.4570291340351105
1772725782538159000,0.5771591796875,9.231510162353516,3.8333017826080322,-0.42352959513664246
1772725782547676400,0.586676513671875,9.262616157531738,3.8045880794525146,-0.3924229145050049
1772725782557193500,0.596193359375,9.300901412963867,3.7806596755981445,-0.3565305769443512
1772725782566710800,0.605710693359375,9.329615592956543,3.7543387413024902,-0.3900300860404968
1772725782576227800,0.615227783203125,9.332008361816406,3.7710886001586914,-0.4331009089946747
1772725782585745000,0.624744873046875,9.315258979797363,3.78544545173645,-0.4785645306110382
1772725782595262200,0.63426220703125,9.274580955505371,3.8261234760284424,-0.5168496966362
1772725782604779300,0.643779296875,9.262616157531738,3.8213376998901367,-0.5742774605751038
1772725782614296300,0.65329638671875,9.231510162353516,3.8285162448883057,-0.5551348328590393
1772725782623813600,0.662813720703125,9.274580955505371,3.8356947898864746,-0.5288137793540955
1772725782633330700,0.67233056640625,9.279366493225098,3.840480327606201,-0.46899324655532837
1772725782642847700,0.68184765625,9.284152030944824,3.78544545173645,-0.3924229145050049
1772725782652365000,0.691364990234375,9.293723106384277,3.7782669067382812,-0.380458801984787
1772725782661882000,0.700882080078125,9.315258979797363,3.814159393310547,-0.40677985548973083
1772725782671399400,0.7103994140625,9.312865257263184,3.81655216217041,-0.41874396800994873
1772725782680916500,0.71991650390625,9.248259544372559,3.8189449310302734,-0.37806597352027893
1772725782690433500,0.72943359375,9.169296264648438,3.8117663860321045,-0.3086741268634796
1772725782699950800,0.738950927734375,9.176474571228027,3.7974095344543457,-0.23210379481315613
1772725782709468000,0.748468017578125,9.243474006652832,3.8596229553222656,-0.2153540402650833
1772725782718985000,0.75798486328125,9.21715259552002,3.869194269180298,-0.23688943684101105
1772725782728502300,0.767502197265625,9.145368576049805,3.87876558303833,-0.2799602448940277
1772725782738019300,0.777019287109375,9.097511291503906,3.840480327606201,-0.3732803463935852
1772725782747536400,0.786536376953125,9.05444049835205,3.8333017826080322,-0.4331009089946747
1772725782757053700,0.7960537109375,9.004191398620605,3.830909013748169,-0.48095735907554626
1772725782766570800,0.80557080078125,8.915657043457031,3.8213376998901367,-0.4785645306110382
1772725782776088000,0.815088134765625,8.956335067749023,3.84765887260437,-0.4618147611618042
1772725782785605000,0.824605224609375,9.025727272033691,3.8811583518981934,-0.4785645306110382
1772725782795122200,0.8341220703125,9.06401252746582,3.8596229553222656,-0.4833501875400543
1772725782804639500,0.843639404296875,9.087940216064453,3.806980848312378,-0.47617170214653015
1772725782814156500,0.853156494140625,9.157332420349121,3.759124279022217,-0.4570291340351105
1772725782823673600,0.862673583984375,9.241081237792969,3.735196113586426,-0.5072783827781677
1772725782833191000,0.87219091796875,9.308079719543457,3.744767427444458,-0.5575276613235474
1772725782842708000,0.8817080078125,9.284152030944824,3.751945972442627,-0.5670989751815796
1772725782852225000,0.89122509765625,9.241081237792969,3.744767427444458,-0.5718846321105957
1772725782861742300,0.900742431640625,9.214759826660156,3.751945972442627,-0.5647061467170715
1772725782871259400,0.91025927734375,9.207581520080566,3.7567315101623535,-0.5790630578994751
1772725782880776700,0.919776611328125,9.21715259552002,3.78544545173645,-0.5790630578994751
1772725782890293800,0.929293701171875,9.267401695251465,3.8045880794525146,-0.5790630578994751
1772725782899810800,0.938810791015625,9.291330337524414,3.809373617172241,-0.5288137793540955
1772725782909328100,0.948328125,9.260223388671875,3.830909013748169,-0.48813581466674805
1772725782918845200,0.95784521484375,9.298508644104004,3.792623996734619,-0.49292147159576416
1772725782928362200,0.9673623046875,9.312865257263184,3.799802303314209,-0.4618147611618042
1772725782937879600,0.976879638671875,9.276973724365234,3.838087558746338,-0.4833501875400543
1772725782947396600,0.986396728515625,9.255437850952148,3.82373046875,-0.4618147611618042
1772725782956913700,0.99591357421875,9.238688468933105,3.81655216217041,-0.4498506486415863
1772725782966431000,1.005430908203125,9.198010444641113,3.81655216217041,-0.4570291340351105
1772725782975948300,1.0149482421875,9.19561767578125,3.845266103744507,-0.48813581466674805
1772725782985465300,1.02446533203125,9.128618240356445,3.871587038040161,-0.5168496966362
1772725782994982400,1.033982421875,9.013762474060059,3.845266103744507,-0.5000999569892883
1772725783004499500,1.04349951171875,8.941978454589844,3.840480327606201,-0.49292147159576416
1772725783014016800,1.053016845703125,8.963513374328613,3.840480327606201,-0.5359922647476196
1772725783023533800,1.062533935546875,8.987442016601562,3.864408493041992,-0.5240281820297241
1772725783033051000,1.07205078125,9.025727272033691,3.8596229553222656,-0.5000999569892883
1772725783042568200,1.081568115234375,9.080761909484863,3.8213376998901367,-0.4211367964744568
1772725783052085200,1.091085205078125,9.152546882629395,3.7471601963043213,-0.3684946894645691
1772725783061602600,1.1006025390625,9.1716890335083,3.7471601963043213,-0.33020952343940735
1772725783071119600,1.11011962890625,9.169296264648438,3.761517286300659,-0.3397808074951172
1772725783080637000,1.119636962890625,9.20279598236084,3.775874137878418,-0.41156548261642456
1772725783090154000,1.129154052734375,9.262616157531738,3.809373617172241,-0.5024927258491516
1772725783099671000,1.138671142578125,9.308079719543457,3.82373046875,-0.5288137793540955
1772725783109188000,1.14818798828125,9.305686950683594,3.78544545173645,-0.5096712112426758
1772725783118705400,1.157705322265625,9.315258979797363,3.806980848312378,-0.4307080805301666
1772725783128222500,1.167222412109375,9.28893756866455,3.799802303314209,-0.4139583110809326
1772725783137739500,1.176739501953125,9.274580955505371,3.806980848312378,-0.4331009089946747
1772725783147256800,1.1862568359375,9.250652313232422,3.840480327606201,-0.5479564070701599
1772725783156774000,1.19577392578125,9.233902931213379,3.838087558746338,-0.576670229434967
1772725783166291200,1.205291259765625,9.19561767578125,3.8428730964660645,-0.5527420043945312
1772725783175808300,1.214808349609375,9.212367057800293,3.814159393310547,-0.5431707501411438
1772725783185325600,1.22432568359375,9.257830619812012,3.8213376998901367,-0.5168496966362
1772725783194842600,1.233842529296875,9.279366493225098,3.799802303314209,-0.5048855543136597
1772725783204359700,1.243359619140625,9.22433090209961,3.7950167655944824,-0.4977070987224579
1772725783213877000,1.252876953125,9.152546882629395,3.7543387413024902,-0.5072783827781677
1772725783223394000,1.26239404296875,9.109476089477539,3.7471601963043213,-0.5383850932121277
1772725783232911000,1.2719111328125,9.049654960632324,3.78544545173645,-0.6005984544754028
1772725783242428200,1.28142822265625,9.011369705200195,3.783052682876587,-0.5982056856155396
1772725783251945500,1.290945556640625,8.989834785461426,3.7734813690185547,-0.5647061467170715
1772725783261462500,1.300462646484375,8.989834785461426,3.7639100551605225,-0.5072783827781677
1772725783270979800,1.309979736328125,9.028120040893555,3.7639100551605225,-0.4953143000602722
1772725783280497000,1.319496826171875,9.09272575378418,3.7878382205963135,-0.4307080805301666
1772725783290014200,1.32901416015625,9.159725189208984,3.806980848312378,-0.380458801984787
1772725783299531300,1.33853125,9.20279598236084,3.8117663860321045,-0.3924229145050049
1772725783309048300,1.34804833984375,9.226723670959473,3.775874137878418,-0.37088751792907715
1772725783318565600,1.357565673828125,9.193224906921387,3.7495529651641846,-0.38285163044929504
1772725783328082700,1.367082763671875,9.219545364379883,3.7878382205963135,-0.397208571434021
1772725783337599700,1.376599853515625,9.22433090209961,3.8045880794525146,-0.4378865361213684
1772725783347117000,1.386116943359375,9.176474571228027,3.82373046875,-0.4426721930503845
1772725783356634000,1.395634033203125,9.200403213500977,3.7974095344543457,-0.42831525206565857
1772725783366151200,1.405151123046875,9.315258979797363,3.7974095344543457,-0.41156548261642456
1772725783375668500,1.41466845703125,9.353543281555176,3.81655216217041,-0.43549370765686035
1772725783385185500,1.424185546875,9.363115310668945,3.792623996734619,-0.4307080805301666
1772725783394702800,1.433702880859375,9.329615592956543,3.761517286300659,-0.38763725757598877
1772725783404220000,1.443219970703125,9.32722282409668,3.751945972442627,-0.4019941985607147
1772725783413737000,1.452737060546875,9.257830619812012,3.761517286300659,-0.4450650215148926
1772725783423254300,1.462254150390625,9.22433090209961,3.8333017826080322,-0.5048855543136597
1772725783432771300,1.471771240234375,9.226723670959473,3.814159393310547,-0.5599204897880554
1772725783442288400,1.481288330078125,9.183652877807617,3.783052682876587,-0.5479564070701599
1772725783451805700,1.4908056640625,9.140582084655762,3.737588882446289,-0.5288137793540955
1772725783461322800,1.50032275390625,9.114261627197266,3.735196113586426,-0.5048855543136597
1772725783470839800,1.50983984375,9.06401252746582,3.744767427444458,-0.5288137793540955
1772725783480357000,1.519357177734375,9.030512809753418,3.768695592880249,-0.5623133182525635
1772725783489874200,1.528874267578125,8.9850492477417,3.7663028240203857,-0.5599204897880554
1772725783499391500,1.5383916015625,9.042476654052734,3.761517286300659,-0.5790630578994751
1772725783508908500,1.547908447265625,9.190832138061523,3.759124279022217,-0.5814558863639832
1772725783518425600,1.557425537109375,9.279366493225098,3.7399818897247314,-0.5599204897880554
1772725783527943000,1.56694287109375,9.358329772949219,3.680161237716675,-0.48813581466674805
1772725783537460000,1.5764599609375,9.394221305847168,3.6442689895629883,-0.42352959513664246
1772725783546977000,1.58597705078125,9.367900848388672,3.6634113788604736,-0.4259224236011505
1772725783556494300,1.595494384765625,9.28893756866455,3.7160534858703613,-0.47617170214653015
1772725783566011400,1.605011474609375,9.200403213500977,3.7806596755981445,-0.5000999569892883
1772725783575528700,1.61452880859375,9.164510726928711,3.82373046875,-0.47617170214653015
1772725783585045800,1.624045654296875,9.140582084655762,3.84765887260437,-0.4546363055706024
1772725783594562800,1.633562744140625,9.107083320617676,3.8428730964660645,-0.4378865361213684
1772725783604080000,1.643080078125,9.131011009216309,3.81655216217041,-0.4043870270252228
1772725783613597200,1.65259716796875,9.176474571228027,3.82373046875,-0.39960137009620667
1772725783623114200,1.6621142578125,9.231510162353516,3.792623996734619,-0.42831525206565857
1772725783632631600,1.671631591796875,9.20997428894043,3.799802303314209,-0.4498506486415863
1772725783642148600,1.681148681640625,9.186046600341797,3.7902309894561768,-0.397208571434021
1772725783651665700,1.690665771484375,9.183652877807617,3.7878382205963135,-0.4163511395454407
1772725783661183000,1.700182861328125,9.198010444641113,3.783052682876587,-0.45942193269729614
1772725783670700000,1.709699951171875,9.198010444641113,3.7806596755981445,-0.5024927258491516
1772725783680217300,1.71921728515625,9.207581520080566,3.751945972442627,-0.5168496966362
1772725783689734400,1.728734375,9.250652313232422,3.7328033447265625,-0.5742774605751038
1772725783699251500,1.73825146484375,9.243474006652832,3.7160534858703613,-0.5886343717575073
1772725783708768800,1.747768798828125,9.205188751220703,3.706482172012329,-0.607776939868927
1772725783718285800,1.757285888671875,9.181260108947754,3.7112679481506348,-0.6293123364448547
1772725783727803000,1.766802978515625,9.183652877807617,3.720839262008667,-0.605384111404419
1772725783737320200,1.7763203125,9.140582084655762,3.7710886001586914,-0.5575276613235474
1772725783746837200,1.785837158203125,9.095118522644043,3.768695592880249,-0.5407779216766357
1772725783756354300,1.795354248046875,9.128618240356445,3.7543387413024902,-0.5048855543136597
1772725783765871600,1.80487158203125,9.162117958068848,3.7423746585845947,-0.5216353535652161
1772725783775388700,1.814388671875,9.142974853515625,3.7328033447265625,-0.5240281820297241
1772725783784906000,1.823906005859375,9.133403778076172,3.7328033447265625,-0.5000999569892883
1772725783794423000,1.833423095703125,9.174081802368164,3.7399818897247314,-0.4307080805301666
1772725783803940400,1.8429404296875,9.229117393493652,3.7543387413024902,-0.4019941985607147
1772725783813457400,1.85245751953125,9.243474006652832,3.806980848312378,-0.4211367964744568
1772725783822974500,1.861974365234375,9.21715259552002,3.8021950721740723,-0.4259224236011505
1772725783832491800,1.87149169921875,9.207581520080566,3.7710886001586914,-0.4091726839542389
1772725783842008800,1.8810087890625,9.190832138061523,3.737588882446289,-0.4498506486415863
1772725783851526000,1.89052587890625,9.236295700073242,3.7423746585845947,-0.5120640397071838
1772725783861043000,1.90004296875,9.233902931213379,3.730410575866699,-0.5647061467170715
1772725783870560300,1.909560302734375,9.241081237792969,3.7471601963043213,-0.5647061467170715
1772725783880077300,1.919077392578125,9.262616157531738,3.720839262008667,-0.5312066078186035
1772725783889594600,1.9285947265625,9.262616157531738,3.7160534858703613,-0.5264210104942322
1772725783899111700,1.938111572265625,9.260223388671875,3.720839262008667,-0.550349235534668
1772725783908629000,1.94762890625,9.274580955505371,3.7543387413024902,-0.5551348328590393
1772725783918146000,1.95714599609375,9.245866775512695,3.7256247997283936,-0.5575276613235474
1772725783927663000,1.9666630859375,9.219545364379883,3.7495529651641846,-0.5120640397071838
1772725783937180400,1.976180419921875,9.214759826660156,3.706482172012329,-0.5647061467170715
1772725783946697500,1.985697509765625,9.198010444641113,3.730410575866699,-0.5527420043945312
1772725783956214500,1.995214599609375,9.157332420349121,3.744767427444458,-0.5288137793540955
1772725783965731800,2.00473193359375,9.176474571228027,3.730410575866699,-0.48095735907554626
1772725783975249000,2.014248779296875,9.205188751220703,3.744767427444458,-0.46899324655532837
1772725783984766000,2.023765869140625,9.186046600341797,3.7567315101623535,-0.45224347710609436
1772725783994283300,2.033283203125,9.190832138061523,3.737588882446289,-0.4498506486415863
1772725784003800300,2.04280029296875,9.174081802368164,3.7543387413024902,-0.4426721930503845
1772725784013317600,2.052317626953125,9.128618240356445,3.730410575866699,-0.4307080805301666
1772725784022834700,2.061834716796875,9.114261627197266,3.7328033447265625,-0.46420758962631226
1772725784032351700,2.071351806640625,9.126225471496582,3.7663028240203857,-0.4785645306110382
1772725784041869000,2.080869140625,9.150154113769531,3.783052682876587,-0.5216353535652161
1772725784051386000,2.09038623046875,9.169296264648438,3.775874137878418,-0.48574298620224
1772725784060903200,2.099903076171875,9.241081237792969,3.7663028240203857,-0.42831525206565857
1772725784070420500,2.10942041015625,9.248259544372559,3.761517286300659,-0.397208571434021
1772725784079937500,2.1189375,9.284152030944824,3.7567315101623535,-0.38763725757598877
1772725784089454800,2.128454833984375,9.308079719543457,3.7495529651641846,-0.3852444589138031
1772725784098972000,2.137971923828125,9.315258979797363,3.78544545173645,-0.39960137009620667
1772725784108489000,2.147489013671875,9.346364974975586,3.8045880794525146,-0.4426721930503845
1772725784118006300,2.15700634765625,9.29611587524414,3.7878382205963135,-0.4426721930503845
1772725784127523300,2.1665234375,9.265008926391602,3.7782669067382812,-0.4259224236011505
1772725784137040400,2.176040283203125,9.257830619812012,3.7710886001586914,-0.3924229145050049
1772725784146557700,2.1855576171875,9.243474006652832,3.7806596755981445,-0.39960137009620667
1772725784156074800,2.19507470703125,9.19561767578125,3.7782669067382812,-0.44027936458587646
1772725784165591800,2.204591796875,9.162117958068848,3.7782669067382812,-0.45942193269729614
1772725784175109000,2.214109130859375,9.176474571228027,3.7543387413024902,-0.4737788736820221
1772725784184626200,2.223626220703125,9.152546882629395,3.7974095344543457,-0.49292147159576416
1772725784194143500,2.2331435546875,9.116654396057129,3.7806596755981445,-0.4666004180908203
1772725784203660500,2.24266064453125,9.116654396057129,3.7878382205963135,-0.48813581466674805
1772725784213177900,2.252177734375,9.097511291503906,3.838087558746338,-0.5120640397071838
1772725784222695000,2.26169482421875,9.114261627197266,3.82373046875,-0.5647061467170715
1772725784232212000,2.2712119140625,9.147761344909668,3.7567315101623535,-0.5240281820297241
1772725784241729300,2.280729248046875,9.142974853515625,3.7160534858703613,-0.4666004180908203
1772725784251246300,2.290246337890625,9.181260108947754,3.737588882446289,-0.44027936458587646
1772725784260763400,2.299763427734375,9.17886734008789,3.7543387413024902,-0.4426721930503845
1772725784270280400,2.309280517578125,9.174081802368164,3.7495529651641846,-0.45224347710609436
1772725784279797800,2.3187978515625,9.226723670959473,3.799802303314209,-0.48813581466674805
1772725784289314800,2.328314697265625,9.231510162353516,3.7902309894561768,-0.5120640397071838
1772725784298832100,2.33783203125,9.140582084655762,3.81655216217041,-0.5024927258491516
1772725784308349200,2.34734912109375,9.138189315795898,3.8021950721740723,-0.48813581466674805
1772725784317866500,2.356866455078125,9.135796546936035,3.7950167655944824,-0.4833501875400543
1772725784327383600,2.366383544921875,9.095118522644043,3.78544545173645,-0.46899324655532837
1772725784336900600,2.375900634765625,9.07119083404541,3.799802303314209,-0.42831525206565857
1772725784346418000,2.38541796875,9.05444049835205,3.84765887260437,-0.3326023519039154
1772725784355935000,2.39493505859375,9.066405296325684,3.871587038040161,-0.33738797903060913
1772725784365452000,2.4044521484375,9.116654396057129,3.8907296657562256,-0.397208571434021
1772725784374969300,2.41396923828125,9.17886734008789,3.8883368968963623,-0.42352959513664246
1772725784384486400,2.423486328125,9.236295700073242,3.8285162448883057,-0.4091726839542389
1772725784394003500,2.43300341796875,9.28893756866455,3.7902309894561768,-0.3900300860404968
1772725784403520800,2.442520751953125,9.317651748657227,3.751945972442627,-0.380458801984787
1772725784413037800,2.452037841796875,9.293723106384277,3.7112679481506348,-0.3924229145050049
1772725784422555100,2.46155517578125,9.267401695251465,3.7160534858703613,-0.44027936458587646
1772725784432072200,2.471072265625,9.193224906921387,3.7734813690185547,-0.5120640397071838
1772725784441589200,2.48058935546875,9.138189315795898,3.838087558746338,-0.6029912829399109
1772725784451106600,2.4901064453125,9.061619758605957,3.8524444103240967,-0.6628118753433228
1772725784460623600,2.49962353515625,9.035298347473145,3.8356947898864746,-0.6652047038078308
1772725784470140700,2.509140625,8.989834785461426,3.761517286300659,-0.6604190468788147
1772725784479657700,2.51865771484375,9.008976936340332,3.730410575866699,-0.6173482537269592
1772725784489175000,2.528175048828125,9.10229778289795,3.728017568588257,-0.5670989751815796
1772725784498692400,2.5376923828125,9.174081802368164,3.761517286300659,-0.5264210104942322
1772725784508209400,2.54720947265625,9.207581520080566,3.744767427444458,-0.4091726839542389
1772725784517726700,2.556726806640625,9.248259544372559,3.759124279022217,-0.37088751792907715
1772725784527243800,2.566243896484375,9.324830055236816,3.7806596755981445,-0.4019941985607147
1772725784536760800,2.5757607421875,9.29611587524414,3.8045880794525146,-0.4259224236011505
1772725784546278100,2.585278076171875,9.255437850952148,3.8117663860321045,-0.4331009089946747
1772725784555795200,2.594795166015625,9.253045082092285,3.8045880794525146,-0.42352959513664246
1772725784565312300,2.604312255859375,9.272188186645508,3.8189449310302734,-0.4666004180908203
1772725784574829600,2.61382958984375,9.284152030944824,3.8572301864624023,-0.519242525100708
1772725784584346600,2.6233466796875,9.286544799804688,3.8500516414642334,-0.4953143000602722
1772725784593863700,2.63286376953125,9.322437286376953,3.8596229553222656,-0.4737788736820221
1772725784603381000,2.642381103515625,9.28893756866455,3.8285162448883057,-0.44745782017707825
1772725784612898000,2.65189794921875,9.229117393493652,3.792623996734619,-0.44745782017707825
1772725784622415400,2.661415283203125,9.214759826660156,3.7710886001586914,-0.4905286431312561
1772725784631932400,2.670932373046875,9.176474571228027,3.759124279022217,-0.5240281820297241
1772725784641449500,2.680449462890625,9.128618240356445,3.761517286300659,-0.5407779216766357
1772725784650966800,2.689966796875,9.109476089477539,3.768695592880249,-0.5264210104942322
1772725784660483800,2.69948388671875,9.123832702636719,3.7950167655944824,-0.519242525100708
1772725784670001000,2.7090009765625,9.126225471496582,3.814159393310547,-0.5455635786056519
1772725784679518200,2.718518310546875,9.109476089477539,3.809373617172241,-0.5455635786056519
1772725784689035300,2.72803515625,9.114261627197266,3.759124279022217,-0.5240281820297241
1772725784698552300,2.73755224609375,9.123832702636719,3.7112679481506348,-0.5312066078186035
1772725784708069600,2.747069580078125,9.135796546936035,3.730410575866699,-0.5814558863639832
1772725784717586700,2.756586669921875,9.109476089477539,3.7232320308685303,-0.5599204897880554
1772725784727104000,2.76610400390625,9.097511291503906,3.7495529651641846,-0.5216353535652161
1772725784736621000,2.77562109375,9.174081802368164,3.783052682876587,-0.5216353535652161
1772725784746138000,2.78513818359375,9.19561767578125,3.7806596755981445,-0.5120640397071838
1772725784755655400,2.794655517578125,9.198010444641113,3.7950167655944824,-0.5120640397071838
1772725784765172500,2.80417236328125,9.221938133239746,3.792623996734619,-0.48813581466674805
1772725784774689500,2.813689453125,9.238688468933105,3.78544545173645,-0.4259224236011505
1772725784784206800,2.823206787109375,9.214759826660156,3.806980848312378,-0.40677985548973083
1772725784793724000,2.832723876953125,9.236295700073242,3.8261234760284424,-0.35892340540885925
1772725784803241000,2.842240966796875,9.272188186645508,3.85483717918396,-0.3684946894645691
1772725784812758300,2.85175830078125,9.272188186645508,3.845266103744507,-0.37806597352027893
1772725784822275300,2.861275390625,9.265008926391602,3.809373617172241,-0.33738797903060913
1772725784831792600,2.870792724609375,9.255437850952148,3.7782669067382812,-0.363709032535553
1772725784841309700,2.880309814453125,9.269794464111328,3.744767427444458,-0.4091726839542389
1772725784850827000,2.889826904296875,9.243474006652832,3.7806596755981445,-0.4450650215148926
1772725784860344000,2.899343994140625,9.214759826660156,3.799802303314209,-0.4378865361213684
1772725784869861000,2.908861083984375,9.198010444641113,3.8117663860321045,-0.43549370765686035
1772725784879378400,2.91837841796875,9.135796546936035,3.8045880794525146,-0.4259224236011505
1772725784888895500,2.9278955078125,9.111868858337402,3.7806596755981445,-0.4139583110809326
1772725784898412500,2.93741259765625,9.047262191772461,3.728017568588257,-0.4259224236011505
1772725784907929900,2.946929931640625,9.07119083404541,3.7016966342926025,-0.4546363055706024
1772725784917447000,2.956447021484375,9.123832702636719,3.720839262008667,-0.5335994362831116
1772725784926964200,2.965964111328125,9.152546882629395,3.7639100551605225,-0.550349235534668
1772725784936481300,2.975481201171875,9.119047164916992,3.775874137878418,-0.5264210104942322
1772725784945998300,2.984998291015625,9.068798065185547,3.7806596755981445,-0.4498506486415863
1772725784955515600,2.994515625,9.09990406036377,3.8021950721740723,-0.4450650215148926
1772725784965032700,3.00403271484375,9.126225471496582,3.783052682876587,-0.4713860750198364
1772725784974549800,3.0135498046875,9.174081802368164,3.759124279022217,-0.5048855543136597
1772725784984067000,3.023067138671875,9.255437850952148,3.730410575866699,-0.4785645306110382
1772725784993584000,3.032584228515625,9.286544799804688,3.689732551574707,-0.4737788736820221
1772725785003101200,3.04210107421875,9.34157943725586,3.6873397827148438,-0.4666004180908203
1772725785012618500,3.051618408203125,9.391828536987305,3.7160534858703613,-0.43549370765686035
1772725785022135600,3.061135498046875,9.456435203552246,3.737588882446289,-0.43549370765686035
1772725785031652900,3.07065283203125,9.487542152404785,3.792623996734619,-0.42831525206565857
1772725785041170000,3.080169921875,9.446864128112793,3.7663028240203857,-0.39960137009620667
1772725785050687200,3.089687255859375,9.401400566101074,3.730410575866699,-0.35413774847984314
1772725785060204300,3.099204345703125,9.317651748657227,3.7232320308685303,-0.349352091550827
1772725785069721300,3.108721435546875,9.257830619812012,3.7328033447265625,-0.3924229145050049
1772725785079238700,3.11823876953125,9.22433090209961,3.783052682876587,-0.4618147611618042
1772725785088755700,3.127755615234375,9.214759826660156,3.8117663860321045,-0.4737788736820221
1772725785098272800,3.137272705078125,9.190832138061523,3.806980848312378,-0.45942193269729614
1772725785107790000,3.1467900390625,9.154939651489258,3.7423746585845947,-0.4307080805301666
1772725785117307100,3.15630712890625,9.159725189208984,3.7112679481506348,-0.4378865361213684
1772725785126824200,3.16582421875,9.20279598236084,3.704089403152466,-0.4713860750198364
1772725785136341500,3.175341552734375,9.176474571228027,3.6993038654327393,-0.48574298620224
1772725785145858600,3.184858642578125,9.157332420349121,3.689732551574707,-0.46899324655532837
1772725785155375900,3.1943759765625,9.150154113769531,3.696911096572876,-0.4546363055706024
1772725785164893000,3.203892822265625,9.109476089477539,3.704089403152466,-0.48095735907554626
1772725785174410000,3.213409912109375,9.030512809753418,3.728017568588257,-0.4737788736820221
1772725785183927300,3.22292724609375,9.023334503173828,3.735196113586426,-0.5072783827781677
1772725785193444400,3.2324443359375,9.06401252746582,3.7543387413024902,-0.49292147159576416
1772725785202961400,3.24196142578125,9.109476089477539,3.7710886001586914,-0.4785645306110382
1772725785212478700,3.251478759765625,9.169296264648438,3.735196113586426,-0.44745782017707825
1772725785221995800,3.260995849609375,9.214759826660156,3.7160534858703613,-0.4043870270252228
1772725785231512800,3.270512939453125,9.262616157531738,3.689732551574707,-0.3684946894645691
1772725785241030100,3.280030029296875,9.34157943725586,3.6681971549987793,-0.36610186100006104
1772725785250547500,3.28954736328125,9.379864692687988,3.689732551574707,-0.3517449200153351
1772725785260064500,3.299064453125,9.379864692687988,3.7160534858703613,-0.3445664644241333
1772725785269581600,3.30858154296875,9.387042999267578,3.7782669067382812,-0.3445664644241333
1772725785279099000,3.318098876953125,9.34157943725586,3.806980848312378,-0.3326023519039154
1772725785288616000,3.327615966796875,9.28893756866455,3.8117663860321045,-0.33020952343940735
1772725785298133000,3.337133056640625,9.19561767578125,3.814159393310547,-0.31345975399017334
1772725785307650300,3.346650390625,9.135796546936035,3.8213376998901367,-0.2871387302875519
1772725785317167400,3.35616748046875,9.138189315795898,3.8333017826080322,-0.31824541091918945
1772725785326684400,3.365684326171875,9.174081802368164,3.8213376998901367,-0.36610186100006104
1772725785336201700,3.37520166015625,9.22433090209961,3.809373617172241,-0.39481574296951294
1772725785345718800,3.38471875,9.272188186645508,3.78544545173645,-0.4163511395454407
1772725785355236000,3.394236083984375,9.32722282409668,3.7399818897247314,-0.4498506486415863
1772725785364753200,3.403753173828125,9.33440113067627,3.696911096572876,-0.44027936458587646
1772725785374270200,3.413270263671875,9.30329418182373,3.6466617584228516,-0.44027936458587646
1772725785383787500,3.42278759765625,9.257830619812012,3.6610186100006104,-0.46420758962631226
1772725785393304600,3.4323046875,9.214759826660156,3.6921253204345703,-0.5048855543136597
1772725785402821600,3.441821533203125,9.200403213500977,3.7232320308685303,-0.5551348328590393
1772725785412339000,3.4513388671875,9.121439933776855,3.720839262008667,-0.5670989751815796
1772725785421856000,3.46085595703125,9.123832702636719,3.6945180892944336,-0.5910272002220154
1772725785431373000,3.470373046875,9.138189315795898,3.704089403152466,-0.5790630578994751
1772725785440890400,3.479890380859375,9.152546882629395,3.665804386138916,-0.5551348328590393
1772725785450407400,3.489407470703125,9.207581520080566,3.672982692718506,-0.519242525100708
1772725785459924700,3.4989248046875,9.245866775512695,3.706482172012329,-0.4666004180908203
1772725785469441800,3.50844189453125,9.276973724365234,3.735196113586426,-0.43549370765686035
1772725785478959000,3.517958984375,9.276973724365234,3.7806596755981445,-0.39960137009620667
1772725785488476200,3.52747607421875,9.276973724365234,3.8021950721740723,-0.3397808074951172
1772725785497993200,3.5369931640625,9.250652313232422,3.799802303314209,-0.32542386651039124
1772725785507510500,3.546510498046875,9.229117393493652,3.8045880794525146,-0.3732803463935852
1772725785517027600,3.556027587890625,9.22433090209961,3.7974095344543457,-0.4211367964744568
1772725785526544600,3.565544677734375,9.214759826660156,3.81655216217041,-0.4498506486415863
1772725785536062000,3.57506201171875,9.190832138061523,3.783052682876587,-0.42352959513664246
1772725785545579000,3.5845791015625,9.181260108947754,3.775874137878418,-0.37806597352027893
1772725785555096000,3.594095947265625,9.20997428894043,3.792623996734619,-0.2871387302875519
1772725785564613400,3.60361328125,9.272188186645508,3.845266103744507,-0.27038896083831787
1772725785574130400,3.61313037109375,9.250652313232422,3.8500516414642334,-0.24885354936122894
1772725785583647700,3.622647705078125,9.174081802368164,3.8333017826080322,-0.2727817893028259
1772725785593164800,3.632164794921875,9.128618240356445,3.7878382205963135,-0.32303106784820557
1772725785602681900,3.641681884765625,9.095118522644043,3.7902309894561768,-0.4498506486415863
1772725785612199200,3.65119921875,9.07119083404541,3.7902309894561768,-0.5934200286865234
1772725785621716200,3.66071630859375,9.032905578613281,3.761517286300659,-0.6101697683334351
1772725785631233300,3.6702333984375,8.973084449768066,3.768695592880249,-0.5886343717575073
1772725785640750600,3.67975048828125,8.949156761169434,3.7495529651641846,-0.5120640397071838
1772725785650267600,3.689267578125,8.908478736877441,3.7806596755981445,-0.4713860750198364
1772725785659784700,3.69878466796875,8.951549530029297,3.8285162448883057,-0.47617170214653015
1772725785669302000,3.708302001953125,9.049654960632324,3.8285162448883057,-0.5048855543136597
1772725785678819300,3.7178193359375,9.131011009216309,3.7878382205963135,-0.4785645306110382
1772725785688336400,3.72733642578125,9.22433090209961,3.7088751792907715,-0.48813581466674805
1772725785697853400,3.736853515625,9.34875774383545,3.672982692718506,-0.4905286431312561
1772725785707370800,3.746370849609375,9.42054271697998,3.682554006576538,-0.5000999569892883
1772725785716887800,3.7558876953125,9.43489933013916,3.7112679481506348,-0.48574298620224
1772725785726404900,3.76540478515625,9.430113792419434,3.7160534858703613,-0.42352959513664246
1772725785735922200,3.774922119140625,9.370293617248535,3.759124279022217,-0.4163511395454407
1772725785745439200,3.784439208984375,9.32004451751709,3.8117663860321045,-0.4426721930503845
1772725785754956300,3.793956298828125,9.269794464111328,3.88594388961792,-0.4378865361213684
1772725785764473600,3.8034736328125,9.238688468933105,3.90987229347229,-0.48095735907554626
1772725785773990700,3.81299072265625,9.233902931213379,3.926621913909912,-0.48095735907554626
1772725785783508000,3.822508056640625,9.226723670959473,3.902693748474121,-0.4666004180908203
1772725785793025000,3.83202490234375,9.22433090209961,3.840480327606201,-0.4211367964744568
1772725785802542300,3.841542236328125,9.200403213500977,3.7806596755981445,-0.3613162338733673
1772725785812059400,3.851059326171875,9.190832138061523,3.783052682876587,-0.349352091550827
1772725785821576400,3.860576416015625,9.200403213500977,3.799802303314209,-0.34695929288864136
1772725785831093800,3.87009375,9.19561767578125,3.840480327606201,-0.38285163044929504
1772725785840610800,3.87961083984375,9.140582084655762,3.8333017826080322,-0.3684946894645691
1772725785850128000,3.8891279296875,8.999405860900879,3.8045880794525146,-0.32542386651039124
1772725785859645200,3.898645263671875,8.94676399230957,3.81655216217041,-0.3517449200153351
1772725785869162200,3.908162353515625,8.922835350036621,3.8428730964660645,-0.45942193269729614
1772725785878679300,3.91767919921875,8.882157325744629,3.8763725757598877,-0.5407779216766357
1772725785888196600,3.927196533203125,8.858229637145996,3.840480327606201,-0.5551348328590393
1772725785897713700,3.936713623046875,8.915657043457031,3.8189449310302734,-0.5264210104942322
1772725785907231000,3.94623095703125,8.992227554321289,3.814159393310547,-0.47617170214653015
1772725785916748000,3.955748046875,9.075976371765137,3.792623996734619,-0.4163511395454407
1772725785926265000,3.96526513671875,9.128618240356445,3.7782669067382812,-0.34695929288864136
1772725785935782400,3.974782470703125,9.253045082092285,3.7950167655944824,-0.30149564146995544
1772725785945299500,3.984299560546875,9.375079154968262,3.8213376998901367,-0.2584248483181
1772725785954816500,3.99381640625,9.403793334960938,3.814159393310547,-0.25363919138908386
1772725785964333800,4.003333740234375,9.351150512695312,3.81655216217041,-0.2512463629245758
1772725785973851000,4.012850830078125,9.33440113067627,3.8428730964660645,-0.32542386651039124
1772725785983368000,4.022367919921875,9.284152030944824,3.87876558303833,-0.3613162338733673
1772725785992885200,4.03188525390625,9.269794464111328,3.9361932277679443,-0.4211367964744568
1772725786002402600,4.041402587890625,9.269794464111328,3.964907169342041,-0.4307080805301666
1772725786011919600,4.050919677734375,9.291330337524414,3.964907169342041,-0.4307080805301666
1772725786021436700,4.060436767578125,9.28893756866455,3.924229145050049,-0.33020952343940735
1772725786030954000,4.0699541015625,9.233902931213379,3.88594388961792,-0.28235307335853577
1772725786040471000,4.079470947265625,9.190832138061523,3.871587038040161,-0.27756741642951965
1772725786049988000,4.088988037109375,9.123832702636719,3.8883368968963623,-0.2871387302875519
1772725786059505200,4.098505126953125,9.030512809753418,3.9122650623321533,-0.2967100143432617
1772725786069022500,4.1080224609375,8.994620323181152,3.9385859966278076,-0.31345975399017334
1772725786078539500,4.11753955078125,9.013762474060059,3.957728624343872,-0.349352091550827
1772725786088056800,4.127056884765625,9.018548965454102,3.90987229347229,-0.3732803463935852
1772725786097574000,4.136573974609375,9.020941734313965,3.8907296657562256,-0.3900300860404968
1772725786107091200,4.14609130859375,9.023334503173828,3.8739798069000244,-0.3924229145050049
1772725786116608300,4.155608154296875,9.037691116333008,3.8811583518981934,-0.40677985548973083
1772725786126125600,4.16512548828125,8.96829891204834,3.8285162448883057,-0.3852444589138031
1772725786135642600,4.174642578125,8.918049812316895,3.814159393310547,-0.38763725757598877
1772725786145159700,4.18415966796875,8.949156761169434,3.871587038040161,-0.41874396800994873
1772725786154677000,4.193677001953125,9.016156196594238,3.895515203475952,-0.48574298620224
1772725786164194000,4.203194091796875,9.097511291503906,3.926621913909912,-0.5048855543136597
1772725786173711000,4.212711181640625,9.119047164916992,3.9122650623321533,-0.4259224236011505
1772725786183228400,4.222228515625,9.133403778076172,3.8572301864624023,-0.36610186100006104
1772725786192745500,4.231745361328125,9.200403213500977,3.8596229553222656,-0.36610186100006104
1772725786202262500,4.241262451171875,9.257830619812012,3.926621913909912,-0.3924229145050049
1772725786211779800,4.25077978515625,9.221938133239746,3.9672999382019043,-0.37088751792907715
1772725786221297000,4.260296875,9.200403213500977,3.957728624343872,-0.2919243574142456
1772725786230814200,4.269814208984375,9.214759826660156,3.950550079345703,-0.24885354936122894
1772725786240331300,4.279331298828125,9.274580955505371,3.950550079345703,-0.23210379481315613
1772725786249848600,4.2888486328125,9.291330337524414,3.981656789779663,-0.23210379481315613
1772725786259365600,4.29836572265625,9.255437850952148,3.981656789779663,-0.24885354936122894
1772725786268882700,4.307882568359375,9.229117393493652,3.9194436073303223,-0.30149564146995544
1772725786278400000,4.31739990234375,9.205188751220703,3.895515203475952,-0.39481574296951294
1772725786287917000,4.3269169921875,9.145368576049805,3.8811583518981934,-0.4331009089946747
1772725786297434000,4.33643408203125,9.049654960632324,3.8835511207580566,-0.4570291340351105
1772725786306951400,4.345951416015625,8.987442016601562,3.9074792861938477,-0.4737788736820221
1772725786316468500,4.355468505859375,8.925228118896484,3.893122434616089,-0.45224347710609436
1772725786325985500,4.364985595703125,8.898907661437988,3.8907296657562256,-0.42352959513664246
1772725786335502800,4.3745029296875,8.96112060546875,3.900300979614258,-0.3924229145050049
1772725786345020000,4.38402001953125,9.059226989746094,3.8907296657562256,-0.37806597352027893
1772725786354537200,4.393537109375,9.17886734008789,3.862015724182129,-0.397208571434021
1772725786364054300,4.40305419921875,9.229117393493652,3.8261234760284424,-0.3900300860404968
1772725786373571300,4.4125712890625,9.286544799804688,3.8285162448883057,-0.3397808074951172
1772725786383088600,4.422088623046875,9.274580955505371,3.806980848312378,-0.32303106784820557
1772725786392605700,4.431605712890625,9.214759826660156,3.830909013748169,-0.3326023519039154
1772725786402123000,4.441123046875,9.166903495788574,3.8835511207580566,-0.32303106784820557
1772725786411640000,4.45064013671875,9.133403778076172,3.9744784832000732,-0.32542386651039124
1772725786421157000,4.4601572265625,9.145368576049805,3.9936211109161377,-0.32303106784820557
1772725786430674400,4.46967431640625,9.142974853515625,3.9672999382019043,-0.3326023519039154
1772725786440191500,4.47919140625,9.169296264648438,3.964907169342041,-0.37806597352027893
1772725786449708800,4.488708740234375,9.214759826660156,3.964907169342041,-0.4163511395454407
1772725786459225900,4.498225830078125,9.257830619812012,3.9385859966278076,-0.46899324655532837
1772725786468743000,4.507742919921875,9.214759826660156,3.90987229347229,-0.42831525206565857
1772725786478260200,4.51726025390625,9.140582084655762,3.8596229553222656,-0.3445664644241333
1772725786487777300,4.52677734375,9.056833267211914,3.8333017826080322,-0.3278166949748993
1772725786497294300,4.53629443359375,9.037691116333008,3.87876558303833,-0.3613162338733673
1772725786506811600,4.545811767578125,9.025727272033691,3.8907296657562256,-0.4331009089946747
1772725786516328700,4.55532861328125,9.035298347473145,3.8883368968963623,-0.4785645306110382
1772725786525845800,4.564845703125,9.097511291503906,3.902693748474121,-0.48095735907554626
1772725786535363000,4.574363037109375,9.150154113769531,3.8811583518981934,-0.47617170214653015
1772725786544880000,4.583880126953125,9.193224906921387,3.84765887260437,-0.48574298620224
1772725786554397400,4.5933974609375,9.236295700073242,3.8285162448883057,-0.4737788736820221
1772725786563914500,4.60291455078125,9.260223388671875,3.783052682876587,-0.4618147611618042
1772725786573431800,4.612431884765625,9.221938133239746,3.7950167655944824,-0.4498506486415863
1772725786582948900,4.621948974609375,9.229117393493652,3.830909013748169,-0.41156548261642456
1772725786592466000,4.6314658203125,9.221938133239746,3.864408493041992,-0.3852444589138031
1772725786601983200,4.640983154296875,9.21715259552002,3.8835511207580566,-0.363709032535553
1772725786611500300,4.650500244140625,9.183652877807617,3.91705060005188,-0.3732803463935852
1772725786621017300,4.660017333984375,9.154939651489258,3.9146578311920166,-0.35892340540885925
1772725786630534700,4.66953466796875,9.157332420349121,3.9122650623321533,-0.3445664644241333
1772725786640051700,4.6790517578125,9.128618240356445,3.90987229347229,-0.2967100143432617
1772725786649568800,4.68856884765625,9.068798065185547,3.8907296657562256,-0.22971096634864807
1772725786659086000,4.698086181640625,9.040083885192871,3.8763725757598877,-0.21296121180057526
1772725786668603400,4.707603271484375,9.052047729492188,3.8811583518981934,-0.2632105052471161
1772725786678120400,4.717120361328125,9.075976371765137,3.9122650623321533,-0.28953152894973755
1772725786687637500,4.726637451171875,9.133403778076172,3.8907296657562256,-0.3397808074951172
1772725786697154800,4.73615478515625,9.095118522644043,3.8668015003204346,-0.33020952343940735
1772725786706671900,4.745671875,9.111868858337402,3.8524444103240967,-0.3517449200153351
1772725786716189000,4.75518896484375,9.140582084655762,3.864408493041992,-0.397208571434021
1772725786725706200,4.764706298828125,9.135796546936035,3.84765887260437,-0.4259224236011505
1772725786735223300,4.774223388671875,9.119047164916992,3.8333017826080322,-0.4307080805301666
1772725786744740400,4.783740234375,9.205188751220703,3.8261234760284424,-0.4426721930503845
1772725786754257700,4.793257568359375,9.31047248840332,3.8428730964660645,-0.4570291340351105
1772725786763774700,4.802774658203125,9.365508079528809,3.82373046875,-0.4666004180908203
1772725786773292000,4.8122919921875,9.396614074707031,3.783052682876587,-0.4091726839542389
1772725786782809000,4.82180908203125,9.399007797241211,3.759124279022217,-0.363709032535553
1772725786792326400,4.831326416015625,9.379864692687988,3.768695592880249,-0.34217363595962524
1772725786801843500,4.840843505859375,9.324830055236816,3.8189449310302734,-0.39960137009620667
1772725786811360500,4.850360595703125,9.221938133239746,3.871587038040161,-0.44745782017707825
1772725786820877800,4.8598779296875,9.174081802368164,3.871587038040161,-0.42352959513664246
1772725786830395000,4.869394775390625,9.128618240356445,3.87876558303833,-0.44027936458587646
1772725786839912000,4.878911865234375,9.07119083404541,3.8763725757598877,-0.40677985548973083
1772725786849429200,4.88842919921875,9.087940216064453,3.8811583518981934,-0.4019941985607147
1772725786858946300,4.8979462890625,9.152546882629395,3.88594388961792,-0.35413774847984314
1772725786868463400,4.90746337890625,9.212367057800293,3.869194269180298,-0.3852444589138031
1772725786877980700,4.916980712890625,9.21715259552002,3.8763725757598877,-0.3278166949748993
1772725786887497700,4.926497802734375,9.18843936920166,3.830909013748169,-0.31106695532798767
1772725786897015000,4.93601513671875,9.142974853515625,3.81655216217041,-0.2919243574142456
1772725786906532000,4.945531982421875,9.042476654052734,3.8428730964660645,-0.31345975399017334
1772725786916049400,4.95504931640625,8.949156761169434,3.864408493041992,-0.33499518036842346
1772725786925566500,4.96456640625,8.941978454589844,3.8763725757598877,-0.3852444589138031
1772725786935083500,4.97408349609375,8.970691680908203,3.88594388961792,-0.4139583110809326
1772725786944600800,4.983600830078125,8.980263710021973,3.869194269180298,-0.46420758962631226
1772725786954118000,4.993117919921875,9.030512809753418,3.85483717918396,-0.4833501875400543
1772725786963635000,5.002635009765625,9.080761909484863,3.845266103744507,-0.4426721930503845
1772725786973152300,5.01215234375,9.150154113769531,3.840480327606201,-0.3900300860404968
1772725786982669300,5.02166943359375,9.18843936920166,3.82373046875,-0.3852444589138031
1772725786992186400,5.031186279296875,9.243474006652832,3.8285162448883057,-0.4043870270252228
1772725787001703700,5.04070361328125,9.241081237792969,3.799802303314209,-0.43549370765686035
1772725787011221000,5.050220947265625,9.298508644104004,3.78544545173645,-0.4163511395454407
1772725787020738000,5.059738037109375,9.367900848388672,3.792623996734619,-0.3924229145050049
1772725787030255000,5.069255126953125,9.4061861038208,3.8045880794525146,-0.380458801984787
1772725787039772400,5.0787724609375,9.45164966583252,3.82373046875,-0.397208571434021
1772725787049289500,5.08828955078125,9.403793334960938,3.783052682876587,-0.380458801984787
1772725787058806500,5.097806640625,9.329615592956543,3.7782669067382812,-0.33738797903060913
1772725787068323800,5.10732373046875,9.219545364379883,3.8045880794525146,-0.3086741268634796
1772725787077841000,5.1168408203125,9.097511291503906,3.85483717918396,-0.30149564146995544
1772725787087358000,5.12635791015625,9.001798629760742,3.9146578311920166,-0.31824541091918945
1772725787096875300,5.135875244140625,8.925228118896484,3.9290146827697754,-0.37088751792907715
1772725787106392300,5.145392333984375,8.930013656616211,3.9361932277679443,-0.40677985548973083
1772725787115909600,5.15490966796875,8.96112060546875,3.8883368968963623,-0.34695929288864136
1772725787125426700,5.1644267578125,8.989834785461426,3.840480327606201,-0.26560330390930176
1772725787134944000,5.173944091796875,9.059226989746094,3.8500516414642334,-0.22492532432079315
1772725787144461000,5.1834609375,9.128618240356445,3.845266103744507,-0.18903298676013947
1772725787153978000,5.19297802734375,9.200403213500977,3.8572301864624023,-0.1986042857170105
1772725787163495400,5.202495361328125,9.214759826660156,3.864408493041992,-0.24167509377002716
1772725787173012500,5.212012451171875,9.214759826660156,3.864408493041992,-0.31824541091918945
1772725787182529500,5.221529541015625,9.205188751220703,3.8835511207580566,-0.41156548261642456
1772725787192046800,5.231046875,9.193224906921387,3.869194269180298,-0.4546363055706024
1772725787201564000,5.24056396484375,9.20997428894043,3.869194269180298,-0.4833501875400543
1772725787211081000,5.2500810546875,9.257830619812012,3.838087558746338,-0.5072783827781677
1772725787220598300,5.259598388671875,9.286544799804688,3.814159393310547,-0.519242525100708
1772725787230115300,5.269115234375,9.291330337524414,3.7782669067382812,-0.49292147159576416
1772725787239632600,5.278632568359375,9.255437850952148,3.7495529651641846,-0.45224347710609436
1772725787249149700,5.288149658203125,9.226723670959473,3.751945972442627,-0.44027936458587646
1772725787258667000,5.2976669921875,9.198010444641113,3.7950167655944824,-0.4211367964744568
1772725787268184000,5.30718408203125,9.205188751220703,3.838087558746338,-0.4211367964744568
1772725787277701000,5.316701171875,9.229117393493652,3.87876558303833,-0.4378865361213684
1772725787287218400,5.326218505859375,9.274580955505371,3.8739798069000244,-0.4307080805301666
1772725787296735500,5.335735595703125,9.336793899536133,3.840480327606201,-0.3684946894645691
1772725787306252500,5.34525244140625,9.355937004089355,3.830909013748169,-0.33499518036842346
1772725787315769900,5.354769775390625,9.324830055236816,3.806980848312378,-0.32303106784820557
1772725787325287000,5.364286865234375,9.253045082092285,3.82373046875,-0.32542386651039124
1772725787334804200,5.37380419921875,9.140582084655762,3.84765887260437,-0.349352091550827
1772725787344321300,5.3833212890625,9.035298347473145,3.8883368968963623,-0.3684946894645691
1772725787353838600,5.392838623046875,8.951549530029297,3.893122434616089,-0.3924229145050049
1772725787363355600,5.402355712890625,8.894122123718262,3.9290146827697754,-0.4043870270252228
1772725787372872700,5.411872802734375,8.874979019165039,3.9290146827697754,-0.38763725757598877
1772725787382390000,5.42139013671875,8.941978454589844,3.9194436073303223,-0.42352959513664246
1772725787391907000,5.430906982421875,9.023334503173828,3.900300979614258,-0.4426721930503845
1772725787401424100,5.440424072265625,9.119047164916992,3.8500516414642334,-0.4043870270252228
1772725787410941400,5.44994140625,9.200403213500977,3.8261234760284424,-0.35413774847984314
1772725787420458500,5.45945849609375,9.243474006652832,3.7950167655944824,-0.3326023519039154
1772725787429975600,5.4689755859375,9.267401695251465,3.7782669067382812,-0.30149564146995544
1772725787439492900,5.478492919921875,9.336793899536133,3.7950167655944824,-0.33499518036842346
1772725787449010000,5.488010009765625,9.389435768127441,3.82373046875,-0.40677985548973083
1772725787458527200,5.49752734375,9.403793334960938,3.8045880794525146,-0.4378865361213684
1772725787468044300,5.507044189453125,9.379864692687988,3.7902309894561768,-0.44745782017707825
1772725787477561600,5.5165615234375,9.308079719543457,3.7567315101623535,-0.4211367964744568
1772725787487078700,5.52607861328125,9.236295700073242,3.799802303314209,-0.42831525206565857
1772725787496595700,5.535595703125,9.22433090209961,3.838087558746338,-0.39960137009620667
1772725787506113000,5.545113037109375,9.241081237792969,3.8763725757598877,-0.34217363595962524
1772725787515630000,5.554630126953125,9.22433090209961,3.8668015003204346,-0.28235307335853577
1772725787525147100,5.564147216796875,9.166903495788574,3.8835511207580566,-0.28953152894973755
1772725787534664400,5.57366455078125,9.147761344909668,3.900300979614258,-0.2727817893028259
1772725787544181500,5.583181396484375,9.152546882629395,3.893122434616089,-0.24167509377002716
1772725787553698800,5.59269873046875,9.090332984924316,3.9290146827697754,-0.24167509377002716
1772725787563216000,5.6022158203125,9.047262191772461,3.94815731048584,-0.2727817893028259
1772725787572733200,5.611733154296875,9.006584167480469,3.933800458908081,-0.31106695532798767
1772725787582250200,5.621250244140625,8.982656478881836,3.9146578311920166,-0.349352091550827
1772725787591767300,5.630767333984375,9.030512809753418,3.91705060005188,-0.4091726839542389
1772725787601284600,5.64028466796875,9.075976371765137,3.9074792861938477,-0.4618147611618042
1772725787610801700,5.6498017578125,9.10229778289795,3.8668015003204346,-0.4163511395454407
1772725787620319000,5.659319091796875,9.097511291503906,3.8356947898864746,-0.363709032535553
1772725787629836000,5.6688359375,9.07119083404541,3.8189449310302734,-0.3732803463935852
1772725787639353000,5.67835302734375,9.075976371765137,3.840480327606201,-0.38763725757598877
1772725787648870400,5.687870361328125,9.10229778289795,3.87876558303833,-0.39481574296951294
1772725787658387500,5.697387451171875,9.176474571228027,3.88594388961792,-0.40677985548973083
1772725787667904500,5.706904541015625,9.250652313232422,3.871587038040161,-0.43549370765686035
1772725787677421800,5.716421875,9.257830619812012,3.8285162448883057,-0.4163511395454407
1772725787686939000,5.72593896484375,9.200403213500977,3.7902309894561768,-0.4211367964744568
1772725787696456200,5.735456298828125,9.133403778076172,3.7950167655944824,-0.4139583110809326
1772725787705973200,5.74497314453125,9.140582084655762,3.864408493041992,-0.4450650215148926
1772725787715490600,5.754490478515625,9.198010444641113,3.9385859966278076,-0.4498506486415863
1772725787725007600,5.764007568359375,9.231510162353516,3.957728624343872,-0.4211367964744568
1772725787734524700,5.773524658203125,9.257830619812012,3.9314076900482178,-0.3038884699344635
1772725787744042000,5.7830419921875,9.200403213500977,3.8979079723358154,-0.18903298676013947
1772725787753559000,5.79255908203125,9.126225471496582,3.8835511207580566,-0.16510476171970367
1772725787763076000,5.802076171875,9.044869422912598,3.9074792861938477,-0.24646073579788208
1772725787772593400,5.811593505859375,8.980263710021973,3.9625144004821777,-0.33738797903060913
1772725787782110500,5.8211103515625,8.970691680908203,3.9936211109161377,-0.4498506486415863
1772725787791627500,5.83062744140625,8.95394229888916,3.981656789779663,-0.43549370765686035
1772725787801144800,5.840144775390625,8.97787094116211,3.94097900390625,-0.363709032535553
1772725787810662000,5.849661865234375,9.119047164916992,3.933800458908081,-0.2991028428077698
1772725787820179200,5.85917919921875,9.257830619812012,3.9314076900482178,-0.2847459018230438
1772725787829696300,5.8686962890625,9.293723106384277,3.9218363761901855,-0.23210379481315613
1772725787839213600,5.878213623046875,9.265008926391602,3.871587038040161,-0.19381862878799438
1772725787848730600,5.887730712890625,9.21715259552002,3.869194269180298,-0.19381862878799438
1772725787858247700,5.89724755859375,9.121439933776855,3.869194269180298,-0.28235307335853577
1772725787867765000,5.906764892578125,9.016156196594238,3.900300979614258,-0.349352091550827
1772725787877282000,5.916281982421875,8.949156761169434,3.9314076900482178,-0.4259224236011505
1772725787886799000,5.925799072265625,8.958727836608887,3.91705060005188,-0.44745782017707825
1772725787896316400,5.93531640625,9.001798629760742,3.8907296657562256,-0.41874396800994873
1772725787905833500,5.94483349609375,9.121439933776855,3.862015724182129,-0.39481574296951294
1772725787915350800,5.954350830078125,9.219545364379883,3.8524444103240967,-0.363709032535553
1772725787924867800,5.963867919921875,9.305686950683594,3.8668015003204346,-0.33020952343940735
1772725787934385200,5.97338525390625,9.329615592956543,3.864408493041992,-0.3278166949748993
1772725787943902200,5.982902099609375,9.322437286376953,3.8596229553222656,-0.33499518036842346
1772725787953419300,5.992419189453125,9.255437850952148,3.862015724182129,-0.31824541091918945
1772725787962936600,6.0019365234375,9.214759826660156,3.900300979614258,-0.3038884699344635
1772725787972453600,6.01145361328125,9.169296264648438,3.9529430866241455,-0.3565305769443512
1772725787981971000,6.020970947265625,9.154939651489258,3.950550079345703,-0.3732803463935852
1772725787991488000,6.030488037109375,9.152546882629395,3.9744784832000732,-0.3852444589138031
1772725788001005000,6.040005126953125,9.128618240356445,3.9218363761901855,-0.4139583110809326
1772725788010522400,6.0495224609375,9.131011009216309,3.9314076900482178,-0.4091726839542389
1772725788020039400,6.059039306640625,9.162117958068848,3.90987229347229,-0.4019941985607147
1772725788029556500,6.068556396484375,9.190832138061523,3.895515203475952,-0.4019941985607147
1772725788039073800,6.07807373046875,9.18843936920166,3.91705060005188,-0.39960137009620667
1772725788048590800,6.0875908203125,9.214759826660156,3.8979079723358154,-0.3756731450557709
1772725788058108200,6.097108154296875,9.198010444641113,3.88594388961792,-0.33020952343940735
1772725788067625200,6.106625244140625,9.181260108947754,3.85483717918396,-0.3038884699344635
1772725788077142500,6.116142578125,9.1716890335083,3.845266103744507,-0.30628129839897156
1772725788086659600,6.12565966796875,9.138189315795898,3.830909013748169,-0.32542386651039124
1772725788096176600,6.1351767578125,9.121439933776855,3.8356947898864746,-0.3756731450557709
1772725788105694000,6.14469384765625,9.150154113769531,3.8213376998901367,-0.3684946894645691
1772725788115211000,6.1542109375,9.159725189208984,3.81655216217041,-0.3852444589138031
1772725788124728000,6.16372802734375,9.169296264648438,3.8356947898864746,-0.4163511395454407
1772725788134245400,6.173245361328125,9.140582084655762,3.84765887260437,-0.39481574296951294
1772725788143762400,6.182762451171875,9.145368576049805,3.8979079723358154,-0.3924229145050049
1772725788153279700,6.19227978515625,9.135796546936035,3.895515203475952,-0.4091726839542389
1772725788162796800,6.201796875,9.126225471496582,3.933800458908081,-0.39960137009620667
1772725788172314000,6.211314208984375,9.040083885192871,3.9194436073303223,-0.37806597352027893
1772725788181831200,6.2208310546875,9.004191398620605,3.9314076900482178,-0.349352091550827
1772725788191348200,6.23034814453125,9.037691116333008,3.9290146827697754,-0.34217363595962524
1772725788200865500,6.239865478515625,9.126225471496582,3.957728624343872,-0.37088751792907715
1772725788210382600,6.249382568359375,9.18843936920166,3.9864425659179688,-0.36610186100006104
1772725788219899600,6.258899658203125,9.20997428894043,3.9625144004821777,-0.35413774847984314
1772725788229417000,6.2684169921875,9.200403213500977,3.8811583518981934,-0.2991028428077698
1772725788238934000,6.27793408203125,9.21715259552002,3.8117663860321045,-0.3158525824546814
1772725788248451000,6.287451171875,9.22433090209961,3.8189449310302734,-0.3326023519039154
1772725788257968400,6.296968505859375,9.159725189208984,3.845266103744507,-0.3613162338733673
1772725788267485400,6.3064853515625,9.095118522644043,3.8500516414642334,-0.3278166949748993
1772725788277002800,6.316002685546875,9.083154678344727,3.8572301864624023,-0.3900300860404968
1772725788286519800,6.325519775390625,9.116654396057129,3.90987229347229,-0.4498506486415863
1772725788296037000,6.335037109375,9.159725189208984,3.862015724182129,-0.4713860750198364
1772725788305554200,6.34455419921875,9.22433090209961,3.8285162448883057,-0.4091726839542389
1772725788315071200,6.3540712890625,9.214759826660156,3.7663028240203857,-0.32303106784820557
1772725788324588500,6.363588623046875,9.1716890335083,3.775874137878418,-0.2967100143432617
1772725788334105600,6.373105712890625,9.164510726928711,3.840480327606201,-0.33738797903060913
1772725788343623000,6.382622802734375,9.181260108947754,3.9457645416259766,-0.3756731450557709
1772725788353140000,6.392139892578125,9.169296264648438,3.9840497970581055,-0.3613162338733673
1772725788362657000,6.401656982421875,9.123832702636719,3.9792640209198,-0.3445664644241333
1772725788372174300,6.41117431640625,9.169296264648438,3.9792640209198,-0.30628129839897156
1772725788381691400,6.42069140625,9.169296264648438,3.926621913909912,-0.2632105052471161
1772725788391208700,6.430208740234375,9.190832138061523,3.9146578311920166,-0.23688943684101105
1772725788400725800,6.439725830078125,9.162117958068848,3.8979079723358154,-0.20817556977272034
1772725788410243000,6.4492431640625,9.157332420349121,3.895515203475952,-0.20099709928035736
1772725788419760000,6.458760009765625,9.152546882629395,3.9050865173339844,-0.20338992774486542
1772725788429277200,6.468277099609375,9.1716890335083,3.9218363761901855,-0.2512463629245758
1772725788438794500,6.47779443359375,9.17886734008789,3.8883368968963623,-0.2560320198535919
1772725788448311600,6.4873115234375,9.176474571228027,3.864408493041992,-0.25363919138908386
1772725788457828600,6.49682861328125,9.154939651489258,3.8596229553222656,-0.2847459018230438
1772725788467346000,6.506345947265625,9.157332420349121,3.8500516414642334,-0.32303106784820557
1772725788476863000,6.515863037109375,9.114261627197266,3.91705060005188,-0.363709032535553
1772725788486380000,6.525380126953125,9.07119083404541,3.94815731048584,-0.397208571434021
1772725788495897300,6.5348974609375,9.09990406036377,3.924229145050049,-0.45942193269729614
1772725788505414400,6.544414306640625,9.131011009216309,3.9361932277679443,-0.46899324655532837
1772725788514931700,6.553931640625,9.138189315795898,3.900300979614258,-0.48813581466674805
1772725788524448800,6.56344873046875,9.169296264648438,3.862015724182129,-0.4211367964744568
1772725788533966000,6.572966064453125,9.147761344909668,3.8021950721740723,-0.3732803463935852
1772725788543483100,6.582483154296875,9.159725189208984,3.845266103744507,-0.3397808074951172
1772725788553000200,6.592000244140625,9.186046600341797,3.9074792861938477,-0.3565305769443512
1772725788562517500,6.601517578125,9.18843936920166,3.9696927070617676,-0.38285163044929504
1772725788572034600,6.61103466796875,9.152546882629395,3.955335855484009,-0.4043870270252228
1772725788581551900,6.6205517578125,9.154939651489258,3.9672999382019043,-0.41874396800994873
1772725788591069000,6.63006884765625,9.219545364379883,3.933800458908081,-0.41156548261642456
1772725788600586000,6.6395859375,9.219545364379883,3.90987229347229,-0.3613162338733673
1772725788610103300,6.649103271484375,9.17886734008789,3.869194269180298,-0.2991028428077698
1772725788619620400,6.658620361328125,9.147761344909668,3.87876558303833,-0.22492532432079315
1772725788629137700,6.6681376953125,9.159725189208984,3.8979079723358154,-0.23688943684101105
1772725788638654700,6.67765478515625,9.140582084655762,3.9601213932037354,-0.26560330390930176
1772725788648172000,6.687172119140625,9.109476089477539,3.988835334777832,-0.2847459018230438
1772725788657689000,6.696689208984375,9.142974853515625,4.0079779624938965,-0.26081767678260803
1772725788667206100,6.7062060546875,9.150154113769531,4.005585193634033,-0.24646073579788208
1772725788676723500,6.715723388671875,9.126225471496582,3.9696927070617676,-0.2273181527853012
1772725788686240500,6.725240478515625,9.128618240356445,3.9840497970581055,-0.23449662327766418
1772725788695757600,6.734757568359375,9.114261627197266,3.9218363761901855,-0.27756741642951965
1772725788705275000,6.74427490234375,9.109476089477539,3.950550079345703,-0.34695929288864136
1772725788714792000,6.7537919921875,9.138189315795898,3.924229145050049,-0.39960137009620667
1772725788724309000,6.76330908203125,9.097511291503906,3.94097900390625,-0.40677985548973083
1772725788733826300,6.772826416015625,9.128618240356445,3.94097900390625,-0.4091726839542389
1772725788743343400,6.78234326171875,9.09990406036377,3.924229145050049,-0.37806597352027893
1772725788752860700,6.791860595703125,9.020941734313965,3.926621913909912,-0.380458801984787
1772725788762377700,6.801377685546875,9.018548965454102,3.955335855484009,-0.4019941985607147
1772725788771895000,6.81089501953125,9.028120040893555,3.9840497970581055,-0.4713860750198364
1772725788781412000,6.820412109375,8.997013092041016,4.0319061279296875,-0.48095735907554626
1772725788790929400,6.829929443359375,9.018548965454102,4.034298896789551,-0.380458801984787
1772725788800446500,6.839446533203125,9.028120040893555,4.01037073135376,-0.31824541091918945
1772725788809963500,6.848963623046875,9.080761909484863,4.0079779624938965,-0.2847459018230438
1772725788819480800,6.858480712890625,9.10229778289795,4.01037073135376,-0.2799602448940277
1772725788828998000,6.867997802734375,9.109476089477539,4.0079779624938965,-0.2991028428077698
1772725788838515000,6.877514892578125,9.075976371765137,3.957728624343872,-0.29431718587875366
1772725788848032300,6.8870322265625,9.037691116333008,3.9625144004821777,-0.32303106784820557
1772725788857549300,6.89654931640625,8.989834785461426,4.0079779624938965,-0.34695929288864136
1772725788867066400,6.90606640625,8.965906143188477,4.029513359069824,-0.39960137009620667
1772725788876583700,6.915583740234375,8.913264274597168,4.067798614501953,-0.3900300860404968
1772725788886101000,6.92510107421875,8.95394229888916,4.082155227661133,-0.42831525206565857
1772725788895618000,6.9346181640625,9.008976936340332,4.067798614501953,-0.42352959513664246
1772725788905135000,6.944135009765625,9.087940216064453,4.0079779624938965,-0.4139583110809326
1772725788914652400,6.95365234375,9.131011009216309,3.950550079345703,-0.39960137009620667
1772725788924169500,6.96316943359375,9.159725189208984,3.9122650623321533,-0.4019941985607147
1772725788933686500,6.9726865234375,9.205188751220703,3.871587038040161,-0.3613162338733673
1772725788943203800,6.982203857421875,9.253045082092285,3.90987229347229,-0.35413774847984314
1772725788952721000,6.991720947265625,9.255437850952148,3.964907169342041,-0.36610186100006104
1772725788962238200,7.00123828125,9.226723670959473,3.9840497970581055,-0.37806597352027893
1772725788971755300,7.01075537109375,9.140582084655762,3.981656789779663,-0.349352091550827
1772725788981272300,7.020272216796875,9.08554744720459,3.9672999382019043,-0.31824541091918945
1772725788990789600,7.02978955078125,9.013762474060059,4.0079779624938965,-0.3445664644241333
1772725789000306700,7.039306640625,8.96112060546875,4.024727821350098,-0.37088751792907715
1772725789009824000,7.048823974609375,8.975478172302246,4.043870449066162,-0.33499518036842346
1772725789019341000,7.058341064453125,8.973084449768066,4.067798614501953,-0.2991028428077698
1772725789028858400,7.0678583984375,8.999405860900879,4.058227062225342,-0.2512463629245758
1772725789038375400,7.07737548828125,9.075976371765137,4.06540584564209,-0.2679961323738098
1772725789047892500,7.086892578125,9.145368576049805,4.036691665649414,-0.24885354936122894
1772725789057409800,7.096409912109375,9.219545364379883,3.988835334777832,-0.28953152894973755
1772725789066926800,7.1059267578125,9.293723106384277,3.9912281036376953,-0.31345975399017334
1772725789076444000,7.11544384765625,9.298508644104004,3.981656789779663,-0.32542386651039124
1772725789085961200,7.124961181640625,9.243474006652832,3.94815731048584,-0.32303106784820557
1772725789095478300,7.134478271484375,9.181260108947754,3.957728624343872,-0.380458801984787
1772725789104995300,7.143995361328125,9.150154113769531,3.981656789779663,-0.4307080805301666
1772725789114512600,7.1535126953125,9.164510726928711,4.01037073135376,-0.48813581466674805
1772725789124030000,7.163030029296875,9.166903495788574,4.019941806793213,-0.5335994362831116
1772725789133547000,7.172547119140625,9.138189315795898,3.950550079345703,-0.4977070987224579
1772725789143064000,7.18206396484375,9.131011009216309,3.9074792861938477,-0.4618147611618042
1772725789152581400,7.191581298828125,9.049654960632324,3.8811583518981934,-0.4163511395454407
1772725789162098400,7.201098388671875,9.011369705200195,3.8835511207580566,-0.397208571434021
1772725789171615700,7.21061572265625,8.970691680908203,3.9385859966278076,-0.4259224236011505
1772725789181132800,7.2201328125,8.987442016601562,3.9768712520599365,-0.4618147611618042
1772725789190649900,7.22964990234375,8.997013092041016,3.9912281036376953,-0.4666004180908203
1772725789200167200,7.239167236328125,8.999405860900879,3.9672999382019043,-0.4546363055706024
1772725789209684200,7.248684326171875,9.018548965454102,3.950550079345703,-0.4331009089946747
1772725789219201300,7.258201171875,9.035298347473145,3.9433717727661133,-0.4211367964744568
1772725789228718600,7.267718505859375,9.032905578613281,3.926621913909912,-0.3684946894645691
1772725789238235600,7.277235595703125,9.049654960632324,3.950550079345703,-0.31345975399017334
1772725789247753000,7.2867529296875,9.07119083404541,3.9601213932037354,-0.31824541091918945
1772725789257270000,7.29627001953125,9.114261627197266,3.9696927070617676,-0.32542386651039124
1772725789266787300,7.305787353515625,9.166903495788574,3.964907169342041,-0.31345975399017334
1772725789276304400,7.315304443359375,9.20997428894043,3.988835334777832,-0.31824541091918945
1772725789285821400,7.324821533203125,9.198010444641113,3.9696927070617676,-0.31345975399017334
1772725789295338800,7.3343388671875,9.212367057800293,3.957728624343872,-0.27038896083831787
1772725789304855800,7.343855712890625,9.214759826660156,3.964907169342041,-0.24646073579788208
1772725789314373000,7.353373046875,9.198010444641113,3.957728624343872,-0.24885354936122894
1772725789323890200,7.36289013671875,9.20279598236084,3.9768712520599365,-0.27756741642951965
1772725789333407200,7.3724072265625,9.243474006652832,4.01754903793335,-0.34217363595962524
1772725789342924500,7.381924560546875,9.253045082092285,3.9696927070617676,-0.3397808074951172
1772725789352441600,7.391441650390625,9.20997428894043,3.9433717727661133,-0.31345975399017334
1772725789361959000,7.400958984375,9.200403213500977,3.9122650623321533,-0.27756741642951965
1772725789371476000,7.41047607421875,9.200403213500977,3.88594388961792,-0.2991028428077698
1772725789380993300,7.4199931640625,9.20279598236084,3.9050865173339844,-0.33020952343940735
1772725789390510300,7.42951025390625,9.190832138061523,3.94097900390625,-0.3756731450557709
1772725789400027400,7.43902734375,9.198010444641113,3.9696927070617676,-0.380458801984787
1772725789409544700,7.448544677734375,9.20997428894043,3.94815731048584,-0.34217363595962524
1772725789419061800,7.458061767578125,9.20279598236084,3.933800458908081,-0.3206382393836975
1772725789428578800,7.467578857421875,9.131011009216309,3.9290146827697754,-0.3158525824546814
1772725789438096100,7.47709619140625,9.07119083404541,3.9218363761901855,-0.31345975399017334
1772725789447613200,7.48661328125,8.989834785461426,3.9290146827697754,-0.38763725757598877
1772725789457130500,7.496130615234375,8.930013656616211,3.964907169342041,-0.44027936458587646
1772725789466647600,7.5056474609375,8.898907661437988,3.972085475921631,-0.4618147611618042
1772725789476164600,7.51516455078125,8.874979019165039,3.981656789779663,-0.45224347710609436
1772725789485682000,7.524681884765625,8.913264274597168,3.9672999382019043,-0.4331009089946747
1772725789495199000,7.534198974609375,9.018548965454102,3.964907169342041,-0.41874396800994873
1772725789504716300,7.54371630859375,9.114261627197266,3.90987229347229,-0.397208571434021
1772725789514233300,7.5532333984375,9.205188751220703,3.8811583518981934,-0.30628129839897156
1772725789523750700,7.562750732421875,9.269794464111328,3.862015724182129,-0.27756741642951965
1772725789533267700,7.572267822265625,9.34157943725586,3.8835511207580566,-0.2679961323738098
1772725789542784800,7.58178466796875,9.336793899536133,3.8763725757598877,-0.25363919138908386
1772725789552302000,7.591302001953125,9.281759262084961,3.924229145050049,-0.27756741642951965
1772725789561819100,7.600819091796875,9.214759826660156,3.94815731048584,-0.3158525824546814
1772725789571336200,7.610336181640625,9.20279598236084,3.9792640209198,-0.3397808074951172
1772725789580853500,7.619853515625,9.18843936920166,3.9984066486358643,-0.37806597352027893
1772725789590370600,7.62937060546875,9.126225471496582,3.9672999382019043,-0.3445664644241333
1772725789599888000,7.638887939453125,9.133403778076172,3.955335855484009,-0.31106695532798767
1772725789609405000,7.648405029296875,9.123832702636719,3.9672999382019043,-0.26560330390930176
1772725789618922200,7.657922119140625,9.154939651489258,3.955335855484009,-0.2871387302875519
1772725789628439300,7.667439208984375,9.104690551757812,3.9864425659179688,-0.3278166949748993
1772725789637956600,7.67695654296875,9.037691116333008,4.00319242477417,-0.3206382393836975
1772725789647473700,7.6864736328125,8.997013092041016,3.955335855484009,-0.2991028428077698
1772725789656990700,7.69599072265625,9.011369705200195,3.9625144004821777,-0.33020952343940735
1772725789666508000,7.705508056640625,9.068798065185547,3.950550079345703,-0.349352091550827
1772725789676025000,7.715025146484375,9.126225471496582,3.950550079345703,-0.35413774847984314
1772725789685542100,7.724542236328125,9.140582084655762,3.91705060005188,-0.35413774847984314
1772725789695059500,7.7340595703125,9.126225471496582,3.864408493041992,-0.3278166949748993
1772725789704576500,7.743576416015625,9.131011009216309,3.8428730964660645,-0.32303106784820557
1772725789714093600,7.753093505859375,9.10229778289795,3.871587038040161,-0.3900300860404968
1772725789723611000,7.76261083984375,9.095118522644043,3.91705060005188,-0.5000999569892883
1772725789733128000,7.7721279296875,9.10229778289795,3.893122434616089,-0.5168496966362
1772725789742645200,7.781645263671875,9.075976371765137,3.9074792861938477,-0.4977070987224579
1772725789752162300,7.791162353515625,9.073583602905273,3.895515203475952,-0.4737788736820221
1772725789761679600,7.8006796875,9.068798065185547,3.8835511207580566,-0.4307080805301666
1772725789771196700,7.81019677734375,9.090332984924316,3.900300979614258,-0.40677985548973083
1772725789780714000,7.8197138671875,9.128618240356445,3.9050865173339844,-0.3900300860404968
1772725789790231000,7.82923095703125,9.174081802368164,3.9385859966278076,-0.380458801984787
1772725789799748000,7.838748046875,9.205188751220703,3.9385859966278076,-0.3397808074951172
1772725789809265400,7.848265380859375,9.18843936920166,3.933800458908081,-0.3038884699344635
1772725789818782500,7.857782470703125,9.181260108947754,3.9290146827697754,-0.29431718587875366
1772725789828299500,7.867299560546875,9.193224906921387,3.9385859966278076,-0.31106695532798767
1772725789837816800,7.87681689453125,9.157332420349121,3.9314076900482178,-0.3684946894645691
1772725789847334000,7.886333984375,9.104690551757812,3.9361932277679443,-0.42352959513664246
1772725789856851200,7.895851318359375,9.078369140625,3.9194436073303223,-0.4498506486415863
1772725789866368300,7.9053681640625,9.075976371765137,3.88594388961792,-0.4618147611618042
1772725789875885600,7.914885498046875,9.047262191772461,3.87876558303833,-0.4570291340351105
1772725789885402600,7.924402587890625,9.052047729492188,3.8907296657562256,-0.49292147159576416
1772725789894919700,7.933919677734375,9.10229778289795,3.9074792861938477,-0.5000999569892883
1772725789904437000,7.94343701171875,9.169296264648438,3.9146578311920166,-0.4546363055706024
1772725789913954000,7.9529541015625,9.200403213500977,3.869194269180298,-0.41156548261642456
1772725789923471400,7.962471435546875,9.21715259552002,3.838087558746338,-0.3684946894645691
1772725789942505500,7.98150537109375,9.116654396057129,3.8668015003204346,-0.33499518036842346
1772725789952022800,7.991022705078125,9.07119083404541,3.8883368968963623,-0.3852444589138031
1772725789961539800,8.000539794921876,9.080761909484863,3.8763725757598877,-0.39960137009620667
1772725789971057000,8.010056884765625,9.09272575378418,3.8739798069000244,-0.4091726839542389
1772725789980574200,8.01957421875,9.126225471496582,3.8356947898864746,-0.45942193269729614
1772725789990091300,8.02909130859375,9.140582084655762,3.8021950721740723,-0.45224347710609436
1772725789999608600,8.038608642578126,9.233902931213379,3.7878382205963135,-0.4737788736820221
1772725790009125600,8.048125732421875,9.31047248840332,3.7782669067382812,-0.4666004180908203
1772725790018643000,8.057642822265626,9.312865257263184,3.7734813690185547,-0.44745782017707825
1772725790028160000,8.067159912109375,9.332008361816406,3.806980848312378,-0.41156548261642456
1772725790037677000,8.076677001953126,9.324830055236816,3.8261234760284424,-0.3445664644241333
1772725790047194400,8.0861943359375,9.351150512695312,3.8596229553222656,-0.2871387302875519
1772725790056711400,8.09571142578125,9.351150512695312,3.8883368968963623,-0.28235307335853577
1772725790066228700,8.105228759765625,9.30329418182373,3.900300979614258,-0.33738797903060913
1772725790075745800,8.114745849609376,9.229117393493652,3.902693748474121,-0.3900300860404968
1772725790085262800,8.124262939453125,9.152546882629395,3.8811583518981934,-0.4618147611618042
1772725790094780200,8.1337802734375,9.097511291503906,3.864408493041992,-0.5168496966362
1772725790104297200,8.143297119140625,9.052047729492188,3.871587038040161,-0.5144568681716919
1772725790113814500,8.152814453125,9.023334503173828,3.895515203475952,-0.4977070987224579
1772725790123331600,8.16233154296875,9.001798629760742,3.893122434616089,-0.4450650215148926
1772725790132849000,8.171848876953124,8.97787094116211,3.871587038040161,-0.40677985548973083
1772725790142366000,8.181365966796875,9.001798629760742,3.862015724182129,-0.4019941985607147
1772725790151883000,8.190883056640626,9.028120040893555,3.8524444103240967,-0.40677985548973083
1772725790161400300,8.200400390625,9.037691116333008,3.806980848312378,-0.380458801984787
1772725790170917400,8.20991748046875,9.131011009216309,3.783052682876587,-0.36610186100006104
1772725790180434700,8.2194345703125,9.174081802368164,3.730410575866699,-0.34217363595962524
1772725790189951700,8.22895166015625,9.272188186645508,3.7328033447265625,-0.37088751792907715
1772725790199468800,8.23846875,9.372686386108398,3.7543387413024902,-0.4163511395454407
1772725790208986000,8.247986083984374,9.391828536987305,3.7950167655944824,-0.4378865361213684
1772725790218503200,8.257503173828125,9.32722282409668,3.7974095344543457,-0.42352959513664246
1772725790228020200,8.267020263671874,9.200403213500977,3.7902309894561768,-0.36610186100006104
1772725790237537500,8.27653759765625,9.128618240356445,3.82373046875,-0.3565305769443512
1772725790247054800,8.286054931640624,9.159725189208984,3.87876558303833,-0.4091726839542389
1772725790256572000,8.295572021484375,9.17886734008789,3.902693748474121,-0.4378865361213684
1772725790266089000,8.3050888671875,9.214759826660156,3.8572301864624023,-0.37806597352027893
1772725790275606300,8.314606201171875,9.238688468933105,3.8021950721740723,-0.34217363595962524
1772725790285123300,8.324123291015624,9.267401695251465,3.792623996734619,-0.3397808074951172
1772725790294640600,8.333640625,9.265008926391602,3.7806596755981445,-0.33020952343940735
1772725790304157700,8.34315771484375,9.238688468933105,3.7806596755981445,-0.349352091550827
1772725790313674800,8.3526748046875,9.22433090209961,3.809373617172241,-0.38763725757598877
1772725790323192000,8.362192138671874,9.162117958068848,3.830909013748169,-0.45224347710609436
1772725790332709000,8.371709228515625,9.126225471496582,3.845266103744507,-0.5288137793540955
1772725790342226200,8.38122607421875,9.095118522644043,3.8333017826080322,-0.5623133182525635
1772725790351743500,8.390743408203125,9.080761909484863,3.814159393310547,-0.6197410821914673
1772725790361260500,8.400260498046874,9.06401252746582,3.8356947898864746,-0.6340979933738708
1772725790370777900,8.40977783203125,9.056833267211914,3.8333017826080322,-0.5814558863639832
1772725790380295000,8.419294921875,9.128618240356445,3.7806596755981445,-0.5048855543136597
1772725790389812000,8.42881201171875,9.193224906921387,3.730410575866699,-0.4259224236011505
1772725790399329300,8.438329345703124,9.238688468933105,3.6945180892944336,-0.3756731450557709
1772725790408846300,8.447846435546875,9.250652313232422,3.704089403152466,-0.397208571434021
1772725790418363600,8.45736376953125,9.214759826660156,3.751945972442627,-0.4091726839542389
1772725790427880700,8.466880615234375,9.20279598236084,3.7950167655944824,-0.46420758962631226
1772725790437397800,8.476397705078124,9.190832138061523,3.814159393310547,-0.47617170214653015
1772725790446915000,8.4859150390625,9.19561767578125,3.8428730964660645,-0.4618147611618042
1772725790456432000,8.49543212890625,9.193224906921387,3.8500516414642334,-0.41156548261642456
1772725790465949400,8.504949462890625,9.229117393493652,3.8213376998901367,-0.37806597352027893
1772725790475466500,8.514466552734374,9.281759262084961,3.8213376998901367,-0.3924229145050049
1772725790484983800,8.52398388671875,9.284152030944824,3.78544545173645,-0.40677985548973083
1772725790494500900,8.5335009765625,9.291330337524414,3.7782669067382812,-0.4570291340351105
1772725790504018200,8.54301806640625,9.262616157531738,3.792623996734619,-0.48574298620224
1772725790513535200,8.55253515625,9.205188751220703,3.7950167655944824,-0.45224347710609436
1772725790523052300,8.56205224609375,9.114261627197266,3.7878382205963135,-0.44745782017707825
1772725790532569600,8.571569580078124,9.09990406036377,3.85483717918396,-0.4498506486415863
1772725790542086700,8.581086669921875,9.126225471496582,3.8811583518981934,-0.4785645306110382
1772725790551604000,8.59060400390625,9.17886734008789,3.862015724182129,-0.4833501875400543
1772725790561121000,8.60012109375,9.21715259552002,3.8117663860321045,-0.42831525206565857
1772725790570638000,8.60963818359375,9.245866775512695,3.7806596755981445,-0.4019941985607147
1772725790580155400,8.6191552734375,9.279366493225098,3.759124279022217,-0.4019941985607147
1772725790589672400,8.62867236328125,9.312865257263184,3.775874137878418,-0.4666004180908203
1772725790599189500,8.638189453125,9.255437850952148,3.7878382205963135,-0.4905286431312561
1772725790608706800,8.647706787109374,9.19561767578125,3.7567315101623535,-0.4953143000602722
1772725790618223900,8.657223876953125,9.152546882629395,3.7734813690185547,-0.48813581466674805
1772725790627741200,8.6667412109375,9.145368576049805,3.814159393310547,-0.5000999569892883
1772725790637258200,8.67625830078125,9.131011009216309,3.8021950721740723,-0.48095735907554626
1772725790646775600,8.685775634765625,9.150154113769531,3.8117663860321045,-0.42831525206565857
1772725790656292600,8.695292724609375,9.174081802368164,3.814159393310547,-0.46899324655532837
1772725790665810000,8.704809814453125,9.159725189208984,3.799802303314209,-0.4833501875400543
1772725790675327000,8.714326904296875,9.157332420349121,3.799802303314209,-0.46420758962631226
1772725790684844000,8.723843994140625,9.221938133239746,3.8021950721740723,-0.4450650215148926
1772725790694361000,8.733361083984375,9.284152030944824,3.81655216217041,-0.4139583110809326
1772725790703878400,8.74287841796875,9.260223388671875,3.7974095344543457,-0.4139583110809326
1772725790713395500,8.7523955078125,9.207581520080566,3.7734813690185547,-0.41874396800994873
1772725790722912800,8.761912841796875,9.20997428894043,3.761517286300659,-0.44027936458587646
1772725790732429800,8.771429931640625,9.150154113769531,3.761517286300659,-0.49292147159576416
1772725790741947100,8.780947021484375,9.121439933776855,3.8356947898864746,-0.5886343717575073
1772725790751464200,8.790464111328125,9.147761344909668,3.8596229553222656,-0.6436693072319031
1772725790760981500,8.7999814453125,9.09990406036377,3.840480327606201,-0.6221339106559753
1772725790770498600,8.80949853515625,9.061619758605957,3.830909013748169,-0.550349235534668
1772725790780015900,8.819015869140625,9.016156196594238,3.7902309894561768,-0.4785645306110382
1772725790789533000,8.828532958984376,9.09990406036377,3.7639100551605225,-0.4833501875400543
1772725790799050000,8.838050048828125,9.145368576049805,3.7710886001586914,-0.4737788736820221
1772725790808567300,8.8475673828125,9.207581520080566,3.7423746585845947,-0.42352959513664246
1772725790818084400,8.85708447265625,9.293723106384277,3.7112679481506348,-0.44745782017707825
1772725790827601400,8.866601318359375,9.351150512695312,3.696911096572876,-0.46899324655532837
1772725790837118700,8.87611865234375,9.305686950683594,3.7088751792907715,-0.4426721930503845
1772725790846635800,8.8856357421875,9.279366493225098,3.713660717010498,-0.4139583110809326
1772725790856153000,8.895153076171875,9.248259544372559,3.761517286300659,-0.4259224236011505
1772725790865670100,8.904670166015626,9.241081237792969,3.809373617172241,-0.43549370765686035
1772725790875187500,8.9141875,9.205188751220703,3.840480327606201,-0.44027936458587646
1772725790884704500,8.92370458984375,9.193224906921387,3.838087558746338,-0.4331009089946747
1772725790894221800,8.933221923828125,9.18843936920166,3.8045880794525146,-0.48095735907554626
1772725790903739000,8.94273876953125,9.133403778076172,3.806980848312378,-0.45224347710609436
1772725790913256000,8.952255859375,9.111868858337402,3.7806596755981445,-0.43549370765686035
1772725790922773200,8.961773193359376,9.135796546936035,3.845266103744507,-0.4163511395454407
1772725790932290300,8.971290283203125,9.169296264648438,3.893122434616089,-0.44745782017707825
1772725790941807400,8.980807373046876,9.183652877807617,3.864408493041992,-0.41156548261642456
1772725790951324700,8.99032470703125,9.135796546936035,3.8333017826080322,-0.41874396800994873
1772725790960841700,8.999841796875,9.090332984924316,3.7710886001586914,-0.397208571434021
1772725790970359000,9.009359130859375,9.068798065185547,3.768695592880249,-0.45224347710609436
1772725790979876000,9.0188759765625,9.087940216064453,3.8117663860321045,-0.5455635786056519
1772725790989393200,9.02839306640625,9.154939651489258,3.8021950721740723,-0.5838487148284912
1772725790998910500,9.037910400390626,9.238688468933105,3.78544545173645,-0.550349235534668
1772725791008427500,9.047427490234375,9.257830619812012,3.7016966342926025,-0.5288137793540955
1772725791017944800,9.05694482421875,9.255437850952148,3.6681971549987793,-0.45224347710609436
1772725791027462000,9.0664619140625,9.267401695251465,3.665804386138916,-0.41874396800994873
1772725791036979200,9.075979248046876,9.284152030944824,3.7112679481506348,-0.4666004180908203
1772725791046496300,9.085496337890625,9.257830619812012,3.7423746585845947,-0.4378865361213684
1772725791056013300,9.095013427734376,9.06401252746582,3.775874137878418,-0.4259224236011505
1772725791065530600,9.104530517578125,9.109476089477539,3.7710886001586914,-0.44027936458587646
1772725791075047700,9.114047607421876,9.183652877807617,3.7782669067382812,-0.48095735907554626
1772725791084565000,9.12356494140625,9.221938133239746,3.783052682876587,-0.4905286431312561
1772725791094082000,9.13308203125,9.279366493225098,3.768695592880249,-0.45224347710609436
1772725791103599000,9.14259912109375,9.339186668395996,3.7088751792907715,-0.3613162338733673
1772725791113116400,9.152116455078126,9.336793899536133,3.6945180892944336,-0.3326023519039154
1772725791122633500,9.161633544921875,9.358329772949219,3.751945972442627,-0.35892340540885925
1772725791132150800,9.17115087890625,9.34875774383545,3.838087558746338,-0.4163511395454407
1772725791141667800,9.180667724609375,9.286544799804688,3.8979079723358154,-0.4019941985607147
1772725791151185200,9.19018505859375,9.200403213500977,3.88594388961792,-0.33499518036842346
1772725791160702200,9.1997021484375,9.186046600341797,3.845266103744507,-0.3684946894645691
1772725791170219300,9.20921923828125,9.17886734008789,3.869194269180298,-0.4331009089946747
1772725791179736600,9.218736572265625,9.19561767578125,3.845266103744507,-0.4450650215148926
1772725791189253600,9.228253662109376,9.198010444641113,3.806980848312378,-0.4043870270252228
1772725791198771000,9.23777099609375,9.198010444641113,3.783052682876587,-0.363709032535553
1772725791208288000,9.2472880859375,9.241081237792969,3.799802303314209,-0.31345975399017334
1772725791217805000,9.25680517578125,9.291330337524414,3.7806596755981445,-0.2967100143432617
1772725791227322400,9.266322265625,9.317651748657227,3.799802303314209,-0.34695929288864136
1772725791236839400,9.27583935546875,9.308079719543457,3.7878382205963135,-0.36610186100006104
1772725791246356500,9.2853564453125,9.267401695251465,3.7471601963043213,-0.38763725757598877
1772725791255873800,9.294873779296875,9.205188751220703,3.7160534858703613,-0.4091726839542389
1772725791265390800,9.304390869140626,9.142974853515625,3.7184464931488037,-0.46899324655532837
1772725791274908200,9.313908203125,9.087940216064453,3.7471601963043213,-0.47617170214653015
1772725791284425200,9.32342529296875,9.066405296325684,3.7543387413024902,-0.46899324655532837
1772725791293942500,9.332942626953125,9.047262191772461,3.7974095344543457,-0.41874396800994873
1772725791303459600,9.34245947265625,9.020941734313965,3.7902309894561768,-0.38285163044929504
1772725791312977000,9.351976806640625,9.030512809753418,3.809373617172241,-0.363709032535553
1772725791322494000,9.361493896484374,9.095118522644043,3.8333017826080322,-0.363709032535553
1772725791332011000,9.371010986328125,9.1716890335083,3.8356947898864746,-0.363709032535553
1772725791341528300,9.3805283203125,9.193224906921387,3.830909013748169,-0.349352091550827
1772725791351045400,9.39004541015625,9.269794464111328,3.7974095344543457,-0.31345975399017334
1772725791360562400,9.3995625,9.250652313232422,3.78544545173645,-0.28235307335853577
1772725791370079700,9.409079833984375,9.18843936920166,3.7974095344543457,-0.27038896083831787
1772725791379596800,9.4185966796875,9.128618240356445,3.8117663860321045,-0.3086741268634796
1772725791389114000,9.428114013671875,9.030512809753418,3.840480327606201,-0.3445664644241333
1772725791398631200,9.437631103515624,8.980263710021973,3.8811583518981934,-0.380458801984787
1772725791408148500,9.4471484375,9.006584167480469,3.902693748474121,-0.4259224236011505
1772725791417665500,9.45666552734375,9.09272575378418,3.9074792861938477,-0.4618147611618042
1772725791427182800,9.466182861328125,9.219545364379883,3.85483717918396,-0.4618147611618042
1772725791436700000,9.475699951171874,9.32722282409668,3.7639100551605225,-0.42352959513664246
1772725791446217000,9.485217041015625,9.432506561279297,3.713660717010498,-0.41874396800994873
1772725791455734300,9.494734375,9.449256896972656,3.675375461578369,-0.4307080805301666
1772725791465251300,9.504251220703125,9.399007797241211,3.6610186100006104,-0.3900300860404968
1772725791474768600,9.5137685546875,9.312865257263184,3.6777684688568115,-0.38763725757598877
1772725791484285700,9.52328564453125,9.219545364379883,3.737588882446289,-0.44027936458587646
1772725791493802800,9.532802734375,9.126225471496582,3.7806596755981445,-0.4666004180908203
1772725791503320000,9.542320068359375,9.052047729492188,3.809373617172241,-0.4307080805301666
1772725791512837000,9.551837158203124,9.030512809753418,3.830909013748169,-0.35892340540885925
1772725791522354400,9.5613544921875,9.016156196594238,3.8763725757598877,-0.31106695532798767
1772725791531871500,9.57087158203125,9.090332984924316,3.864408493041992,-0.32542386651039124
1772725791541388800,9.580388916015625,9.1716890335083,3.8572301864624023,-0.3278166949748993
1772725791550905900,9.58990576171875,9.300901412963867,3.8356947898864746,-0.3565305769443512
1772725791560423000,9.5994228515625,9.346364974975586,3.8045880794525146,-0.3445664644241333
1772725791569940200,9.608940185546874,9.353543281555176,3.761517286300659,-0.3684946894645691
1772725791579457300,9.618457275390625,9.286544799804688,3.744767427444458,-0.37088751792907715
1772725791588974600,9.627974609375,9.166903495788574,3.7806596755981445,-0.38763725757598877
1772725791598491600,9.63749169921875,9.052047729492188,3.81655216217041,-0.4426721930503845
1772725791608008700,9.6470087890625,8.96112060546875,3.85483717918396,-0.4737788736820221
1772725791617526000,9.656526123046875,8.913264274597168,3.871587038040161,-0.45942193269729614
1772725791627043000,9.66604296875,8.884550094604492,3.840480327606201,-0.35892340540885925
1772725791636560100,9.67556005859375,8.879764556884766,3.8500516414642334,-0.3038884699344635
1772725791646077400,9.685077392578124,8.95394229888916,3.85483717918396,-0.24167509377002716
1772725791655594500,9.694594482421875,8.958727836608887,3.871587038040161,-0.24646073579788208
1772725791665111800,9.70411181640625,8.941978454589844,3.809373617172241,-0.24885354936122894
1772725791674628900,9.71362890625,9.032905578613281,3.7112679481506348,-0.2560320198535919
1772725791684146200,9.723146240234374,9.023334503173828,3.7016966342926025,-0.4019941985607147
1772725791703180300,9.74218017578125,9.040083885192871,3.8261234760284424,-0.6532405614852905
1772725791712697600,9.751697509765625,8.96829891204834,3.9194436073303223,-0.7345965504646301
1772725791722214700,9.761214599609374,8.882157325744629,3.8907296657562256,-0.6747759580612183
1772725791731732000,9.77073193359375,8.934800148010254,3.830909013748169,-0.6604190468788147
1772725791741249000,9.7802490234375,9.008976936340332,3.82373046875,-0.5742774605751038
1772725791750766300,9.789766357421875,9.133403778076172,3.7567315101623535,-0.4426721930503845
1772725791760283400,9.799283447265625,9.410971641540527,3.672982692718506,-0.3206382393836975
1772725791769800400,9.808800537109375,9.678967475891113,3.524627685546875,-0.26081767678260803
1772725791779317800,9.81831787109375,9.848857879638672,3.5509488582611084,-0.275174617767334
