time,seconds_elapsed,z,y,x
1772709227680202800,0.05520263671875,0.003228283952921629,0.0021614215802401304,-0.0020642161834985018
1772709227690227700,0.065227783203125,0.004340952727943659,-0.007035805378109217,0.003808320267125964
1772709227700252700,0.075252685546875,0.007096525281667709,0.00806405209004879,0.006620352156460285
1772709227710278000,0.08527783203125,0.007822769694030285,0.01486283540725708,0.009979663416743279
1772709227720302800,0.095302734375,0.00618039770051837,0.006869890261441469,0.008205199614167213
1772709227730327800,0.105327880859375,0.004191016778349876,0.003192331176251173,0.002888997085392475
1772709227740352800,0.115352783203125,0.005303685087710619,0.007006776984781027,-0.0056986319832503796
1772709227750378000,0.1253779296875,0.004108725115656853,0.008736499585211277,-0.003477555699646473
1772709227760403000,0.13540283203125,0.003846403444185853,0.0073415362276136875,0.00239205127581954
1772709227770428000,0.145427978515625,0.0048946235328912735,0.010381801053881645,-0.00025486451340839267
1772709227780451800,0.155451904296875,0.004563060123473406,0.00980309583246708,-0.008303736336529255
1772709227790476800,0.165476806640625,0.005249356850981712,0.00800492987036705,-0.009741044603288174
1772709227800501800,0.175501708984375,0.0018407768802717328,0.007959921844303608,-0.005116731394082308
1772709227810526700,0.185526611328125,0.004779042676091194,0.006571882404386997,-0.006746852304786444
1772709227820552000,0.195552001953125,0.004680239129811525,0.009168997406959534,-0.0038304245099425316
1772709227830577000,0.205576904296875,0.006418218370527029,0.014065485447645187,0.0018908443162217736
1772709227840601900,0.215601806640625,0.007457916159182787,0.014992531388998032,-0.00018668759730644524
1772709227850627000,0.225626953125,0.009929063729941845,0.012907808646559715,-0.007404652889817953
1772709227860651800,0.23565185546875,0.008448345586657524,0.011063836514949799,-0.006717557553201914
1772709227870676700,0.2456767578125,0.009269132278859615,0.012177570722997189,-0.0007624630234204233
1772709227880701000,0.255700927734375,0.009498430415987968,0.016646089032292366,0.004058657679706812
1772709227890726000,0.265725830078125,0.012077435851097107,0.01720268838107586,0.006346046458929777
1772709227900750800,0.275750732421875,0.011451859027147293,0.011382350698113441,0.005880259443074465
1772709227910775800,0.28577587890625,0.010982610285282135,0.010579407215118408,0.006083725020289421
1772709227920801000,0.295801025390625,0.010612430982291698,0.010808971710503101,0.007812915369868279
1772709227930826000,0.305825927734375,0.012089420109987259,0.010665427893400192,0.008900550194084644
1772709227940850700,0.3158505859375,0.012721920385956764,0.009531719610095024,0.011691276915371418
1772709227950875600,0.325875732421875,0.013375460170209408,0.01161724142730236,0.012408466078341007
1772709227960900900,0.33590087890625,0.012806875631213188,0.012005530297756195,0.010062221437692642
1772709227970925800,0.34592578125,0.012285694479942322,0.006234460044652224,0.005013933405280113
1772709227980949800,0.35594970703125,0.010995126329362392,0.008669921196997166,0.0046845003962516785
1772709227990975000,0.36597509765625,0.01347799226641655,0.003689809702336788,0.010069678537547588
1772709228001000000,0.376,0.014621819369494915,0.007866178639233112,0.017121994867920876
1772709228011025000,0.38602490234375,0.013846839778125286,0.0160673838108778,0.018090587109327316
1772709228021049900,0.3960498046875,0.014155499637126923,0.013165603391826153,0.007955661043524742
1772709228031074800,0.40607470703125,0.013817278668284416,0.004430168308317661,-0.0012130698887631297
1772709228041099800,0.416099853515625,0.011505921371281147,0.004779042676091194,-0.0017113472567871213
1772709228051124700,0.426124755859375,0.012283829972147942,0.007033142261207104,-0.00035420042695477605
1772709228061150000,0.43614990234375,0.009891246445477009,0.014274543151259422,-0.00002210423735959921
1772709228071175000,0.4461748046875,0.01014078501611948,0.013273194432258606,-0.00035659727291204035
1772709228081199900,0.456199951171875,0.009739712812006474,0.006666691042482853,0.002459961920976639
1772709228091224000,0.46622412109375,0.009873669594526291,0.00896926037967205,0.006963367108255625
1772709228101248800,0.476248779296875,0.00714712543413043,0.011710718274116516,0.014189322479069233
1772709228111273700,0.486273681640625,0.009661415591835976,0.00956634059548378,0.01296293642371893
1772709228121298700,0.496298583984375,0.010579673573374748,0.006262157112360001,0.00942039955407381
1772709228131323100,0.5063232421875,0.010911770164966583,0.005209409166127443,0.006296511739492416
1772709228141348000,0.51634814453125,0.011069695465266705,0.007479221560060978,0.00785818975418806
1772709228151373000,0.526373046875,0.012536298483610153,0.011926966719329357,0.011582620441913605
1772709228161398300,0.536398193359375,0.00999031588435173,0.012017248198390007,0.011605789884924889
1772709228171423200,0.54642333984375,0.0105929896235466,0.009185775183141232,0.010005496442317963
1772709228181448200,0.5564482421875,0.011725098825991154,0.006627010181546211,0.005658418405801058
1772709228191472400,0.566472412109375,0.010065949521958828,0.007352455053478479,0.002710299100726843
1772709228201497000,0.5764970703125,0.010640393942594528,0.005638178437948227,0.002859169617295265
1772709228211522000,0.58652197265625,0.0076006618328392506,0.003425357863306999,0.0057529606856405735
1772709228221547000,0.596547119140625,0.008919192478060722,0.0017222663154825568,0.006596383638679981
1772709228231572200,0.606572265625,0.004541488364338875,-0.0003528688393998891,0.009767143055796623
1772709228241597200,0.61659716796875,0.005048288032412529,-0.0011526161106303334,0.014209561981260777
1772709228251622100,0.6266220703125,0.0038245655596256256,-0.005696767941117287,0.01525858137756586
1772709228261647000,0.636647216796875,0.0054877097718417645,-0.00634897593408823,0.019233349710702896
1772709228271672300,0.64667236328125,0.005825931206345558,-0.004421646241098642,0.01799311488866806
1772709228281697300,0.656697265625,0.005732720717787743,-0.004560663364827633,0.01691346988081932
1772709228291721200,0.66672119140625,0.005498362239450216,-0.004025900736451149,0.01133814174681902
1772709228301746200,0.67674609375,0.003861583536490798,-0.0030687605030834675,0.007156446576118469
1772709228311771100,0.686771240234375,0.003640807466581464,-0.0015156050212681293,0.004142280668020248
1772709228321796000,0.696796142578125,0.003498328384011984,-0.0010133327450603247,0.004774781409651041
1772709228331821300,0.7068212890625,0.001591771375387907,-0.0009065400226972997,0.004801413044333458
1772709228341846300,0.71684619140625,0.00013555490295402706,-0.002109223511070013,0.0032591766212135553
1772709228351871200,0.726871337890625,0.0027268105186522007,-0.003934021573513746,-0.0002069276088150218
1772709228361896200,0.736896240234375,-0.001609614584594965,-0.002633333671838045,-0.0023185480386018753
1772709228371921200,0.746921142578125,-0.0010751180816441774,-0.00185036426410079,-0.0029489181470125914
1772709228381946000,0.756946044921875,-0.0025891251862049103,-0.002124936319887638,-0.004936701618134975
1772709228391970000,0.766969970703125,-0.0025800704024732113,-0.00017869810108095407,-0.0037441381718963385
1772709228401995300,0.776995361328125,-0.0010404969798400998,0.005289304070174694,0.00016644757124595344
1772709228412020200,0.787020263671875,-0.0007835020078346133,0.007643272168934345,0.0010069411946460605
1772709228422045200,0.797045166015625,-0.002341451123356819,0.005275189410895109,-0.0005627259379252791
1772709228432070100,0.807070068359375,-0.00015339808305725455,0.004197674337774515,-0.005804892163723707
1772709228442095400,0.817095458984375,-0.0017454357584938407,0.005893575493246317,-0.009861685335636139
1772709228452120000,0.8271201171875,-0.0013342436868697405,0.007143396884202957,-0.00965449120849371
1772709228462145000,0.83714501953125,0.0003818972909357399,0.007361509837210178,-0.008007592521607876
1772709228472170200,0.847170166015625,-0.0016447682864964008,0.00660384027287364,-0.005567071959376335
1772709228482195200,0.8571953125,-0.0004721784498542547,0.005409146659076214,-0.004013916477560997
1772709228492219100,0.86721923828125,-0.0018125474452972412,0.00250496924854815,-0.00018455706594977528
1772709228502244400,0.877244384765625,-0.0005400890368036926,0.0010327738709747791,0.0024413196370005608
1772709228512269300,0.887269287109375,-0.0006266417913138866,0.003727093804627657,0.0022804648615419865
1772709228522294300,0.897294189453125,0.001910285442136228,0.0065588331781327724,0.0035835495218634605
1772709228532319000,0.907319091796875,0.0016863135388121009,0.009139169938862324,0.002778475871309638
1772709228542344200,0.91734423828125,0.002204830991104245,0.008868592791259289,-0.0021635519806295633
1772709228552369200,0.927369140625,-0.0006918892613612115,0.0057678744196891785,-0.00643632747232914
1772709228562394000,0.93739404296875,-0.0009339706157334149,0.006518885493278503,-0.003876497270539403
1772709228572419000,0.947419189453125,-0.0004950816510245204,0.006422479171305895,-0.0038256309926509857
1772709228582444300,0.9574443359375,0.0009350358741357923,0.009021458216011524,-0.008616924285888672
1772709228592468200,0.96746826171875,0.001975799212232232,0.009429454803466797,-0.010523214936256409
1772709228602493200,0.9774931640625,0.0011408982099965215,0.008334096521139145,-0.011298194527626038
1772709228612518100,0.98751806640625,0.0027987160719931126,0.0107682254165411,-0.007761250250041485
1772709228622543000,0.997543212890625,0.004240551497787237,0.012079033069312572,-0.006735667120665312
1772709228632568000,1.007568115234375,0.002103630919009447,0.011021225713193417,-0.004822185728698969
1772709228642593000,1.017593017578125,0.0033273533917963505,0.010308297351002693,-0.0014210627414286137
1772709228652618200,1.0276181640625,0.0025811356026679277,0.00926380604505539,0.00021118867152836174
1772709228662643200,1.037643310546875,0.001353418454527855,0.008215319365262985,-0.0028386632911860943
1772709228672668200,1.047668212890625,0.004209392238408327,0.005833121482282877,-0.0035089810844510794
1772709228682693000,1.057693115234375,0.0031790153589099646,0.006955910474061966,-0.003585680155083537
1772709228692717000,1.067717041015625,0.0018956380663439631,0.01088886708021164,0.0005094627267681062
1772709228702742000,1.077741943359375,0.002094576135277748,0.006527940277010202,0.0006649913266301155
1772709228712767200,1.087767333984375,0.0023036343045532703,0.003605920122936368,-0.0022242721170186996
1772709228722792200,1.097792236328125,0.0013885721564292908,0.00415346585214138,-0.0018932411912828684
1772709228732817200,1.107817138671875,0.001279382617212832,0.005272792652249336,-0.002763828495517373
1772709228742842000,1.117842041015625,0.0006748450105078518,0.004544151946902275,-0.005134308245033026
1772709228752867300,1.127867431640625,0.0026351979468017817,0.0030804784037172794,-0.00920468382537365
1772709228762892300,1.137892333984375,0.0011411645682528615,0.0035601137205958366,-0.008314921520650387
1772709228772917200,1.147917236328125,0.0013843111228197813,0.007768440991640091,-0.008225172758102417
1772709228782941200,1.157941162109375,0.0014210627414286137,0.007822503335773945,-0.00971760880202055
1772709228792966100,1.167966064453125,0.0018695390317589045,0.004607268609106541,-0.010153035633265972
1772709228802991000,1.1779912109375,0.0023086944129318,0.0040442761965096,-0.010932276025414467
1772709228813016000,1.18801611328125,0.0012492889072746038,0.0070160976611077785,-0.0070493873208761215
1772709228823041300,1.198041259765625,0.0033281524665653706,0.00762835843488574,-0.00723634148016572
1772709228833066200,1.208066162109375,0.0031047132797539234,0.00797510240226984,-0.005711148958653212
1772709228843091200,1.21809130859375,0.0025779400020837784,0.004896221682429314,-0.0054885088466107845
1772709228853116200,1.2281162109375,0.001874332781881094,0.004975850228220224,-0.0009736517095007002
1772709228863141000,1.23814111328125,0.0018777948571369052,0.006885070353746414,0.0016479641199111938
1772709228873166000,1.248166015625,0.0031459920573979616,0.006400641519576311,-0.0022128205746412277
1772709228883190300,1.258190185546875,0.0017835189355537295,0.004706338047981262,-0.0075876121409237385
1772709228893215200,1.26821533203125,0.0011472897604107857,0.006084257736802101,-0.006031527183949947
1772709228903240200,1.278240234375,0.001213602488860488,0.007091199047863483,-0.0030775489285588264
1772709228913265200,1.28826513671875,0.0009816411184147,0.007238738238811493,-0.00498117646202445
1772709228923290400,1.298290283203125,0.0009829727932810783,0.006561229936778545,-0.009394832886755466
1772709228933315300,1.3083154296875,0.0028599686920642853,0.005379052832722664,-0.007466704584658146
1772709228943340000,1.318340087890625,0.0029854036401957273,0.00512818293645978,-0.0037702370900660753
1772709228953365000,1.328364990234375,0.0022948458790779114,0.007188138086348772,-0.0014671353856101632
1772709228963390200,1.33839013671875,0.0005020058597438037,0.004456533584743738,-0.0007858988246880472
1772709228973414100,1.3484140625,0.00033209618413820863,0.0012471582740545273,-0.002424808219075203
1772709228983439000,1.358439208984375,0.0018698053900152445,0.0019438412273302674,-0.002880208659917116
1772709228993464300,1.36846435546875,-0.00033156355493701994,0.003356115659698844,-0.002385659608989954
1772709229003489300,1.3784892578125,0.00267754215747118,0.005112470127642155,-0.0012234562309458852
1772709229013514200,1.38851416015625,0.0007925567333586514,0.006184392608702183,-0.0015478292480111122
1772709229023539000,1.3985390625,0.002130262553691864,0.0029521139804273844,-0.0037731665652245283
1772709229033564200,1.408564208984375,0.0013880395563319325,0.004786765668541193,-0.005927131045609713
1772709229043589000,1.418589111328125,0.0008069378091022372,0.005625927820801735,-0.010378604754805565
1772709229053614000,1.428614013671875,0.00011398329661460593,0.00549356872215867,-0.011513910256326199
1772709229063639000,1.43863916015625,-0.0007787083159200847,0.002831739140674472,-0.014276407659053802
1772709229073663200,1.448663330078125,0.000627973407972604,0.002412291243672371,-0.012022840790450573
1772709229083688200,1.458688232421875,-0.05475352704524994,0.007279750891029835,-0.011157313361763954
1772709229093713400,1.46871337890625,0.06199359521269798,0.005049353465437889,-0.011986355297267437
1772709229103738000,1.478738037109375,-0.06458725035190582,0.013643108308315277,-0.012089420109987259
1772709229113763000,1.48876318359375,0.06202715262770653,-0.000006125270374468528,-0.018747588619589806
1772709229123788000,1.4987880859375,-0.06809782981872559,0.0046549392864108086,-0.017370734363794327
1772709229133813500,1.5088134765625,0.06386180222034454,0.003242931328713894,-0.01852414943277836
1772709229143838700,1.518838623046875,-0.06771699339151382,0.007895207032561302,-0.00950855016708374
1772709229153863400,1.528863525390625,0.06667756289243698,0.006551109720021486,-0.008219047449529171
1772709229163887600,1.5388876953125,-0.06580324470996857,0.006444583646953106,-0.006016613449901342
1772709229173912600,1.54891259765625,0.06957827508449554,0.003379817819222808,-0.006355101242661476
1772709229183937500,1.5589375,-0.06724242120981216,0.007665909361094236,-0.0019765980541706085
1772709229193962500,1.56896240234375,0.06992661952972412,0.005835785064846277,-0.003712712787091732
1772709229203987700,1.57898779296875,-0.06840702146291733,0.0037233654875308275,0.0020879183430224657
1772709229214012700,1.5890126953125,0.07021237909793854,0.0006101301987655461,-0.006259227637201548
1772709229224037600,1.59903759765625,-0.06821420788764954,0.003370763035491109,-0.0021813951898366213
1772709229234062300,1.609062255859375,0.07443428784608841,0.00974530540406704,-0.0025715483352541924
1772709229244087600,1.619087646484375,-0.06895962357521057,0.007850466296076775,0.0015132081462070346
1772709229254112500,1.629112548828125,0.07403215020895004,0.005540440324693918,-0.007443002425134182
1772709229264136400,1.639136474609375,-0.0694722831249237,0.0029236183036118746,-0.007369499187916517
1772709229274161700,1.64916162109375,0.07355304807424545,0.008183361031115055,-0.009406019002199173
1772709229284186600,1.6591865234375,-0.06833058595657349,0.009428922086954117,-0.0036043222062289715
1772709229294211600,1.669211669921875,0.0767778679728508,0.008813731372356415,-0.0070919981226325035
1772709229304236500,1.679236572265625,-0.06927867233753204,0.004323375876992941,-0.004048537462949753
1772709229314261500,1.689261474609375,0.07600368559360504,0.006453638430684805,-0.007027283310890198
1772709229324286500,1.699286376953125,-0.07071784883737564,0.0030091057997196913,0.0005912217311561108
1772709229334311400,1.7093115234375,0.07324492186307907,0.005369465332478285,-0.002764361212030053
1772709229344336400,1.71933642578125,-0.0718800500035286,-0.0027593011036515236,0.0023073628544807434
1772709229354360600,1.729360595703125,0.07310590147972107,0.0012740562669932842,0.0002846919232979417
1772709229364385500,1.739385498046875,-0.07065445929765701,-0.0019430422689765692,0.0075964005663990974
1772709229374410800,1.74941064453125,0.07277194410562515,0.0033129723742604256,0.0029640982393175364
1772709229384435700,1.759435791015625,-0.069991335272789,-0.002758235903456807,0.007151119876652956
1772709229394460400,1.76946044921875,0.07373973727226257,0.003422162029892206,0.002400839701294899
1772709229404485400,1.7794853515625,-0.07051118463277817,-0.002510828198865056,0.005112736485898495
1772709229414510600,1.789510498046875,0.07276475429534912,0.004634166602045298,0.0007313040550798178
1772709229424535600,1.79953564453125,-0.06901688128709793,-0.0020242687314748764,0.0027028422337025404
1772709229434560500,1.809560546875,0.07363933324813843,0.006669354159384966,-0.0051566786132752895
1772709229444584700,1.819584716796875,-0.06631483882665634,0.001913214917294681,-0.0027944548055529594
1772709229454609700,1.829609619140625,0.07025125622749329,0.010085124522447586,-0.008747684769332409
1772709229464634600,1.839634521484375,-0.013701431453227997,0.005720736458897591,-0.005360676907002926
1772709229474659300,1.849659423828125,0.007711981888860464,0.009183377958834171,-0.010417487472295761
1772709229484684500,1.8596845703125,0.0023545008152723312,0.007586014457046986,-0.010162356309592724
1772709229494709500,1.86970947265625,0.0033787523861974478,0.009904296137392521,-0.010572216473519802
1772709229504734500,1.879734375,0.0024687503464519978,0.009009207598865032,-0.008971123956143856
1772709229514759400,1.889759521484375,0.003710582386702299,0.007922105491161346,-0.010323211550712585
1772709229524784600,1.89978466796875,0.0031531827989965677,0.006997988559305668,-0.009285377338528633
1772709229534809600,1.9098095703125,0.002267149044200778,0.009429188445210457,-0.007591607049107552
1772709229544833500,1.91983349609375,0.0031790153589099646,0.011434015817940235,-0.0034762241411954165
1772709229554858500,1.9298583984375,0.004363855812698603,0.007820905186235905,-0.0057479003444314
1772709229564883500,1.939883544921875,0.0032706281635910273,0.005322860088199377,-0.004712463356554508
1772709229574908400,1.949908447265625,0.00430260319262743,0.0068272799253463745,-0.004923652391880751
1772709229584933600,1.95993359375,0.004869057331234217,0.01028805784881115,-0.00484215933829546
1772709229594958600,1.96995849609375,0.005047223065048456,0.007966579869389534,-0.007262440398335457
1772709229604983600,1.979983642578125,0.003919640555977821,0.006653907708823681,-0.006469617132097483
1772709229615008500,1.990008544921875,0.002409628126770258,0.007571633439511061,-0.006487726699560881
1772709229625033700,2.00003369140625,0.0029579729307442904,0.008576709777116776,-0.00726457079872489
1772709229635058700,2.01005859375,0.004041080828756094,0.009224923327565193,-0.008286425843834877
1772709229645082400,2.020082275390625,0.002796052722260356,0.009016664698719978,-0.008505604229867458
1772709229655107600,2.030107666015625,0.0037324202712625265,0.008292018435895443,-0.013470268808305264
1772709229665132500,2.040132568359375,0.002353435382246971,0.009586847387254238,-0.012131497263908386
1772709229675157500,2.050157470703125,0.002089249901473522,0.00932346098124981,-0.011803129687905312
1772709229685182500,2.060182373046875,0.00404480891302228,0.010464092716574669,-0.010353571735322475
1772709229695207700,2.070207763671875,0.004526042379438877,0.010397513397037983,-0.008291219361126423
1772709229705232600,2.080232666015625,0.003540406236425042,0.011365572921931744,-0.008227836340665817
1772709229715257600,2.090257568359375,0.0027563716284930706,0.012119513005018234,-0.0067484499886631966
1772709229725282300,2.1002822265625,0.004875182639807463,0.011830560863018036,-0.009088569320738316
1772709229735307500,2.1103076171875,0.0060027651488780975,0.008384163491427898,-0.006597715429961681
1772709229745331500,2.12033154296875,0.0043619913049042225,0.007408647798001766,-0.006066947244107723
1772709229755356700,2.130356689453125,0.006440322380512953,0.013101953081786633,-0.002700711600482464
1772709229765381600,2.140381591796875,0.001743038883432746,0.012553875334560871,0.0010388991795480251
1772709229775406600,2.150406494140625,0.004571049474179745,0.006960703991353512,-0.0010926949325948954
1772709229785431600,2.160431640625,0.003270095447078347,0.004602475091814995,-0.0017073525814339519
1772709229795456800,2.170456787109375,0.004705006722360849,0.008961004205048084,-0.0023427826818078756
1772709229805481500,2.1804814453125,0.004833370912820101,0.010201238095760345,-0.003126284806057811
1772709229815506400,2.19050634765625,0.00469435378909111,0.00950855016708374,-0.0004884237423539162
1772709229825531400,2.200531494140625,0.00498144282028079,0.009386577643454075,-0.0019510318525135517
1772709229835555600,2.2105556640625,0.00564084155485034,0.010499512776732445,-0.003035471076145768
1772709229845580500,2.22058056640625,0.005783586762845516,0.010121876373887062,0.00027324032271280885
1772709229855605500,2.23060546875,0.00686190091073513,0.0062403189949691296,0.0021233384031802416
1772709229865630700,2.240630615234375,0.005438175052404404,0.007026217877864838,-0.00039867521263659
1772709229875655700,2.25065576171875,0.004397677723318338,0.008942095562815666,0.0006250438746064901
1772709229885680400,2.260680419921875,0.005541239399462938,0.008833705447614193,-0.0005424859118647873
1772709229895705300,2.270705322265625,0.004824582487344742,0.006612629164010286,0.0002700445184018463
1772709229905730600,2.28073046875,0.005184642039239407,0.007948203943669796,0.00025007082149386406
1772709229915755500,2.290755615234375,0.0029433255549520254,0.009464342147111893,-0.001838912721723318
1772709229925779500,2.300779541015625,0.005632585845887661,0.009600961580872536,-0.0017600831342861056
1772709229935804700,2.3108046875,0.006197175942361355,0.006871222052723169,-0.002566488226875663
1772709229945829600,2.32082958984375,0.004065581597387791,0.00737216230481863,0.0013992248568683863
1772709229955854600,2.3308544921875,0.004415254574269056,0.008311726152896881,0.001674595638178289
1772709229965879600,2.340879638671875,0.004917260725051165,0.007525027729570866,0.003026682650670409
1772709229975904500,2.350904541015625,0.005363073665648699,0.006901581771671772,0.003469033632427454
1772709229985929500,2.360929443359375,0.005917277652770281,0.008509598672389984,0.0009518137667328119
1772709229995954400,2.370954345703125,0.004352670628577471,0.007929561659693718,0.002204564632847905
1772709230005979600,2.380979736328125,0.005588909611105919,0.00817963294684887,0.0028099012561142445
1772709230016003600,2.391003662109375,0.00452684098854661,0.0065684206783771515,0.0024948492646217346
1772709230026028500,2.401028564453125,0.004381432663649321,0.00857537891715765,0.002972354181110859
1772709230036053800,2.4110537109375,0.005565207917243242,0.007862716913223267,0.0001102548703784123
1772709230046078500,2.421078369140625,0.006602242588996887,0.00510021997615695,0.002276203827932477
1772709230056103400,2.431103515625,0.005029379855841398,0.004790227860212326,0.0043779704719781876
1772709230066128400,2.44112841796875,0.003768905531615019,0.007268831599503756,0.004471980035305023
1772709230076153600,2.451153564453125,0.0046453517861664295,0.010480071417987347,0.002606169320642948
1772709230086178600,2.461178466796875,0.0035393410362303257,0.007023022044450045,0.001743038883432746
1772709230096203500,2.47120361328125,0.004706870764493942,0.004827245604246855,0.0008950884221121669
1772709230106227700,2.481227783203125,0.005733252968639135,0.0067660268396139145,0.0005022721597924829
1772709230116252700,2.491252685546875,0.005711681675165892,0.008245413191616535,0.000720118754543364
1772709230126277000,2.501277099609375,0.004736431874334812,0.008221977390348911,0.00041625206358730793
1772709230136302300,2.51130224609375,0.004634166602045298,0.008404670283198357,0.0013978932984173298
1772709230146327300,2.521327392578125,0.005682386923581362,0.007739412598311901,0.0012125372886657715
1772709230156352300,2.531352294921875,0.004352936986833811,0.007327953819185495,0.00009028115891851485
1772709230166377200,2.541377197265625,0.004808603785932064,0.008746886625885963,-0.00034354778472334146
1772709230176402400,2.55140234375,0.00452923821285367,0.008038219064474106,-0.0001233043585671112
1772709230186427100,2.56142724609375,0.0049159289337694645,0.006876015570014715,0.00006764429417671636
1772709230196451000,2.571451171875,0.0052168662659823895,0.006677876226603985,-0.0012415656819939613
1772709230206476300,2.581476318359375,0.005305283237248659,0.007498396094888449,0.0005941512063145638
1772709230216501200,2.591501220703125,0.005498628597706556,0.007363107521086931,0.000990962260402739
1772709230226526200,2.601526123046875,0.005151352379471064,0.006649380549788475,-0.0012444951571524143
1772709230236551200,2.61155126953125,0.0062946476973593235,0.009286975488066673,0.0001637844106880948
1772709230246576400,2.621576416015625,0.005633384454995394,0.007069094572216272,0.0012697952333837748
1772709230256601300,2.631601318359375,0.004749481566250324,0.007770305033773184,0.00028282770654186606
1772709230266626000,2.6416259765625,0.00390259618870914,0.007797469384968281,-0.0010596717474982142
1772709230276651300,2.6516513671875,0.004703941289335489,0.005531385540962219,0.000493750034365803
1772709230286675200,2.66167529296875,0.004768656101077795,0.006756173446774483,-0.0016852483386173844
1772709230296700200,2.6717001953125,0.005544967483729124,0.007873902097344398,-0.00012064119800925255
1772709230306725400,2.681725341796875,0.004279167391359806,0.0099008334800601,0.0006111954571679235
1772709230316750300,2.691750244140625,0.0032623722217977047,0.00932346098124981,0.001210939371958375
1772709230326775300,2.701775390625,0.002948385663330555,0.005621133837848902,0.00007723167072981596
1772709230336800000,2.711800048828125,0.004486627411097288,0.008447280153632164,-0.005172657780349255
1772709230346825200,2.7218251953125,0.003695402294397354,0.008941562846302986,-0.004308994393795729
1772709230356850200,2.73185009765625,0.005252286326140165,0.009076319634914398,-0.0022620889358222485
1772709230366875100,2.741875244140625,0.004834436345845461,0.011917912401258945,-0.003108974313363433
1772709230376899300,2.7518994140625,0.0044080642983317375,0.010507235303521156,-0.003510312642902136
1772709230386924300,2.76192431640625,0.003996872343122959,0.009610815905034542,-0.0041641187854111195
1772709230396949200,2.77194921875,0.0038064562249928713,0.0084275733679533,-0.003884486621245742
1772709230406974200,2.78197412109375,0.0046517434529960155,0.008343417197465897,-0.002427471335977316
1772709230416999200,2.791999267578125,0.005031243897974491,0.007468302734196186,-0.0000045273736759554595
1772709230427024100,2.802024169921875,0.004205664154142141,0.008754609152674675,-0.00010412959818495438
1772709230437049000,2.812049072265625,0.002261822810396552,0.008992163464426994,0.000811997801065445
1772709230447074000,2.822073974609375,0.0041278996504843235,0.008115184493362904,0.00022130868455860764
1772709230457098200,2.83209814453125,0.0038424087688326836,0.009838515892624855,-0.00025832661776803434
1772709230467123200,2.842123291015625,0.005621932912617922,0.008339955471456051,-0.002223206916823983
1772709230477148400,2.8521484375,0.005137237720191479,0.008378304541110992,-0.0013733921805396676
1772709230487173400,2.86217333984375,0.0033159018494188786,0.009309079498052597,-0.0034434671979397535
1772709230497198000,2.872197998046875,0.0046759783290326595,0.009680324234068394,-0.0024501082953065634
1772709230507223000,2.88222314453125,0.0046365633606910706,0.00926247425377369,-0.005387841258198023
1772709230517248300,2.892248291015625,0.0017952368361875415,0.008641957305371761,-0.006098372396081686
1772709230527273200,2.902273193359375,0.0035926043055951595,0.007673632353544235,-0.005847502965480089
1772709230537297200,2.912297119140625,0.003600061172619462,0.009363674558699131,-0.007289338391274214
1772709230547322400,2.922322265625,0.003296727081760764,0.008311726152896881,-0.005588111001998186
1772709230557347300,2.932347412109375,0.0029758161399513483,0.007360710762441158,-0.004929777234792709
1772709230567372300,2.942372314453125,0.0022333269007503986,0.008342351764440536,-0.005765743553638458
1772709230577397000,2.95239697265625,0.003944674041122198,0.006971889175474644,-0.004406998865306377
1772709230587422200,2.962422119140625,0.0023992417845875025,0.007027283310890198,-0.00475534051656723
1772709230597447200,2.972447265625,0.0031579763162881136,0.005694104824215174,-0.0041369544342160225
1772709230607472000,2.98247216796875,0.0041398839093744755,0.00824061967432499,-0.000877511571161449
1772709230617497000,2.9924970703125,0.0036101811565458775,0.009297894313931465,0.0005070658517070115
1772709230627521300,3.002521240234375,0.005047223065048456,0.00768907880410552,-0.0013611416798084974
1772709230637546200,3.012546142578125,0.002883404493331909,0.0071127708069980145,-0.0016173376934602857
1772709230647571200,3.0225712890625,0.005073321983218193,0.007348194252699614,-0.0011105381418019533
1772709230657596200,3.03259619140625,0.005089034326374531,0.011334680020809174,-0.0012551478575915098
1772709230667621000,3.04262109375,0.005035505164414644,0.009079781360924244,-0.0013440974289551377
1772709230677646000,3.05264599609375,0.003522563260048628,0.007503456436097622,-0.00169563468080014
1772709230687671300,3.06267138671875,0.003917776048183441,0.007220362313091755,-0.0031289479229599237
1772709230697696300,3.0726962890625,0.003111371072009206,0.008052600547671318,-0.0018255969043821096
1772709230707720200,3.08272021484375,0.004080761689692736,0.006615558639168739,-0.0049255164340138435
1772709230717745400,3.092745361328125,0.002570483135059476,0.0063798688352108,-0.0033427998423576355
1772709230727770400,3.102770263671875,0.0018884475575760007,0.008958607912063599,-0.004853610880672932
1772709230737795000,3.112795166015625,0.004393949639052153,0.008231564424932003,-0.005216067191213369
1772709230747820000,3.122820068359375,0.001820803270675242,0.007699997629970312,-0.00384453940205276
1772709230757845200,3.13284521484375,0.0022240057587623596,0.007473628968000412,-0.004402471706271172
1772709230767870200,3.1428701171875,0.0029614351224154234,0.006395314820110798,-0.0028631645254790783
1772709230777895200,3.152895263671875,0.0028067054226994514,0.008078699000179768,-0.002600044244900346
1772709230787920100,3.162920166015625,0.004319114610552788,0.009769540280103683,-0.002612294629216194
1772709230797944300,3.1729443359375,0.004461061209440231,0.00660463934764266,-0.002569950418546796
1772709230807969300,3.18296923828125,0.003822967642918229,0.008094677701592445,-0.0007920240750536323
1772709230817994200,3.192994140625,0.003261040663346648,0.007863515987992287,-0.00213665422052145
1772709230828019200,3.203019287109375,0.003212304785847664,0.006581469904631376,-0.0010727213229984045
1772709230838044200,3.213044189453125,0.004922853317111731,0.004742290824651718,-0.002931075170636177
1772709230848069000,3.223069091796875,0.0037846181076020002,0.006160690449178219,-0.00395745737478137
1772709230858094300,3.23309423828125,0.004664793144911528,0.010539193637669086,-0.001743038883432746
1772709230868119300,3.243119384765625,0.0025598304346203804,0.009062470868229866,0.00024527712957933545
1772709230878143200,3.253143310546875,0.00529569573700428,0.00398728484287858,-0.0018953717080876231
1772709230888168200,3.263168212890625,0.0034133736044168472,0.00523683987557888,-0.006759635638445616
1772709230898193200,3.273193115234375,0.0038831550627946854,0.007876032963395119,-0.006116215605288744
1772709230908218000,3.283218017578125,0.0028474517166614532,0.007503190077841282,-0.00563977612182498
1772709230918243000,3.2932431640625,0.004345746245235205,0.007499994244426489,-0.006028064992278814
1772709230928268300,3.303268310546875,0.004511927254498005,0.009471265599131584,-0.007653392385691404
1772709230938293200,3.313293212890625,0.002419215627014637,0.009373794309794903,-0.00821052584797144
1772709230948317200,3.323317138671875,0.0038061898667365313,0.006139118690043688,-0.008788165636360645
1772709230958342400,3.33334228515625,0.0031108383554965258,0.003358512418344617,-0.008417453616857529
1772709230968367000,3.3433671875,0.0014327806420624256,0.0051625375635921955,-0.0041212416253983974
1772709230978392000,3.35339208984375,0.001845038030296564,0.006125803105533123,-0.0029734193813055754
1772709230988417000,3.3634169921875,0.004821653012186289,0.006098372396081686,-0.0019619506783783436
1772709230998442200,3.373442138671875,0.002412291243672371,0.006404103245586157,-0.0015518239233642817
1772709231008467200,3.38346728515625,0.0031103058718144894,0.005600893869996071,-0.0019265307346358895
1772709231018492200,3.3934921875,0.0014439659425988793,0.004923652391880751,-0.0016202671686187387
1772709231028517000,3.40351708984375,0.0034967304673045874,0.006126868538558483,-0.0014897723449394107
1772709231038541300,3.413541259765625,0.0033593112602829933,0.006756173446774483,-0.0016881778137758374
1772709231048566000,3.42356591796875,0.003043194068595767,0.006213687360286713,-0.003981958609074354
1772709231058591200,3.43359130859375,0.003852262394502759,0.006390787661075592,-0.00461765518411994
1772709231068616200,3.4436162109375,0.0033044503070414066,0.006331399083137512,-0.004219778813421726
1772709231078641200,3.45364111328125,0.004544151946902275,0.004611263517290354,-0.005554554983973503
1772709231088666000,3.463666015625,0.0007518103811889887,0.005317001137882471,-0.005334577988833189
1772709231098691300,3.47369140625,0.002925216220319271,0.006963367108255625,-0.006482666824012995
1772709231108715300,3.48371533203125,0.001844771672040224,0.00407596817240119,-0.006222475785762072
1772709231118740200,3.493740234375,0.0018458369886502624,0.005817142780870199,-0.006527407560497522
1772709231128765700,3.503765625,0.0028575719334185123,0.008175105787813663,-0.004032026045024395
1772709231138790700,3.513790771484375,0.0033635725267231464,0.006747385021299124,-0.004522846546024084
1772709231148815600,3.523815673828125,0.003734284546226263,0.004368915688246489,-0.004885036498308182
1772709231158840600,3.533840576171875,0.002697782125324011,0.0057015614584088326,-0.0036732980515807867
1772709231168865800,3.54386572265625,0.0049007488414645195,0.008509332314133644,-0.002918824553489685
1772709231178890800,3.553890869140625,0.002832271857187152,0.006666957400739193,-0.0030146983917802572
1772709231188914400,3.56391455078125,0.002788063371554017,0.005119660869240761,-0.0065282066352665424
1772709231198939600,3.573939697265625,0.0043590618297457695,0.007111971732228994,-0.006892260629683733
1772709231208964600,3.583964599609375,0.004567587748169899,0.009849967435002327,-0.006846188101917505
1772709231218989600,3.593989501953125,0.0015611450653523207,0.006982009392231703,-0.007104514632374048
1772709231229014500,3.6040146484375,0.0011515507940202951,0.003228017594665289,-0.008964466862380505
1772709231239039700,3.614039794921875,0.0029196233954280615,0.006610231939703226,-0.006647250149399042
1772709231249064700,3.624064697265625,0.00221921200864017,0.006906109396368265,-0.00509942090138793
1772709231259089700,3.634089599609375,0.001799764228053391,0.006125270389020443,-0.006019809283316135
1772709231269114400,3.6441142578125,0.001341700553894043,0.006284527480602264,-0.006195577792823315
1772709231279138600,3.654138671875,0.0028104339726269245,0.006638461723923683,-0.005095958709716797
1772709231289163500,3.66416357421875,0.0007004113867878914,0.005363872740417719,-0.00749040674418211
1772709231299188700,3.674188720703125,0.00001304948909819359,0.005022721830755472,-0.00669225724413991
1772709231309213700,3.684213623046875,0.00056219327962026,0.005374791566282511,-0.006434729788452387
1772709231319238700,3.69423876953125,0.00026312030968256295,0.005801163613796234,-0.006966562941670418
1772709231329263600,3.704263671875,0.00333241350017488,0.005649097263813019,-0.006433397997170687
1772709231339288600,3.71428857421875,0.0030605047941207886,0.00640863087028265,-0.005908489227294922
1772709231349312500,3.7243125,0.0025896579027175903,0.007337008602917194,-0.004129497334361076
1772709231359337500,3.73433740234375,0.003540406236425042,0.005831790156662464,-0.0070339408703148365
1772709231369362700,3.74436279296875,0.0016069513512775302,0.005803826730698347,-0.005566272884607315
1772709231379387600,3.7543876953125,0.001151018193922937,0.0037859496660530567,-0.005800365004688501
1772709231389412600,3.76441259765625,0.002177666872739792,0.004037884995341301,-0.005112203769385815
1772709231399437600,3.7744375,0.0010692591313272715,0.004467186518013477,-0.007720237597823143
1772709231409462800,3.784462890625,0.002484995638951659,0.005536445416510105,-0.006176136899739504
1772709231419487500,3.794487548828125,0.002544117858633399,0.011472631245851517,0.00020000340009573847
1772709231429512400,3.804512451171875,0.0010247844038531184,0.006363356951624155,-0.00031079089967533946
1772709231439536600,3.81453662109375,0.0009648632840253413,0.002746784361079335,-0.005538576282560825
1772709231449561600,3.8245615234375,0.001442900625988841,0.004266650415956974,-0.010064618661999702
1772709231459586600,3.834586669921875,0.0027944548055529594,0.006119944155216217,-0.005330050364136696
1772709231469611500,3.844611572265625,0.004018443636596203,0.00869149249047041,-0.006030195392668247
1772709231479636700,3.85463671875,0.00418302696198225,0.008264321833848953,-0.0063154203817248344
1772709231489661700,3.86466162109375,0.005392634775489569,0.0065503111109137535,-0.008712797425687313
1772709231499686400,3.874686279296875,0.003005377249792218,0.007743673399090767,-0.00800413079559803
1772709231509711600,3.884711669921875,0.0020929782185703516,0.008197209797799587,-0.006265618838369846
1772709231519735600,3.894735595703125,0.004840828012675047,0.005288771353662014,-0.006166549399495125
1772709231529760500,3.904760498046875,0.002430400811135769,0.004572114907205105,-0.0062331282533705235
1772709231539785700,3.91478564453125,0.004382231738418341,0.006243514828383923,-0.0033270870335400105
1772709231549810700,3.924810791015625,0.0033542513847351074,0.005979062989354134,-0.0023883229587227106
1772709231559835600,3.934835693359375,0.0023787354584783316,0.006969492416828871,-0.00458782771602273
1772709231569860600,3.944860595703125,0.0028546424582600594,0.0025648903101682663,-0.005674663465470076
1772709231579885600,3.954885498046875,0.0024138891603797674,0.006452572997659445,-0.005538043566048145
1772709231589910500,3.96491064453125,0.0026911243330687284,0.006421413738280535,-0.005651760380715132
1772709231599934500,3.9749345703125,0.0023249397054314613,0.004208593629300594,-0.0052147358655929565
1772709231609959700,3.984959716796875,0.005046956706792116,0.006077599711716175,-0.0030711572617292404
1772709231619984600,3.994984619140625,0.003144660498946905,0.004858404863625765,-0.0025827335193753242
1772709231630009600,4.005009521484375,0.002225870033726096,0.004554804414510727,-0.00583871454000473
1772709231640034600,4.01503466796875,0.0019108180422335863,0.00603419030085206,-0.008294148370623589
1772709231650059800,4.025059814453125,0.0031614385079592466,0.007393734063953161,-0.006884803995490074
1772709231660084500,4.03508447265625,0.0020666129421442747,0.006056294776499271,-0.007224090863019228
1772709231670109400,4.045109375,0.0040914141573011875,0.006773750297725201,-0.0070091737434268
1772709231680134700,4.055134765625,0.002674879040569067,0.008255000226199627,-0.006703442893922329
1772709231690158600,4.06515869140625,0.0025539714843034744,0.00634870957583189,-0.006858971435576677
1772709231700183600,4.07518359375,0.0029755497816950083,0.0047058057971298695,-0.0060344566591084
1772709231710208800,4.085208740234375,0.003138801548629999,0.004859469830989838,-0.0052267201244831085
1772709231720233700,4.095233642578125,0.003430417738854885,0.009383381344377995,-0.005636313930153847
1772709231730258700,4.1052587890625,0.004132959526032209,0.006892793346196413,-0.004501008428633213
1772709231740283400,4.115283447265625,0.00296303303912282,0.006193181034177542,-0.0070403325371444225
1772709231750308600,4.12530859375,0.0007070692372508347,0.007322361227124929,-0.007003581151366234
1772709231760333600,4.13533349609375,0.003486077766865492,0.00634977500885725,-0.005772934295237064
1772709231770357500,4.145357421875,0.0025574336759746075,0.008174306713044643,-0.005860818549990654
1772709231780382700,4.1553828125,0.0014788532862439752,0.005279717035591602,-0.006167614832520485
1772709231790407700,4.16540771484375,0.0012745888670906425,0.004607268609106541,-0.005653890781104565
1772709231800432600,4.1754326171875,0.00004394215648062527,0.00771890627220273,-0.005347627215087414
1772709231810457600,4.18545751953125,0.001859419047832489,0.006401173770427704,-0.003977164626121521
1772709231820482600,4.195482666015625,0.0021441110875457525,0.0065284729935228825,-0.006066680885851383
1772709231830507500,4.205507568359375,0.0024205471854656935,0.006859770510345697,-0.0034045851789414883
1772709231840532500,4.215532470703125,0.002287921728566289,0.006027532275766134,-0.004992095287889242
1772709231850557400,4.225557373046875,0.002441852353513241,0.007879228331148624,-0.006898652296513319
1772709231860581600,4.23558154296875,0.0011555455857887864,0.00628932099789381,-0.0064802695997059345
1772709231870606600,4.245606689453125,0.003894340479746461,0.006578540429472923,-0.0065196845680475235
1772709231880631800,4.2556318359375,0.003881823504343629,0.0073199644684791565,-0.005499161314219236
1772709231890656500,4.265656494140625,0.002627741079777479,0.010076336562633514,-0.003591539105400443
1772709231900681500,4.275681396484375,0.003995540551841259,0.008511729538440704,-0.005310875829309225
1772709231910706400,4.28570654296875,0.002641855739057064,0.007795604877173901,-0.004608067683875561
1772709231920731600,4.295731689453125,0.004065581597387791,0.009063003584742546,-0.005079180933535099
1772709231930756600,4.305756591796875,0.002746518002822995,0.0057471017353236675,-0.006228334736078978
1772709231940780500,4.315780517578125,0.002305764937773347,0.0046091326512396336,-0.005025118589401245
1772709231950805800,4.3258056640625,0.00401711231097579,0.006777212489396334,-0.0037731665652245283
1772709231960830700,4.335830810546875,0.005007275380194187,0.010835603810846806,-0.0021963089238852262
1772709231970855400,4.34585546875,0.0012956279097124934,0.010573015548288822,-0.00003488740912871435
1772709231980880400,4.35588037109375,0.004031493328511715,0.006621683482080698,-0.006597182713449001
1772709231990905600,4.365905517578125,0.0032714270055294037,0.005147357936948538,-0.00782862864434719
1772709232000930600,4.3759306640625,0.0032655680552124977,0.009348494000732899,-0.005571599118411541
1772709232010955500,4.38595556640625,0.004679440520703793,0.01079752016812563,-0.005981726106256247
1772709232020980500,4.39598046875,0.005767341703176498,0.011624698527157307,-0.004508731886744499
1772709232031004700,4.406004638671875,0.005650162696838379,0.008946090936660767,-0.005711681675165892
1772709232041029600,4.416029541015625,0.005616340320557356,0.008808405138552189,-0.0038485340774059296
1772709232051054600,4.4260546875,0.006357764359563589,0.00794287770986557,0.0008157262345775962
1772709232061079600,4.43607958984375,0.005490106530487537,0.006954045966267586,0.0019659455865621567
1772709232071104500,4.4461044921875,0.004501541145145893,0.0070254188030958176,0.0014274542918428779
1772709232081129500,4.45612939453125,0.005604888778179884,0.007888282649219036,0.0013164004776626825
1772709232091154700,4.46615478515625,0.004206196404993534,0.007075486239045858,0.0021196098532527685
1772709232101179600,4.4761796875,0.004462925251573324,0.007791077718138695,0.003917776048183441
1772709232111203600,4.48620361328125,0.00497984467074275,0.007814779877662659,0.00035420042695477605
1772709232121228800,4.496228759765625,0.004906075540930033,0.008919192478060722,-0.0004966795677319169
1772709232131252700,4.506252685546875,0.0046964846551418304,0.007611047942191362,-0.0002055960358120501
1772709232141277700,4.516277587890625,0.005578789860010147,0.00902625173330307,-0.000222373942960985
1772709232151303000,4.526302978515625,0.0057159424759447575,0.009224923327565193,0.0017193368403241038
1772709232161327600,4.53632763671875,0.005114867351949215,0.008658469654619694,-0.002214152133092284
1772709232171352600,4.5463525390625,0.004756139125674963,0.007538077421486378,-0.0009211873984895647
1772709232181377500,4.55637744140625,0.004811266902834177,0.007421431131660938,-0.0016884441720321774
1772709232191402800,4.56640283203125,0.005083708092570305,0.009852897375822067,-0.0030977888964116573
1772709232201426700,4.5764267578125,0.005655488930642605,0.01031442265957594,-0.003948668949306011
1772709232211451600,4.58645166015625,0.004855741746723652,0.01007846649736166,-0.002323608146980405
1772709232221476900,4.596476806640625,0.003937217406928539,0.009091232903301716,-0.0015068164793774486
1772709232231501800,4.606501708984375,0.0038748993538320065,0.008584166876971722,-0.003129746997728944
1772709232241526500,4.616526611328125,0.003947869874536991,0.006365753710269928,-0.0028397287242114544
1772709232251551700,4.6265517578125,0.004610464442521334,0.007236607372760773,-0.0012751214671880007
1772709232261576700,4.63657666015625,0.005419799126684666,0.008013185113668442,-0.0006085322820581496
1772709232271601700,4.6466015625,0.003858920419588685,0.01104386243969202,0.001347293145954609
1772709232281626600,4.656626708984375,0.0056831855326890945,0.010666758753359318,0.0008125304593704641
1772709232291650800,4.66665087890625,0.003929493948817253,0.009425459429621696,-0.001529187080450356
1772709232301675800,4.67667578125,0.003707120195031166,0.007679224945604801,-0.0008929579053074121
1772709232311700700,4.68670068359375,0.0036703685764223337,0.009910954162478447,-0.00018855179951060563
1772709232321725700,4.6967255859375,0.004722050856798887,0.008468852378427982,0.0011558119440451264
1772709232331750700,4.706750732421875,0.0023374564480036497,0.005081577692180872,0.0006668555433861911
1772709232341775600,4.716775634765625,0.003783819265663624,0.005636846646666527,0.002939064521342516
1772709232351800600,4.726800537109375,0.004867193289101124,0.005806223955005407,0.003637877991423011
1772709232361825800,4.73682568359375,0.003251719754189253,0.0067545752972364426,0.0008548747282475233
1772709232371849700,4.746849609375,0.0018439727136865258,0.006828611250966787,0.0021662150975316763
1772709232381874700,4.756874755859375,0.0049460227601230145,0.007706922013312578,0.0025334651581943035
1772709232391900000,4.76689990234375,0.004697815980762243,0.00882038939744234,-0.0007920240750536323
1772709232401924600,4.776924560546875,0.00449887802824378,0.006220079027116299,-0.0015129417879506946
1772709232411949600,4.786949462890625,0.00523790530860424,0.00640703272074461,0.001713744131848216
1772709232421974800,4.796974853515625,0.004003796260803938,0.005706355441361666,0.001079645473510027
1772709232431999700,4.806999755859375,0.003943076357245445,0.009786318056285381,0.0008141283178701997
1772709232442024700,4.817024658203125,0.004284759983420372,0.009130381047725677,-0.0005081311101093888
1772709232452049700,4.827049560546875,0.005518335849046707,0.009758887812495232,0.0003049319493584335
1772709232462073900,4.837073974609375,0.004525243304669857,0.010949320159852505,-0.001005343277938664
1772709232472098800,4.847098876953125,0.0049068741500377655,0.007963118143379688,-0.0008109325426630676
1772709232482123500,4.85712353515625,0.005122590344399214,0.006856041960418224,-0.002697515767067671
1772709232492148700,4.867148681640625,0.004889563657343388,0.006958307232707739,-0.00418489146977663
1772709232502173700,4.877173583984375,0.0029001825023442507,0.00908377580344677,-0.0007672567153349519
1772709232512198700,4.88719873046875,0.0031486554071307182,0.01119513064622879,0.002491120947524905
1772709232522223600,4.8972236328125,0.0025885924696922302,0.007277354132384062,-0.0011776498286053538
1772709232532248800,4.907248779296875,0.0031281490810215473,0.005317267496138811,-0.006400641519576311
1772709232542273800,4.917273681640625,0.00381391285918653,0.00762969022616744,-0.004990231245756149
1772709232552297700,4.927297607421875,0.004042412154376507,0.008883506059646606,-0.0011574097443372011
1772709232562322700,4.93732275390625,0.003549727378413081,0.010994860902428627,-0.0009427590412087739
1772709232572347600,4.94734765625,0.004424042999744415,0.008552475832402706,-0.0018708707066252828
1772709232582372600,4.95737255859375,0.00515721132978797,0.00999244675040245,-0.002222674200311303
1772709232592397600,4.9673974609375,0.005185973364859819,0.009645170532166958,-0.0011257182341068983
1772709232602422800,4.9774228515625,0.004653075244277716,0.00999164767563343,-0.0017728663515299559
1772709232612447700,4.98744775390625,0.004577441141009331,0.007631287910044193,0.0008050735923461616
1772709232622472700,4.99747265625,0.0043747746385633945,0.007468036375939846,0.0013374395202845335
1772709232632497700,5.00749755859375,0.003978230059146881,0.00823982059955597,0.0027166905347257853
1772709232642521600,5.017521484375,0.005013400688767433,0.008525044657289982,0.0015097459545359015
1772709232652546600,5.027546630859375,0.005094361025840044,0.007690942846238613,-0.0005376922199502587
1772709232662571800,5.03757177734375,0.005185174755752087,0.0060264673084020615,0.00032384038786403835
1772709232672596700,5.0475966796875,0.00449807895347476,0.008076568134129047,-0.0006676545017398894
1772709232682621700,5.05762158203125,0.004540423396974802,0.009163671173155308,-0.001062068622559309
1772709232692646700,5.067646728515625,0.005382248666137457,0.00845473725348711,-0.0017009610310196877
1772709232702672000,5.077671875,0.004226436838507652,0.008245945908129215,-0.0012926984345540404
1772709232712696800,5.08769677734375,0.0054759918712079525,0.00811997801065445,-0.003090332029387355
1772709232722721800,5.0977216796875,0.005020058713853359,0.006485063582658768,-0.0002788329729810357
1772709232732745700,5.107745849609375,0.0037854171823710203,0.0060933125205338,-0.002243446884676814
1772709232742770700,5.117770751953125,0.0048975530080497265,0.008886702358722687,-0.0019917781464755535
1772709232752795600,5.127795654296875,0.0036780918017029762,0.007891745306551456,-0.0008431567694060504
1772709232762820600,5.137820556640625,0.0034618431236594915,0.00863316934555769,-0.0018200043123215437
1772709232772845800,5.147845703125,0.0038274950347840786,0.009940248914062977,-0.00021358551748562604
1772709232782870800,5.157870849609375,0.005947371479123831,0.007322094868868589,-0.0006005428149364889
1772709232792895700,5.167895751953125,0.0034104441292583942,0.006367618218064308,-0.0021457087714225054
1772709232802920700,5.177920654296875,0.00333241350017488,0.008717591874301434,-0.0007462177309207618
1772709232812945700,5.187945556640625,0.00418435875326395,0.009937052614986897,0.0010008158860728145
1772709232822969600,5.197969482421875,0.0029169602785259485,0.008768191561102867,0.0017536915838718414
1772709232832994800,5.207994873046875,0.006179332733154297,0.007482417393475771,-0.0007222492713481188
1772709232843019800,5.218019775390625,0.0035774242132902145,0.008107461035251617,-0.0035630431957542896
1772709232853044700,5.228044677734375,0.004547081422060728,0.0088187912479043,-0.0033039175905287266
1772709232863069700,5.238069580078125,0.004853877238929272,0.00902891531586647,-0.002377936616539955
1772709232873095000,5.248094970703125,0.004457865376025438,0.00683154072612524,-0.004594219382852316
1772709232883119900,5.258119873046875,0.0023180153220891953,0.00794420950114727,-0.004544417839497328
1772709232893144600,5.26814453125,0.003771835006773472,0.008237423375248909,-0.00267674308270216
1772709232903169500,5.27816943359375,0.0029438582714647055,0.007931159809231758,-0.0025276062078773975
1772709232913193700,5.28819384765625,0.0038029940333217382,0.006346579175442457,-0.0038461373187601566
1772709232923218700,5.29821875,0.0037121803034096956,0.007995874620974064,-0.0029726203065365553
1772709232933243600,5.30824365234375,0.0035952674224972725,0.007737015374004841,-0.0030541131272912025
1772709232947654000,5.32265380859375,0.004259726032614708,0.007246461231261492,-0.00245143985375762
1772709232957678800,5.332678955078125,0.003984089009463787,0.007749532349407673,-0.0021992383990436792
1772709232967703800,5.342703857421875,0.003242664970457554,0.008064850233495235,-0.002582201035693288
1772709232977728500,5.352728515625,0.004455468617379665,0.009248891845345497,-0.002582201035693288
1772709232987753700,5.362753662109375,0.004051999654620886,0.009370066225528717,-0.0041161817498505116
1772709232997778700,5.37277880859375,0.006100503262132406,0.010803379118442535,-0.003132410114631057
1772709233007802600,5.382802734375,0.005191033706068993,0.008138886652886868,-0.0038743666373193264
1772709233017827800,5.392827880859375,0.0038567897863686085,0.00564164062961936,-0.008375375531613827
1772709233027852800,5.402852783203125,0.003469299990683794,0.00700837466865778,-0.009676329791545868
1772709233037877800,5.412877685546875,0.0022924491204321384,0.010973022319376469,-0.00785499345511198
1772709233047902700,5.42290283203125,0.002793389605358243,0.012868926860392094,-0.0033334787003695965
1772709233057927700,5.432927734375,0.0026141589041799307,0.009497897699475288,-0.0028993834275752306
1772709233067952600,5.44295263671875,0.0022101574577391148,0.008493087254464626,-0.008563927374780178
1772709233077977600,5.4529775390625,0.0023070964962244034,0.009072324261069298,-0.006328203249722719
1772709233088002600,5.46300244140625,0.00424161646515131,0.009446765296161175,-0.004973187111318111
1772709233098026800,5.47302685546875,0.003571032779291272,0.008472047746181488,-0.005182777531445026
1772709233108051700,5.4830517578125,0.003221625927835703,0.006976683158427477,-0.005006476305425167
1772709233118077000,5.493076904296875,0.0030104373581707478,0.007400125730782747,-0.0030301446095108986
1772709233128102000,5.503101806640625,0.002145442645996809,0.007222226355224848,-0.004458664450794458
1772709233138126800,5.513126953125,0.005131378769874573,0.004057592246681452,-0.005015797447413206
1772709233148151800,5.52315185546875,0.002130528911948204,0.0029585056472569704,-0.0018160095205530524
1772709233158177000,5.533177001953125,0.0019371833186596632,0.005027515348047018,-0.0007656587986275554
1772709233168202000,5.543201904296875,0.00440966198220849,0.0057617491111159325,-0.0004415521107148379
1772709233178227000,5.55322705078125,0.002496447181329131,0.006190251559019089,-0.0017297230660915375
1772709233188251100,5.563251220703125,0.003599262097850442,0.005690109916031361,-0.0017068199813365936
1772709233198276000,5.573276123046875,0.0034706315491348505,0.007340204436331987,-0.0034205641131848097
1772709233208301000,5.583301025390625,0.001876995898783207,0.007542870938777924,-0.0062365904450416565
1772709233218325800,5.59332568359375,0.004029895178973675,0.007033142261207104,-0.007163370493799448
1772709233228351000,5.60335107421875,0.0029401297215372324,0.008482168428599834,-0.0065385932102799416
1772709233238376000,5.6133759765625,0.0026176210958510637,0.009088569320738316,-0.005929261911660433
1772709233248401000,5.62340087890625,0.003139067906886339,0.009673399850726128,-0.00962519645690918
1772709233258425900,5.63342578125,0.004125769250094891,0.00911653321236372,-0.01098660472780466
1772709233268451000,5.643451171875,0.004263188224285841,0.008796154521405697,-0.009206281043589115
1772709233278475000,5.65347509765625,0.004821919370442629,0.009131446480751038,-0.010057960636913776
1772709233288500000,5.6635,0.0026905916165560484,0.008319448679685593,-0.01215812936425209
1772709233307924000,5.682924072265625,0.0011896340874955058,0.008165784180164337,-0.007183344569057226
1772709233317949200,5.69294921875,0.0009057410643436015,0.005757487844675779,-0.005772135220468044
1772709233327974100,5.70297412109375,0.004001932218670845,0.0028128307312726974,-0.006746053230017424
1772709233337998800,5.712998779296875,0.004255731590092182,0.0046426886692643166,-0.005509813781827688
1772709233348023800,5.72302392578125,0.002913498319685459,0.008584699593484402,-0.003516171593219042
1772709233358049000,5.733049072265625,0.003448527306318283,0.005824599415063858,-0.003239202778786421
1772709233368074000,5.743073974609375,0.0011946940794587135,0.0035238948184996843,-0.004792358260601759
1772709233378099000,5.753098876953125,0.0025569009594619274,0.0064895907416939735,-0.005601426586508751
1772709233388123100,5.763123046875,0.0017576862592250109,0.006461095064878464,-0.005314604379236698
1772709233398148000,5.773148193359375,0.0025619608350098133,0.005841111298650503,-0.00740385428071022
1772709233408173000,5.783173095703125,0.00007243797881528735,0.0026991136837750673,-0.006690925918519497
1772709233418197800,5.79319775390625,0.0002466087171342224,0.004344947170466185,-0.005348426289856434
1772709233428223000,5.803222900390625,0.0005289037944748998,0.005997438915073872,-0.005391303449869156
1772709233438248000,5.813248046875,0.00027084347675554454,0.00657587731257081,-0.007081877905875444
1772709233448273000,5.82327294921875,0.0010045443195849657,0.005571865476667881,-0.0070187607780098915
1772709233458297900,5.8332978515625,0.0013347762869670987,0.005603024736046791,-0.006669620517641306
1772709233468323000,5.843322998046875,0.0028655612841248512,0.009635050781071186,-0.007510380353778601
1772709233478348000,5.85334814453125,0.0022178804501891136,0.005319397896528244,-0.007345797028392553
1772709233488372000,5.8633720703125,0.0022628880105912685,0.003643736941739917,-0.007901598699390888
1772709233498397000,5.87339697265625,0.0020546286832541227,0.008673649281263351,-0.007428887765854597
1772709233508422000,5.883421875,0.00321843009442091,0.009912551380693913,-0.006873618811368942
1772709233518446800,5.89344677734375,0.003613909473642707,0.008124771527945995,-0.007794007193297148
1772709233528472000,5.90347216796875,0.0016468988033011556,0.007391337305307388,-0.007458448875695467
1772709233538497000,5.9134970703125,0.0029941920656710863,0.008136489428579807,-0.006051767151802778
1772709233548522000,5.92352197265625,0.003148389048874378,0.004476773552596569,-0.007281614933162928
1772709233558547000,5.933546875,0.003126817522570491,0.005285841878503561,-0.006641923915594816
1772709233568572200,5.943572265625,0.0025156219489872456,0.0057047572918236256,-0.006197708658874035
1772709233578595800,5.953595947265625,0.002621882129460573,0.010758105665445328,-0.004227235447615385
1772709233588620800,5.963620849609375,0.0002162486780434847,0.00830826349556446,-0.003254382871091366
1772709233598646000,5.97364599609375,-0.00015046859334688634,0.003888481529429555,-0.0068299430422484875
1772709233608671000,5.9836708984375,0.001291100517846644,0.006481335032731295,-0.009409214369952679
1772709233618696000,5.993696044921875,0.0016644756542518735,0.00794474221765995,-0.010792726650834084
1772709233628721000,6.003720947265625,0.003936951048672199,0.009129316546022892,-0.006836866959929466
1772709233638746000,6.01374609375,0.003811249742284417,0.0070797475054860115,-0.008761799894273281
1772709233648771000,6.02377099609375,0.0030394657514989376,0.006558300461620092,-0.01068114023655653
1772709233658796000,6.033796142578125,0.004430168308317661,0.007860319688916206,-0.009091765619814396
1772709233668820000,6.043820068359375,0.002020007697865367,0.007681621704250574,-0.007418501656502485
1772709233678845000,6.053844970703125,0.0018996327416971326,0.006085323169827461,-0.004731105640530586
1772709233688870000,6.063869873046875,0.0022088258992880583,0.0041010016575455666,-0.003973968792706728
1772709233698895000,6.07389501953125,0.003329750383272767,0.005797701422125101,-0.0024791366886347532
1772709233708920000,6.083920166015625,0.0016058861510828137,0.005372927524149418,-0.0008173241512849927
1772709233718945000,6.093945068359375,0.0029859361238777637,0.00487305223941803,-0.003434146288782358
1772709233728970000,6.103969970703125,0.0038695731200277805,0.004775846842676401,-0.005539641249924898
1772709233738995200,6.1139951171875,0.0029494508635252714,0.006387059111148119,-0.005506617948412895
1772709233749020000,6.12402001953125,0.0015744607662782073,0.00749014038592577,-0.006734068971127272
1772709233759044900,6.134044921875,0.0023728765081614256,0.0075971996411681175,-0.006346312817186117
1772709233769069000,6.144069091796875,0.0031284152064472437,0.0067828050814569,-0.006662430241703987
1772709233779094000,6.154093994140625,0.004355333745479584,0.006042712368071079,-0.006252835970371962
1772709233789119000,6.164118896484375,0.00210682675242424,0.006626477465033531,-0.004338821861892939
1772709233799144000,6.17414404296875,0.002633866388350725,0.0070613715797662735,-0.004540423396974802
1772709233809169200,6.184169189453125,0.004548945464193821,0.006900516804307699,-0.004495948553085327
1772709233819194000,6.194194091796875,0.0021403825376182795,0.005396363325417042,-0.004607534967362881
1772709233829218800,6.20421875,0.002415487077087164,0.006653641816228628,-0.0035025894176214933
1772709233839243800,6.214243896484375,0.001918807509355247,0.006058957893401384,-0.0027832696214318275
1772709233849269000,6.22426904296875,0.0015507587231695652,0.00412363838404417,-0.002377137541770935
1772709233859294000,6.2342939453125,0.002287122653797269,0.0033212280832231045,-0.0020013656467199326
1772709233869318000,6.24431787109375,0.0034439999144524336,0.005934321787208319,0.0022535668686032295
1772709233879343000,6.254343017578125,0.003269829088822007,0.005661081522703171,0.0015425028977915645
1772709233889368000,6.2643681640625,0.0027393274940550327,0.005303418729454279,-0.0003105245705228299
1772709233899393000,6.27439306640625,0.003081543603911996,0.00566827179864049,-0.0025574336759746075
1772709233909418000,6.28441796875,0.0033771544694900513,0.006016879808157682,-0.003946804907172918
1772709233919443000,6.29444287109375,0.0022887205705046654,0.006819556467235088,-0.003910585772246122
1772709233929468000,6.304468017578125,0.0030248183757066727,0.008110124617815018,-0.007474161684513092
1772709233939492900,6.314492919921875,0.002950516063719988,0.006654440425336361,-0.008205465972423553
1772709233949518000,6.32451806640625,0.0018516959389671683,0.00634791050106287,-0.004986769054085016
1772709233959542000,6.3345419921875,0.0027925907634198666,0.007723167072981596,-0.00401657959446311
1772709233969567000,6.34456689453125,0.003254116512835026,0.007526359520852566,-0.005116731394082308
1772709233979592000,6.354592041015625,0.001540638622827828,0.007473628968000412,-0.008079231716692448
1772709233989617000,6.364616943359375,0.0028583707753568888,0.005973470397293568,-0.008904545567929745
1772709233999641900,6.374641845703125,0.0019651465117931366,0.006178000941872597,-0.007428621407598257
1772709234009666800,6.384666748046875,0.0023470439482480288,0.007576426956802607,-0.007196926511824131
1772709234019692000,6.394692138671875,0.003611246356740594,0.004936435259878635,-0.008342085406184196
1772709234029717000,6.404717041015625,0.004887166898697615,0.008477906696498394,-0.0054754591546952724
1772709234039742000,6.414741943359375,0.0028868666850030422,0.007228618022054434,-0.0029494508635252714
1772709234049767000,6.424766845703125,0.0046751792542636395,0.008561263792216778,-0.0034767568577080965
1772709234059792100,6.434792236328125,0.001017327536828816,0.006743922829627991,-0.00452684098854661
1772709234069815800,6.44481591796875,0.0017957695527002215,0.00558012118563056,-0.004269579891115427
1772709234079841000,6.454841064453125,0.0015374429058283567,0.0020716730505228043,-0.003910585772246122
1772709234089866000,6.464865966796875,0.002822950715199113,0.0037979339249432087,-0.005929794628173113
1772709234099891000,6.474890869140625,0.002240251051262021,0.009639311581850052,-0.004869057331234217
1772709234109916000,6.484916015625,0.0034171019215136766,0.011359979398548603,-0.0017006946727633476
1772709234119941000,6.494941162109375,0.0020692760590463877,0.006842193193733692,-0.005401156842708588
1772709234129966300,6.50496630859375,0.002923884429037571,0.005532184615731239,-0.01080018375068903
1772709234139991300,6.5149912109375,0.0016881778137758374,0.00890933908522129,-0.010454771108925343
1772709234150016000,6.52501611328125,0.002406165935099125,0.01056209672242403,-0.008142082020640373
1772709234160041200,6.535041259765625,0.003549993736669421,0.010549313388764858,-0.00890614278614521
1772709234170065200,6.545065185546875,0.004553206264972687,0.010329603217542171,-0.009303486905992031
1772709234180090000,6.555090087890625,0.004963599611073732,0.009505621157586575,-0.009788448922336102
1772709234190115300,6.565115234375,0.003863980295136571,0.010349842719733715,-0.00526746641844511
1772709234200140300,6.575140380859375,0.005268531385809183,0.009415073320269585,-0.001925199176184833
1772709234210165200,6.585165283203125,0.00566933723166585,0.007751130498945713,-0.0008037420338951051
1772709234220190200,6.595190185546875,0.0038362834602594376,0.00669332267716527,0.0019299928098917007
1772709234230215200,6.605215087890625,0.003192597534507513,0.00872265174984932,0.0007371630053967237
1772709234240240000,6.615240234375,0.003853327827528119,0.00878869742155075,0.0005507417372427881
1772709234250265000,6.62526513671875,0.004298075567930937,0.009377788752317429,0.0008961536805145442
1772709234260290000,6.6352900390625,0.0036189695820212364,0.008186024613678455,-0.000391218374716118
1772709234270314200,6.645314208984375,0.005535380449146032,0.008990831673145294,-0.00015659387281630188
1772709234280339200,6.655339111328125,0.004175303969532251,0.008562595583498478,-0.0022234732750803232
1772709234290364200,6.6653642578125,0.005789445713162422,0.010126403532922268,-0.0027395938523113728
1772709234300389400,6.675389404296875,0.005765743553638458,0.008105064742267132,-0.00003062635369133204
1772709234310414000,6.6854140625,0.005627791862934828,0.009009473957121372,-0.0008202536264434457
1772709234320439000,6.69543896484375,0.005825664848089218,0.010568488389253616,-0.0010807107901200652
1772709234330464000,6.705464111328125,0.004989964887499809,0.01070883683860302,-0.002930009737610817
1772709234340489200,6.7154892578125,0.00376064982265234,0.012089420109987259,-0.0033657029271125793
1772709234350514200,6.72551416015625,0.005510879214853048,0.008524778299033642,-0.004055728204548359
1772709234360539100,6.7355390625,0.005872270092368126,0.011974371038377285,-0.0019797938875854015
1772709234370563300,6.745563232421875,0.004554538056254387,0.011968778446316719,-0.0025997778866440058
1772709234380588000,6.755588134765625,0.003515905234962702,0.006702910177409649,-0.0025829998776316643
1772709234390613000,6.765613037109375,0.0034738273825496435,0.006918626371771097,-0.0027057717088609934
1772709234400638200,6.77563818359375,0.003424558788537979,0.00902731716632843,0.0008093346259556711
1772709234410663200,6.7856630859375,0.004598480183631182,0.009199091233313084,0.0037848844658583403
1772709234420688100,6.795688232421875,0.004059989005327225,0.00872238539159298,0.0018293253378942609
1772709234430713000,6.805713134765625,0.004098338540643454,0.006589725613594055,-0.001094559207558632
1772709234440738300,6.81573828125,0.005633384454995394,0.008355135098099709,-0.00030413299100473523
1772709234450763300,6.82576318359375,0.0037230991292744875,0.00752129964530468,0.001395230065099895
1772709234460788200,6.835788330078125,0.006560697220265865,0.007465106900781393,0.0008064051507972181
1772709234470812200,6.845812255859375,0.0046722497791051865,0.007486412301659584,-0.0010122675448656082
1772709234480837000,6.855837158203125,0.005645102355629206,0.0073535204865038395,0.002493517706170678
1772709234490862000,6.865862060546875,0.005188636481761932,0.007324757985770702,0.0024972460232675076
1772709234500887000,6.875886962890625,0.005902630276978016,0.007362042553722858,0.0014508900931105018
1772709234510912300,6.885912353515625,0.004070375580340624,0.006999053526669741,0.0023228090722113848
1772709234520937200,6.895937255859375,0.00506799528375268,0.007758054416626692,0.0013464941876009107
1772709234530962200,6.905962158203125,0.005784918554127216,0.006196909584105015,0.0009337042574770749
1772709234540987100,6.915987060546875,0.005352154839783907,0.007832356728613377,0.000051399008953012526
1772709234551012400,6.926012451171875,0.00577719509601593,0.006570018362253904,-0.0001382180635118857
1772709234561037000,6.936037109375,0.004674646537750959,0.009123457595705986,-0.0019648801535367966
1772709234571061200,6.946061279296875,0.005082643125206232,0.01025636587291956,-0.003441869281232357
1772709234581086200,6.956086181640625,0.005036037415266037,0.011969044804573059,-0.0023214775137603283
1772709234591111200,6.966111083984375,0.006129265297204256,0.011303520761430264,-0.001362473238259554
1772709234601136000,6.97613623046875,0.003975300583988428,0.010387660004198551,-0.0009803095599636436
1772709234611161300,6.986161376953125,0.004541222471743822,0.006299707572907209,-0.0011566109023988247
1772709234621186300,6.996186279296875,0.0037579864729195833,0.005342567339539528,-0.00358754419721663
1772709234631211300,7.006211181640625,0.004860801622271538,0.008682969957590103,-0.0005022721597924829
1772709234641236000,7.016236083984375,0.004027498420327902,0.012375176884233952,0.005568403284996748
1772709234651261200,7.02626123046875,0.0032661007717251778,0.007150853984057903,0.004041879437863827
1772709234661286100,7.0362861328125,0.002766491612419486,0.004375573713332415,0.0008146609761752188
1772709234671310000,7.04631005859375,0.0033420007675886154,0.0049316417425870895,0.0010950918076559901
1772709234681335300,7.056335205078125,0.0052051483653485775,0.008053665049374104,0.0033800839446485043
1772709234691360300,7.0663603515625,0.004712196998298168,0.006499710958451033,0.0007872303831391037
1772709234701385200,7.07638525390625,0.006262423470616341,0.0057260626927018166,0.0009808422764763236
1772709234711410200,7.08641015625,0.005559082608669996,0.007844873704016209,0.0007219829712994397
1772709234721435100,7.09643505859375,0.004756405483931303,0.009613478556275368,0.0006343649583868682
1772709234731460000,7.106460205078125,0.004299407359212637,0.007072024047374725,0.0015443670563399792
1772709234741485000,7.116485107421875,0.0036136433482170105,0.006083991378545761,-0.000601075473241508
1772709234751510000,7.126510009765625,0.006999852601438761,0.00640836451202631,0.0003025351034011692
1772709234761535200,7.13653515625,0.004391552414745092,0.007428355049341917,0.0017675400013104081
1772709234771559200,7.14655908203125,0.00566960358992219,0.009242233820259571,0.0011800467036664486
1772709234781584400,7.15658447265625,0.003941478207707405,0.008141549304127693,0.0001984054979402572
1772709234791609300,7.166609375,0.004441353492438793,0.0070576430298388,-0.0009648632840253413
1772709234801634000,7.176634033203125,0.00504136411473155,0.007960987277328968,-0.0015371765475720167
1772709234811659000,7.186658935546875,0.005721002817153931,0.008606537245213985,-0.0008415589109063148
1772709234821684200,7.196684326171875,0.004918325692415237,0.009600961580872536,-0.0015001586871221662
1772709234831709200,7.206709228515625,0.0046634613536298275,0.007150321267545223,-0.0010759170399978757
1772709234841734100,7.216734130859375,0.004664526786655188,0.008447812870144844,-0.002499376656487584
1772709234851759000,7.226759033203125,0.0037257622461766005,0.007164702285081148,-0.0020423782989382744
1772709234861784300,7.236784423828125,0.004821386653929949,0.008619320578873158,-0.0009470200748182833
1772709234871808300,7.246808349609375,0.0032810145057737827,0.006990797817707062,0.000012783173588104546
1772709234881833000,7.2568330078125,0.004602475091814995,0.007809720002114773,0.0003701793903019279
1772709234891858200,7.266858154296875,0.005106078926473856,0.007673365995287895,0.00044900894863530993
1772709234901883100,7.276883056640625,0.004762264434248209,0.010324808768928051,-0.00020000340009573847
1772709234911908000,7.286908203125,0.004495149478316307,0.004634432960301638,-0.000261788722127676
1772709234921933000,7.29693310546875,0.0036195022985339165,0.005563343409448862,0.0027806065045297146
1772709234931958300,7.306958251953125,0.0033483924344182014,0.008640360087156296,0.0025893915444612503
1772709234941983200,7.316983154296875,0.004677309654653072,0.008025968447327614,0.0017118799732998013
1772709234952008200,7.32700830078125,0.0038842204958200455,0.006886401679366827,0.0011944277212023735
1772709234962033200,7.337033203125,0.0036016590893268585,0.0059998356737196445,-0.0007531419396400452
1772709234972057000,7.34705712890625,0.004021905828267336,0.007726096548140049,-0.0008953547803685069
1772709234982082000,7.35708203125,0.003073287894949317,0.006711698602885008,-0.002602973720058799
1772709234992107300,7.367107177734375,0.00498011102899909,0.00768854608759284,-0.002575809368863702
1772709235002132200,7.37713232421875,0.004849882796406746,0.007682687137275934,-0.0022003035992383957
1772709235012157200,7.3871572265625,0.004772384651005268,0.006666158325970173,-0.0032834112644195557
1772709235022182100,7.39718212890625,0.0031441280152648687,0.007719172164797783,-0.002892459277063608
1772709235032207400,7.407207275390625,0.006700779777020216,0.009662747383117676,0.0000013315805063029984
1772709235042232300,7.417232421875,0.0024639565963298082,0.008072307333350182,-0.004376638680696487
1772709235052257000,7.427257080078125,0.0029923277907073498,0.007411577273160219,-0.0031103058718144894
1772709235062281200,7.43728125,0.002142246812582016,0.0087807085365057,-0.003997138235718012
1772709235072306200,7.44730615234375,0.002026133006438613,0.008753810077905655,-0.0033095101825892925
1772709235082331100,7.4573310546875,0.004508997779339552,0.008223042823374271,-0.002139583695679903
1772709235092356000,7.467356201171875,0.004205131437629461,0.006351905409246683,-0.0006868292111903429
1772709235102381300,7.47738134765625,0.003996073268353939,0.008845156989991665,-0.00008362325752386823
1772709235112406300,7.48740625,0.005768939387053251,0.00821771565824747,-0.0013259878614917397
1772709235122431200,7.49743115234375,0.004854409955441952,0.007621966768056154,0.00025992453447543085
1772709235132456200,7.507456298828125,0.0034165694378316402,0.006326871924102306,-0.0016128103015944362
1772709235142481400,7.5174814453125,0.0035113778430968523,0.004815794061869383,-0.002892725635319948
1772709235152506400,7.52750634765625,0.0034615767654031515,0.008174839429557323,-0.0017153420485556126
1772709235162531300,7.53753125,0.004151069093495607,0.010115484707057476,-0.002892459277063608
1772709235172555500,7.547555419921875,0.004387824330478907,0.0100774010643363,0.0016202671686187387
1772709235182580200,7.557580322265625,0.003320162883028388,0.008251804858446121,-0.00033182985498569906
1772709235192605200,7.567605224609375,0.004878911189734936,0.0051955608651041985,-0.004223507363349199
1772709235202630400,7.57763037109375,0.004649613052606583,0.008447546511888504,-0.004593686666339636
1772709235212655400,7.5876552734375,0.00427224300801754,0.009505621157586575,-0.004820588044822216
1772709235222680300,7.597680419921875,0.0041247038170695305,0.009698966518044472,-0.0024881914723664522
1772709235232705300,7.607705322265625,0.0018442390719428658,0.00911253783851862,-0.004206995479762554
1772709235242730500,7.61773046875,0.003358246060088277,0.009196694009006023,-0.005711415316909552
1772709235252755500,7.62775537109375,0.0037792918737977743,0.008886702358722687,-0.006059224251657724
1772709235262780400,7.637780517578125,0.004628574009984732,0.007158843334764242,-0.005490372888743877
1772709235272804400,7.647804443359375,0.00455746753141284,0.007527158595621586,-0.004322044085711241
1772709235282829300,7.657829345703125,0.00392896169796586,0.008637430146336555,-0.0034471957478672266
1772709235292854300,7.667854248046875,0.0032583775464445353,0.007689611054956913,-0.0007776430575177073
1772709235302879200,7.677879150390625,0.005648830905556679,0.007481618318706751,-0.0022807312197983265
1772709235312904400,7.687904541015625,0.002388855442404747,0.005768673028796911,-0.0020865867845714092
1772709235322929400,7.697929443359375,0.004319380968809128,0.007784419693052769,-0.0013491574209183455
1772709235332954400,7.707954345703125,0.003359045134857297,0.006980677600950003,0.0008535431115888059
1772709235342979300,7.717979248046875,0.004434163216501474,0.0075817531906068325,-0.0016919062472879887
1772709235353004500,7.728004638671875,0.005253351293504238,0.006933007389307022,-0.0022511701099574566
1772709235363029200,7.738029296875,0.003522030543535948,0.005826730281114578,-0.00236328924074769
1772709235373053400,7.748053466796875,0.004083957523107529,0.0065069012343883514,-0.0023845944087952375
1772709235383078400,7.758078369140625,0.003489273600280285,0.005902896635234356,-0.002162753138691187
1772709235393103400,7.768103271484375,0.002912432886660099,0.007199589628726244,-0.005799565929919481
1772709235403128300,7.77812841796875,0.002817890839651227,0.0054669370874762535,-0.005980394314974546
1772709235413153500,7.788153564453125,0.003139334265142679,0.005306614562869072,-0.004156928043812513
1772709235423178500,7.798178466796875,0.0034373418893665075,0.006786799523979425,-0.003988882526755333
1772709235433203500,7.808203369140625,0.002447977662086487,0.007794007193297148,-0.0028655612841248512
1772709235443228200,7.818228271484375,0.0034376082476228476,0.005482915788888931,-0.0035894084721803665
1772709235453253400,7.82825341796875,0.003495132550597191,0.0048424256965518,-0.0048980857245624065
1772709235463278300,7.8382783203125,0.0036754286848008633,0.006955644115805626,-0.0034474621061235666
1772709235473302300,7.84830224609375,0.0027361316606402397,0.008696019649505615,-0.0033159018494188786
1772709235483327500,7.858327392578125,0.0013057478936389089,0.004315652418881655,-0.0035489285364747047
1772709235493352400,7.8683525390625,0.0029758161399513483,0.004683434963226318,-0.0036221654154360294
1772709235503377400,7.87837744140625,0.00315984059125185,0.007812116760760546,-0.004476773552596569
1772709235513402000,7.888402099609375,0.0037947380915284157,0.008228369057178497,-0.006041381042450666
1772709235523427300,7.89842724609375,0.0027595674619078636,0.00640836451202631,-0.005148156546056271
1772709235533452300,7.908452392578125,0.0029350698459893465,0.004967061802744865,-0.005058940965682268
1772709235543477200,7.918477294921875,0.0023933828342705965,0.00555322365835309,-0.0059716058894991875
1772709235553502200,7.928502197265625,0.0022498385515064,0.0062706791795790195,-0.006087187211960554
1772709235563527400,7.93852734375,0.0035356127191334963,0.00646801944822073,-0.005537244491279125
1772709235573552400,7.948552490234375,0.001061802264302969,0.003359045134857297,-0.004168379586189985
1772709235583576300,7.958576416015625,0.0015909724170342088,0.004793423693627119,-0.005852296482771635
1772709235593601300,7.968601318359375,0.001401089015416801,0.008072840049862862,-0.00490234699100256
1772709235603626200,7.978626220703125,0.0016192019684240222,0.006097041070461273,-0.006018477492034435
1772709235613651200,7.988651123046875,0.0011459582019597292,0.004169445019215345,-0.006307696923613548
1772709235623676400,7.998676513671875,0.003462908323854208,0.003632019041106105,-0.00577719509601593
1772709235633701400,8.008701416015626,0.004236556589603424,0.007664577569812536,-0.003831756068393588
1772709235643726300,8.018726318359375,0.003881557146087289,0.007208111695945263,-0.004262655507773161
1772709235653751300,8.028751220703125,0.0021941782906651497,0.006140184123069048,-0.0033630398102104664
1772709235663776500,8.038776611328124,0.003180080559104681,0.006159359123557806,-0.005592105444520712
1772709235673801500,8.048801513671876,0.0017800568602979183,0.007759918924421072,-0.004635232035070658
1772709235683826400,8.058826416015625,0.003129746997728944,0.006857373286038637,-0.004177434369921684
1772709235693850400,8.068850341796875,-0.00029880666988901794,0.004832838196307421,-0.005903695244342089
1772709235703875300,8.078875244140624,0.0025574336759746075,0.0030945930629968643,-0.0066637615673244
1772709235713900300,8.088900390625,0.002108957152813673,0.007238471880555153,-0.004762264434248209
1772709235723925200,8.09892529296875,0.002264752285555005,0.010538927279412746,-0.002397643867880106
1772709235733950500,8.108950439453125,0.0014407701091840863,0.004505269695073366,-0.003623230615630746
1772709235743975400,8.118975341796874,0.0017598168924450874,0.003136138431727886,-0.007427556440234184
1772709235754000400,8.12900048828125,0.003263970138505101,0.005059473216533661,-0.006737531162798405
1772709235764025300,8.139025390625,0.002240783767774701,0.007817177101969719,-0.005520466715097427
1772709235774050300,8.14905029296875,0.0037758296821266413,0.004866127856075764,-0.0034314829390496016
1772709235784075300,8.1590751953125,0.003869839245453477,0.007203850895166397,-0.005258145276457071
1772709235794099500,8.169099365234375,0.003917776048183441,0.0062853265553712845,-0.007297594100236893
1772709235804124400,8.17912451171875,0.0020961740519851446,0.009154882282018661,-0.005284776911139488
1772709235814149400,8.1891494140625,0.0034208304714411497,0.005651494022458792,-0.004275438841432333
1772709235824174300,8.19917431640625,0.003867975203320384,0.0034650389570742846,-0.0049398974515497684
1772709235834199600,8.209199462890625,0.003863980295136571,0.006118878722190857,-0.004240018781274557
1772709235844224500,8.219224609375,0.003698598127812147,0.007910653948783875,-0.0025947177782654762
1772709235854249200,8.229249267578124,0.002892192918807268,0.008274441584944725,-0.00404614070430398
1772709235864274200,8.239274169921876,0.0025001754984259605,0.006110623013228178,-0.006012884899973869
1772709235874299400,8.24929931640625,0.004062652122229338,0.00717508839443326,-0.004922853317111731
1772709235884324400,8.259324462890625,0.00327275856398046,0.007633684668689966,-0.00589730404317379
1772709235894348300,8.269348388671874,0.002889263443648815,0.007324757985770702,-0.006740993354469538
1772709235904373500,8.27937353515625,0.0033318807836622,0.00806378573179245,-0.008186290971934795
1772709235914398500,8.2893984375,0.0028091021813452244,0.006537261418998241,-0.006421680096536875
1772709235924423400,8.29942333984375,0.004688494838774204,0.007340204436331987,-0.006200638134032488
1772709235934448000,8.3094482421875,0.003596598980948329,0.005693838465958834,-0.007228884380310774
1772709235944473300,8.319473388671875,0.0032346753869205713,0.005714611150324345,-0.006584133021533489
1772709235954498300,8.329498291015625,0.0006988134700804949,0.008016115054488182,-0.006330600008368492
1772709235964523300,8.339523193359375,0.001987517112866044,0.008072307333350182,-0.006555637344717979
1772709235974548200,8.34954833984375,0.0028730181511491537,0.009124522097408772,-0.0064773401245474815
1772709235984573400,8.359573486328125,0.0023252058308571577,0.006426740437746048,-0.004179831128567457
1772709235994597400,8.369597412109375,0.0035744947381317616,0.005606752820312977,-0.005111937876790762
1772709236004622300,8.379622314453124,0.0021281319204717875,0.0057257963344454765,-0.0044109937734901905
1772709236014647300,8.389647216796876,0.0025782061275094748,0.0065625617280602455,-0.0009206547983922064
1772709236024672300,8.39967236328125,0.0030312100425362587,0.006938599981367588,-0.0005459480453282595
1772709236034697200,8.409697265625,0.00520754512399435,0.00714792450889945,-0.003427488263696432
1772709236044722400,8.419722412109374,0.004081560764461756,0.0049494849517941475,-0.005705822724848986
1772709236054747400,8.429747314453126,0.001967010786756873,0.008764995262026787,-0.004603007808327675
1772709236064772400,8.4397724609375,0.004008856136351824,0.00694925244897604,-0.0032751555554568768
1772709236074797300,8.44979736328125,0.0025220136158168316,0.005437109619379044,-0.005674663465470076
1772709236084822500,8.459822509765624,0.0013052152935415506,0.005276787560433149,-0.004292749334126711
1772709236094846200,8.46984619140625,0.002389388158917427,0.0062155514024198055,-0.006136455573141575
1772709236104871200,8.47987109375,0.0019257317762821913,0.0068118334747850895,-0.004895955324172974
1772709236114896400,8.489896484375,0.003215234261006117,0.007292001508176327,-0.004850681405514479
1772709236124921300,8.49992138671875,0.002435993403196335,0.007114901207387447,-0.007115433923900127
1772709236134946800,8.50994677734375,0.0026040389202535152,0.00609224708750844,-0.005372661165893078
1772709236144971800,8.5199716796875,0.003553189570084214,0.006931409239768982,-0.00563897704705596
1772709236154997000,8.5299970703125,0.004387557972222567,0.007171626668423414,-0.006301571615040302
1772709236165022000,8.54002197265625,0.0029017801862210035,0.005285043269395828,-0.005855758674442768
1772709236175046700,8.550046630859375,0.002668221015483141,0.004236290231347084,-0.007666175253689289
1772709236185071600,8.560071533203125,0.002438656520098448,0.00827018078416586,-0.0051276502199471
1772709236195095800,8.570095703125,0.005012335255742073,0.00908430851995945,-0.004521514754742384
1772709236205120800,8.580120849609376,0.0038282941095530987,0.006220345385372639,-0.005845904815942049
1772709236215145700,8.590145751953125,0.0029262814205139875,0.007408115081489086,-0.005800630897283554
1772709236225171000,8.6001708984375,0.0023220102302730083,0.00782862864434719,-0.003952397499233484
1772709236235196000,8.61019580078125,0.002683134749531746,0.004201402887701988,-0.005596633069217205
1772709236245220900,8.620220947265626,0.0032314795535057783,0.004553206264972687,-0.005418733693659306
1772709236255245600,8.63024560546875,0.003266633255407214,0.007607319392263889,-0.005194229539483786
1772709236265270800,8.640270751953125,0.002573678968474269,0.00990109983831644,-0.00040533312130719423
1772709236275295700,8.650295654296874,0.0006679208017885685,0.007510646712034941,-0.0033451966010034084
1772709236285320700,8.66032080078125,0.0027893949300050735,0.004349208436906338,-0.0080912159755826
1772709236295345000,8.670344970703125,0.0026021746452897787,0.006965763866901398,-0.00833942275494337
1772709236305369900,8.680369873046875,0.002055161399766803,0.009315737523138523,-0.006851247977465391
1772709236315394800,8.690394775390626,0.0028309402987360954,0.007812915369868279,-0.005916212219744921
1772709236325419800,8.700419677734375,0.003910319413989782,0.008623847737908363,-0.005119927227497101
1772709236335444700,8.71044482421875,0.0038160434924066067,0.008184692822396755,-0.008176969364285469
1772709236345469700,8.7204697265625,0.0000756337758502923,0.004546548705548048,0.0214802585542202
1772709236355494700,8.73049462890625,0.00806378573179245,0.04038630425930023,0.09567485749721527
1772709236365520000,8.740519775390625,0.004123106133192778,0.08328557014465332,0.05770830437541008
1772709236375544800,8.750544921875,0.008684301748871803,0.03531671315431595,0.011754393577575684
1772709236385569800,8.76056982421875,0.0059838565066456795,-0.02791205793619156,-0.022000640630722046
1772709236395594000,8.770593994140626,0.00612367270514369,-0.012151204980909824,-0.015440208837389946
1772709236405619000,8.780618896484375,-0.00019654128118418157,0.02160223014652729,0.000853809411637485
1772709236415643600,8.7906435546875,0.0017893778858706355,0.0062158177606761456,-0.01679069735109806
1772709236425668600,8.800668701171874,0.0029521139804273844,-0.023259516805410385,-0.047858867794275284
1772709236435693800,8.81069384765625,0.001680454588495195,-0.01672864705324173,-0.04350832849740982
1772709236445718800,8.82071875,0.0018306568963453174,0.006715693045407534,-0.021699169650673866
1772709236455743700,8.83074365234375,0.0029590383637696505,0.0025534387677907944,-0.021033912897109985
1772709236465768700,8.840768798828124,0.0017920411191880703,-0.020420586690306664,-0.015898805111646652
1772709236475794000,8.8507939453125,0.0029142971616238356,-0.006864830385893583,0.010422813706099987
1772709236485819000,8.86081884765625,0.0018413095967844129,0.028266791254281998,-0.005832322873175144
