time,seconds_elapsed,z,y,x
1772725504878417400,0.09241748046875,0,0,0
1772725504887934000,0.101933837890625,0.01600360870361328,-0.006109714508056641,-0.013075470924377441
1772725504897450800,0.11145068359375,0.10413265228271484,-0.003507852554321289,-0.052935004234313965
1772725504906967600,0.120967529296875,0.1351299285888672,-0.06481772661209106,-0.038060545921325684
1772725504916484400,0.130484375,0.04649639129638672,-0.12404358386993408,-0.0098954439163208
1772725504926001200,0.140001220703125,-0.0636749267578125,-0.17289119958877563,0.016098976135253906
1772725504935518000,0.14951806640625,-0.11961841583251953,-0.1861134171485901,0.0796048641204834
1772725504945034800,0.15903466796875,-0.12770938873291016,-0.2164878249168396,0.16140031814575195
1772725504954551600,0.168551513671875,-0.11365699768066406,-0.2004280686378479,0.16868066787719727
1772725504964068400,0.178068359375,-0.1926097869873047,-0.18113619089126587,0.13959670066833496
1772725504973585200,0.187585205078125,-0.3532066345214844,-0.1762518286705017,0.06794381141662598
1772725504983102000,0.19710205078125,-0.4729127883911133,-0.17417806386947632,0.02575063705444336
1772725504992618800,0.20661865234375,-0.5760898590087891,-0.16191083192825317,0.005934238433837891
1772725505002135600,0.216135498046875,-0.5822629928588867,-0.1142878532409668,0.02731335163116455
1772725505011652400,0.22565234375,-0.46367549896240234,-0.001995086669921875,0.029816746711730957
1772725505021169200,0.235169189453125,-0.20857620239257812,0.06465715169906616,0.007933735847473145
1772725505030686000,0.24468603515625,0.050907135009765625,0.028251707553863525,0.003706812858581543
1772725505040202800,0.25420263671875,0.1941385269165039,-0.02555936574935913,0.03409469127655029
1772725505049719600,0.263719482421875,0.23721027374267578,-0.04222893714904785,0.12232410907745361
1772725505059236400,0.273236328125,0.24242687225341797,-0.064503014087677,0.16180551052093506
1772725505068753000,0.2827529296875,0.19585609436035156,-0.04566001892089844,0.16430604457855225
1772725505078270000,0.29227001953125,0.06996440887451172,-0.0046929121017456055,0.1511228084564209
1772725505087786800,0.301786865234375,-0.0065135955810546875,0.019272565841674805,0.09536802768707275
1772725505097303600,0.311303466796875,0.03278064727783203,0.07766193151473999,0.008155465126037598
1772725505106820000,0.320820068359375,0.056865692138671875,0.07302218675613403,-0.000784754753112793
1772725505116337000,0.3303369140625,0.1192779541015625,0.10385823249816895,-0.0007098913192749023
1772725505125854000,0.33985400390625,0.19579124450683594,0.10552257299423218,0.0634775161743164
1772725505135370500,0.34937060546875,0.26313018798828125,0.07774055004119873,0.09263920783996582
1772725505144887300,0.35888720703125,0.21990203857421875,0.05156874656677246,0.08236992359161377
1772725505154404000,0.368404052734375,0.18756771087646484,-0.0032626986503601074,0.08523476123809814
1772725505163921000,0.3779208984375,0.1911478042602539,-0.016249418258666992,0.05677354335784912
1772725505173437700,0.387437744140625,0.14829349517822266,-0.03934657573699951,0.026087641716003418
1772725505182954500,0.39695458984375,0.05805683135986328,-0.03220975399017334,0.011124134063720703
1772725505192471300,0.40647119140625,-0.04104328155517578,-0.02735722064971924,0.0264359712600708
1772725505201988000,0.415988037109375,-0.15118694305419922,-0.05161726474761963,0.04484081268310547
1772725505211505000,0.4255048828125,-0.26534557342529297,-0.02669280767440796,0.05715000629425049
1772725505221021700,0.435021728515625,-0.29053306579589844,-0.03999108076095581,0.08266103267669678
1772725505230538500,0.44453857421875,-0.19415569305419922,-0.0824318528175354,0.04459857940673828
1772725505240055300,0.45405517578125,-0.006983757019042969,-0.043385326862335205,0.00018084049224853516
1772725505249572000,0.463572021484375,0.1173248291015625,-0.009716808795928955,0.012779712677001953
1772725505259089000,0.4730888671875,0.11268138885498047,-0.018425941467285156,0.03705191612243652
1772725505268605700,0.482605712890625,0.08473014831542969,-0.009579837322235107,0.015307068824768066
1772725505278122500,0.49212255859375,-0.02456188201904297,-0.022518813610076904,0.04710352420806885
1772725505287639300,0.501639404296875,-0.07316303253173828,-0.013758957386016846,0.08416938781738281
1772725505297156000,0.511156005859375,-0.06704139709472656,-0.009025871753692627,0.04604673385620117
1772725505306673000,0.5206728515625,0.01607990264892578,0.021980583667755127,0.03944277763366699
1772725505316189700,0.530189697265625,0.043498992919921875,0.03683716058731079,0.014395356178283691
1772725505325706500,0.53970654296875,0.011646270751953125,0.061387598514556885,-0.03526115417480469
1772725505335223300,0.549223388671875,-0.03613758087158203,0.0716625452041626,-0.04311501979827881
1772725505344740000,0.558739990234375,-0.04549217224121094,0.0727570652961731,-0.05780220031738281
1772725505354256600,0.568256591796875,-0.03569793701171875,0.08343154191970825,-0.059499382972717285
1772725505363773400,0.5777734375,-0.023571014404296875,0.10316354036331177,-0.0904015302658081
1772725505373290500,0.58729052734375,0.014093399047851562,0.12660527229309082,-0.12022233009338379
1772725505382807300,0.596807373046875,0.06751632690429688,0.09955728054046631,-0.04127776622772217
1772725505392323800,0.60632373046875,0.023717880249023438,0.09848695993423462,0.014927029609680176
1772725505401840600,0.615840576171875,0.037146568298339844,0.09929603338241577,0.009017467498779297
1772725505411357400,0.625357421875,0.07389163970947266,0.047544777393341064,-0.036615967750549316
1772725505420874200,0.634874267578125,0.032321929931640625,0.005864560604095459,-0.021968483924865723
1772725505430391000,0.64439111328125,-0.041599273681640625,0.005359351634979248,0.011870622634887695
1772725505439907800,0.653907958984375,-0.05099201202392578,0.04091721773147583,0.010910868644714355
1772725505449424600,0.663424560546875,-0.029798507690429688,0.03875136375427246,0.015455245971679688
1772725505458941400,0.67294140625,-0.025373458862304688,0.0017691850662231445,0.05706918239593506
1772725505468458200,0.682458251953125,-0.027980804443359375,-0.007619023323059082,0.021673917770385742
1772725505477975000,0.69197509765625,0.03076457977294922,0.01507556438446045,-0.009735465049743652
1772725505487491800,0.701491943359375,0.12411308288574219,0.011772751808166504,0.0022379159927368164
1772725505497008600,0.711008544921875,0.2092609405517578,0.019596993923187256,0.011750340461730957
1772725505506525400,0.720525390625,0.23206520080566406,-0.020565032958984375,-0.03423261642456055
1772725505516042200,0.730042236328125,0.10393142700195312,-0.02012455463409424,-0.0184248685836792
1772725505525559000,0.73955908203125,-0.00565338134765625,-0.024304330348968506,0.04214739799499512
1772725505535075800,0.749075927734375,-0.007637977600097656,-0.02622169256210327,0.09537816047668457
1772725505544592600,0.758592529296875,0.018459320068359375,-0.03574717044830322,0.11848855018615723
1772725505554109400,0.768109375,0.036902427673339844,-0.020112693309783936,0.1095578670501709
1772725505563626200,0.777626220703125,0.07848072052001953,0.02015066146850586,0.014609575271606445
1772725505573143000,0.78714306640625,0.060558319091796875,0.0024103522300720215,-0.019721150398254395
1772725505582659800,0.796659912109375,0.005385398864746094,0.022237956523895264,-0.03511238098144531
1772725505592176600,0.8061767578125,-0.08881759643554688,0.026032686233520508,-0.04846954345703125
1772725505601693400,0.815693359375,-0.17676544189453125,0.06429785490036011,-0.05735456943511963
1772725505611210000,0.8252099609375,-0.1927204132080078,0.09419858455657959,-0.061630845069885254
1772725505620727000,0.83472705078125,-0.12625885009765625,0.10742902755737305,-0.05766010284423828
1772725505630243800,0.844243896484375,-0.039963722229003906,0.08652341365814209,-0.08726620674133301
1772725505639760400,0.853760498046875,0.0024023056030273438,0.05988401174545288,-0.07974696159362793
1772725505649277200,0.863277099609375,0.0604248046875,0.044056832790374756,-0.14174926280975342
1772725505658794000,0.8727939453125,0.07274150848388672,0.04888039827346802,-0.1716080904006958
1772725505668310800,0.882310791015625,0.08731651306152344,0.04462069272994995,-0.1735469102859497
1772725505677827600,0.89182763671875,0.0546722412109375,0.058315157890319824,-0.17411458492279053
1772725505687344400,0.901344482421875,0.03427886962890625,0.04808109998703003,-0.14923620223999023
1772725505696861200,0.910861083984375,0.03306388854980469,0.06572747230529785,-0.13966608047485352
1772725505706378000,0.9203779296875,0.06494712829589844,0.08165544271469116,-0.13613104820251465
1772725505715894800,0.929894775390625,0.08707714080810547,0.040951311588287354,-0.13153505325317383
1772725505725411600,0.93941162109375,0.07855415344238281,0.014342129230499268,-0.08863604068756104
1772725505734928400,0.948928466796875,0.02330303192138672,-0.012758910655975342,-0.0566941499710083
1772725505744445200,0.958445068359375,-0.03815937042236328,-0.016758203506469727,0.0013988018035888672
1772725505753962000,0.9679619140625,-0.1129751205444336,-0.040364861488342285,0.05104720592498779
1772725505763478800,0.977478759765625,-0.10205364227294922,-0.07866775989532471,0.06628692150115967
1772725505772995600,0.98699560546875,-0.07485675811767578,-0.08437150716781616,0.10051894187927246
1772725505782512400,0.996512451171875,-0.05027198791503906,-0.08321800827980042,0.06955182552337646
1772725505792029200,1.006029296875,-0.0658426284790039,-0.06998836994171143,0.05385088920593262
1772725505801546000,1.0155458984375,-0.062317848205566406,-0.06809002161026001,-0.0065882205963134766
1772725505811062800,1.025062744140625,-0.03786468505859375,-0.10104095935821533,-0.04384171962738037
1772725505820579600,1.03457958984375,0.021287918090820312,-0.11460107564926147,0.017169833183288574
1772725505830096400,1.044096435546875,0.07950973510742188,-0.09079378843307495,0.0417017936706543
1772725505839613200,1.05361328125,0.13925838470458984,-0.02813422679901123,0.011075973510742188
1772725505849130000,1.0631298828125,0.10626029968261719,-0.0017568469047546387,0.051436662673950195
1772725505858646800,1.072646728515625,0.014957427978515625,0.031926095485687256,0.039319396018981934
1772725505868163300,1.082163330078125,-0.0066165924072265625,0.04274904727935791,0.020086169242858887
1772725505877680400,1.091680419921875,0.005146026611328125,0.04009968042373657,0.0006731748580932617
1772725505887197200,1.101197265625,0.06155586242675781,0.03979116678237915,-0.005142569541931152
1772725505896713700,1.110713623046875,0.11955451965332031,0.0384637713432312,-0.04454994201660156
1772725505906230500,1.12023046875,0.13677310943603516,0.012258768081665039,-0.04163527488708496
1772725505915747300,1.129747314453125,0.11617088317871094,0.01851332187652588,-0.02739262580871582
1772725505925264100,1.13926416015625,0.05593109130859375,0.015242338180541992,-0.022908806800842285
1772725505934781000,1.148781005859375,-0.04577350616455078,0.017802894115447998,-0.011084675788879395
1772725505944297700,1.158297607421875,-0.13433456420898438,0.033466875553131104,0.02321016788482666
1772725505953814500,1.167814453125,-0.1770496368408203,0.04513990879058838,0.06339597702026367
1772725505963331300,1.177331298828125,-0.1203927993774414,0.04958784580230713,0.06863903999328613
1772725505972848000,1.18684814453125,-0.03409099578857422,0.0648641586303711,0.05996358394622803
1772725505982365000,1.196364990234375,0.04847431182861328,0.026621222496032715,0.01159512996673584
1772725505991881700,1.2058818359375,0.13692760467529297,-0.0006071925163269043,-0.0179368257522583
1772725506001398500,1.2153984375,0.13232803344726562,-0.0067969560623168945,-0.005588650703430176
1772725506010915300,1.224915283203125,0.06898212432861328,0.020066440105438232,-0.03344893455505371
1772725506020432100,1.23443212890625,0.025516510009765625,0.07070475816726685,-0.0022525787353515625
1772725506029949000,1.243948974609375,-0.02898693084716797,0.041061997413635254,-0.002389073371887207
1772725506039465700,1.2534658203125,-0.016834259033203125,0.04036247730255127,-0.011162757873535156
1772725506048982500,1.262982421875,0.004474639892578125,0.029979407787322998,-0.03582918643951416
1772725506058499300,1.272499267578125,-0.00043487548828125,0.03135651350021362,0.00574493408203125
1772725506068016000,1.28201611328125,-0.038163185119628906,0.016438305377960205,0.018062829971313477
1772725506077533000,1.291532958984375,-0.046950340270996094,0.03966796398162842,0.015485644340515137
1772725506087049700,1.3010498046875,-0.024918556213378906,0.04614323377609253,0.012391924858093262
1772725506096566500,1.31056640625,-0.017334938049316406,0.03352707624435425,0.03506028652191162
1772725506106083300,1.320083251953125,-0.03107166290283203,0.04694932699203491,0.029247164726257324
1772725506115600000,1.329599853515625,-0.05878639221191406,0.011008262634277344,0.04280805587768555
1772725506125116700,1.33911669921875,-0.0509033203125,0.004200637340545654,0.0405658483505249
1772725506134633700,1.3486337890625,-0.06685447692871094,-0.004704654216766357,0.0629124641418457
1772725506144150500,1.358150634765625,-0.061354637145996094,0.02687615156173706,0.09177637100219727
1772725506153667000,1.3676669921875,0.024168968200683594,0.059878408908843994,0.027816057205200195
1772725506163183900,1.377183837890625,0.0870819091796875,0.011419713497161865,0.0029469728469848633
1772725506172700700,1.38670068359375,0.09712600708007812,0.019744455814361572,0.03783857822418213
1772725506182217500,1.396217529296875,0.022289276123046875,0.014555633068084717,0.05546915531158447
1772725506191734300,1.405734375,-0.025400161743164062,0.027490854263305664,0.041545748710632324
1772725506201251000,1.4152509765625,-0.03932380676269531,0.05054277181625366,0.015595436096191406
1772725506210768000,1.424767822265625,0.057712554931640625,0.0660659670829773,-0.01783466339111328
1772725506220284700,1.43428466796875,0.09683990478515625,0.026593923568725586,-0.02572619915008545
1772725506229801500,1.443801513671875,0.09319019317626953,-0.0010860562324523926,-0.039389848709106445
1772725506239318300,1.453318359375,0.08750534057617188,0.006311595439910889,-0.06360781192779541
1772725506248835000,1.4628349609375,0.027863502502441406,0.0036580562591552734,-0.03823268413543701
1772725506258351900,1.472351806640625,-0.0073413848876953125,0.010216832160949707,-0.007948994636535645
1772725506267868700,1.48186865234375,-0.009092330932617188,0.009129524230957031,-0.03871726989746094
1772725506277385500,1.491385498046875,-0.03686046600341797,0.02878636121749878,-0.05602598190307617
1772725506286902300,1.50090234375,-0.11380958557128906,0.0036276578903198242,-0.03402578830718994
1772725506296419000,1.510419189453125,-0.18259239196777344,-0.008903443813323975,-0.016175150871276855
1772725506305936000,1.519935791015625,-0.20806121826171875,-0.011250972747802734,-0.0376659631729126
1772725506315452700,1.52945263671875,-0.1793069839477539,0.00804758071899414,-0.06166219711303711
1772725506324969500,1.538969482421875,-0.09702587127685547,0.029216647148132324,-0.05861210823059082
1772725506334486000,1.548486083984375,-0.02312946319580078,0.05199092626571655,-0.027509212493896484
1772725506344002800,1.5580029296875,-0.042293548583984375,0.010940015316009521,-0.0106581449508667
1772725506353519600,1.56751953125,-0.08715438842773438,0.02083808183670044,0.00882411003112793
1772725506363036700,1.57703662109375,-0.05830097198486328,0.01996093988418579,0.022722840309143066
1772725506372553200,1.58655322265625,0.0031909942626953125,0.04874837398529053,-0.01936161518096924
1772725506382070000,1.596070068359375,0.0899810791015625,0.042315781116485596,-0.0025446414947509766
1772725506391586800,1.6055869140625,0.1852426528930664,0.031116068363189697,0.01319587230682373
1772725506401103600,1.615103515625,0.18512821197509766,0.019804418087005615,0.02200460433959961
1772725506410620400,1.624620361328125,0.152069091796875,0.006159603595733643,0.04960072040557861
1772725506420137200,1.63413720703125,0.10769176483154297,-0.000667273998260498,0.03287971019744873
1772725506429654000,1.643654052734375,0.038077354431152344,-0.003415346145629883,0.0666952133178711
1772725506439170800,1.6531708984375,0.0048389434814453125,0.0048226118087768555,0.09604108333587646
1772725506448687600,1.6626875,-0.018550872802734375,-0.011122584342956543,0.0505068302154541
1772725506458204400,1.672204345703125,-0.04403209686279297,-0.007958650588989258,0.027707815170288086
1772725506467721200,1.68172119140625,-0.07393455505371094,-0.006532549858093262,0.008281826972961426
1772725506477238000,1.691238037109375,-0.06113433837890625,0.021379828453063965,-0.014798402786254883
1772725506486754800,1.7007548828125,-0.06051921844482422,0.05355119705200195,-0.043265342712402344
1772725506496271600,1.710271728515625,-0.0436248779296875,0.06137418746948242,-0.07239174842834473
1772725506505788400,1.719788330078125,-0.04601860046386719,0.07346969842910767,-0.05506312847137451
1772725506515305200,1.72930517578125,-0.04379558563232422,0.054933786392211914,-0.03725087642669678
1772725506524822000,1.738822021484375,-0.05568218231201172,0.05145901441574097,-0.04609203338623047
1772725506534338800,1.7483388671875,0.07640647888183594,0.043464064598083496,-0.054031968116760254
1772725506543855600,1.757855712890625,0.20180225372314453,0.047038912773132324,-0.06072711944580078
1772725506553372200,1.7673720703125,0.21235275268554688,0.048006653785705566,-0.06607389450073242
1772725506562889200,1.77688916015625,0.15701580047607422,0.037129223346710205,-0.060633301734924316
1772725506572406000,1.786406005859375,0.08156490325927734,0.007657527923583984,-0.063240647315979
1772725506581922800,1.7959228515625,0.07110786437988281,0.004467904567718506,-0.04591166973114014
1772725506591439400,1.805439453125,0.04685688018798828,0.017324626445770264,-0.04141676425933838
1772725506600956200,1.8149560546875,0.0019140243530273438,-0.003356754779815674,-0.03972923755645752
1772725506610473200,1.82447314453125,-0.05409812927246094,0.0023218393325805664,0.002223491668701172
1772725506619989800,1.83398974609375,-0.08345794677734375,-0.022606194019317627,0.004503011703491211
1772725506629506600,1.843506591796875,-0.1079416275024414,-0.028049826622009277,-0.005446672439575195
1772725506639023400,1.8530234375,-0.11352062225341797,-0.059134095907211304,-0.003786444664001465
1772725506648540200,1.8625400390625,-0.06734657287597656,-0.08070021867752075,0.010404467582702637
1772725506658057000,1.872056884765625,-0.01955890655517578,-0.06700628995895386,-0.02275705337524414
1772725506667573800,1.88157373046875,-0.0149383544921875,-0.07233691215515137,-0.031733036041259766
1772725506677090600,1.891090576171875,-0.02459430694580078,-0.08442044258117676,-0.04245936870574951
1772725506686607400,1.900607421875,-0.015239715576171875,-0.07022970914840698,-0.0014567375183105469
1772725506696124200,1.910124267578125,-0.0058307647705078125,-0.07720854878425598,-0.007256507873535156
1772725506705641000,1.919640869140625,0.03654670715332031,-0.0489192008972168,0.01178741455078125
1772725506715157800,1.92915771484375,0.05477142333984375,-0.07309126853942871,-0.0028780698776245117
1772725506724674600,1.938674560546875,0.02097320556640625,-0.09906211495399475,0.017662405967712402
1772725506734191400,1.94819140625,0.018355369567871094,-0.06311580538749695,-0.002429962158203125
1772725506743708200,1.957708251953125,0.058259010314941406,-0.03474488854408264,-0.0018082857131958008
1772725506753225000,1.967224853515625,0.10706615447998047,-0.01646319031715393,0.044915199279785156
1772725506762741800,1.97674169921875,0.06342220306396484,0.013260126113891602,0.04772353172302246
1772725506772258300,1.98625830078125,0.02521228790283203,0.01898437738418579,0.01988804340362549
1772725506781775400,1.995775390625,-0.0030612945556640625,0.003397643566131592,0.0026546716690063477
1772725506791292200,2.005292236328125,-0.04275226593017578,0.00905078649520874,0.035973191261291504
1772725506800809000,2.01480908203125,-0.05609703063964844,0.005028456449508667,0.05356109142303467
1772725506810325500,2.024325439453125,-0.07649803161621094,0.013128072023391724,0.018030285835266113
1772725506819842300,2.03384228515625,-0.11550712585449219,0.019847840070724487,0.0329592227935791
1772725506829359400,2.043359375,-0.08570003509521484,0.0602705180644989,0.012521505355834961
1772725506838876200,2.052876220703125,-0.035213470458984375,0.05319446325302124,0.0017762184143066406
1772725506848392700,2.062392822265625,0.021607398986816406,0.028977900743484497,-0.03753232955932617
1772725506857909500,2.071909423828125,0.13179874420166016,-0.01964360475540161,-0.09116947650909424
1772725506867426300,2.08142626953125,0.15808582305908203,-0.011851519346237183,-0.11487150192260742
1772725506876943000,2.090943115234375,0.06406593322753906,0.0027748942375183105,-0.07544302940368652
1772725506886460000,2.1004599609375,-0.05198192596435547,0.04349920153617859,-0.024628162384033203
1772725506895976700,2.109976806640625,-0.08857440948486328,0.041754692792892456,0.011841416358947754
1772725506905493500,2.119493408203125,-0.07752037048339844,0.04040336608886719,0.010104894638061523
1772725506915010300,2.12901025390625,-0.024351119995117188,0.0696420669555664,0.027547836303710938
1772725506924527000,2.138527099609375,-0.012241363525390625,0.060295820236206055,0.03417384624481201
1772725506934044000,2.1480439453125,-0.014632225036621094,0.008331477642059326,0.03487706184387207
1772725506943560700,2.157560791015625,-0.035945892333984375,0.023068368434906006,0.029407739639282227
1772725506953077500,2.167077392578125,-0.040549278259277344,0.025644123554229736,0.013047456741333008
1772725506962594300,2.17659423828125,0.02312755584716797,-0.024064689874649048,0.039658546447753906
1772725506972111000,2.186111083984375,0.03642845153808594,-0.01195499300956726,0.04173922538757324
1772725506981628000,2.1956279296875,0.06146717071533203,0.011424541473388672,-0.006765604019165039
1772725506991144700,2.205144775390625,0.10976791381835938,0.029172152280807495,-0.019963741302490234
1772725507000661500,2.21466162109375,0.13855457305908203,0.05789065361022949,-0.028801679611206055
1772725507010178300,2.22417822265625,0.06816768646240234,0.06726515293121338,-0.019478559494018555
1772725507019695000,2.233695068359375,0.0202178955078125,0.07855156064033508,-0.039012908935546875
1772725507029211600,2.243211669921875,-0.005621910095214844,0.09151968359947205,-0.02362799644470215
1772725507038728400,2.252728515625,-0.04751777648925781,0.059450358152389526,0.005770444869995117
1772725507048245500,2.26224560546875,-0.1453723907470703,0.02427130937576294,0.04964423179626465
1772725507057762300,2.27176220703125,-0.18294620513916016,0.03154021501541138,0.05801594257354736
1772725507067278800,2.28127880859375,-0.15643692016601562,0.007953852415084839,0.033095598220825195
1772725507076795600,2.290795654296875,-0.1562938690185547,-0.008760005235671997,0.010670304298400879
1772725507086312400,2.3003125,-0.0808572769165039,-0.03169265389442444,-0.006843447685241699
1772725507095829200,2.309829345703125,0.021605491638183594,-0.024602890014648438,0.039461493492126465
1772725507105346000,2.319345947265625,0.157745361328125,-0.03852725028991699,0.04975438117980957
1772725507114862800,2.32886279296875,0.207122802734375,-0.03978952765464783,0.08256101608276367
1772725507124379600,2.338379638671875,0.1782207489013672,-0.025703787803649902,0.0857459306716919
1772725507133896400,2.347896484375,0.11688232421875,-0.003080695867538452,0.03245234489440918
1772725507143413200,2.357413330078125,0.0705118179321289,-0.0049273669719696045,0.009520530700683594
1772725507152930000,2.366929931640625,0.024866104125976562,-0.0378836989402771,0.036846280097961426
1772725507162446800,2.37644677734375,0.0035314559936523438,-0.06362619996070862,0.03077530860900879
1772725507171963600,2.385963623046875,-0.036273956298828125,-0.04402640461921692,0.050636887550354004
1772725507181480400,2.39548046875,-0.05182456970214844,0.008620530366897583,0.02260732650756836
1772725507190997200,2.404997314453125,-0.055298805236816406,0.06117868423461914,0.003893613815307617
1772725507200514000,2.41451416015625,-0.07761192321777344,0.05012896656990051,-0.026050090789794922
1772725507210030800,2.42403076171875,-0.0879354476928711,0.042468100786209106,-0.038367271423339844
1772725507219547600,2.433547607421875,-0.053394317626953125,0.05950474739074707,-0.04835927486419678
1772725507229064400,2.443064453125,-0.01232147216796875,0.08154416084289551,-0.028052330017089844
1772725507238581200,2.452581298828125,0.06340789794921875,0.06969243288040161,-0.03644216060638428
1772725507248097800,2.462097900390625,0.10498428344726562,0.05028608441352844,-0.009505391120910645
1772725507257614600,2.471614501953125,0.04235267639160156,0.012185215950012207,0.021656036376953125
1772725507267131600,2.481131591796875,-0.0216827392578125,0.012620627880096436,0.03398919105529785
1772725507276648400,2.4906484375,-0.07050800323486328,0.03898745775222778,0.041242241859436035
1772725507286165000,2.5001650390625,0.006327629089355469,0.014658808708190918,0.05246126651763916
1772725507295681800,2.509681884765625,0.09366607666015625,0.013157904148101807,0.04253661632537842
1772725507305198600,2.519198486328125,0.01935291290283203,0.013922274112701416,0.06460404396057129
1772725507314715400,2.52871533203125,-0.06105232238769531,0.0318199098110199,0.08070778846740723
1772725507324232200,2.538232177734375,-0.09314441680908203,0.007826805114746094,0.06859755516052246
1772725507333749000,2.5477490234375,-0.05402851104736328,0.017531871795654297,0.08431613445281982
1772725507343265800,2.557265869140625,0.02694988250732422,0.021862804889678955,0.030693531036376953
1772725507352782600,2.566782470703125,0.0713491439819336,-0.012078940868377686,0.0012660026550292969
1772725507362299400,2.57629931640625,0.051499366760253906,-0.026706337928771973,-0.0018955469131469727
1772725507371816200,2.585816162109375,0.010888099670410156,-0.014466702938079834,-0.001033186912536621
1772725507381333000,2.5953330078125,-0.028909683227539062,-0.0012206733226776123,0.005700111389160156
1772725507390849800,2.604849853515625,-0.049098968505859375,-0.008640527725219727,0.02783513069152832
1772725507400366600,2.61436669921875,-0.033606529235839844,0.019478827714920044,-0.023679614067077637
1772725507409883400,2.62388330078125,-0.03254985809326172,-0.016634613275527954,-0.00800025463104248
1772725507419400200,2.633400146484375,-0.024621963500976562,-0.022045761346817017,0.008594036102294922
1772725507428917000,2.6429169921875,-0.024110794067382812,-0.004568666219711304,0.031192779541015625
1772725507438433800,2.652433837890625,-0.007205009460449219,-0.014202862977981567,0.021143317222595215
1772725507447950600,2.66195068359375,0.004670143127441406,-0.008049547672271729,0.01176762580871582
1772725507457467400,2.67146728515625,-0.07092761993408203,0.000579148530960083,0.001432657241821289
1772725507466984000,2.68098388671875,-0.09598064422607422,-0.008868902921676636,-0.02704489231109619
1772725507476500700,2.690500732421875,-0.057082176208496094,-0.012525886297225952,-0.036513686180114746
1772725507486017500,2.700017578125,-0.021160125732421875,0.027130186557769775,-0.06505811214447021
1772725507495534600,2.70953466796875,0.00006961822509765625,0.04783561825752258,-0.05812180042266846
1772725507505051100,2.719051025390625,-0.014220237731933594,0.05700334906578064,0.008932948112487793
1772725507514568000,2.72856787109375,-0.02344226837158203,0.0594848096370697,0.0033926963806152344
1772725507524084700,2.738084716796875,-0.025400161743164062,0.05237266421318054,0.014142155647277832
1772725507533601500,2.7476015625,-0.03436279296875,0.014547258615493774,0.045838236808776855
1772725507543118300,2.757118408203125,-0.04323577880859375,0.014858812093734741,0.01858365535736084
1772725507552635100,2.76663525390625,-0.019094467163085938,-0.008496016263961792,0.0016907453536987305
1772725507562152000,2.77615185546875,-0.009526252746582031,-0.010575532913208008,0.016063809394836426
1772725507571668700,2.785668701171875,0.021149635314941406,0.01017811894416809,0.006330251693725586
1772725507581185500,2.795185546875,0.09865760803222656,-0.03402140736579895,-0.009365081787109375
1772725507590702300,2.804702392578125,0.12095355987548828,-0.01754513382911682,-0.03036367893218994
1772725507600219100,2.81421923828125,0.06277942657470703,-0.030244380235671997,-0.021992802619934082
1772725507609736000,2.82373583984375,-0.05363273620605469,-0.023674219846725464,0.009662151336669922
1772725507619252700,2.833252685546875,-0.09782886505126953,-0.01664191484451294,0.04253041744232178
1772725507628769500,2.84276953125,-0.040146827697753906,0.004737496376037598,0.027901649475097656
1772725507638286300,2.852286376953125,0.004830360412597656,0.032837897539138794,0.046340227127075195
1772725507647803100,2.86180322265625,0.018424034118652344,0.03220662474632263,0.02240753173828125
1772725507657320000,2.87131982421875,-0.022376060485839844,0.0014474093914031982,0.02727794647216797
1772725507666836700,2.880836669921875,-0.046108245849609375,0.021456092596054077,0.03234827518463135
1772725507676353500,2.890353515625,-0.055388450622558594,-0.007315456867218018,0.011561751365661621
1772725507685870000,2.8998701171875,-0.059803009033203125,-0.02273660898208618,0.01667177677154541
1772725507695387000,2.909386962890625,-0.009828567504882812,-0.00007608532905578613,0.018104076385498047
1772725507704903700,2.918903564453125,0.09839916229248047,-0.0020066797733306885,0.006344795227050781
1772725507714420700,2.928420654296875,0.1155233383178711,-0.02832472324371338,0.02962315082550049
1772725507723937300,2.937937255859375,0.12540149688720703,-0.062247633934020996,0.02393341064453125
1772725507733454000,2.9474541015625,0.14923381805419922,-0.06152108311653137,0.0021982192993164062
1772725507742971000,2.956970947265625,0.10901737213134766,-0.08748629689216614,0.010019779205322266
1772725507752487700,2.96648779296875,0.02232837677001953,-0.07583048939704895,0.05364179611206055
1772725507762004500,2.97600439453125,-0.034615516662597656,-0.07129576802253723,0.07491981983184814
1772725507771521300,2.985521240234375,-0.09284210205078125,-0.05450776219367981,0.06907474994659424
1772725507781038000,2.9950380859375,-0.13834667205810547,-0.07498851418495178,0.07029318809509277
1772725507790555000,3.004554931640625,-0.10555458068847656,-0.06402301788330078,0.05318641662597656
1772725507800071700,3.01407177734375,-0.0357513427734375,-0.06721684336662292,-0.0007688999176025391
1772725507809588500,3.02358837890625,0.04933738708496094,-0.0306856632232666,-0.04654371738433838
1772725507819105300,3.033105224609375,0.0693368911743164,-0.0258864164352417,-0.00819706916809082
1772725507828622000,3.0426220703125,0.0536346435546875,-0.019349277019500732,0.039534568786621094
1772725507838139000,3.052138916015625,-0.04424095153808594,0.008319497108459473,0.04460752010345459
1772725507847655700,3.06165576171875,-0.11217594146728516,-0.008843749761581421,0.03964829444885254
1772725507857172500,3.07117236328125,-0.10582733154296875,0.0288546085357666,-0.00900578498840332
1772725507866689300,3.080689208984375,-0.07123279571533203,0.036086082458496094,-0.022460222244262695
1772725507876205800,3.090205810546875,-0.0654916763305664,0.025471121072769165,-0.0216217041015625
1772725507885723000,3.099722900390625,-0.008089065551757812,-0.00022748112678527832,-0.02342402935028076
1772725507895239700,3.10923974609375,0.050789833068847656,0.022462546825408936,0.0023224353790283203
1772725507904756200,3.118756103515625,0.07579612731933594,0.028587013483047485,0.048436880111694336
1772725507914273000,3.12827294921875,0.10039424896240234,-0.003618091344833374,0.04919421672821045
1772725507923789800,3.137789794921875,0.12922382354736328,0.0012828707695007324,0.05061626434326172
1772725507933306600,3.147306640625,0.11754226684570312,-0.011813044548034668,0.03845489025115967
1772725507942823400,3.156823486328125,0.11790943145751953,-0.016582757234573364,0.016861915588378906
1772725507952340200,3.16634033203125,0.050133705139160156,-0.02658778429031372,0.061072468757629395
1772725507961857000,3.17585693359375,-0.06589221954345703,-0.04083999991416931,0.08074676990509033
1772725507971373800,3.185373779296875,-0.11878204345703125,-0.04055771231651306,0.05752682685852051
1772725507980890600,3.194890625,-0.10262393951416016,-0.03551679849624634,0.044513821601867676
1772725507990407400,3.204407470703125,-0.07742118835449219,-0.05630108714103699,0.027581453323364258
1772725507999924200,3.21392431640625,-0.01967620849609375,-0.04833483695983887,0.020174503326416016
1772725508009441000,3.22344091796875,0.027815818786621094,-0.03110918402671814,-0.03490912914276123
1772725508018957800,3.232957763671875,0.06976890563964844,-0.009540557861328125,-0.03703784942626953
1772725508028474600,3.242474609375,0.04251861572265625,0.0019088387489318848,-0.011515617370605469
1772725508037991400,3.251991455078125,0.0743570327758789,0.024498939514160156,-0.00396573543548584
1772725508047508200,3.26150830078125,0.07516002655029297,0.008858561515808105,0.017121076583862305
1772725508057025000,3.27102490234375,0.04555988311767578,0.014711439609527588,0.006029725074768066
1772725508066541800,3.280541748046875,0.011884689331054688,-0.012249141931533813,-0.026954174041748047
1772725508076058600,3.29005859375,-0.01651763916015625,0.008411020040512085,-0.03591513633728027
1772725508085575400,3.299575439453125,-0.058526039123535156,0.026684433221817017,0.006706953048706055
1772725508095092000,3.309092041015625,-0.07623577117919922,0.04008889198303223,0.045822739601135254
1772725508104608800,3.31860888671875,-0.08189105987548828,0.04649260640144348,0.04423034191131592
1772725508114125800,3.328125732421875,-0.0734090805053711,0.024647116661071777,0.024282097816467285
1772725508123642400,3.337642333984375,0.00542449951171875,0.04351252317428589,0.014582157135009766
1772725508133159200,3.3471591796875,0.05703544616699219,0.03413844108581543,0.016872048377990723
1772725508142676000,3.356676025390625,0.11257648468017578,0.039226800203323364,0.009158492088317871
1772725508152192800,3.36619287109375,0.1060791015625,0.03739693760871887,0.0011229515075683594
1772725508161709600,3.37570947265625,0.08561992645263672,0.0028162598609924316,0.009356379508972168
1772725508171226400,3.385226318359375,0.08670997619628906,-0.005445808172225952,-0.0250624418258667
1772725508180743200,3.3947431640625,0.05720996856689453,-0.0162334144115448,-0.054209351539611816
1772725508190260000,3.404260009765625,0.042334556579589844,0.017442822456359863,-0.03815734386444092
1772725508199776800,3.41377685546875,-0.02650165557861328,-0.0038310885429382324,-0.002918243408203125
1772725508209293600,3.42329345703125,-0.08966732025146484,0.012887299060821533,0.021098017692565918
1772725508218810400,3.432810302734375,-0.1213083267211914,-0.013138502836227417,0.00779879093170166
1772725508228327200,3.4423271484375,-0.1195211410522461,-0.012753844261169434,0.004362940788269043
1772725508237844000,3.451843994140625,-0.11782455444335938,-0.01457911729812622,-0.008099555969238281
1772725508247360800,3.46136083984375,-0.0856313705444336,-0.0022377967834472656,0.0059174299240112305
1772725508256877600,3.470877685546875,-0.03037261962890625,0.0001379549503326416,-0.020649075508117676
1772725508266394400,3.480394287109375,0.031188011169433594,0.018512815237045288,-0.03356039524078369
1772725508275911000,3.489910888671875,-0.011700630187988281,0.03179961442947388,-0.023355484008789062
1772725508285428000,3.499427978515625,-0.025537490844726562,0.040589600801467896,-0.03288543224334717
1772725508294944800,3.50894482421875,0.034081459045410156,0.08221089839935303,-0.03695189952850342
1772725508304461600,3.518461669921875,0.07413291931152344,0.08307299017906189,-0.028349995613098145
1772725508313978000,3.52797802734375,0.0641317367553711,0.07714337110519409,-0.03423476219177246
1772725508323495000,3.537494873046875,0.07531166076660156,0.08342531323432922,-0.029697179794311523
1772725508333011700,3.54701171875,0.013017654418945312,0.08304229378700256,0.040280818939208984
1772725508342528500,3.556528564453125,-0.03676795959472656,0.07105249166488647,0.07085680961608887
1772725508352045300,3.56604541015625,-0.02234363555908203,0.032976776361465454,0.03370344638824463
1772725508361562000,3.57556201171875,-0.0035228729248046875,0.01149982213973999,0.030673503875732422
1772725508371079000,3.585078857421875,0.0008516311645507812,0.006345003843307495,-0.0026689767837524414
1772725508380595700,3.594595703125,0.009936332702636719,-0.024934619665145874,-0.000558018684387207
1772725508390112500,3.604112548828125,0.007266044616699219,0.012045025825500488,-0.013446450233459473
1772725508399629300,3.61362939453125,-0.011605262756347656,-0.015478432178497314,-0.02507162094116211
1772725508409146000,3.62314599609375,-0.06989002227783203,-0.009668827056884766,-0.026382803916931152
1772725508418663000,3.632662841796875,-0.10097217559814453,-0.020305931568145752,-0.02512180805206299
1772725508428179700,3.6421796875,-0.1313018798828125,-0.002100527286529541,-0.0466008186340332
1772725508437696500,3.651696533203125,-0.1706066131591797,0.0001558363437652588,-0.011034131050109863
1772725508447213300,3.66121337890625,-0.16944217681884766,0.02449822425842285,-0.015156149864196777
1772725508456730000,3.670730224609375,-0.08619499206542969,0.030885785818099976,0.00785982608795166
1772725508466247000,3.680246826171875,-0.009334564208984375,0.0645294189453125,-0.0033866167068481445
1772725508475763700,3.689763671875,0.047023773193359375,0.06787639856338501,-0.031079411506652832
1772725508485280500,3.699280517578125,0.13257312774658203,0.07571518421173096,-0.0013701915740966797
1772725508494797000,3.708797119140625,0.19051742553710938,0.07083570957183838,0.008701920509338379
1772725508504313900,3.71831396484375,0.2098684310913086,0.04814279079437256,-0.004649162292480469
1772725508513831000,3.727830810546875,0.22686195373535156,0.04797789454460144,-0.04054820537567139
1772725508523347700,3.73734765625,0.12864398956298828,0.04256519675254822,-0.02617061138153076
1772725508532864300,3.7468642578125,-0.0077877044677734375,0.027756184339523315,0.005894899368286133
1772725508542381000,3.756381103515625,-0.061934471130371094,0.011244416236877441,0.0019605159759521484
1772725508551897900,3.76589794921875,-0.05166339874267578,0.011816173791885376,0.007503390312194824
1772725508561414700,3.77541455078125,-0.030020713806152344,0.005188584327697754,0.021425366401672363
1772725508570931500,3.784931396484375,0.052069664001464844,-0.01136896014213562,0.06342136859893799
1772725508580448300,3.7944482421875,0.07373619079589844,-0.007637143135070801,0.08529698848724365
1772725508589965000,3.803965087890625,0.05499458312988281,-0.007089495658874512,0.07673752307891846
1772725508599481900,3.81348193359375,0.011012077331542969,-0.025627344846725464,0.019298434257507324
1772725508608998700,3.82299853515625,-0.008088111877441406,-0.01272478699684143,-0.031781554222106934
1772725508618515500,3.832515380859375,-0.0475006103515625,-0.011184334754943848,-0.06675076484680176
1772725508628032300,3.8420322265625,-0.0556182861328125,-0.009078890085220337,-0.049829959869384766
1772725508637549000,3.851549072265625,-0.06391525268554688,-0.030152499675750732,-0.0030940771102905273
1772725508647065900,3.86106591796875,-0.06754398345947266,-0.022394120693206787,0.053298115730285645
1772725508656582700,3.870582763671875,-0.0074825286865234375,0.0014712214469909668,0.021130800247192383
1772725508666099500,3.880099365234375,0.014103889465332031,0.012300282716751099,-0.02076411247253418
1772725508675616300,3.8896162109375,0.011824607849121094,-0.004032552242279053,-0.0029754638671875
1772725508685132800,3.8991328125,-0.016434669494628906,0.014176368713378906,-0.024369001388549805
1772725508694649900,3.90864990234375,-0.03265857696533203,0.0009376108646392822,-0.02283918857574463
1772725508704166700,3.918166748046875,0.0030603408813476562,0.016087502241134644,-0.046610236167907715
1772725508713683200,3.92768310546875,0.03568744659423828,0.010850638151168823,-0.027005910873413086
1772725508723200000,3.937199951171875,-0.01238250732421875,0.028654158115386963,-0.04490244388580322
1772725508732716800,3.946716796875,-0.012613296508789062,0.0247173011302948,-0.04175996780395508
1772725508742233600,3.956233642578125,-0.019742965698242188,0.02706587314605713,-0.04006052017211914
1772725508751750400,3.96575048828125,0.004055023193359375,-0.007744520902633667,-0.04225313663482666
1772725508761267200,3.97526708984375,0.034607887268066406,-0.039876461029052734,-0.03786444664001465
1772725508770784000,3.984783935546875,0.048081398010253906,-0.06770879030227661,-0.03502035140991211
1772725508780300800,3.99430078125,0.12481021881103516,-0.05192139744758606,-0.024439454078674316
1772725508789817600,4.003817626953125,0.14146709442138672,-0.05872735381126404,0.056673288345336914
1772725508799334400,4.01333447265625,0.08485794067382812,-0.023838073015213013,0.023995399475097656
1772725508808851200,4.022851318359375,-0.008581161499023438,-0.03219491243362427,0.03275716304779053
1772725508818368000,4.032367919921875,-0.043969154357910156,-0.04768523573875427,0.05068361759185791
1772725508827884800,4.041884765625,-0.08568191528320312,-0.05104625225067139,0.050899505615234375
1772725508837401600,4.051401611328125,-0.13826656341552734,-0.013577312231063843,0.0449599027633667
1772725508846918400,4.06091845703125,-0.14046764373779297,0.003217637538909912,0.009982585906982422
1772725508856435200,4.070435302734375,-0.06029224395751953,0.008727014064788818,-0.03394317626953125
1772725508865952000,4.079951904296875,0.006615638732910156,0.01214742660522461,-0.031478166580200195
1772725508875468800,4.08946875,0.03212261199951172,0.020601987838745117,-0.0250091552734375
1772725508884985600,4.098985595703125,0.047554969787597656,0.04555279016494751,-0.04778623580932617
1772725508894502400,4.10850244140625,0.0793466567993164,0.03926536440849304,-0.03573179244995117
1772725508904019000,4.11801904296875,0.12041473388671875,-0.005266964435577393,-0.03088676929473877
1772725508913535700,4.12753564453125,0.11403846740722656,-0.016830414533615112,-0.05369997024536133
1772725508923052800,4.137052734375,0.02535533905029297,-0.01906225085258484,-0.05921447277069092
1772725508932569300,4.1465693359375,-0.01739215850830078,-0.031119555234909058,-0.03706371784210205
1772725508942086100,4.156086181640625,0.036849021911621094,0.007904887199401855,-0.00676274299621582
1772725508951603000,4.16560302734375,0.06671810150146484,0.024025291204452515,0.053525567054748535
1772725508961119700,4.17511962890625,0.04213523864746094,0.03682050108909607,0.046088576316833496
1772725508970636500,4.184636474609375,-0.05251121520996094,0.021439939737319946,0.019165396690368652
1772725508980153300,4.1941533203125,-0.1621112823486328,0.005119979381561279,0.0374608039855957
1772725508989670100,4.203670166015625,-0.18771743774414062,-0.014242410659790039,0.011539220809936523
1772725508999187000,4.21318701171875,-0.08115482330322266,-0.013960331678390503,0.007228493690490723
1772725509008703700,4.222703857421875,0.035511016845703125,-0.023038417100906372,0.002257227897644043
1772725509018220500,4.232220458984375,0.09610843658447266,-0.020230114459991455,-0.0025824308395385742
1772725509027737300,4.2417373046875,0.09210777282714844,-0.03425922989845276,-0.01630711555480957
1772725509037254100,4.251254150390625,0.09287643432617188,-0.04148504137992859,0.005655050277709961
1772725509046771000,4.26077099609375,0.096099853515625,-0.023443609476089478,-0.0344470739364624
1772725509056287700,4.270287841796875,0.0641937255859375,-0.008518725633621216,-0.011603951454162598
1772725509065804500,4.279804443359375,0.02347087860107422,-0.008310198783874512,-0.02943575382232666
1772725509075321300,4.2893212890625,0.042244911193847656,-0.018139749765396118,-0.06087768077850342
1772725509084838000,4.298837890625,0.07956886291503906,-0.004718184471130371,-0.021322965621948242
1772725509094354700,4.308354736328125,0.031624794006347656,0.02753126621246338,-0.0063934326171875
1772725509103871700,4.317871826171875,-0.04855632781982422,0.047988563776016235,0.03463578224182129
1772725509113388500,4.327388427734375,-0.09934043884277344,0.04270339012145996,0.031241536140441895
1772725509122905000,4.336905029296875,-0.08824634552001953,0.016564637422561646,0.0005112886428833008
1772725509132422000,4.346421875,-0.053859710693359375,0.03115507960319519,-0.005939126014709473
1772725509141938700,4.355938720703125,-0.1024322509765625,0.01798185706138611,-0.005217790603637695
1772725509151455500,4.36545556640625,-0.11731529235839844,0.0061730146408081055,-0.006810426712036133
1772725509160972300,4.37497216796875,-0.03318595886230469,-0.021114647388458252,-0.03410816192626953
1772725509170489000,4.384489013671875,0.037865638732910156,-0.04323276877403259,-0.021517038345336914
1772725509180006000,4.394005859375,0.08674049377441406,-0.028040587902069092,-0.02421855926513672
1772725509189522700,4.403522705078125,0.07612228393554688,-0.023058772087097168,-0.01584804058074951
1772725509199039500,4.41303955078125,-0.02848339080810547,-0.018168866634368896,0.018549561500549316
1772725509208556300,4.422556396484375,-0.09614086151123047,-0.05312606692314148,0.01052546501159668
1772725509218073000,4.432072998046875,-0.02365398406982422,-0.07153692841529846,0.02744746208190918
1772725509227590000,4.44158984375,0.0831747055053711,-0.04104691743850708,-0.006683945655822754
1772725509237106700,4.451106689453125,0.06587791442871094,-0.025745868682861328,-0.02601635456085205
1772725509246623500,4.46062353515625,0.008749961853027344,-0.0037716031074523926,0.007531642913818359
1772725509256140300,4.470140380859375,-0.019256591796875,-0.0030762553215026855,-0.0061953067779541016
1772725509265657000,4.479656982421875,0.009621620178222656,0.00500449538230896,-0.0029975175857543945
1772725509275173600,4.489173583984375,0.033176422119140625,-0.007991433143615723,-0.008478760719299316
1772725509284690700,4.498690673828125,0.044419288635253906,0.028462916612625122,0.03185379505157471
1772725509294207500,4.50820751953125,0.022505760192871094,0.04528987407684326,0.04115891456604004
1772725509303724000,4.51772412109375,0.008090019226074219,0.04526415467262268,0.031047821044921875
1772725509313240800,4.52724072265625,-0.031821250915527344,0.045615166425704956,-0.005785703659057617
1772725509322757600,4.536757568359375,-0.033255577087402344,0.025112897157669067,-0.03842353820800781
1772725509332274400,4.5462744140625,-0.020442962646484375,0.0005463063716888428,-0.07831358909606934
1772725509341791200,4.555791259765625,-0.005397796630859375,-0.013804793357849121,-0.08762609958648682
1772725509351308000,4.56530810546875,0.011851310729980469,0.017428666353225708,-0.04114663600921631
1772725509360824800,4.574824951171875,-0.030107498168945312,0.01830512285232544,-0.027977705001831055
1772725509370341600,4.584341552734375,-0.09755897521972656,0.012803345918655396,0.014907121658325195
1772725509379858400,4.5938583984375,-0.12659740447998047,-0.04152137041091919,0.03563380241394043
1772725509389375200,4.603375244140625,-0.051735877990722656,-0.06884285807609558,0.058989763259887695
1772725509398892000,4.61289208984375,0.033695220947265625,-0.09150075912475586,0.09354925155639648
1772725509408408800,4.622408935546875,0.07778739929199219,-0.08147719502449036,0.0730823278427124
1772725509417925600,4.631925537109375,0.04824352264404297,-0.08621615171432495,0.05049848556518555
1772725509427442400,4.6414423828125,0.05458641052246094,-0.06560391187667847,0.02783787250518799
1772725509436959200,4.650959228515625,0.11747455596923828,-0.09564796090126038,0.02353382110595703
1772725509446476000,4.66047607421875,0.11585807800292969,-0.06485047936439514,0.03319108486175537
1772725509455992600,4.66999267578125,0.057784080505371094,-0.051675260066986084,0.04062092304229736
1772725509465509600,4.679509521484375,0.03596019744873047,0.0031065642833709717,-0.0059757232666015625
1772725509475026400,4.6890263671875,0.06872081756591797,0.03713786602020264,-0.0003688335418701172
1772725509484543000,4.69854296875,0.020921707153320312,0.0016348958015441895,0.012501239776611328
1772725509494059800,4.708059814453125,-0.06387805938720703,0.0018956959247589111,-0.006823897361755371
1772725509503576600,4.71757666015625,-0.14510631561279297,0.02102339267730713,0.04594743251800537
1772725509513093400,4.72709326171875,-0.18987560272216797,0.04095035791397095,0.04456913471221924
1772725509522610200,4.736610107421875,-0.2011270523071289,0.03432828187942505,0.031902194023132324
1772725509532127000,4.746126953125,-0.14640235900878906,0.08640685677528381,-0.020621418952941895
1772725509541643800,4.755643798828125,-0.08078289031982422,0.08301275968551636,-0.05423712730407715
1772725509551160600,4.76516064453125,-0.030272483825683594,0.05494549870491028,-0.07413947582244873
1772725509560677400,4.774677490234375,0.03138542175292969,0.025563746690750122,-0.08348345756530762
1772725509570194200,4.784194091796875,0.10158920288085938,0.0013674497604370117,-0.0889359712600708
1772725509579711000,4.7937109375,0.09068489074707031,-0.0017456412315368652,-0.04276072978973389
1772725509589227800,4.803227783203125,0.09408378601074219,-0.012822717428207397,-0.03708994388580322
1772725509598744600,4.81274462890625,0.052657127380371094,-0.010826170444488525,-0.02843177318572998
1772725509608261400,4.822261474609375,0.014211654663085938,-0.028717905282974243,0.00899803638458252
1772725509617778200,4.831778076171875,-0.007317543029785156,-0.028257519006729126,0.014264822006225586
1772725509627295000,4.841294921875,-0.04747200012207031,-0.02561977505683899,0.008707880973815918
1772725509636811800,4.850811767578125,-0.0941619873046875,-0.02012854814529419,-0.010137319564819336
1772725509646328300,4.860328369140625,-0.041159629821777344,-0.002645939588546753,-0.0340040922164917
1772725509655845400,4.869845458984375,0.08643817901611328,0.012003839015960693,-0.07972919940948486
1772725509665362200,4.879362060546875,0.14853191375732422,-0.016440868377685547,-0.06195330619812012
1772725509674878700,4.888878662109375,0.12740516662597656,0.011626988649368286,-0.03126180171966553
1772725509684395500,4.8983955078125,0.08564949035644531,0.043669670820236206,-0.016330957412719727
1772725509693912300,4.907912353515625,0.016437530517578125,0.04695221781730652,0.014311790466308594
1772725509703429000,4.91742919921875,0.0166168212890625,0.07373738288879395,0.011494874954223633
1772725509712946000,4.92694580078125,-0.002025604248046875,0.029591411352157593,0.018082737922668457
1772725509722462700,4.936462646484375,-0.00624847412109375,0.04302781820297241,0.005686402320861816
1772725509731979500,4.9459794921875,-0.010481834411621094,0.021284252405166626,0.005655527114868164
1772725509741496300,4.955496337890625,-0.026502609252929688,0.035441070795059204,-0.01740288734436035
1772725509751013000,4.96501318359375,0.0001239776611328125,0.05589491128921509,-0.023616433143615723
1772725509760530000,4.974530029296875,0.012166023254394531,0.06141144037246704,0.01054692268371582
1772725509770046700,4.984046630859375,-0.04189872741699219,0.031889259815216064,0.02537095546722412
1772725509779563500,4.9935634765625,-0.04321861267089844,0.0431501567363739,0.018205881118774414
1772725509789080300,5.003080322265625,-0.032723426818847656,0.016576707363128662,0.008638739585876465
1772725509798597000,5.01259716796875,-0.038949012756347656,0.006757467985153198,-0.0002650022506713867
1772725509808114000,5.022114013671875,-0.04047966003417969,-0.005213260650634766,0.03166055679321289
1772725509817630700,5.031630615234375,-0.037352561950683594,-0.005266249179840088,0.035282015800476074
1772725509827147300,5.041147216796875,-0.04610443115234375,-0.011898666620254517,0.015546917915344238
1772725509836664300,5.050664306640625,-0.005223274230957031,-0.008614927530288696,0.0026366710662841797
1772725509846181000,5.06018115234375,0.07521247863769531,-0.005413949489593506,-0.04911959171295166
1772725509855698000,5.069697998046875,0.1285858154296875,-0.005144208669662476,-0.10081183910369873
1772725509865214500,5.07921435546875,0.058727264404296875,0.0064544677734375,-0.0739448070526123
1772725509874731300,5.088731201171875,0.001720428466796875,0.026990413665771484,-0.05639052391052246
1772725509884248000,5.098248046875,-0.056761741638183594,0.004746913909912109,-0.005729317665100098
1772725509893764900,5.107764892578125,-0.0789937973022461,0.015787452459335327,0.02538430690765381
1772725509903281700,5.11728173828125,-0.07506465911865234,0.019726157188415527,-0.01409447193145752
1772725509912798500,5.126798583984375,-0.08304882049560547,0.023739933967590332,-0.03128063678741455
1772725509922315300,5.136315185546875,-0.10030364990234375,0.025558918714523315,-0.0553516149520874
1772725509931832000,5.14583203125,-0.07028579711914062,0.024760335683822632,-0.052630066871643066
1772725509941348900,5.155348876953125,-0.062117576599121094,0.009529471397399902,-0.039420366287231445
1772725509950865700,5.16486572265625,-0.0047149658203125,-0.024767696857452393,-0.021334290504455566
1772725509960382500,5.174382568359375,0.025856971740722656,-0.004797518253326416,-0.022308826446533203
1772725509969899300,5.183899169921875,-0.0076770782470703125,-0.02062317728996277,-0.04634702205657959
1772725509979416000,5.193416015625,-0.057211875915527344,-0.0030660033226013184,-0.04359900951385498
1772725509988932900,5.202932861328125,-0.06368064880371094,-0.025408118963241577,-0.04974651336669922
1772725509998449700,5.21244970703125,-0.03937339782714844,-0.0353696346282959,-0.023402094841003418
1772725510007966500,5.221966552734375,0.041229248046875,-0.04294338822364807,-0.001193404197692871
1772725510017483300,5.231483154296875,0.08066749572753906,-0.01768401265144348,0.0008124113082885742
1772725510027000000,5.241,0.03709983825683594,-0.037289202213287354,0.03326594829559326
1772725510036516900,5.250516845703125,-0.02467632293701172,-0.02520158886909485,0.016219496726989746
1772725510046033400,5.260033447265625,0.008696556091308594,-0.031792253255844116,0.02993011474609375
1772725510055550200,5.26955029296875,0.03454399108886719,-0.03370767831802368,0.061737775802612305
1772725510065067000,5.27906689453125,0.07642269134521484,-0.04051262140274048,0.03900742530822754
1772725510074583800,5.288583740234375,0.044589996337890625,-0.033339470624923706,0.04069948196411133
1772725510084100600,5.2981005859375,-0.026662826538085938,-0.016583651304244995,0.04433631896972656
1772725510093617400,5.307617431640625,-0.054350852966308594,0.019175738096237183,0.0005697011947631836
1772725510103134200,5.31713427734375,-0.018059730529785156,0.04030579328536987,-0.011831164360046387
1772725510112651000,5.326651123046875,-0.0011568069458007812,0.0067317187786102295,-0.03830873966217041
1772725510122167800,5.336167724609375,-0.019837379455566406,0.001886993646621704,-0.03605091571807861
1772725510131684600,5.3456845703125,-0.064178466796875,0.025864213705062866,-0.052260518074035645
1772725510141201400,5.355201416015625,-0.06555843353271484,0.021740615367889404,-0.022867560386657715
1772725510150718200,5.36471826171875,-0.04581737518310547,0.036359190940856934,-0.033447861671447754
1772725510160235000,5.374235107421875,-0.033524513244628906,0.0106123685836792,-0.008161544799804688
1772725510169751800,5.383751708984375,0.009167671203613281,-0.010327309370040894,-0.018593668937683105
1772725510179268600,5.3932685546875,0.02286243438720703,-0.031189560890197754,-0.037872910499572754
1772725510188785400,5.402785400390625,0.02456188201904297,-0.035420745611190796,-0.03088665008544922
1772725510198302000,5.412302001953125,0.023954391479492188,-0.011748790740966797,0.015648603439331055
1772725510207819000,5.421819091796875,0.046905517578125,-0.036101698875427246,0.02146732807159424
1772725510217335800,5.431335693359375,0.017821311950683594,-0.03455066680908203,0.012506604194641113
1772725510226852600,5.4408525390625,0.015224456787109375,-0.03317555785179138,0.019485831260681152
1772725510236369200,5.450369140625,-0.0109100341796875,-0.022271305322647095,0.010151147842407227
1772725510245886000,5.459885986328125,-0.029689788818359375,-0.022938400506973267,0.013473153114318848
1772725510255402800,5.46940283203125,-0.01755809783935547,0.04008519649505615,-0.0021909475326538086
1772725510264919600,5.47891943359375,0.020257949829101562,0.040807127952575684,-0.008176326751708984
1772725510274436400,5.488436279296875,-0.02019977569580078,0.05832454562187195,-0.00713193416595459
1772725510283953200,5.497953125,-0.010472297668457031,0.04491427540779114,-0.025510072708129883
1772725510293470000,5.507469970703125,-0.012704849243164062,0.022099673748016357,-0.0009670257568359375
1772725510302986800,5.51698681640625,-0.04337310791015625,0.020841121673583984,0.019906282424926758
1772725510312503600,5.526503662109375,-0.07376289367675781,-0.003298252820968628,0.0016655921936035156
1772725510322020400,5.536020263671875,-0.04010295867919922,-0.014089524745941162,0.006824970245361328
1772725510331537200,5.545537109375,0.0308074951171875,-0.01648014783859253,-0.01768052577972412
1772725510341054000,5.555053955078125,0.020598411560058594,0.014682769775390625,-0.014090657234191895
1772725510350570800,5.56457080078125,0.02232074737548828,0.014963984489440918,0.024693727493286133
1772725510360087600,5.574087646484375,-0.0017843246459960938,-0.03206056356430054,0.06005072593688965
1772725510369604400,5.583604248046875,0.019453048706054688,-0.03897616267204285,0.027698755264282227
1772725510379121200,5.59312109375,0.07825756072998047,-0.042290180921554565,-0.019546866416931152
1772725510388637700,5.6026376953125,0.0890798568725586,-0.051426470279693604,0.01634526252746582
1772725510398154800,5.61215478515625,0.017185211181640625,-0.02821981906890869,-0.005845546722412109
1772725510407671600,5.621671630859375,0.023983001708984375,-0.043666452169418335,0.008736371994018555
1772725510417188000,5.63118798828125,0.0824880599975586,-0.05004337430000305,0.022917509078979492
1772725510426705000,5.640704833984375,0.046006202697753906,-0.04178372025489807,0.05020296573638916
1772725510436221700,5.6502216796875,-0.05587005615234375,-0.004029303789138794,0.011491537094116211
1772725510445738500,5.659738525390625,-0.08333396911621094,0.006303936243057251,-0.020923256874084473
1772725510455255300,5.66925537109375,-0.0257720947265625,0.0236738920211792,-0.004946351051330566
1772725510464772000,5.678772216796875,0.04729652404785156,0.028708338737487793,0.006170988082885742
1772725510474289000,5.688288818359375,0.041637420654296875,0.035720616579055786,0.02577030658721924
1772725510483805700,5.6978056640625,0.024451255798339844,0.02843204140663147,-0.012284994125366211
1772725510493322500,5.707322509765625,0.01943683624267578,0.0352230966091156,-0.01979541778564453
1772725510502839300,5.71683935546875,0.007537841796875,0.0508820116519928,-0.02526724338531494
1772725510512356000,5.726356201171875,-0.013639450073242188,0.005038708448410034,-0.0019998550415039062
1772725510521873000,5.735872802734375,-0.08639907836914062,-0.009123921394348145,0.014780044555664062
1772725510531389700,5.7453896484375,-0.12040138244628906,0.022227078676223755,-0.005919337272644043
1772725510540906500,5.754906494140625,-0.09030532836914062,0.03912505507469177,-0.016923904418945312
1772725510550423300,5.76442333984375,-0.063079833984375,0.04407051205635071,0.005257606506347656
1772725510559940000,5.773940185546875,-0.05993938446044922,0.02775701880455017,0.0041582584381103516
1772725510569456600,5.78345654296875,-0.04512310028076172,0.03763455152511597,-0.01553201675415039
1772725510578973400,5.792973388671875,0.02602100372314453,0.018924057483673096,-0.011937856674194336
1772725510588490500,5.802490478515625,0.0701589584350586,0.00020650029182434082,-0.029866456985473633
1772725510598007300,5.81200732421875,0.08285331726074219,-0.030403494834899902,0.00512540340423584
1772725510607523800,5.82152392578125,0.10700416564941406,-0.04702270030975342,0.0356212854385376
1772725510617040600,5.83104052734375,0.15439987182617188,-0.04982838034629822,0.017993450164794922
1772725510626557400,5.840557373046875,0.1400775909423828,-0.022206127643585205,-0.01257312297821045
1772725510636074200,5.85007421875,0.09556961059570312,-0.04909679293632507,-0.0389401912689209
1772725510645591000,5.859591064453125,0.05418968200683594,-0.03056126832962036,0.017206549644470215
1772725510655107800,5.86910791015625,0.03936958312988281,-0.028814584016799927,0.05129969120025635
1772725510664624600,5.878624755859375,0.02240276336669922,-0.0014764964580535889,0.07105553150177002
1772725510674141400,5.888141357421875,-0.027276039123535156,0.004557967185974121,0.08600425720214844
1772725510683658200,5.897658203125,-0.08339118957519531,0.02757248282432556,0.09471738338470459
1772725510693175000,5.907175048828125,-0.08927440643310547,0.025174647569656372,0.047261834144592285
1772725510702691800,5.91669189453125,-0.040862083435058594,0.04428383708000183,0.000031828880310058594
1772725510712208600,5.926208740234375,-0.0003032684326171875,0.039629966020584106,-0.00416254997253418
1772725510721725400,5.935725341796875,-0.009924888610839844,0.0024879872798919678,-0.014890193939208984
1772725510731242200,5.9452421875,-0.01462554931640625,-0.01204293966293335,-0.03071582317352295
1772725510740759000,5.954759033203125,-0.019136428833007812,0.01672530174255371,0.006947517395019531
1772725510750275800,5.96427587890625,0.014212608337402344,0.021165281534194946,0.0032460689544677734
1772725510759792400,5.97379248046875,0.09412574768066406,-0.0015718042850494385,-0.007473945617675781
1772725510769309200,5.98330908203125,0.06922721862792969,-0.03238648176193237,0.015035748481750488
1772725510778826000,5.992825927734375,-0.007019996643066406,-0.01624789834022522,0.016162395477294922
1772725510788342800,6.0023427734375,-0.05613517761230469,-0.04479345679283142,0.014971017837524414
1772725510797859600,6.011859619140625,-0.026760101318359375,-0.022869199514389038,-0.007703900337219238
1772725510807376400,6.02137646484375,0.011533737182617188,-0.0102711021900177,0.01931452751159668
1772725510816893200,6.03089306640625,-0.016839027404785156,0.00039318203926086426,0.03480672836303711
1772725510826410000,6.040409912109375,-0.042458534240722656,0.009154945611953735,-0.006151437759399414
1772725510835926800,6.0499267578125,-0.020562171936035156,0.010796457529067993,0.031003117561340332
1772725510845443600,6.059443603515625,0.015157699584960938,-0.00472608208656311,0.02260446548461914
1772725510854960400,6.06896044921875,0.0738525390625,0.00017303228378295898,-0.00443720817565918
1772725510864477200,6.078477294921875,0.05636882781982422,-0.007553428411483765,-0.012560844421386719
1772725510873994000,6.087993896484375,-0.01485443115234375,0.008190274238586426,-0.01865708827972412
1772725510883510800,6.0975107421875,-0.08721351623535156,0.016978353261947632,-0.015529155731201172
1772725510893027600,6.107027587890625,-0.11363887786865234,0.02595779299736023,-0.017384052276611328
1772725510902544400,6.11654443359375,-0.11854743957519531,0.009120672941207886,-0.04689371585845947
1772725510912061200,6.126061279296875,-0.005939483642578125,0.011209309101104736,-0.05810415744781494
1772725510921578000,6.135577880859375,0.07871246337890625,0.0038140416145324707,-0.03264188766479492
1772725510931094800,6.1450947265625,0.03248786926269531,0.030411362648010254,0.00422513484954834
1772725510940611300,6.154611328125,-0.015300750732421875,0.06481486558914185,-0.04703366756439209
1772725510950128000,6.164128173828125,0.013205528259277344,0.06674405932426453,-0.06367075443267822
1772725510959645000,6.17364501953125,0.02495861053466797,0.06475120782852173,-0.04613447189331055
1772725510969161700,6.18316162109375,0.0247955322265625,0.060720086097717285,-0.022169113159179688
1772725510978678500,6.192678466796875,0.048155784606933594,0.009303838014602661,0.020389556884765625
1772725510988195300,6.2021953125,0.035678863525390625,-0.02093183994293213,0.058716773986816406
1772725510997712100,6.211712158203125,-0.0026273727416992188,0.0025168955326080322,0.09289133548736572
1772725511007229000,6.22122900390625,-0.023848533630371094,-0.01769697666168213,0.09865987300872803
1772725511016745700,6.230745849609375,0.02593517303466797,-0.01051071286201477,0.01956784725189209
1772725511026262500,6.240262451171875,0.0631561279296875,-0.018434077501296997,-0.013451576232910156
1772725511035779300,6.249779296875,0.04567718505859375,-0.04292112588882446,-0.04608964920043945
1772725511045296000,6.259296142578125,0.06393241882324219,-0.008570641279220581,-0.04603016376495361
1772725511054813000,6.26881298828125,0.09848976135253906,0.03632467985153198,-0.05601048469543457
1772725511064329500,6.27832958984375,0.024169921875,0.04951733350753784,0.005262136459350586
1772725511073846500,6.287846435546875,-0.07960128784179688,0.03702971339225769,0.03777670860290527
1772725511083363300,6.29736328125,-0.1370687484741211,0.06110462546348572,0.04436004161834717
1772725511092880000,6.3068798828125,-0.12076187133789062,0.057874858379364014,0.01592254638671875
1772725511102396700,6.316396728515625,-0.12125873565673828,0.04893389344215393,-0.023805856704711914
1772725511111913700,6.325913818359375,-0.10298347473144531,0.04608502984046936,-0.02520906925201416
1772725511121430500,6.335430419921875,-0.0826578140258789,0.03224959969520569,-0.012680411338806152
1772725511130947000,6.344947021484375,-0.02499866485595703,0.016338229179382324,-0.02405571937561035
1772725511140463900,6.3544638671875,-0.017742156982421875,-0.034976959228515625,0.007403016090393066
1772725511149980700,6.363980712890625,-0.013016700744628906,-0.045989811420440674,0.010606050491333008
1772725511159497500,6.37349755859375,0.043537139892578125,-0.06724324822425842,-0.005645275115966797
1772725511169014300,6.38301416015625,0.15590381622314453,-0.05712258815765381,0.01718127727508545
1772725511178531000,6.392531005859375,0.14187240600585938,-0.05851319432258606,0.053187012672424316
1772725511188048000,6.4020478515625,0.06464004516601562,-0.06800857186317444,0.02948737144470215
1772725511197564700,6.411564697265625,-0.025381088256835938,-0.08685123920440674,0.045967698097229004
1772725511207081500,6.42108154296875,-0.1278533935546875,-0.08804604411125183,0.053887128829956055
1772725511216598300,6.430598388671875,-0.16486454010009766,-0.04339846968650818,0.00592958927154541
1772725511226115000,6.440114990234375,-0.1140584945678711,-0.009984731674194336,-0.004755139350891113
1772725511235631900,6.4496318359375,-0.1254739761352539,-0.010913670063018799,-0.007411956787109375
1772725511245148700,6.459148681640625,-0.03352832794189453,-0.019964933395385742,-0.017647147178649902
1772725511254665500,6.46866552734375,0.11061382293701172,0.018456250429153442,-0.006650567054748535
1772725511264182300,6.478182373046875,0.22607898712158203,0.04821491241455078,0.016146540641784668
1772725511273699000,6.487698974609375,0.21938610076904297,0.04807087779045105,0.0661458969116211
1772725511283215600,6.497215576171875,0.08337593078613281,-0.006901264190673828,0.08266329765319824
1772725511292732400,6.506732421875,0.029676437377929688,-0.013907432556152344,-0.002507805824279785
1772725511302249500,6.51624951171875,-0.046492576599121094,-0.008535563945770264,0.023206591606140137
1772725511311766000,6.52576611328125,-0.07643604278564453,0.011792272329330444,-0.0003027915954589844
1772725511321282800,6.53528271484375,-0.03971672058105469,0.025022447109222412,-0.013404130935668945
1772725511330799600,6.544799560546875,-0.0011434555053710938,0.0307578444480896,0.010738730430603027
1772725511340316400,6.55431640625,-0.0033130645751953125,0.019477248191833496,0.025798916816711426
1772725511349833200,6.563833251953125,-0.033916473388671875,0.024602651596069336,0.05147445201873779
1772725511359350000,6.57335009765625,-0.06892585754394531,0.029820173978805542,0.07791578769683838
1772725511368866800,6.58286669921875,-0.09638118743896484,0.03542828559875488,0.06902313232421875
1772725511378383600,6.592383544921875,-0.017462730407714844,0.02885955572128296,0.006043553352355957
1772725511387900400,6.601900390625,0.017871856689453125,0.014713436365127563,0.012014031410217285
1772725511397417200,6.611417236328125,0.033924102783203125,-0.02097359299659729,-0.0015468597412109375
1772725511406934000,6.62093408203125,0.10634136199951172,-0.01929953694343567,-0.010912060737609863
1772725511416450800,6.630450927734375,0.15653610229492188,-0.05805674195289612,-0.018609166145324707
1772725511425967600,6.639967529296875,0.09999942779541016,-0.07943540811538696,0.016179561614990234
1772725511435484400,6.649484375,0.03957366943359375,-0.07886922359466553,0.027488112449645996
1772725511445001200,6.659001220703125,0.017653465270996094,-0.038143664598464966,0.055922627449035645
1772725511454518000,6.66851806640625,0.021982192993164062,-0.012299269437789917,0.05800831317901611
1772725511464034600,6.67803466796875,0.035808563232421875,-0.015458524227142334,0.0450974702835083
1772725511473551400,6.68755126953125,0.0024890899658203125,0.002620786428451538,0.03861415386199951
1772725511483068200,6.697068115234375,-0.04902076721191406,0.004294365644454956,0.026962637901306152
1772725511492585000,6.7065849609375,-0.017174720764160156,-0.003246515989303589,-0.0018650293350219727
1772725511502101800,6.716101806640625,0.014338493347167969,-0.006114929914474487,-0.012516617774963379
1772725511511618600,6.72561865234375,0.010025978088378906,-0.00204429030418396,-0.02759873867034912
1772725511521135400,6.73513525390625,-0.055632591247558594,-0.016573995351791382,-0.041081905364990234
1772725511530652200,6.744652099609375,-0.11572742462158203,-0.013876110315322876,0.008086562156677246
1772725511540169000,6.7541689453125,-0.12088584899902344,0.017648667097091675,0.04087483882904053
1772725511549685800,6.763685791015625,-0.07438850402832031,0.0229988694190979,0.04125654697418213
1772725511559202600,6.77320263671875,-0.005290985107421875,0.035130828619003296,0.023769021034240723
1772725511568719400,6.78271923828125,0.041436195373535156,0.013987839221954346,-0.0072585344314575195
1772725511578236200,6.792236083984375,0.021521568298339844,0.005402475595474243,-0.019167661666870117
1772725511587753000,6.8017529296875,-0.0214996337890625,0.00006332993507385254,-0.05279064178466797
1772725511597269800,6.811269775390625,0.023509979248046875,-0.0074835121631622314,-0.056783437728881836
1772725511606786600,6.82078662109375,0.12453937530517578,-0.01797899603843689,-0.06228673458099365
1772725511616303000,6.83030322265625,0.10635566711425781,-0.03159031271934509,-0.03755044937133789
1772725511625820000,6.83981982421875,0.05074119567871094,-0.03860059380531311,-0.033725738525390625
1772725511635337000,6.8493369140625,-0.022937774658203125,-0.03892245888710022,-0.010021090507507324
1772725511644853800,6.858853759765625,-0.041296958923339844,-0.008716464042663574,-0.014775633811950684
1772725511654370300,6.868370361328125,0.0018901824951171875,0.009287208318710327,-0.003376483917236328
1772725511663887000,6.87788720703125,0.05620098114013672,0.015198498964309692,-0.006742238998413086
1772725511673404000,6.88740380859375,0.055382728576660156,0.023449033498764038,-0.01649951934814453
1772725511682920700,6.896920654296875,-0.011422157287597656,0.01348888874053955,-0.03735768795013428
1772725511692437500,6.9064375,-0.058320045471191406,0.009244471788406372,-0.02263021469116211
1772725511701954300,6.915954345703125,-0.038474082946777344,0.01014178991317749,0.003061532974243164
1772725511711471000,6.92547119140625,-0.03536796569824219,0.020782828330993652,0.006695985794067383
1772725511720988000,6.93498779296875,-0.02760601043701172,0.01283574104309082,-0.003965139389038086
1772725511730504700,6.944504638671875,-0.022284507751464844,0.028484582901000977,0.0017997026443481445
1772725511740021500,6.954021484375,0.0112762451171875,0.03383263945579529,0.000018477439880371094
1772725511749538300,6.963538330078125,-0.00047016143798828125,0.012637227773666382,0.02219247817993164
1772725511759055000,6.97305517578125,-0.0332794189453125,-0.034133970737457275,0.020971179008483887
1772725511768572000,6.982572021484375,-0.0020389556884765625,-0.03318062424659729,0.02465951442718506
1772725511778088700,6.992088623046875,0.021668434143066406,-0.020704835653305054,0.03748798370361328
1772725511787605500,7.00160546875,0.007282257080078125,0.007826447486877441,0.022214412689208984
1772725511797122300,7.011122314453125,-0.00463104248046875,-0.006817817687988281,0.010338068008422852
1772725511806638800,7.020638916015625,0.07550048828125,-0.01257428526878357,-0.00868523120880127
1772725511816155600,7.03015576171875,0.12860584259033203,-0.030570179224014282,-0.05188894271850586
1772725511825672400,7.03967236328125,0.07739639282226562,-0.013205558061599731,-0.06665623188018799
1772725511835189200,7.049189208984375,0.04819297790527344,0.012943685054779053,-0.0715404748916626
1772725511844706000,7.0587060546875,0.01004791259765625,0.04072871804237366,-0.06440985202789307
1772725511854222800,7.068222900390625,-0.0722341537475586,0.035400331020355225,-0.04059243202209473
1772725511863739600,7.07773974609375,-0.14146137237548828,0.05445060133934021,-0.028662919998168945
1772725511873256400,7.08725634765625,-0.16499614715576172,0.029210418462753296,-0.03733646869659424
1772725511882773200,7.096773193359375,-0.14117717742919922,0.06635603308677673,-0.059604763984680176
1772725511892290000,7.1062900390625,-0.07075119018554688,0.07090646028518677,-0.07438981533050537
1772725511901806800,7.115806884765625,-0.0792703628540039,0.09077188372612,-0.055588603019714355
1772725511911323600,7.12532373046875,-0.0901784896850586,0.0785435140132904,-0.010472774505615234
1772725511920840400,7.13484033203125,-0.06090545654296875,0.02003002166748047,0.014911413192749023
1772725511930357200,7.144357177734375,0.0009822845458984375,0.00003573298454284668,-0.003381967544555664
1772725511939874000,7.1538740234375,0.0855712890625,-0.008759468793869019,-0.00820779800415039
1772725511949390800,7.163390869140625,0.1336374282836914,-0.032817840576171875,-0.02309560775756836
1772725511958907400,7.172907470703125,0.12455463409423828,-0.06055113673210144,-0.028609752655029297
1772725511968424400,7.182424560546875,0.11793708801269531,-0.038146018981933594,-0.023845911026000977
1772725511977941200,7.191941162109375,0.07364082336425781,-0.03409391641616821,-0.0038090944290161133
1772725511987457800,7.201457763671875,-0.05006980895996094,-0.016265004873275757,0.05215620994567871
1772725511996974600,7.210974609375,-0.14595890045166016,0.002334415912628174,0.0935356616973877
1772725512006491400,7.220491455078125,-0.15565872192382812,0.01992952823638916,0.061516523361206055
1772725512016008200,7.23000830078125,-0.06649017333984375,0.03154093027114868,0.0044803619384765625
1772725512025525000,7.23952490234375,0.04715251922607422,0.017919540405273438,-0.01933872699737549
1772725512035041800,7.249041748046875,0.08143806457519531,0.014312386512756348,-0.020421743392944336
1772725512044558600,7.25855859375,0.09183025360107422,0.024930715560913086,-0.03685355186462402
1772725512054075400,7.268075439453125,0.05037117004394531,0.018790006637573242,-0.01582920551300049
1772725512063592200,7.27759228515625,0.05191516876220703,0.0076902806758880615,-0.0018868446350097656
1772725512073109000,7.28710888671875,0.06278419494628906,0.007987439632415771,0.009974002838134766
1772725512082625800,7.296625732421875,0.06868934631347656,0.007838517427444458,0.010447263717651367
1772725512092142600,7.306142578125,0.06040191650390625,0.0073442161083221436,-0.02677309513092041
1772725512101659400,7.315659423828125,0.07348346710205078,0.013025552034378052,-0.044649600982666016
1772725512111176200,7.32517626953125,0.053483009338378906,0.02459239959716797,-0.048276543617248535
1772725512120693000,7.33469287109375,-0.03197765350341797,0.023535817861557007,-0.033359646797180176
1772725512130209800,7.344209716796875,-0.12061691284179688,0.029415547847747803,-0.019261717796325684
1772725512139726300,7.353726318359375,-0.17722129821777344,0.03612646460533142,-0.01487433910369873
1772725512149243100,7.3632431640625,-0.18139362335205078,0.01854991912841797,-0.00467836856842041
1772725512158760000,7.372760009765625,-0.1717996597290039,0.012354612350463867,0.02150702476501465
1772725512168277000,7.382277099609375,-0.09906291961669922,-0.0017448663711547852,0.04116785526275635
1772725512177793500,7.39179345703125,-0.01803874969482422,-0.010519683361053467,-0.0036448240280151367
1772725512187310300,7.401310302734375,0.04772758483886719,0.0041942298412323,-0.020665645599365234
1772725512196827100,7.4108271484375,0.12205791473388672,-0.04102194309234619,-0.03864943981170654
1772725512206344000,7.420343994140625,0.1483144760131836,-0.046683281660079956,-0.015002250671386719
1772725512215860700,7.42986083984375,0.15313148498535156,-0.05119961500167847,-0.006554365158081055
1772725512225377500,7.43937744140625,0.13448143005371094,-0.035720258951187134,0.027118325233459473
1772725512234894300,7.448894287109375,0.08795547485351562,-0.061380743980407715,0.05312454700469971
1772725512244411100,7.4584111328125,0.025583267211914062,-0.049023330211639404,0.07961225509643555
1772725512253928000,7.467927978515625,-0.07130146026611328,-0.04779314994812012,0.06461513042449951
1772725512263444700,7.47744482421875,-0.1078948974609375,-0.02448827028274536,0.05284988880157471
1772725512272961500,7.48696142578125,-0.08043289184570312,0.010821282863616943,0.001615285873413086
1772725512282478300,7.496478271484375,-0.05580615997314453,0.01766347885131836,-0.025184988975524902
1772725512291995000,7.505994873046875,-0.05038642883300781,0.0014809072017669678,-0.02128767967224121
1772725512301512000,7.515511962890625,-0.037901878356933594,0.021527856588363647,-0.058199286460876465
1772725512311028700,7.52502880859375,0.014485359191894531,0.022764265537261963,-0.08112680912017822
1772725512320545300,7.534545166015625,0.037835121154785156,0.021936506032943726,-0.07359778881072998
1772725512330062000,7.54406201171875,0.03256511688232422,-0.0046849846839904785,-0.03565192222595215
1772725512339579000,7.553578857421875,0.013152122497558594,-0.023822665214538574,-0.03530561923980713
1772725512349095700,7.563095703125,-0.02251911163330078,-0.02382722496986389,-0.010758280754089355
1772725512358612500,7.572612548828125,-0.03407001495361328,-0.01225462555885315,0.0016766786575317383
1772725512368129300,7.58212939453125,0.027604103088378906,0.012277275323867798,0.0018607378005981445
1772725512377646000,7.59164599609375,0.062460899353027344,0.01199910044670105,0.01582944393157959
1772725512387163000,7.601162841796875,0.01674175262451172,0.020565390586853027,0.03673911094665527
1772725512396679700,7.6106796875,-0.00469970703125,0.007493525743484497,0.0410083532333374
1772725512406196500,7.620196533203125,-0.021009445190429688,0.011194348335266113,0.05652892589569092
1772725512415713300,7.62971337890625,-0.0064258575439453125,-0.005977332592010498,0.0197371244430542
1772725512425230000,7.63922998046875,0.014934539794921875,-0.0039358437061309814,-0.018581628799438477
1772725512434747000,7.648746826171875,0.05695629119873047,0.0074082911014556885,0.008228540420532227
1772725512444263700,7.658263671875,0.048839569091796875,0.03518381714820862,0.025297880172729492
1772725512453780500,7.667780517578125,0.026784896850585938,0.03160834312438965,0.0019038915634155273
1772725512463297300,7.67729736328125,-0.027915000915527344,-0.0002460181713104248,0.002876877784729004
1772725512472813800,7.686813720703125,-0.07466316223144531,0.001868903636932373,-0.03382611274719238
1772725512482330600,7.69633056640625,-0.005309104919433594,-0.024080365896224976,-0.0466231107711792
1772725512491847400,7.705847412109375,0.04894447326660156,-0.016956061124801636,-0.04133450984954834
1772725512501364200,7.7153642578125,0.06002044677734375,-0.00020125508308410645,-0.031990766525268555
1772725512510881000,7.724881103515625,-0.009110450744628906,0.014568299055099487,-0.02049851417541504
1772725512520397800,7.734397705078125,-0.04652690887451172,0.015574038028717041,-0.0021338462829589844
1772725512529914600,7.74391455078125,-0.033896446228027344,0.0003827512264251709,0.01812148094177246
1772725512539431400,7.753431396484375,-0.04498577117919922,-0.02587956190109253,0.018993258476257324
1772725512548948200,7.7629482421875,0.010075569152832031,-0.023637831211090088,0.009988784790039062
1772725512558465000,7.772465087890625,0.03828239440917969,-0.029176682233810425,0.008701920509338379
1772725512567981800,7.78198193359375,0.049419403076171875,-0.04947206377983093,0.024863123893737793
1772725512577498600,7.79149853515625,0.015569686889648438,-0.04415610432624817,0.001483917236328125
1772725512587015400,7.801015380859375,0.022302627563476562,-0.06050807237625122,-0.005047440528869629
1772725512596532200,7.8105322265625,0.0030870437622070312,-0.02497267723083496,0.014182567596435547
1772725512606049000,7.820049072265625,-0.0016584396362304688,-0.001897364854812622,-0.023549795150756836
1772725512615565800,7.82956591796875,0.007781982421875,0.01615321636199951,-0.022952675819396973
1772725512625082400,7.839082275390625,0.012521743774414062,0.0032489895820617676,-0.035083889961242676
1772725512634599200,7.84859912109375,0.005679130554199219,0.044574469327926636,-0.048534393310546875
1772725512644116200,7.8581162109375,0.008650779724121094,0.05691075325012207,-0.06346070766448975
1772725512653633000,7.867633056640625,-0.016576766967773438,0.06222677230834961,-0.0669407844543457
1772725512663149600,7.877149658203125,-0.0721597671508789,0.06834572553634644,-0.0388869047164917
1772725512672666400,7.886666259765625,-0.09639835357666016,0.05603677034378052,-0.0010010004043579102
1772725512682183200,7.89618310546875,-0.07341289520263672,0.05119785666465759,0.004666805267333984
1772725512691700000,7.905699951171875,-0.0556793212890625,0.028027713298797607,-0.0006707906723022461
1772725512701216800,7.915216796875,-0.047850608825683594,0.010070562362670898,0.01874685287475586
1772725512710733600,7.924733642578125,-0.0097808837890625,-0.02438664436340332,0.032143473625183105
1772725512720250400,7.93425048828125,-0.0030164718627929688,-0.04677724838256836,0.027067899703979492
1772725512729767200,7.94376708984375,0.07199287414550781,-0.04331532120704651,0.0002846717834472656
1772725512739284000,7.953283935546875,0.1201791763305664,-0.045609891414642334,-0.020572185516357422
1772725512748800800,7.96280078125,0.13956546783447266,-0.048737525939941406,-0.021093130111694336
1772725512758317600,7.972317626953125,0.07164192199707031,-0.06170281767845154,-0.0054236650466918945
1772725512767834400,7.98183447265625,-0.004700660705566406,-0.060231536626815796,0.013127446174621582
1772725512777351000,7.991350830078125,-0.0658121109008789,-0.03983050584793091,0.06522047519683838
1772725512786868000,8.000867919921875,-0.0930776596069336,-0.030737876892089844,0.07690751552581787
1772725512796384800,8.010384765625,-0.10327625274658203,-0.0444549024105072,0.03322112560272217
1772725512805901600,8.019901611328125,-0.025943756103515625,-0.04831618070602417,-0.016295909881591797
1772725512815418000,8.029418212890626,0.05507469177246094,-0.040544718503952026,-0.035924434661865234
1772725512824935000,8.038934814453125,0.08059406280517578,-0.04731959104537964,-0.07142555713653564
1772725512834451700,8.04845166015625,0.0794363021850586,-0.01855596899986267,-0.054791927337646484
1772725512843968500,8.057968505859375,0.07570743560791016,-0.004014939069747925,0.01698017120361328
1772725512853485300,8.0674853515625,0.0062274932861328125,0.02739211916923523,0.009341835975646973
1772725512863002000,8.077002197265625,-0.06680011749267578,0.004953891038894653,0.025147676467895508
1772725512872519000,8.086518798828125,-0.1175537109375,0.011902451515197754,-0.0011543035507202148
1772725512882035700,8.09603564453125,-0.12050342559814453,-0.007007628679275513,-0.01468360424041748
1772725512891552500,8.105552490234375,-0.05749988555908203,0.0021455585956573486,0.0025957822799682617
1772725512901069300,8.1150693359375,0.013934135437011719,0.03328937292098999,0.019525766372680664
1772725512910586000,8.124586181640625,0.0771799087524414,0.036242663860321045,0.019813179969787598
1772725512920103000,8.13410302734375,0.042911529541015625,0.012130290269851685,0.06738221645355225
1772725512929619700,8.14361962890625,-0.04485797882080078,-0.009190261363983154,0.06682336330413818
1772725512939136500,8.153136474609376,-0.10271453857421875,-0.0011330246925354004,0.03892970085144043
1772725512948653300,8.1626533203125,-0.08400440216064453,-0.003934144973754883,0.009414434432983398
1772725512958170000,8.172170166015626,-0.04658031463623047,-0.017310142517089844,-0.030486106872558594
1772725512967686700,8.181686767578125,0.015954017639160156,0.003498762845993042,-0.05734074115753174
1772725512977203500,8.191203369140625,0.04411792755126953,-0.0012199580669403076,-0.02754390239715576
1772725512986720300,8.20072021484375,0.08316802978515625,-0.0008361339569091797,0.0228884220123291
1772725512996237000,8.210237060546875,0.15922927856445312,0.018299579620361328,0.03477919101715088
1772725513005753900,8.21975390625,0.16837501525878906,0.03396746516227722,0.014705657958984375
1772725513015270700,8.229270751953125,0.11174678802490234,-0.007703155279159546,-0.006399989128112793
1772725513024787500,8.238787353515624,0.016091346740722656,-0.06579554080963135,0.00577998161315918
1772725513034304300,8.24830419921875,-0.012097358703613281,-0.07909426093101501,0.06979799270629883
1772725513043821000,8.257821044921876,-0.030442237854003906,-0.04131585359573364,0.09320151805877686
1772725513053337900,8.267337890625,0.015076637268066406,-0.035588860511779785,0.08568048477172852
1772725513062854700,8.276854736328126,0.012858390808105469,0.002402365207672119,0.06854045391082764
1772725513072371500,8.286371337890625,-0.029346466064453125,-0.009912997484207153,0.018964767456054688
1772725513081888300,8.29588818359375,-0.04739093780517578,-0.026802152395248413,-0.04110920429229736
1772725513091405000,8.305405029296875,-0.06526565551757812,0.0013990402221679688,0.025257229804992676
1772725513100921900,8.314921875,-0.0876312255859375,-0.003052830696105957,0.04139411449432373
1772725513110438700,8.324438720703125,-0.10028553009033203,0.02865082025527954,0.03160440921783447
1772725513119955200,8.333955078125,-0.07279300689697266,0.034515589475631714,0.001023411750793457
1772725513129472300,8.34347216796875,-0.005671501159667969,0.04096662998199463,-0.027371644973754883
1772725513138989000,8.352989013671875,0.0039691925048828125,0.04128959774971008,-0.046773314476013184
1772725513148505600,8.362505615234374,-0.02660846710205078,0.04034116864204407,-0.032859086990356445
1772725513158022400,8.3720224609375,-0.04269123077392578,0.0498487651348114,-0.025719881057739258
1772725513167539200,8.381539306640626,-0.03254985809326172,0.03916198015213013,0.0064623355865478516
1772725513177056000,8.391055908203125,-0.013112068176269531,0.04358401894569397,0.02113950252532959
1772725513186572800,8.40057275390625,0.07899665832519531,0.042750030755996704,-0.025780320167541504
1772725513196089600,8.410089599609375,0.12500667572021484,-0.03476563096046448,-0.01826465129852295
1772725513205606400,8.4196064453125,0.11624431610107422,-0.040104418992996216,0.000759124755859375
1772725513215123200,8.429123291015625,0.11480236053466797,-0.09718936681747437,0.042926788330078125
1772725513224640000,8.438639892578125,0.12277603149414062,-0.09225377440452576,0.021575331687927246
1772725513234156500,8.448156494140624,0.05979728698730469,-0.06084221601486206,0.051731228828430176
1772725513243673600,8.457673583984375,0.0047016143798828125,-0.032515645027160645,0.04980158805847168
1772725513253190400,8.4671904296875,-0.11310577392578125,0.03890886902809143,0.03642463684082031
1772725513262707200,8.476707275390625,-0.17965412139892578,0.061931222677230835,0.002218484878540039
1772725513272224000,8.48622412109375,-0.24060726165771484,0.06373563408851624,0.009158611297607422
1772725513281740800,8.49574072265625,-0.2018585205078125,0.0846179723739624,-0.002713918685913086
1772725513291257600,8.505257568359376,-0.08367919921875,0.12274250388145447,0.013130664825439453
1772725513300774100,8.514774169921875,0.06563091278076172,0.112852543592453,-0.005062580108642578
1772725513310291000,8.524291015625,0.1515026092529297,0.0474206805229187,-0.012096047401428223
1772725513319807700,8.533807861328125,0.17255592346191406,-0.051627010107040405,-0.009959816932678223
1772725513329324500,8.543324462890626,0.1603708267211914,-0.07808104157447815,-0.0006098747253417969
1772725513338841300,8.55284130859375,0.14602375030517578,-0.0989542007446289,0.00678098201751709
1772725513348358100,8.562358154296875,0.1438770294189453,-0.11865249276161194,0.04154026508331299
1772725513357875000,8.571875,0.09501171112060547,-0.11812052130699158,-0.000985264778137207
1772725513367391700,8.581391845703125,0.0022153854370117188,-0.08721736073493958,-0.044864654541015625
1772725513376908500,8.590908447265624,-0.09873294830322266,-0.02281704545021057,-0.008973479270935059
1772725513386425300,8.60042529296875,-0.17241287231445312,0.04285743832588196,-0.00552058219909668
1772725513395942100,8.609942138671874,-0.17670154571533203,0.08456891775131226,-0.009557247161865234
1772725513405459000,8.619458984375,-0.08429431915283203,0.13262903690338135,-0.005611419677734375
1772725513414975700,8.628975830078126,0.006684303283691406,0.14599794149398804,-0.026272177696228027
1772725513424492500,8.638492431640625,0.03742694854736328,0.12167775630950928,-0.04487144947052002
1772725513434009300,8.64800927734375,0.03948020935058594,0.05423545837402344,-0.03730928897857666
1772725513443526100,8.657526123046875,0.0038433074951171875,-0.013884812593460083,-0.03404510021209717
1772725513453042700,8.667042724609376,-0.038352012634277344,-0.03766539692878723,-0.004030942916870117
1772725513462559500,8.6765595703125,0.01645183563232422,-0.029533863067626953,-0.008445024490356445
1772725513472076300,8.686076171875,0.09598064422607422,-0.07261303067207336,0.0008124113082885742
1772725513481593300,8.69559326171875,0.12466239929199219,-0.11230981349945068,0.04402589797973633
1772725513491110000,8.70510986328125,0.07743167877197266,-0.16757160425186157,0.007915854454040527
1772725513500626700,8.714626708984374,-0.013608932495117188,-0.1219215989112854,0.02390611171722412
1772725513510143500,8.7241435546875,-0.1123199462890625,-0.04098820686340332,0.028754472732543945
1772725513519660300,8.733660400390624,-0.20709896087646484,0.041633427143096924,0.0243532657623291
1772725513529177000,8.743177001953125,-0.1523733139038086,0.07338955998420715,-0.010391831398010254
1772725513538694000,8.75269384765625,-0.27546215057373047,0.10684317350387573,-0.007314324378967285
1772725513548210700,8.762210693359375,-0.31681156158447266,0.0661466121673584,0.05451703071594238
1772725513557727500,8.7717275390625,-0.10733318328857422,0.034173786640167236,0.04585063457489014
1772725513567244300,8.781244384765625,0.12069225311279297,0.01505318284034729,0.05967390537261963
1772725513576761000,8.790760986328126,0.2343301773071289,0.024205058813095093,-0.034841060638427734
1772725513586278000,8.80027783203125,0.3104410171508789,0.10209923982620239,-0.13705778121948242
1772725513595794700,8.809794677734375,0.32932376861572266,0.029995054006576538,-0.1668027639389038
