time,seconds_elapsed,z,y,x
1772725504889044000,0.1030439453125,10.083354949951172,1.0049854516983032,1.368694543838501
1772725504898560800,0.112560791015625,10.15753173828125,0.916451096534729,1.3878371715545654
1772725504908077600,0.12207763671875,10.078569412231445,0.8207381963729858,1.430907964706421
1772725504917594400,0.131594482421875,9.954142570495605,0.7322037220001221,1.4739787578582764
1772725504927111200,0.141111083984375,9.877572059631348,0.6843472719192505,1.557727575302124
1772725504936628000,0.1506279296875,9.851250648498535,0.6221339106559753,1.6630117893218994
1772725504946144800,0.160144775390625,9.851250648498535,0.6149554252624512,1.6893328428268433
1772725504955661600,0.16966162109375,9.750752449035645,0.6173482537269592,1.674975872039795
1772725504965178400,0.179178466796875,9.554540634155273,0.607776939868927,1.6103696823120117
1772725504974695200,0.188695068359375,9.391828536987305,0.5958128571510315,1.5696916580200195
1772725504984212000,0.1982119140625,9.241081237792969,0.5934200286865234,1.5481562614440918
1772725504993728800,0.207728759765625,9.190832138061523,0.6269195079803467,1.5696916580200195
1772725505003245600,0.21724560546875,9.276973724365234,0.729810893535614,1.5744773149490356
1772725505012762400,0.226762451171875,9.518648147583008,0.7896314859390259,1.5553346872329712
1772725505022279200,0.236279052734375,9.781859397888184,0.7441678643226624,1.552941918373108
1772725505031796000,0.2457958984375,9.937392234802246,0.6795616149902344,1.5840486288070679
1772725505041312800,0.255312744140625,9.994820594787598,0.6532405614852905,1.674975872039795
1772725505050829600,0.26482958984375,10.013962745666504,0.6221339106559753,1.7180466651916504
1772725505060346400,0.274346435546875,9.978070259094238,0.6340979933738708,1.7252250909805298
1772725505069863000,0.28386279296875,9.856036186218262,0.6699903607368469,1.7180466651916504
1772725505079380000,0.2933798828125,9.779465675354004,0.6891329288482666,1.667797327041626
1772725505088896800,0.302896728515625,9.820143699645996,0.7441678643226624,1.5840486288070679
1772725505098413300,0.312413330078125,9.846465110778809,0.7345965504646301,1.5792629718780518
1772725505107930000,0.32193017578125,9.913464546203613,0.760917603969574,1.5840486288070679
1772725505117447000,0.331447021484375,9.997213363647461,0.7585247755050659,1.6558332443237305
1772725505126964000,0.3409638671875,10.073782920837402,0.727418065071106,1.6941183805465698
1772725505136480500,0.35048046875,10.037891387939453,0.698704183101654,1.6917256116867065
1772725505145997300,0.359997314453125,10.01156997680664,0.641276478767395,1.7012969255447388
1772725505155514000,0.36951416015625,10.021141052246094,0.6269195079803467,1.6773686408996582
1772725505165031000,0.379031005859375,9.982855796813965,0.6029912829399109,1.648654818534851
1772725505174547700,0.388547607421875,9.89432144165039,0.6101697683334351,1.6342978477478027
1772725505184064500,0.398064453125,9.7938232421875,0.6149554252624512,1.6510475873947144
1772725505193581300,0.407581298828125,9.678967475891113,0.5886343717575073,1.672582983970642
1772725505203098000,0.41709814453125,9.556933403015137,0.6101697683334351,1.6893328428268433
1772725505212615000,0.426614990234375,9.523433685302734,0.5910272002220154,1.7204394340515137
1772725505222131700,0.436131591796875,9.614361763000488,0.5407779216766357,1.6869399547576904
1772725505231648500,0.4456484375,9.80100154876709,0.5742774605751038,1.6462619304656982
1772725505241165300,0.455165283203125,9.927821159362793,0.605384111404419,1.6630117893218994
1772725505250682000,0.46468212890625,9.92542839050293,0.5958128571510315,1.6917256116867065
1772725505260199000,0.474198974609375,9.899106979370117,0.605384111404419,1.672582983970642
1772725505269715700,0.4837158203125,9.789037704467773,0.5934200286865234,1.7060825824737549
1772725505279232500,0.493232421875,9.738788604736328,0.6029912829399109,1.7443677186965942
1772725505288749300,0.502749267578125,9.743574142456055,0.607776939868927,1.7060825824737549
1772725505298266000,0.51226611328125,9.827322959899902,0.638883650302887,1.698904037475586
1772725505307783000,0.521782958984375,9.856036186218262,0.6532405614852905,1.672582983970642
1772725505317299500,0.531299560546875,9.824930191040039,0.6771687865257263,1.6199408769607544
1772725505326816500,0.54081640625,9.77707290649414,0.6867401003837585,1.6079767942428589
1772725505336333300,0.550333251953125,9.767501831054688,0.6867401003837585,1.588834285736084
1772725505345850000,0.55985009765625,9.77707290649414,0.6963114142417908,1.5840486288070679
1772725505355366700,0.56936669921875,9.789037704467773,0.7154539823532104,1.550549030303955
1772725505364883500,0.578883544921875,9.827322959899902,0.7393822073936462,1.5170495510101318
1772725505374400500,0.588400390625,9.882357597351074,0.7130611538887024,1.5936198234558105
1772725505383917000,0.5979169921875,9.839286804199219,0.7130611538887024,1.648654818534851
1772725505393433900,0.607433837890625,9.853643417358398,0.7154539823532104,1.6414763927459717
1772725505402950700,0.61695068359375,9.891928672790527,0.6652047038078308,1.5936198234558105
1772725505412467500,0.626467529296875,9.851250648498535,0.6245267391204834,1.6055840253829956
1772725505421984300,0.635984375,9.77707290649414,0.6245267391204834,1.6366907358169556
1772725505431501000,0.6455009765625,9.767501831054688,0.6604190468788147,1.6319050788879395
1772725505441017900,0.655017822265625,9.789037704467773,0.6580262184143066,1.6319050788879395
1772725505450534700,0.66453466796875,9.7938232421875,0.6197410821914673,1.6701902151107788
1772725505460051500,0.674051513671875,9.791430473327637,0.607776939868927,1.6319050788879395
1772725505469568300,0.683568359375,9.851250648498535,0.6269195079803467,1.5984054803848267
1772725505479085000,0.6930849609375,9.9469633102417,0.6197410821914673,1.6103696823120117
1772725505488601900,0.702601806640625,10.03549861907959,0.6245267391204834,1.6223337650299072
1772725505498118700,0.71211865234375,10.061819076538086,0.5814558863639832,1.5792629718780518
1772725505507635500,0.721635498046875,9.934999465942383,0.5790630578994751,1.5984054803848267
1772725505517152300,0.73115234375,9.824930191040039,0.5718846321105957,1.6630117893218994
1772725505526669000,0.7406689453125,9.822537422180176,0.5670989751815796,1.7204394340515137
1772725505536185900,0.750185791015625,9.848857879638672,0.5551348328590393,1.7467604875564575
1772725505545702700,0.75970263671875,9.868000984191895,0.5694918036460876,1.7395820617675781
1772725505555219500,0.769219482421875,9.91107177734375,0.6101697683334351,1.643869161605835
1772725505564736300,0.778736328125,9.89432144165039,0.5934200286865234,1.6079767942428589
1772725505574253000,0.788253173828125,9.839286804199219,0.6149554252624512,1.5912270545959473
1772725505583769900,0.797769775390625,9.743574142456055,0.6197410821914673,1.576870083808899
1772725505593286700,0.80728662109375,9.652647018432617,0.6580262184143066,1.5672988891601562
1772725505602803200,0.81680322265625,9.633503913879395,0.6867401003837585,1.5625132322311401
1772725505612320000,0.826320068359375,9.698110580444336,0.698704183101654,1.5649060010910034
1772725505621837000,0.835837158203125,9.784252166748047,0.6771687865257263,1.5314065217971802
1772725505631353900,0.845353759765625,9.827322959899902,0.6508477330207825,1.5337992906570435
1772725505640870400,0.854870361328125,9.8871431350708,0.6364908218383789,1.4644074440002441
1772725505650387200,0.86438720703125,9.90149974822998,0.6436693072319031,1.4261223077774048
1772725505659904000,0.873904052734375,9.91825008392334,0.641276478767395,1.4165509939193726
1772725505669420800,0.8834208984375,9.8871431350708,0.6556333899497986,1.4093725681304932
1772725505678937600,0.8929375,9.868000984191895,0.6436693072319031,1.428515076637268
1772725505688454400,0.902454345703125,9.868000984191895,0.6580262184143066,1.4333007335662842
1772725505697971200,0.91197119140625,9.90149974822998,0.6699903607368469,1.4333007335662842
1772725505707488000,0.921488037109375,9.92542839050293,0.6245267391204834,1.435693621635437
1772725505717004800,0.9310048828125,9.91825008392334,0.5934200286865234,1.4787644147872925
1772725505726521600,0.940521484375,9.863214492797852,0.5623133182525635,1.5122638940811157
1772725505736038400,0.950038330078125,9.80100154876709,0.5551348328590393,1.5720844268798828
1772725505745555200,0.95955517578125,9.724431037902832,0.5288137793540955,1.6223337650299072
1772725505755072000,0.969072021484375,9.734002113342285,0.48813581466674805,1.6366907358169556
1772725505764588800,0.9785888671875,9.760323524475098,0.48095735907554626,1.6701902151107788
1772725505774105600,0.988105712890625,9.784252166748047,0.48095735907554626,1.6390835046768188
1772725505783622400,0.997622314453125,9.767501831054688,0.49292147159576416,1.6247265338897705
1772725505793139200,1.00713916015625,9.76989459991455,0.49292147159576416,1.5649060010910034
1772725505802656000,1.016656005859375,9.7938232421875,0.4570291340351105,1.526620864868164
1772725505812172800,1.0261728515625,9.853643417358398,0.44027936458587646,1.5864413976669312
1772725505821689300,1.035689453125,9.913464546203613,0.4618147611618042,1.6103696823120117
1772725505831206400,1.045206298828125,9.975677490234375,0.5240281820297241,1.5792629718780518
1772725505840723200,1.05472314453125,9.944570541381836,0.550349235534668,1.6199408769607544
1772725505850240000,1.064239990234375,9.853643417358398,0.5838487148284912,1.6079767942428589
1772725505859756500,1.073756591796875,9.832108497619629,0.5934200286865234,1.588834285736084
1772725505869273300,1.0832734375,9.844072341918945,0.5886343717575073,1.5696916580200195
1772725505878790400,1.092790283203125,9.90149974822998,0.5862415432929993,1.5649060010910034
1772725505888307200,1.10230712890625,9.961320877075195,0.5838487148284912,1.526620864868164
1772725505897823700,1.11182373046875,9.980463027954102,0.5575276613235474,1.5314065217971802
1772725505907340500,1.121340576171875,9.961320877075195,0.5647061467170715,1.5481562614440918
1772725505916857300,1.130857421875,9.90149974822998,0.5623133182525635,1.5553346872329712
1772725505926374100,1.1403740234375,9.798608779907227,0.5647061467170715,1.5696916580200195
1772725505935891000,1.149890869140625,9.707681655883789,0.5790630578994751,1.6055840253829956
1772725505945407700,1.15940771484375,9.66221809387207,0.5886343717575073,1.6462619304656982
1772725505954924500,1.168924560546875,9.717252731323242,0.5910272002220154,1.6510475873947144
1772725505964441300,1.17844140625,9.803394317626953,0.605384111404419,1.6414763927459717
1772725505973958100,1.187958251953125,9.8871431350708,0.5670989751815796,1.5912270545959473
1772725505983475000,1.197474853515625,9.978070259094238,0.5407779216766357,1.5601203441619873
1772725505992991700,1.20699169921875,9.975677490234375,0.5359922647476196,1.5720844268798828
1772725506002508500,1.216508544921875,9.913464546203613,0.5647061467170715,1.5433706045150757
1772725506012025300,1.226025390625,9.870393753051758,0.6173482537269592,1.5744773149490356
1772725506021542100,1.235542236328125,9.81535816192627,0.5886343717575073,1.5744773149490356
1772725506031059000,1.245058837890625,9.827322959899902,0.5886343717575073,1.5649060010910034
1772725506040575700,1.25457568359375,9.848857879638672,0.5790630578994751,1.5385849475860596
1772725506050092500,1.264092529296875,9.844072341918945,0.5814558863639832,1.5792629718780518
1772725506059609300,1.273609375,9.805787086486816,0.5670989751815796,1.5912270545959473
1772725506069126100,1.283126220703125,9.796216011047363,0.5910272002220154,1.588834285736084
1772725506078642700,1.292642578125,9.817750930786133,0.5982056856155396,1.5864413976669312
1772725506088159700,1.30215966796875,9.824930191040039,0.5862415432929993,1.6103696823120117
1772725506097676500,1.311676513671875,9.810572624206543,0.6005984544754028,1.6055840253829956
1772725506107193300,1.321193359375,9.781859397888184,0.5647061467170715,1.6199408769607544
1772725506116710000,1.3307099609375,9.789037704467773,0.5575276613235474,1.6175481081008911
1772725506126226700,1.340226806640625,9.772287368774414,0.5479564070701599,1.6390835046768188
1772725506135743700,1.34974365234375,9.77707290649414,0.5790630578994751,1.667797327041626
1772725506145260300,1.35926025390625,9.863214492797852,0.6125625967979431,1.6031911373138428
1772725506154777000,1.368777099609375,9.927821159362793,0.5647061467170715,1.576870083808899
1772725506164294000,1.3782939453125,9.93978500366211,0.5742774605751038,1.6103696823120117
1772725506173810700,1.387810791015625,9.865608215332031,0.5694918036460876,1.6271194219589233
1772725506183327500,1.397327392578125,9.817750930786133,0.5814558863639832,1.612762451171875
1772725506192844300,1.40684423828125,9.803394317626953,0.6029912829399109,1.5864413976669312
1772725506202361000,1.416361083984375,9.90149974822998,0.6173482537269592,1.552941918373108
1772725506211878000,1.4258779296875,9.942177772521973,0.576670229434967,1.545763373374939
1772725506221394700,1.435394775390625,9.93978500366211,0.5479564070701599,1.5337992906570435
1772725506230911500,1.444911376953125,9.934999465942383,0.5551348328590393,1.5122638940811157
1772725506240428300,1.45442822265625,9.875179290771484,0.5527420043945312,1.5409778356552124
1772725506249945000,1.463945068359375,9.839286804199219,0.5599204897880554,1.5744773149490356
1772725506259462000,1.4734619140625,9.836894035339355,0.5599204897880554,1.545763373374939
1772725506268978700,1.482978759765625,9.80817985534668,0.5814558863639832,1.5290136337280273
1772725506278495500,1.49249560546875,9.729216575622559,0.5575276613235474,1.550549030303955
1772725506288012300,1.50201220703125,9.657432556152344,0.5455635786056519,1.5672988891601562
1772725506297529000,1.511529052734375,9.628718376159668,0.5431707501411438,1.5433706045150757
1772725506307046000,1.5210458984375,9.65503978729248,0.5623133182525635,1.5146567821502686
1772725506316562700,1.530562744140625,9.736394882202148,0.5838487148284912,1.5122638940811157
1772725506326079500,1.54007958984375,9.810572624206543,0.607776939868927,1.5385849475860596
1772725506335596000,1.549595947265625,9.791430473327637,0.5670989751815796,1.550549030303955
1772725506345112800,1.55911279296875,9.745966911315918,0.576670229434967,1.5649060010910034
1772725506354629600,1.568629638671875,9.774680137634277,0.5742774605751038,1.5744773149490356
1772725506364146400,1.578146484375,9.836894035339355,0.6005984544754028,1.5290136337280273
1772725506373663200,1.587663330078125,9.92542839050293,0.5910272002220154,1.545763373374939
1772725506383180000,1.597179931640625,10.023533821105957,0.576670229434967,1.5649060010910034
1772725506392696800,1.60669677734375,10.02592658996582,0.5623133182525635,1.5792629718780518
1772725506402213600,1.616213623046875,9.994820594787598,0.5455635786056519,1.612762451171875
1772725506411730400,1.62573046875,9.951749801635742,0.5359922647476196,1.6007983684539795
1772725506421247200,1.635247314453125,9.882357597351074,0.5312066078186035,1.6390835046768188
1772725506430764000,1.644763916015625,9.848857879638672,0.5383850932121277,1.672582983970642
1772725506440280800,1.65428076171875,9.824930191040039,0.5216353535652161,1.6295121908187866
1772725506449797600,1.663797607421875,9.798608779907227,0.5240281820297241,1.6079767942428589
1772725506459314400,1.673314453125,9.767501831054688,0.5240281820297241,1.588834285736084
1772725506468831200,1.682831298828125,9.779465675354004,0.550349235534668,1.5649060010910034
1772725506478348000,1.69234814453125,9.779465675354004,0.5814558863639832,1.5337992906570435
1772725506487864800,1.70186474609375,9.796216011047363,0.5886343717575073,1.5002998113632202
1772725506497381600,1.711381591796875,9.7938232421875,0.6005984544754028,1.5122638940811157
1772725506506898400,1.7208984375,9.796216011047363,0.5814558863639832,1.5242279767990112
1772725506516415200,1.730415283203125,9.784252166748047,0.576670229434967,1.5098711252212524
1772725506525932000,1.73993212890625,9.91825008392334,0.5670989751815796,1.4979069232940674
1772725506535448800,1.74944873046875,10.047462463378906,0.5694918036460876,1.4883357286453247
1772725506544965600,1.758965576171875,10.061819076538086,0.5694918036460876,1.4811571836471558
1772725506554482200,1.768482177734375,10.009177207946777,0.5575276613235474,1.4859428405761719
1772725506563999200,1.777999267578125,9.934999465942383,0.5264210104942322,1.4835500717163086
1772725506573516000,1.78751611328125,9.92542839050293,0.5216353535652161,1.5026925802230835
1772725506583032600,1.797032470703125,9.90149974822998,0.5335994362831116,1.5098711252212524
1772725506592549400,1.80654931640625,9.856036186218262,0.5120640397071838,1.5146567821502686
1772725506602066200,1.816066162109375,9.798608779907227,0.5168496966362,1.5601203441619873
1772725506611583200,1.825583251953125,9.767501831054688,0.4905286431312561,1.5649060010910034
1772725506621099800,1.835099853515625,9.741181373596191,0.4833501875400543,1.5553346872329712
1772725506630616600,1.844616455078125,9.734002113342285,0.4498506486415863,1.5553346872329712
1772725506640133400,1.85413330078125,9.779465675354004,0.4259224236011505,1.5672988891601562
1772725506649650200,1.863650146484375,9.827322959899902,0.4378865361213684,1.5314065217971802
1772725506659167000,1.8731669921875,9.832108497619629,0.4307080805301666,1.5194423198699951
1772725506668683800,1.882683837890625,9.822537422180176,0.4163511395454407,1.5050854682922363
1772725506678200600,1.89220068359375,9.832108497619629,0.42831525206565857,1.5433706045150757
1772725506687717400,1.90171728515625,9.841679573059082,0.41874396800994873,1.5361921787261963
1772725506697234200,1.911234130859375,9.884750366210938,0.4450650215148926,1.5553346872329712
1772725506706751000,1.9207509765625,9.903892517089844,0.41874396800994873,1.5409778356552124
1772725506716267800,1.930267822265625,9.870393753051758,0.3900300860404968,1.5625132322311401
1772725506725784600,1.93978466796875,9.868000984191895,0.42352959513664246,1.5433706045150757
1772725506735301400,1.94930126953125,9.908679008483887,0.4498506486415863,1.545763373374939
1772725506744818200,1.958818115234375,9.958928108215332,0.4666004180908203,1.5960127115249634
1772725506754335000,1.9683349609375,9.915857315063477,0.4953143000602722,1.6031911373138428
1772725506763851800,1.977851806640625,9.877572059631348,0.5000999569892883,1.5792629718780518
1772725506773368300,1.987368408203125,9.848857879638672,0.4833501875400543,1.5649060010910034
1772725506782885400,1.996885498046875,9.80817985534668,0.48813581466674805,1.6007983684539795
1772725506792402200,2.006402099609375,9.7938232421875,0.4833501875400543,1.6199408769607544
1772725506801918700,2.015918701171875,9.772287368774414,0.4905286431312561,1.5840486288070679
1772725506811435500,2.025435546875,9.731609344482422,0.4953143000602722,1.5984054803848267
1772725506820952300,2.034952392578125,9.760323524475098,0.5335994362831116,1.576870083808899
1772725506830469400,2.044469482421875,9.810572624206543,0.5240281820297241,1.5649060010910034
1772725506839986000,2.05398583984375,9.868000984191895,0.4977070987224579,1.5242279767990112
1772725506849502700,2.063502685546875,9.980463027954102,0.44745782017707825,1.4691931009292603
1772725506859019500,2.07301953125,10.009177207946777,0.4546363055706024,1.4452649354934692
1772725506868536300,2.082536376953125,9.915857315063477,0.46899324655532837,1.4859428405761719
1772725506878053000,2.09205322265625,9.798608779907227,0.5096712112426758,1.5385849475860596
1772725506887570000,2.10156982421875,9.760323524475098,0.5072783827781677,1.576870083808899
1772725506897086700,2.111086669921875,9.76989459991455,0.5048855543136597,1.576870083808899
1772725506906603500,2.120603515625,9.822537422180176,0.5335994362831116,1.5960127115249634
1772725506916120300,2.130120361328125,9.834501266479492,0.5240281820297241,1.6031911373138428
1772725506925637000,2.13963720703125,9.832108497619629,0.4713860750198364,1.6031911373138428
1772725506935154000,2.14915380859375,9.810572624206543,0.48574298620224,1.5960127115249634
1772725506944670700,2.158670654296875,9.805787086486816,0.48813581466674805,1.576870083808899
1772725506954187500,2.1681875,9.870393753051758,0.4378865361213684,1.6007983684539795
1772725506963704300,2.177704345703125,9.884750366210938,0.4498506486415863,1.6007983684539795
1772725506973221000,2.18722119140625,9.91107177734375,0.4737788736820221,1.550549030303955
1772725506982738000,2.196738037109375,9.961320877075195,0.49292147159576416,1.5361921787261963
1772725506992254700,2.206254638671875,9.992427825927734,0.5240281820297241,1.526620864868164
1772725507001771500,2.215771484375,9.923035621643066,0.5359922647476196,1.5361921787261963
1772725507011288300,2.225288330078125,9.875179290771484,0.550349235534668,1.5170495510101318
1772725507020804900,2.234804931640625,9.848857879638672,0.5670989751815796,1.5337992906570435
1772725507030321700,2.24432177734375,9.805787086486816,0.5383850932121277,1.5649060010910034
1772725507039838500,2.25383837890625,9.705288887023926,0.5048855543136597,1.6103696823120117
1772725507049355500,2.26335546875,9.664610862731934,0.5120640397071838,1.6199408769607544
1772725507058872000,2.2728720703125,9.688538551330566,0.48574298620224,1.5960127115249634
1772725507068388900,2.282388916015625,9.686145782470703,0.46420758962631226,1.5744773149490356
1772725507077905700,2.29190576171875,9.760323524475098,0.43549370765686035,1.557727575302124
1772725507087422500,2.30142236328125,9.863214492797852,0.4378865361213684,1.6055840253829956
1772725507096939300,2.310939208984375,10.001998901367188,0.4211367964744568,1.6175481081008911
1772725507106456000,2.3204560546875,10.054640769958496,0.41874396800994873,1.6534404754638672
1772725507115972900,2.329972900390625,10.028319358825684,0.4331009089946747,1.6606189012527466
1772725507125489700,2.33948974609375,9.968499183654785,0.4570291340351105,1.6103696823120117
1772725507135006500,2.34900634765625,9.923035621643066,0.4570291340351105,1.588834285736084
1772725507144523300,2.358523193359375,9.877572059631348,0.4259224236011505,1.6175481081008911
1772725507154040000,2.3680400390625,9.856036186218262,0.4019941985607147,1.612762451171875
1772725507163556900,2.377556884765625,9.81535816192627,0.42352959513664246,1.6342978477478027
1772725507173073700,2.38707373046875,9.798608779907227,0.4785645306110382,1.6079767942428589
1772725507182590500,2.396590576171875,9.7938232421875,0.5335994362831116,1.5912270545959473
1772725507192107300,2.406107177734375,9.76989459991455,0.5240281820297241,1.5625132322311401
1772725507201624000,2.4156240234375,9.757930755615234,0.5168496966362,1.550549030303955
1772725507211140900,2.425140869140625,9.791430473327637,0.5335994362831116,1.5409778356552124
1772725507220657700,2.43465771484375,9.832108497619629,0.5551348328590393,1.5625132322311401
1772725507230174500,2.444174560546875,9.908679008483887,0.5431707501411438,1.5553346872329712
1772725507239691300,2.453691162109375,9.951749801635742,0.5240281820297241,1.5840486288070679
1772725507249207800,2.463207763671875,9.889535903930664,0.48574298620224,1.6175481081008911
1772725507258724600,2.472724609375,9.824930191040039,0.48574298620224,1.6319050788879395
1772725507268241700,2.48224169921875,9.774680137634277,0.5120640397071838,1.6414763927459717
1772725507277758200,2.49175830078125,9.851250648498535,0.48813581466674805,1.6558332443237305
1772725507287275000,2.50127490234375,9.93978500366211,0.48813581466674805,1.648654818534851
1772725507296791800,2.510791748046875,9.865608215332031,0.4905286431312561,1.672582983970642
1772725507306308600,2.52030859375,9.784252166748047,0.5096712112426758,1.6893328428268433
1772725507315825400,2.529825439453125,9.750752449035645,0.48574298620224,1.6773686408996582
1772725507325342200,2.53934228515625,9.789037704467773,0.4953143000602722,1.6941183805465698
1772725507334859000,2.54885888671875,9.870393753051758,0.5000999569892883,1.6414763927459717
1772725507344375800,2.558375732421875,9.915857315063477,0.4666004180908203,1.612762451171875
1772725507353892600,2.567892578125,9.896714210510254,0.45224347710609436,1.6103696823120117
1772725507363409400,2.577409423828125,9.856036186218262,0.46420758962631226,1.612762451171875
1772725507372926200,2.58692626953125,9.81535816192627,0.47617170214653015,1.6223337650299072
1772725507382443000,2.596443115234375,9.7938232421875,0.4666004180908203,1.648654818534851
1772725507391959800,2.605959716796875,9.80817985534668,0.49292147159576416,1.6007983684539795
1772725507401476600,2.6154765625,9.80817985534668,0.4546363055706024,1.6199408769607544
1772725507410993400,2.624993408203125,9.81535816192627,0.44745782017707825,1.6390835046768188
1772725507420510200,2.63451025390625,9.81535816192627,0.46420758962631226,1.6630117893218994
1772725507430026800,2.64402685546875,9.832108497619629,0.4546363055706024,1.6534404754638672
1772725507439543800,2.653543701171875,9.844072341918945,0.4618147611618042,1.643869161605835
1772725507449060600,2.663060546875,9.767501831054688,0.4713860750198364,1.6319050788879395
1772725507458577400,2.672577392578125,9.741181373596191,0.4618147611618042,1.6007983684539795
1772725507468094000,2.682093994140625,9.779465675354004,0.4570291340351105,1.588834285736084
1772725507477610800,2.69161083984375,9.81535816192627,0.4953143000602722,1.557727575302124
1772725507487127600,2.70112744140625,9.836894035339355,0.5144568681716919,1.5625132322311401
1772725507496644400,2.710644287109375,9.822537422180176,0.5216353535652161,1.6295121908187866
1772725507506161200,2.7201611328125,9.812965393066406,0.5216353535652161,1.6247265338897705
1772725507515678000,2.729677978515625,9.810572624206543,0.5120640397071838,1.6366907358169556
1772725507525194800,2.73919482421875,9.80100154876709,0.4713860750198364,1.6701902151107788
1772725507534711600,2.748711669921875,9.791430473327637,0.46899324655532837,1.643869161605835
1772725507544228400,2.758228271484375,9.81535816192627,0.4426721930503845,1.6271194219589233
1772725507553745200,2.7677451171875,9.824930191040039,0.4378865361213684,1.6414763927459717
1772725507563262000,2.777261962890625,9.856036186218262,0.4570291340351105,1.6319050788879395
1772725507572778800,2.78677880859375,9.934999465942383,0.41156548261642456,1.6175481081008911
1772725507582295600,2.796295654296875,9.958928108215332,0.42831525206565857,1.5984054803848267
1772725507591812400,2.805812255859375,9.90149974822998,0.4163511395454407,1.6079767942428589
1772725507601329200,2.8153291015625,9.784252166748047,0.42352959513664246,1.6390835046768188
1772725507610846000,2.824845947265625,9.738788604736328,0.4307080805301666,1.6701902151107788
1772725507620362800,2.83436279296875,9.796216011047363,0.45224347710609436,1.6534404754638672
1772725507629879600,2.843879638671875,9.841679573059082,0.48095735907554626,1.6701902151107788
1772725507639396400,2.853396240234375,9.856036186218262,0.48095735907554626,1.643869161605835
1772725507648913000,2.862912841796875,9.81535816192627,0.4498506486415863,1.6462619304656982
1772725507658430000,2.872429931640625,9.791430473327637,0.46899324655532837,1.648654818534851
1772725507667946800,2.88194677734375,9.781859397888184,0.4378865361213684,1.6247265338897705
1772725507677463600,2.891463623046875,9.77707290649414,0.41874396800994873,1.6271194219589233
1772725507686980000,2.90097998046875,9.827322959899902,0.4378865361213684,1.6271194219589233
1772725507696497000,2.910496826171875,9.937392234802246,0.4331009089946747,1.6151553392410278
1772725507706013700,2.920013671875,9.956535339355469,0.4043870270252228,1.6390835046768188
1772725507715530500,2.929530517578125,9.968499183654785,0.3684946894645691,1.6342978477478027
1772725507725047300,2.93904736328125,9.994820594787598,0.3684946894645691,1.612762451171875
1772725507734564000,2.948564208984375,9.956535339355469,0.34217363595962524,1.6199408769607544
1772725507744081000,2.958080810546875,9.870393753051758,0.35413774847984314,1.6630117893218994
1772725507753597700,2.96759765625,9.812965393066406,0.35892340540885925,1.6845471858978271
1772725507763114500,2.977114501953125,9.753145217895508,0.3756731450557709,1.679761528968811
1772725507772631300,2.98663134765625,9.705288887023926,0.35413774847984314,1.6821542978286743
1772725507782148000,2.996148193359375,9.736394882202148,0.363709032535553,1.6654045581817627
1772725507791665000,3.005664794921875,9.805787086486816,0.35892340540885925,1.6103696823120117
1772725507801181700,3.015181640625,9.891928672790527,0.39481574296951294,1.5625132322311401
1772725507810698500,3.024698486328125,9.913464546203613,0.39960137009620667,1.5984054803848267
1772725507820215300,3.03421533203125,9.899106979370117,0.40677985548973083,1.643869161605835
1772725507829732000,3.043732177734375,9.80100154876709,0.43549370765686035,1.6462619304656982
1772725507839249000,3.053248779296875,9.731609344482422,0.41874396800994873,1.6390835046768188
1772725507848765700,3.062765625,9.736394882202148,0.4570291340351105,1.588834285736084
1772725507858282500,3.072282470703125,9.76989459991455,0.46420758962631226,1.5744773149490356
1772725507867799000,3.081799072265625,9.774680137634277,0.45224347710609436,1.5744773149490356
1772725507877315800,3.09131591796875,9.832108497619629,0.42352959513664246,1.5720844268798828
1772725507886833000,3.1008330078125,9.891928672790527,0.4426721930503845,1.5984054803848267
1772725507896349700,3.110349609375,9.91825008392334,0.4450650215148926,1.6462619304656982
1772725507905866200,3.1198662109375,9.944570541381836,0.4091726839542389,1.648654818534851
1772725507915383000,3.129383056640625,9.975677490234375,0.41156548261642456,1.6510475873947144
1772725507924899800,3.13889990234375,9.966106414794922,0.397208571434021,1.6390835046768188
1772725507934416600,3.148416748046875,9.968499183654785,0.3924229145050049,1.6175481081008911
1772725507943933400,3.157933349609375,9.90149974822998,0.38285163044929504,1.6630117893218994
1772725507953450200,3.1674501953125,9.784252166748047,0.3684946894645691,1.6845471858978271
1772725507962967000,3.176967041015625,9.729216575622559,0.3684946894645691,1.6630117893218994
1772725507972483800,3.18648388671875,9.743574142456055,0.3732803463935852,1.6510475873947144
1772725507982000600,3.196000732421875,9.767501831054688,0.3517449200153351,1.6342978477478027
1772725507991517400,3.205517333984375,9.824930191040039,0.35892340540885925,1.6271194219589233
1772725508001034200,3.2150341796875,9.872786521911621,0.3756731450557709,1.5720844268798828
1772725508010551000,3.224551025390625,9.915857315063477,0.397208571434021,1.5696916580200195
1772725508020067800,3.23406787109375,9.889535903930664,0.4091726839542389,1.5936198234558105
1772725508029584600,3.243584716796875,9.923035621643066,0.4331009089946747,1.5984054803848267
1772725508039101400,3.253101318359375,9.92542839050293,0.41874396800994873,1.6175481081008911
1772725508048618200,3.2626181640625,9.896714210510254,0.4259224236011505,1.6055840253829956
1772725508058135000,3.272135009765625,9.863214492797852,0.39960137009620667,1.5720844268798828
1772725508067651800,3.28165185546875,9.834501266479492,0.4211367964744568,1.5625132322311401
1772725508077168600,3.291168701171875,9.791430473327637,0.44027936458587646,1.6055840253829956
1772725508086685200,3.300685302734375,9.772287368774414,0.4546363055706024,1.6462619304656982
1772725508096202000,3.310201904296875,9.765109062194824,0.4618147611618042,1.6462619304656982
1772725508105718800,3.31971875,9.772287368774414,0.44027936458587646,1.6271194219589233
1772725508115235800,3.32923583984375,9.851250648498535,0.45942193269729614,1.6175481081008911
1772725508124752400,3.33875244140625,9.903892517089844,0.4498506486415863,1.6199408769607544
1772725508134269200,3.348269287109375,9.961320877075195,0.4546363055706024,1.612762451171875
1772725508143786000,3.357785888671875,9.956535339355469,0.45224347710609436,1.6055840253829956
1772725508153302800,3.367302734375,9.937392234802246,0.4163511395454407,1.6151553392410278
1772725508162819600,3.376819580078125,9.93978500366211,0.40677985548973083,1.581655740737915
1772725508172336400,3.38633642578125,9.91107177734375,0.39481574296951294,1.552941918373108
1772725508181853200,3.395853271484375,9.896714210510254,0.42831525206565857,1.5696916580200195
1772725508191370000,3.405369873046875,9.827322959899902,0.40677985548973083,1.6055840253829956
1772725508200886800,3.41488671875,9.762716293334961,0.42352959513664246,1.6295121908187866
1772725508210403600,3.424403564453125,9.729216575622559,0.397208571434021,1.6151553392410278
1772725508219920400,3.43392041015625,9.729216575622559,0.397208571434021,1.6103696823120117
1772725508229437200,3.443437255859375,9.729216575622559,0.39481574296951294,1.5960127115249634
1772725508238954000,3.4529541015625,9.760323524475098,0.40677985548973083,1.6079767942428589
1772725508248470800,3.462470703125,9.81535816192627,0.4091726839542389,1.5792629718780518
1772725508257987600,3.471987548828125,9.877572059631348,0.42831525206565857,1.5649060010910034
1772725508267504400,3.48150439453125,9.834501266479492,0.4426721930503845,1.5744773149490356
1772725508277021000,3.49102099609375,9.820143699645996,0.45224347710609436,1.5649060010910034
1772725508286538000,3.5005380859375,9.879964828491211,0.4953143000602722,1.5625132322311401
1772725508296054800,3.5100546875,9.920642852783203,0.4977070987224579,1.5744773149490356
1772725508305571300,3.5195712890625,9.91107177734375,0.49292147159576416,1.5720844268798828
1772725508315088100,3.529088134765625,9.923035621643066,0.5000999569892883,1.5792629718780518
1772725508324605000,3.53860498046875,9.860821723937988,0.5000999569892883,1.6510475873947144
1772725508334121700,3.548121826171875,9.810572624206543,0.48813581466674805,1.6821542978286743
1772725508343638500,3.557638427734375,9.824930191040039,0.4498506486415863,1.643869161605835
1772725508353155300,3.5671552734375,9.844072341918945,0.42831525206565857,1.6390835046768188
1772725508362672000,3.576672119140625,9.848857879638672,0.42352959513664246,1.6031911373138428
1772725508372189000,3.58618896484375,9.858428955078125,0.3924229145050049,1.6031911373138428
1772725508381705700,3.595705810546875,9.856036186218262,0.4307080805301666,1.588834285736084
1772725508391222500,3.605222412109375,9.836894035339355,0.4043870270252228,1.576870083808899
1772725508400739300,3.6147392578125,9.77707290649414,0.41156548261642456,1.576870083808899
1772725508410256100,3.624256103515625,9.743574142456055,0.4019941985607147,1.581655740737915
1772725508419773000,3.63377294921875,9.710074424743652,0.4211367964744568,1.5649060010910034
1772725508429289700,3.643289794921875,9.667003631591797,0.42352959513664246,1.6055840253829956
1772725508438806500,3.652806640625,9.664610862731934,0.44745782017707825,1.6055840253829956
1772725508448323300,3.6623232421875,9.745966911315918,0.45224347710609436,1.6319050788879395
1772725508457840000,3.671840087890625,9.822537422180176,0.4833501875400543,1.6223337650299072
1772725508467357000,3.68135693359375,9.879964828491211,0.4833501875400543,1.5936198234558105
1772725508476873700,3.690873779296875,9.968499183654785,0.48813581466674805,1.6199408769607544
1772725508486390500,3.700390625,10.030712127685547,0.48095735907554626,1.6247265338897705
1772725508495907000,3.709906982421875,10.054640769958496,0.4570291340351105,1.6055840253829956
1772725508505424000,3.719423828125,10.076175689697266,0.4570291340351105,1.5649060010910034
1772725508514941000,3.72894091796875,9.980463027954102,0.45224347710609436,1.576870083808899
1772725508524457500,3.73845751953125,9.844072341918945,0.4378865361213684,1.6079767942428589
1772725508533974300,3.747974365234375,9.789037704467773,0.4211367964744568,1.6031911373138428
1772725508543491000,3.757490966796875,9.798608779907227,0.4211367964744568,1.6079767942428589
1772725508553007900,3.7670078125,9.820143699645996,0.4139583110809326,1.6199408769607544
1772725508562524700,3.776524658203125,9.903892517089844,0.397208571434021,1.6582261323928833
1772725508572041500,3.78604150390625,9.927821159362793,0.4019941985607147,1.674975872039795
1772725508581558300,3.795558349609375,9.91107177734375,0.4043870270252228,1.6606189012527466
1772725508591075000,3.805074951171875,9.868000984191895,0.38763725757598877,1.5984054803848267
1772725508600592000,3.814591796875,9.848857879638672,0.4019941985607147,1.545763373374939
1772725508610108700,3.824108642578125,9.80817985534668,0.4043870270252228,1.5122638940811157
1772725508619625500,3.83362548828125,9.798608779907227,0.40677985548973083,1.5314065217971802
1772725508629142300,3.843142333984375,9.789037704467773,0.3852444589138031,1.5792629718780518
1772725508638659000,3.8526591796875,9.784252166748047,0.3924229145050049,1.6366907358169556
1772725508648175900,3.86217578125,9.844072341918945,0.4163511395454407,1.6055840253829956
1772725508657692700,3.871692626953125,9.865608215332031,0.42831525206565857,1.5649060010910034
1772725508667209500,3.88120947265625,9.863214492797852,0.4139583110809326,1.5840486288070679
1772725508676726000,3.89072607421875,9.834501266479492,0.43549370765686035,1.5625132322311401
1772725508686242800,3.900242919921875,9.817750930786133,0.4259224236011505,1.5625132322311401
1772725508695760000,3.909759765625,9.853643417358398,0.4450650215148926,1.5361921787261963
1772725508705276700,3.919276611328125,9.8871431350708,0.4426721930503845,1.552941918373108
1772725508714793200,3.928793212890625,9.839286804199219,0.4618147611618042,1.5314065217971802
1772725508724310000,3.93831005859375,9.839286804199219,0.4570291340351105,1.5314065217971802
1772725508733826800,3.947826904296875,9.832108497619629,0.4570291340351105,1.5314065217971802
1772725508743343600,3.957343505859375,9.856036186218262,0.41874396800994873,1.5290136337280273
1772725508752860400,3.9668603515625,9.8871431350708,0.38285163044929504,1.5337992906570435
1772725508762377200,3.976377197265625,9.90149974822998,0.3517449200153351,1.5361921787261963
1772725508771894000,3.98589404296875,9.980463027954102,0.36610186100006104,1.545763373374939
1772725508781410800,3.995410888671875,9.999606132507324,0.35892340540885925,1.6271194219589233
1772725508790927600,4.004927734375,9.944570541381836,0.39481574296951294,1.5936198234558105
1772725508800444400,4.0144443359375,9.851250648498535,0.38763725757598877,1.6007983684539795
1772725508809961200,4.023961181640625,9.81535816192627,0.3732803463935852,1.6175481081008911
1772725508819478000,4.03347802734375,9.772287368774414,0.37088751792907715,1.6175481081008911
1772725508828994800,4.042994873046875,9.717252731323242,0.4091726839542389,1.612762451171875
1772725508838511600,4.05251171875,9.712467193603516,0.4259224236011505,1.5792629718780518
1772725508848028400,4.0620283203125,9.791430473327637,0.4307080805301666,1.5361921787261963
1772725508857545200,4.071545166015625,9.858428955078125,0.4331009089946747,1.5385849475860596
1772725508867062000,4.08106201171875,9.884750366210938,0.44027936458587646,1.5433706045150757
1772725508876578800,4.090578857421875,9.90149974822998,0.46420758962631226,1.5170495510101318
1772725508886095600,4.100095703125,9.934999465942383,0.4570291340351105,1.526620864868164
1772725508895612200,4.109612060546875,9.978070259094238,0.41156548261642456,1.5314065217971802
1772725508905129000,4.11912890625,9.973284721374512,0.39960137009620667,1.5098711252212524
1772725508914645800,4.128645751953125,9.884750366210938,0.397208571434021,1.5050854682922363
1772725508924162800,4.138162841796875,9.841679573059082,0.3852444589138031,1.526620864868164
1772725508933679400,4.147679443359375,9.896714210510254,0.4259224236011505,1.5553346872329712
1772725508943196200,4.157196044921875,9.927821159362793,0.4450650215148926,1.6151553392410278
1772725508952713000,4.166712890625,9.903892517089844,0.4618147611618042,1.6079767942428589
1772725508962229800,4.176229736328125,9.80817985534668,0.4498506486415863,1.581655740737915
1772725508971746600,4.18574658203125,9.695717811584473,0.43549370765686035,1.6007983684539795
1772725508981263400,4.195263427734375,9.667003631591797,0.4163511395454407,1.5744773149490356
1772725508990780200,4.2047802734375,9.772287368774414,0.4163511395454407,1.5696916580200195
1772725509000297000,4.214296875,9.889535903930664,0.40677985548973083,1.5649060010910034
1772725509009813800,4.223813720703125,9.951749801635742,0.4091726839542389,1.5601203441619873
1772725509019330600,4.23333056640625,9.949356079101562,0.39481574296951294,1.545763373374939
1772725509028847400,4.242847412109375,9.951749801635742,0.38763725757598877,1.5672988891601562
1772725509038364200,4.2523642578125,9.956535339355469,0.40677985548973083,1.526620864868164
1772725509047881000,4.261880859375,9.92542839050293,0.42352959513664246,1.550549030303955
1772725509057397800,4.271397705078125,9.884750366210938,0.4259224236011505,1.5337992906570435
1772725509066914600,4.28091455078125,9.903892517089844,0.41874396800994873,1.5026925802230835
1772725509076431400,4.290431396484375,9.942177772521973,0.43549370765686035,1.5433706045150757
1772725509085948000,4.299947998046875,9.89432144165039,0.4713860750198364,1.5601203441619873
1772725509095464700,4.309464599609375,9.812965393066406,0.4953143000602722,1.6031911373138428
1772725509104981800,4.318981689453125,9.760323524475098,0.49292147159576416,1.6007983684539795
1772725509114498300,4.328498291015625,9.76989459991455,0.46899324655532837,1.5696916580200195
1772725509124015000,4.33801513671875,9.803394317626953,0.48574298620224,1.5625132322311401
1772725509133532000,4.347531982421875,9.753145217895508,0.4737788736820221,1.5625132322311401
1772725509143048700,4.357048583984375,9.736394882202148,0.4618147611618042,1.5601203441619873
1772725509152565500,4.3665654296875,9.820143699645996,0.4331009089946747,1.5314065217971802
1772725509162082300,4.376082275390625,9.891928672790527,0.4091726839542389,1.5433706045150757
1772725509171599000,4.38559912109375,9.942177772521973,0.42352959513664246,1.5409778356552124
1772725509181116000,4.395115966796875,9.93260669708252,0.42831525206565857,1.550549030303955
1772725509190632700,4.4046328125,9.827322959899902,0.4331009089946747,1.5864413976669312
1772725509200149500,4.4141494140625,9.757930755615234,0.397208571434021,1.5792629718780518
1772725509209666300,4.423666259765625,9.829715728759766,0.37806597352027893,1.5984054803848267
1772725509219183000,4.43318310546875,9.937392234802246,0.4091726839542389,1.5672988891601562
1772725509228700000,4.442699951171875,9.920642852783203,0.4259224236011505,1.550549030303955
1772725509238216700,4.452216796875,9.863214492797852,0.4498506486415863,1.5864413976669312
1772725509247733500,4.4617333984375,9.834501266479492,0.45224347710609436,1.5744773149490356
1772725509257250300,4.471250244140625,9.863214492797852,0.4618147611618042,1.5792629718780518
1772725509266766800,4.480766845703125,9.8871431350708,0.4498506486415863,1.5744773149490356
1772725509276283600,4.49028369140625,9.899106979370117,0.48813581466674805,1.6151553392410278
1772725509285800700,4.49980078125,9.877572059631348,0.5072783827781677,1.6247265338897705
1772725509295317500,4.5093173828125,9.863214492797852,0.5096712112426758,1.6151553392410278
1772725509304834000,4.518833984375,9.822537422180176,0.5120640397071838,1.5792629718780518
1772725509314350800,4.528350830078125,9.820143699645996,0.49292147159576416,1.5481562614440918
1772725509323867600,4.53786767578125,9.832108497619629,0.46899324655532837,1.5098711252212524
1772725509333384400,4.547384521484375,9.846465110778809,0.4546363055706024,1.5026925802230835
1772725509342901200,4.5569013671875,9.863214492797852,0.48574298620224,1.552941918373108
1772725509352418000,4.56641796875,9.820143699645996,0.48574298620224,1.5696916580200195
1772725509361934800,4.575934814453125,9.750752449035645,0.4785645306110382,1.6151553392410278
1772725509371451600,4.58545166015625,9.719645500183105,0.4211367964744568,1.6366907358169556
1772725509380968400,4.594968505859375,9.7938232421875,0.3900300860404968,1.6606189012527466
1772725509390485200,4.6044853515625,9.879964828491211,0.363709032535553,1.6965112686157227
1772725509400002000,4.614001953125,9.92542839050293,0.37088751792907715,1.6773686408996582
1772725509409518800,4.623518798828125,9.896714210510254,0.363709032535553,1.6558332443237305
1772725509419035600,4.63303564453125,9.903892517089844,0.38285163044929504,1.6342978477478027
1772725509428552400,4.642552490234375,9.968499183654785,0.3517449200153351,1.6319050788879395
1772725509438069200,4.6520693359375,9.968499183654785,0.38285163044929504,1.643869161605835
1772725509447586000,4.6615859375,9.91107177734375,0.397208571434021,1.6534404754638672
1772725509457102600,4.6711025390625,9.889535903930664,0.4546363055706024,1.6079767942428589
1772725509466619600,4.68061962890625,9.923035621643066,0.49292147159576416,1.6151553392410278
1772725509476136400,4.690136474609375,9.875179290771484,0.4618147611618042,1.6295121908187866
1772725509485653000,4.699653076171875,9.789037704467773,0.4666004180908203,1.6103696823120117
1772725509495169800,4.709169677734375,9.705288887023926,0.4905286431312561,1.6630117893218994
1772725509504686600,4.7186865234375,9.657432556152344,0.5144568681716919,1.6606189012527466
1772725509514203400,4.728203369140625,9.643074989318848,0.5096712112426758,1.6462619304656982
1772725509523720200,4.73772021484375,9.695717811584473,0.5623133182525635,1.5912270545959473
1772725509533237000,4.747237060546875,9.760323524475098,0.5575276613235474,1.5553346872329712
1772725509542753800,4.75675390625,9.810572624206543,0.5264210104942322,1.5337992906570435
1772725509552270600,4.7662705078125,9.872786521911621,0.49292147159576416,1.5242279767990112
1772725509561787400,4.775787353515625,9.944570541381836,0.46420758962631226,1.5194423198699951
1772725509571304200,4.78530419921875,9.934999465942383,0.4570291340351105,1.5672988891601562
1772725509580821000,4.794821044921875,9.93978500366211,0.4426721930503845,1.5744773149490356
1772725509590337800,4.804337890625,9.899106979370117,0.4426721930503845,1.5840486288070679
1772725509599854600,4.8138544921875,9.860821723937988,0.42352959513664246,1.6223337650299072
1772725509609371400,4.823371337890625,9.839286804199219,0.42352959513664246,1.6271194219589233
1772725509618888200,4.83288818359375,9.798608779907227,0.4259224236011505,1.6199408769607544
1772725509628405000,4.842405029296875,9.750752449035645,0.4307080805301666,1.5984054803848267
1772725509637921500,4.851921630859375,9.803394317626953,0.44745782017707825,1.5720844268798828
1772725509647438300,4.861438232421875,9.93260669708252,0.4618147611618042,1.5242279767990112
1772725509656955400,4.870955322265625,9.997213363647461,0.4331009089946747,1.5409778356552124
1772725509666472200,4.88047216796875,9.978070259094238,0.4618147611618042,1.5720844268798828
1772725509675988700,4.88998876953125,9.937392234802246,0.4953143000602722,1.588834285736084
1772725509685505500,4.899505615234375,9.868000984191895,0.5000999569892883,1.6223337650299072
1772725509695022300,4.909022216796875,9.868000984191895,0.5288137793540955,1.6223337650299072
1772725509704539100,4.9185390625,9.848857879638672,0.48574298620224,1.6319050788879395
1772725509714056000,4.928055908203125,9.844072341918945,0.5000999569892883,1.6223337650299072
1772725509723572700,4.93757275390625,9.839286804199219,0.4785645306110382,1.6247265338897705
1772725509733089500,4.947089599609375,9.822537422180176,0.49292147159576416,1.6031911373138428
1772725509742606300,4.9566064453125,9.848857879638672,0.5144568681716919,1.5984054803848267
1772725509752123100,4.966123046875,9.860821723937988,0.5216353535652161,1.6342978477478027
1772725509761640000,4.975639892578125,9.805787086486816,0.49292147159576416,1.6510475873947144
1772725509771156700,4.98515673828125,9.803394317626953,0.5048855543136597,1.6462619304656982
1772725509780673500,4.994673583984375,9.812965393066406,0.4785645306110382,1.6390835046768188
1772725509790190300,5.0041904296875,9.805787086486816,0.46899324655532837,1.6319050788879395
1772725509799707100,5.01370703125,9.803394317626953,0.4570291340351105,1.6654045581817627
1772725509809224000,5.023223876953125,9.805787086486816,0.4570291340351105,1.6701902151107788
1772725509818740700,5.03274072265625,9.796216011047363,0.4498506486415863,1.6510475873947144
1772725509828257300,5.04225732421875,9.836894035339355,0.45224347710609436,1.6390835046768188
1772725509837774300,5.0517744140625,9.91825008392334,0.4546363055706024,1.588834285736084
1772725509847291100,5.061291015625,9.973284721374512,0.4546363055706024,1.5385849475860596
1772725509856807700,5.0708076171875,9.903892517089844,0.4666004180908203,1.5672988891601562
1772725509866324500,5.080324462890625,9.846465110778809,0.48813581466674805,1.5864413976669312
1772725509875841300,5.08984130859375,9.78664493560791,0.4666004180908203,1.6390835046768188
1772725509885358000,5.099358154296875,9.762716293334961,0.4785645306110382,1.672582983970642
1772725509894875000,5.108875,9.765109062194824,0.4833501875400543,1.6342978477478027
1772725509904391700,5.1183916015625,9.755537986755371,0.48813581466674805,1.6175481081008911
1772725509913908500,5.127908447265625,9.736394882202148,0.4905286431312561,1.5936198234558105
1772725509923425300,5.13742529296875,9.765109062194824,0.4905286431312561,1.5960127115249634
1772725509932942000,5.146942138671875,9.772287368774414,0.47617170214653015,1.6079767942428589
1772725509942459000,5.156458984375,9.829715728759766,0.4426721930503845,1.6247265338897705
1772725509951975700,5.1659755859375,9.860821723937988,0.46420758962631226,1.6223337650299072
1772725509961492500,5.175492431640625,9.827322959899902,0.4498506486415863,1.5960127115249634
1772725509971009300,5.18500927734375,9.77707290649414,0.46899324655532837,1.5960127115249634
1772725509980526000,5.194526123046875,9.76989459991455,0.44745782017707825,1.5864413976669312
1772725509990043000,5.20404296875,9.7938232421875,0.4378865361213684,1.6103696823120117
1772725509999559700,5.2135595703125,9.875179290771484,0.4307080805301666,1.6319050788879395
1772725510009076200,5.223076171875,9.915857315063477,0.4570291340351105,1.6342978477478027
1772725510018593300,5.23259326171875,9.872786521911621,0.4378865361213684,1.667797327041626
1772725510028110000,5.242110107421875,9.810572624206543,0.4498506486415863,1.6510475873947144
1772725510037627000,5.251626953125,9.844072341918945,0.4426721930503845,1.6654045581817627
1772725510047143400,5.261143310546875,9.870393753051758,0.44027936458587646,1.698904037475586
1772725510056660200,5.27066015625,9.913464546203613,0.4331009089946747,1.6773686408996582
1772725510066177000,5.280177001953125,9.882357597351074,0.44027936458587646,1.679761528968811
1772725510075693800,5.28969384765625,9.810572624206543,0.4570291340351105,1.6845471858978271
1772725510085210600,5.299210693359375,9.781859397888184,0.49292147159576416,1.6414763927459717
1772725510094727400,5.3087275390625,9.817750930786133,0.5144568681716919,1.6295121908187866
1772725510104244200,5.318244140625,9.834501266479492,0.48095735907554626,1.6031911373138428
1772725510113761000,5.327760986328125,9.81535816192627,0.47617170214653015,1.6055840253829956
1772725510123277800,5.33727783203125,9.76989459991455,0.5000999569892883,1.588834285736084
1772725510132794600,5.346794677734375,9.767501831054688,0.4953143000602722,1.6175481081008911
1772725510142311400,5.3563115234375,9.78664493560791,0.5096712112426758,1.6055840253829956
1772725510151828200,5.365828125,9.798608779907227,0.4833501875400543,1.6295121908187866
1772725510161345000,5.375344970703125,9.841679573059082,0.4618147611618042,1.6175481081008911
1772725510170861800,5.38486181640625,9.856036186218262,0.44027936458587646,1.5960127115249634
1772725510180378600,5.394378662109375,9.858428955078125,0.43549370765686035,1.6007983684539795
1772725510189895400,5.4038955078125,9.858428955078125,0.45942193269729614,1.6462619304656982
1772725510199412000,5.413411865234375,9.882357597351074,0.43549370765686035,1.6510475873947144
1772725510208929000,5.422928955078125,9.853643417358398,0.4378865361213684,1.6414763927459717
1772725510218445800,5.43244580078125,9.851250648498535,0.44027936458587646,1.648654818534851
1772725510227962400,5.44196240234375,9.824930191040039,0.45224347710609436,1.6390835046768188
1772725510237479200,5.451479248046875,9.805787086486816,0.45224347710609436,1.6414763927459717
1772725510246996000,5.460995849609375,9.817750930786133,0.5168496966362,1.6247265338897705
1772725510256512800,5.4705126953125,9.856036186218262,0.519242525100708,1.6175481081008911
1772725510266029600,5.480029541015625,9.81535816192627,0.5383850932121277,1.6175481081008911
1772725510275546400,5.48954638671875,9.824930191040039,0.5264210104942322,1.5984054803848267
1772725510285063200,5.499063232421875,9.822537422180176,0.5048855543136597,1.6223337650299072
1772725510294580000,5.508580078125,9.791430473327637,0.5048855543136597,1.6414763927459717
1772725510304096800,5.5180966796875,9.760323524475098,0.48095735907554626,1.6199408769607544
1772725510313613600,5.527613525390625,9.7938232421875,0.46899324655532837,1.6223337650299072
1772725510323130400,5.53713037109375,9.865608215332031,0.46420758962631226,1.5960127115249634
1772725510332647200,5.546647216796875,9.856036186218262,0.49292147159576416,1.5984054803848267
1772725510342164000,5.5561640625,9.858428955078125,0.4905286431312561,1.6366907358169556
1772725510351680800,5.5656806640625,9.834501266479492,0.44027936458587646,1.672582983970642
1772725510361197600,5.575197509765625,9.856036186218262,0.4307080805301666,1.6414763927459717
1772725510370714400,5.58471435546875,9.915857315063477,0.4259224236011505,1.5960127115249634
1772725510380231000,5.59423095703125,9.927821159362793,0.4163511395454407,1.6342978477478027
1772725510389747700,5.603747802734375,9.856036186218262,0.44027936458587646,1.612762451171875
1772725510399264800,5.6132646484375,9.863214492797852,0.4259224236011505,1.6271194219589233
1772725510408781600,5.622781494140625,9.923035621643066,0.4211367964744568,1.6414763927459717
1772725510418298000,5.632298095703125,9.8871431350708,0.4307080805301666,1.6701902151107788
1772725510427815000,5.64181494140625,9.784252166748047,0.46899324655532837,1.6319050788879395
1772725510437331700,5.651331787109375,9.755537986755371,0.4785645306110382,1.5984054803848267
1772725510446848500,5.6608486328125,9.812965393066406,0.4953143000602722,1.612762451171875
1772725510456365300,5.670365234375,9.8871431350708,0.5000999569892883,1.6223337650299072
1772725510465882000,5.679882080078125,9.882357597351074,0.5072783827781677,1.6414763927459717
1772725510475399000,5.68939892578125,9.865608215332031,0.5000999569892883,1.6031911373138428
1772725510484915700,5.698915771484375,9.860821723937988,0.5072783827781677,1.5960127115249634
1772725510494432500,5.7084326171875,9.848857879638672,0.5240281820297241,1.5912270545959473
1772725510503949300,5.71794921875,9.827322959899902,0.4785645306110382,1.6151553392410278
1772725510513466000,5.727466064453125,9.753145217895508,0.46420758962631226,1.6319050788879395
1772725510522983000,5.73698291015625,9.717252731323242,0.4953143000602722,1.6103696823120117
1772725510532499500,5.74649951171875,9.745966911315918,0.5120640397071838,1.5984054803848267
1772725510542016500,5.7560166015625,9.772287368774414,0.5168496966362,1.6199408769607544
1772725510551533300,5.765533203125,9.774680137634277,0.5000999569892883,1.6175481081008911
1772725510561050000,5.775050048828125,9.789037704467773,0.5096712112426758,1.5960127115249634
1772725510570566700,5.784566650390625,9.860821723937988,0.4905286431312561,1.5984054803848267
1772725510580083500,5.79408349609375,9.906285285949707,0.4713860750198364,1.5792629718780518
1772725510589600500,5.8036005859375,9.920642852783203,0.44027936458587646,1.612762451171875
1772725510599117000,5.813116943359375,9.9469633102417,0.42352959513664246,1.6414763927459717
1772725510608633900,5.8226337890625,9.997213363647461,0.4211367964744568,1.6223337650299072
1772725510618150700,5.832150634765625,9.985248565673828,0.4498506486415863,1.5912270545959473
1772725510627667500,5.84166748046875,9.942177772521973,0.42352959513664246,1.5649060010910034
1772725510637184300,5.851184326171875,9.90149974822998,0.4426721930503845,1.6223337650299072
1772725510646701000,5.860701171875,9.8871431350708,0.4450650215148926,1.6582261323928833
1772725510656217900,5.8702177734375,9.870393753051758,0.4737788736820221,1.679761528968811
1772725510665734700,5.879734619140625,9.820143699645996,0.48095735907554626,1.6965112686157227
1772725510675251500,5.88925146484375,9.762716293334961,0.5048855543136597,1.7060825824737549
1772725510684768300,5.898768310546875,9.755537986755371,0.5024927258491516,1.6582261323928833
1772725510694285000,5.90828515625,9.803394317626953,0.5216353535652161,1.6103696823120117
1772725510703801900,5.9178017578125,9.844072341918945,0.5168496966362,1.6055840253829956
1772725510713318700,5.927318603515625,9.834501266479492,0.4785645306110382,1.5936198234558105
1772725510722835500,5.93683544921875,9.829715728759766,0.4618147611618042,1.576870083808899
1772725510732352300,5.946352294921875,9.824930191040039,0.48813581466674805,1.6151553392410278
1772725510741869000,5.955869140625,9.858428955078125,0.4905286431312561,1.612762451171875
1772725510751385600,5.965385498046875,9.93978500366211,0.4666004180908203,1.6031911373138428
1772725510760902400,5.97490234375,9.915857315063477,0.43549370765686035,1.6271194219589233
1772725510770419200,5.984419189453125,9.839286804199219,0.45224347710609436,1.6295121908187866
1772725510779936000,5.99393603515625,9.789037704467773,0.42352959513664246,1.6295121908187866
1772725510789452800,6.003452880859375,9.817750930786133,0.4450650215148926,1.6079767942428589
1772725510798969600,6.012969482421875,9.856036186218262,0.4570291340351105,1.6366907358169556
1772725510808486400,6.022486328125,9.827322959899902,0.4666004180908203,1.6534404754638672
1772725510818003200,6.032003173828125,9.80100154876709,0.4737788736820221,1.612762451171875
1772725510827520000,6.04152001953125,9.822537422180176,0.4737788736820221,1.6510475873947144
1772725510837036800,6.051036865234375,9.858428955078125,0.4570291340351105,1.643869161605835
1772725510846553600,6.0605537109375,9.91825008392334,0.4618147611618042,1.6175481081008911
1772725510856070400,6.0700703125,9.90149974822998,0.4546363055706024,1.6103696823120117
1772725510865587200,6.079587158203125,9.829715728759766,0.4713860750198364,1.6055840253829956
1772725510875104000,6.08910400390625,9.755537986755371,0.48095735907554626,1.6103696823120117
1772725510884620800,6.098620849609375,9.726823806762695,0.4905286431312561,1.6103696823120117
1772725510894137600,6.1081376953125,9.719645500183105,0.4737788736820221,1.581655740737915
1772725510903654100,6.117654052734375,9.832108497619629,0.47617170214653015,1.5696916580200195
1772725510913171200,6.127171142578125,9.91825008392334,0.46899324655532837,1.5936198234558105
1772725510922688000,6.13668798828125,9.872786521911621,0.4953143000602722,1.6295121908187866
1772725510932204800,6.146204833984375,9.824930191040039,0.5288137793540955,1.576870083808899
1772725510941721300,6.155721435546875,9.853643417358398,0.5288137793540955,1.5601203441619873
1772725510951238100,6.165238037109375,9.865608215332031,0.5240281820297241,1.5792629718780518
1772725510960755000,6.1747548828125,9.865608215332031,0.5168496966362,1.6055840253829956
1772725510970271700,6.184271728515625,9.889535903930664,0.4618147611618042,1.6510475873947144
1772725510979788500,6.19378857421875,9.877572059631348,0.42831525206565857,1.6917256116867065
1772725510989305300,6.203305419921875,9.839286804199219,0.4498506486415863,1.7276179790496826
1772725510998822100,6.212822265625,9.817750930786133,0.42831525206565857,1.734796404838562
1772725511008339000,6.2223388671875,9.868000984191895,0.43549370765686035,1.6558332443237305
1772725511017855700,6.231855712890625,9.906285285949707,0.42831525206565857,1.6223337650299072
1772725511027372500,6.24137255859375,9.889535903930664,0.4043870270252228,1.588834285736084
1772725511036889300,6.250889404296875,9.908679008483887,0.44027936458587646,1.588834285736084
1772725511046406100,6.26040625,9.944570541381836,0.48813581466674805,1.5792629718780518
1772725511055923000,6.2699228515625,9.870393753051758,0.5048855543136597,1.6414763927459717
1772725511065439500,6.279439453125,9.765109062194824,0.4953143000602722,1.674975872039795
1772725511074956500,6.28895654296875,9.705288887023926,0.5216353535652161,1.6821542978286743
1772725511084473300,6.298473388671875,9.719645500183105,0.519242525100708,1.6534404754638672
1772725511093990000,6.307989990234375,9.717252731323242,0.5096712112426758,1.612762451171875
1772725511103506700,6.317506591796875,9.734002113342285,0.5048855543136597,1.6103696823120117
1772725511113023700,6.327023681640625,9.753145217895508,0.48813581466674805,1.6223337650299072
1772725511122540300,6.336540283203125,9.810572624206543,0.46899324655532837,1.6103696823120117
1772725511132057000,6.34605712890625,9.817750930786133,0.4139583110809326,1.6414763927459717
1772725511141574000,6.355573974609375,9.822537422180176,0.39960137009620667,1.643869161605835
1772725511151090700,6.365090576171875,9.879964828491211,0.3756731450557709,1.6271194219589233
1772725511160607500,6.374607421875,9.994820594787598,0.3852444589138031,1.6510475873947144
1772725511170124300,6.384124267578125,9.982855796813965,0.3852444589138031,1.6893328428268433
1772725511179641000,6.39364111328125,9.906285285949707,0.37806597352027893,1.667797327041626
1772725511189158000,6.403157958984375,9.81535816192627,0.3613162338733673,1.6869399547576904
1772725511198674700,6.4126748046875,9.710074424743652,0.3613162338733673,1.698904037475586
1772725511208191500,6.42219140625,9.66939640045166,0.40677985548973083,1.6558332443237305
1772725511217708300,6.431708251953125,9.717252731323242,0.44027936458587646,1.6510475873947144
1772725511227225000,6.44122509765625,9.702896118164062,0.4378865361213684,1.6534404754638672
1772725511236742000,6.450741943359375,9.7938232421875,0.4259224236011505,1.6462619304656982
1772725511246258700,6.4602587890625,9.93978500366211,0.4618147611618042,1.6582261323928833
1772725511255775500,6.469775390625,10.059426307678223,0.4905286431312561,1.679761528968811
1772725511265292300,6.479292236328125,10.05703353881836,0.4905286431312561,1.7276179790496826
1772725511274808800,6.488808837890625,9.923035621643066,0.43549370765686035,1.7419748306274414
1772725511284325600,6.49832568359375,9.870393753051758,0.42831525206565857,1.6534404754638672
1772725511293842400,6.507842529296875,9.7938232421875,0.4331009089946747,1.6773686408996582
1772725511303359500,6.517359375,9.762716293334961,0.45224347710609436,1.6534404754638672
1772725511312876000,6.5268759765625,9.798608779907227,0.46420758962631226,1.6414763927459717
1772725511322392800,6.536392822265625,9.836894035339355,0.46899324655532837,1.667797327041626
1772725511331909600,6.54590966796875,9.834501266479492,0.4570291340351105,1.6845471858978271
1772725511341426400,6.555426513671875,9.803394317626953,0.4618147611618042,1.710868239402771
1772725511350943200,6.564943115234375,9.767501831054688,0.4666004180908203,1.7371892929077148
1772725511360460000,6.5744599609375,9.738788604736328,0.4713860750198364,1.7276179790496826
1772725511369976800,6.583976806640625,9.817750930786133,0.46420758962631226,1.6630117893218994
1772725511379493600,6.59349365234375,9.853643417358398,0.4498506486415863,1.667797327041626
1772725511389010400,6.603010498046875,9.870393753051758,0.4139583110809326,1.6534404754638672
1772725511398527200,6.61252734375,9.944570541381836,0.4163511395454407,1.643869161605835
1772725511408044000,6.6220439453125,9.997213363647461,0.37806597352027893,1.6366907358169556
1772725511417560800,6.631560791015625,9.942177772521973,0.3565305769443512,1.672582983970642
1772725511427077600,6.64107763671875,9.882357597351074,0.3565305769443512,1.6845471858978271
1772725511436594400,6.650594482421875,9.860821723937988,0.397208571434021,1.7132610082626343
1772725511446111200,6.660111328125,9.865608215332031,0.42352959513664246,1.7156537771224976
1772725511455628000,6.6696279296875,9.879964828491211,0.4211367964744568,1.703689694404602
1772725511465144600,6.67914453125,9.846465110778809,0.44027936458587646,1.698904037475586
1772725511474661400,6.688661376953125,9.7938232421875,0.4426721930503845,1.6893328428268433
1772725511484178200,6.69817822265625,9.824930191040039,0.43549370765686035,1.6630117893218994
1772725511493695000,6.707695068359375,9.856036186218262,0.4331009089946747,1.6558332443237305
1772725511503211800,6.717211669921875,9.851250648498535,0.4378865361213684,1.643869161605835
1772725511512728600,6.726728515625,9.784252166748047,0.42352959513664246,1.6319050788879395
1772725511522245400,6.736245361328125,9.722038269042969,0.4259224236011505,1.6821542978286743
1772725511531762200,6.74576220703125,9.714859962463379,0.4570291340351105,1.7156537771224976
1772725511541279000,6.755279052734375,9.760323524475098,0.4618147611618042,1.7156537771224976
1772725511550795800,6.764795654296875,9.829715728759766,0.4737788736820221,1.6965112686157227
1772725511560312600,6.7743125,9.877572059631348,0.45224347710609436,1.6630117893218994
1772725511569829400,6.783829345703125,9.858428955078125,0.4426721930503845,1.648654818534851
1772725511579346200,6.79334619140625,9.81535816192627,0.43549370765686035,1.612762451171875
1772725511588863000,6.802863037109375,9.860821723937988,0.4259224236011505,1.6079767942428589
1772725511598379800,6.8123798828125,9.963713645935059,0.4139583110809326,1.6031911373138428
1772725511607896600,6.821896484375,9.9469633102417,0.39960137009620667,1.6295121908187866
1772725511617413000,6.8314130859375,9.891928672790527,0.3924229145050049,1.6342978477478027
1772725511626930000,6.840929931640625,9.817750930786133,0.3924229145050049,1.6582261323928833
1772725511636447000,6.850447021484375,9.798608779907227,0.42352959513664246,1.6534404754638672
1772725511645963500,6.859963623046875,9.841679573059082,0.4426721930503845,1.6654045581817627
1772725511655480300,6.869480224609375,9.896714210510254,0.4498506486415863,1.6630117893218994
1772725511664997000,6.8789970703125,9.896714210510254,0.45942193269729614,1.6534404754638672
1772725511674514000,6.888513916015625,9.829715728759766,0.4498506486415863,1.6319050788879395
1772725511684030700,6.89803076171875,9.781859397888184,0.4450650215148926,1.6462619304656982
1772725511693547500,6.907547607421875,9.80100154876709,0.4450650215148926,1.672582983970642
1772725511703064300,6.917064208984375,9.803394317626953,0.4546363055706024,1.6773686408996582
1772725511712581000,6.9265810546875,9.810572624206543,0.4450650215148926,1.667797327041626
1772725511722098000,6.936097900390625,9.81535816192627,0.45942193269729614,1.674975872039795
1772725511731614700,6.94561474609375,9.848857879638672,0.46420758962631226,1.674975872039795
1772725511741131500,6.955131591796875,9.836894035339355,0.4426721930503845,1.698904037475586
1772725511750648300,6.9646484375,9.803394317626953,0.39481574296951294,1.698904037475586
1772725511760164900,6.974164794921875,9.834501266479492,0.39481574296951294,1.703689694404602
1772725511769682000,6.983681884765625,9.858428955078125,0.40677985548973083,1.7180466651916504
1772725511779198700,6.99319873046875,9.844072341918945,0.43549370765686035,1.703689694404602
1772725511788715500,7.002715576171875,9.832108497619629,0.4211367964744568,1.6917256116867065
1772725511798232000,7.012232177734375,9.913464546203613,0.4163511395454407,1.672582983970642
1772725511807748900,7.021748779296875,9.968499183654785,0.39960137009620667,1.6295121908187866
1772725511817265700,7.031265625,9.91825008392334,0.41874396800994873,1.6151553392410278
1772725511826782500,7.040782470703125,9.889535903930664,0.44745782017707825,1.6103696823120117
1772725511836299300,7.05029931640625,9.851250648498535,0.4785645306110382,1.6175481081008911
1772725511845816000,7.059816162109375,9.767501831054688,0.47617170214653015,1.6414763927459717
1772725511855332900,7.069332763671875,9.695717811584473,0.4977070987224579,1.6534404754638672
1772725511864849700,7.078849609375,9.66939640045166,0.4737788736820221,1.643869161605835
1772725511874366500,7.088366455078125,9.69093132019043,0.5120640397071838,1.6199408769607544
1772725511883883300,7.09788330078125,9.760323524475098,0.5168496966362,1.6031911373138428
1772725511893400000,7.107400146484375,9.750752449035645,0.5359922647476196,1.6199408769607544
1772725511902916900,7.116916748046875,9.738788604736328,0.5216353535652161,1.6630117893218994
1772725511912433700,7.12643359375,9.767501831054688,0.45942193269729614,1.6869399547576904
1772725511921950500,7.135950439453125,9.829715728759766,0.43549370765686035,1.667797327041626
1772725511931467300,7.14546728515625,9.915857315063477,0.42352959513664246,1.6630117893218994
1772725511940984000,7.154984130859375,9.966106414794922,0.397208571434021,1.648654818534851
1772725511950500600,7.16450048828125,9.958928108215332,0.3684946894645691,1.643869161605835
1772725511960017400,7.174017333984375,9.954142570495605,0.3924229145050049,1.648654818534851
1772725511969534500,7.183534423828125,9.91107177734375,0.39960137009620667,1.667797327041626
1772725511979051300,7.19305126953125,9.78664493560791,0.4211367964744568,1.7228323221206665
1772725511988567800,7.20256787109375,9.688538551330566,0.4426721930503845,1.7635103464126587
1772725511998084600,7.212084716796875,9.67657470703125,0.4618147611618042,1.730010747909546
1772725512007601400,7.221601318359375,9.765109062194824,0.4737788736820221,1.6701902151107788
1772725512017118200,7.2311181640625,9.879964828491211,0.45942193269729614,1.643869161605835
1772725512026635000,7.240635009765625,9.915857315063477,0.4546363055706024,1.6414763927459717
1772725512036151800,7.25015185546875,9.927821159362793,0.46420758962631226,1.6247265338897705
1772725512045668600,7.259668701171875,9.8871431350708,0.4570291340351105,1.6462619304656982
1772725512055185400,7.269185302734375,9.889535903930664,0.4450650215148926,1.6606189012527466
1772725512064702200,7.2787021484375,9.90149974822998,0.4450650215148926,1.672582983970642
1772725512074219000,7.288218994140625,9.908679008483887,0.4450650215148926,1.672582983970642
1772725512083735800,7.29773583984375,9.90149974822998,0.4450650215148926,1.6342978477478027
1772725512093252600,7.307252685546875,9.915857315063477,0.45224347710609436,1.6151553392410278
1772725512102769400,7.316769287109375,9.896714210510254,0.4666004180908203,1.6103696823120117
1772725512112286200,7.3262861328125,9.810572624206543,0.46899324655532837,1.6247265338897705
1772725512121803000,7.335802978515625,9.719645500183105,0.4785645306110382,1.6390835046768188
1772725512131319600,7.345319580078125,9.659825325012207,0.48813581466674805,1.643869161605835
1772725512140836400,7.35483642578125,9.652647018432617,0.4713860750198364,1.6534404754638672
1772725512150353200,7.364353271484375,9.659825325012207,0.46420758962631226,1.6773686408996582
1772725512159870000,7.373869873046875,9.731609344482422,0.44745782017707825,1.6941183805465698
1772725512169386800,7.38338671875,9.812965393066406,0.43549370765686035,1.6462619304656982
1772725512178903600,7.392903564453125,9.879964828491211,0.44745782017707825,1.6271194219589233
1772725512188420400,7.40242041015625,9.956535339355469,0.39960137009620667,1.6079767942428589
1772725512197937200,7.411937255859375,9.985248565673828,0.3924229145050049,1.6319050788879395
1772725512207454000,7.421453857421875,9.992427825927734,0.38763725757598877,1.6414763927459717
1772725512216970800,7.430970703125,9.975677490234375,0.4043870270252228,1.6773686408996582
1772725512226487600,7.440487548828125,9.930213928222656,0.380458801984787,1.7060825824737549
1772725512236004400,7.45000439453125,9.868000984191895,0.39481574296951294,1.734796404838562
1772725512245521200,7.459521240234375,9.76989459991455,0.397208571434021,1.7204394340515137
1772725512255038000,7.469037841796875,9.731609344482422,0.4211367964744568,1.7084753513336182
1772725512264554800,7.4785546875,9.757930755615234,0.4570291340351105,1.6558332443237305
1772725512274071600,7.488071533203125,9.781859397888184,0.46420758962631226,1.6271194219589233
1772725512283588000,7.497588134765625,9.78664493560791,0.44745782017707825,1.6295121908187866
1772725512293105000,7.50710498046875,9.798608779907227,0.4666004180908203,1.5912270545959473
1772725512302622000,7.5166220703125,9.851250648498535,0.4666004180908203,1.5672988891601562
1772725512312138800,7.526138671875,9.875179290771484,0.46420758962631226,1.5744773149490356
1772725512321655300,7.5356552734375,9.870393753051758,0.43549370765686035,1.612762451171875
1772725512331172000,7.545172119140625,9.851250648498535,0.4139583110809326,1.612762451171875
1772725512340689000,7.55468896484375,9.81535816192627,0.41156548261642456,1.6366907358169556
1772725512350205700,7.564205810546875,9.803394317626953,0.4211367964744568,1.648654818534851
1772725512359722500,7.573722412109375,9.865608215332031,0.4450650215148926,1.648654818534851
1772725512369239300,7.5832392578125,9.90149974822998,0.4450650215148926,1.6630117893218994
1772725512378756000,7.592756103515625,9.856036186218262,0.4546363055706024,1.6845471858978271
1772725512388273000,7.60227294921875,9.834501266479492,0.4426721930503845,1.6893328428268433
1772725512397789700,7.611789794921875,9.817750930786133,0.44745782017707825,1.7060825824737549
1772725512407306500,7.621306396484375,9.832108497619629,0.4307080805301666,1.6701902151107788
1772725512416823300,7.6308232421875,9.853643417358398,0.4331009089946747,1.6319050788879395
1772725512426340000,7.640340087890625,9.896714210510254,0.4450650215148926,1.6582261323928833
1772725512435856600,7.649856689453125,9.889535903930664,0.4737788736820221,1.674975872039795
1772725512445373700,7.659373779296875,9.868000984191895,0.4713860750198364,1.6510475873947144
1772725512454890500,7.668890380859375,9.812965393066406,0.44027936458587646,1.6510475873947144
1772725512464407300,7.6784072265625,9.765109062194824,0.4426721930503845,1.612762451171875
1772725512473923800,7.687923828125,9.834501266479492,0.4163511395454407,1.5984054803848267
1772725512483440600,7.697440673828125,9.889535903930664,0.42352959513664246,1.6031911373138428
1772725512492957400,7.70695751953125,9.90149974822998,0.44027936458587646,1.612762451171875
1772725512502474200,7.71647412109375,9.832108497619629,0.4546363055706024,1.6247265338897705
1772725512511991000,7.725990966796875,9.7938232421875,0.4546363055706024,1.643869161605835
1772725512521507800,7.7355078125,9.805787086486816,0.4378865361213684,1.6654045581817627
1772725512531024600,7.745024658203125,9.7938232421875,0.4091726839542389,1.667797327041626
1772725512540541400,7.75454150390625,9.848857879638672,0.4091726839542389,1.6606189012527466
1772725512550058200,7.764058349609375,9.877572059631348,0.4019941985607147,1.6606189012527466
1772725512559575000,7.773574951171875,9.889535903930664,0.380458801984787,1.6773686408996582
1772725512569091800,7.783091796875,9.856036186218262,0.3852444589138031,1.6534404754638672
1772725512578608600,7.792608642578125,9.863214492797852,0.3684946894645691,1.6462619304656982
1772725512588125400,7.80212548828125,9.844072341918945,0.4043870270252228,1.6654045581817627
1772725512597642200,7.811642333984375,9.839286804199219,0.42831525206565857,1.6271194219589233
1772725512607159000,7.821158935546875,9.848857879638672,0.44745782017707825,1.6271194219589233
1772725512616675800,7.83067578125,9.853643417358398,0.43549370765686035,1.6151553392410278
1772725512626192400,7.8401923828125,9.846465110778809,0.4785645306110382,1.6031911373138428
1772725512635709200,7.849709228515625,9.848857879638672,0.49292147159576416,1.5912270545959473
1772725512645226200,7.859226318359375,9.822537422180176,0.5000999569892883,1.5912270545959473
1772725512654742800,7.86874267578125,9.765109062194824,0.5072783827781677,1.6223337650299072
1772725512664259600,7.878259521484375,9.738788604736328,0.4953143000602722,1.6630117893218994
1772725512673776400,7.8877763671875,9.760323524475098,0.4905286431312561,1.6701902151107788
1772725512683293200,7.897293212890625,9.77707290649414,0.4666004180908203,1.6654045581817627
1772725512692810000,7.90681005859375,9.784252166748047,0.44745782017707825,1.6845471858978271
1772725512702326800,7.916326904296875,9.822537422180176,0.41156548261642456,1.6965112686157227
1772725512711843600,7.925843505859375,9.829715728759766,0.38763725757598877,1.6893328428268433
1772725512721360400,7.9353603515625,9.906285285949707,0.3900300860404968,1.6606189012527466
1772725512730877200,7.944877197265625,9.956535339355469,0.38763725757598877,1.6390835046768188
1772725512740394000,7.95439404296875,9.978070259094238,0.3852444589138031,1.6390835046768188
1772725512749910800,7.963910888671875,9.91107177734375,0.3732803463935852,1.6558332443237305
1772725512759427600,7.973427490234375,9.834501266479492,0.3756731450557709,1.674975872039795
1772725512768944400,7.9829443359375,9.772287368774414,0.397208571434021,1.7276179790496826
1772725512778461000,7.9924609375,9.743574142456055,0.40677985548973083,1.7395820617675781
1772725512787978000,8.00197802734375,9.731609344482422,0.3924229145050049,1.6965112686157227
1772725512797494800,8.011494873046875,9.80817985534668,0.38763725757598877,1.648654818534851
1772725512807011300,8.02101123046875,9.889535903930664,0.39481574296951294,1.6319050788879395
1772725512816528100,8.030528076171874,9.915857315063477,0.38763725757598877,1.5984054803848267
1772725512826045000,8.040044921875,9.915857315063477,0.4163511395454407,1.6151553392410278
1772725512835561700,8.049561767578124,9.913464546203613,0.4307080805301666,1.6869399547576904
1772725512845078500,8.05907861328125,9.844072341918945,0.4618147611618042,1.679761528968811
1772725512854595300,8.06859521484375,9.76989459991455,0.4378865361213684,1.6965112686157227
1772725512864112000,8.078112060546875,9.717252731323242,0.4426721930503845,1.6701902151107788
1772725512873629000,8.08762890625,9.712467193603516,0.4211367964744568,1.6558332443237305
1772725512883145700,8.097145751953125,9.774680137634277,0.42831525206565857,1.672582983970642
1772725512892662500,8.10666259765625,9.846465110778809,0.45942193269729614,1.6893328428268433
1772725512902179300,8.116179443359375,9.91107177734375,0.46420758962631226,1.6893328428268433
1772725512911696100,8.125696044921876,9.877572059631348,0.4426721930503845,1.7371892929077148
1772725512921213000,8.135212890625,9.789037704467773,0.42352959513664246,1.7371892929077148
1772725512930729700,8.144729736328125,9.729216575622559,0.4331009089946747,1.710868239402771
1772725512940246500,8.15424658203125,9.745966911315918,0.4307080805301666,1.6845471858978271
1772725512949763300,8.163763427734375,9.781859397888184,0.4163511395454407,1.648654818534851
1772725512959279900,8.17327978515625,9.844072341918945,0.43549370765686035,1.6247265338897705
1772725512968796700,8.182796630859375,9.872786521911621,0.42831525206565857,1.6558332443237305
1772725512978313500,8.1923134765625,9.913464546203613,0.4259224236011505,1.7060825824737549
1772725512987830300,8.201830322265625,9.992427825927734,0.4426721930503845,1.7180466651916504
1772725512997347000,8.21134716796875,10.00439167022705,0.4570291340351105,1.698904037475586
1772725513006864000,8.22086376953125,9.949356079101562,0.4139583110809326,1.679761528968811
1772725513016380700,8.230380615234376,9.853643417358398,0.35413774847984314,1.6941183805465698
1772725513025897500,8.2398974609375,9.824930191040039,0.3397808074951172,1.7611174583435059
1772725513035414300,8.249414306640626,9.805787086486816,0.37806597352027893,1.7874385118484497
1772725513044931000,8.25893115234375,9.851250648498535,0.3852444589138031,1.7826528549194336
1772725513054447900,8.26844775390625,9.848857879638672,0.4259224236011505,1.7682958841323853
1772725513063964700,8.277964599609374,9.805787086486816,0.4163511395454407,1.7204394340515137
1772725513073481500,8.2874814453125,9.78664493560791,0.4019941985607147,1.6606189012527466
1772725513082998300,8.296998291015624,9.767501831054688,0.4331009089946747,1.7276179790496826
1772725513092515000,8.30651513671875,9.743574142456055,0.4307080805301666,1.7443677186965942
1772725513102032000,8.316031982421874,9.729216575622559,0.46420758962631226,1.734796404838562
1772725513111548400,8.32554833984375,9.755537986755371,0.4713860750198364,1.703689694404602
1772725513121065200,8.335065185546876,9.822537422180176,0.4785645306110382,1.674975872039795
1772725513130582300,8.344582275390625,9.832108497619629,0.4785645306110382,1.6558332443237305
1772725513140099000,8.35409912109375,9.80100154876709,0.47617170214653015,1.6701902151107788
1772725513149615600,8.36361572265625,9.784252166748047,0.4833501875400543,1.6773686408996582
1772725513159132400,8.37313232421875,9.7938232421875,0.46899324655532837,1.710868239402771
1772725513168649200,8.382649169921875,9.812965393066406,0.46899324655532837,1.7276179790496826
1772725513178166000,8.392166015625,9.906285285949707,0.46420758962631226,1.6821542978286743
1772725513187682800,8.401682861328124,9.954142570495605,0.38285163044929504,1.6917256116867065
1772725513197199600,8.41119970703125,9.9469633102417,0.3756731450557709,1.7132610082626343
1772725513206716400,8.42071630859375,9.9469633102417,0.31824541091918945,1.7587246894836426
1772725513216233200,8.430233154296875,9.956535339355469,0.32542386651039124,1.7395820617675781
1772725513225750000,8.43975,9.89432144165039,0.3613162338733673,1.770688772201538
1772725513235266600,8.4492666015625,9.839286804199219,0.39481574296951294,1.7682958841323853
1772725513244783600,8.45878369140625,9.719645500183105,0.4713860750198364,1.7539390325546265
1772725513254300400,8.468300537109375,9.650253295898438,0.4977070987224579,1.7180466651916504
1772725513263817000,8.47781689453125,9.585647583007812,0.5000999569892883,1.7228323221206665
1772725513273334000,8.487333984375,9.621540069580078,0.519242525100708,1.7084753513336182
1772725513282850800,8.496850830078126,9.738788604736328,0.5551348328590393,1.7228323221206665
1772725513292367600,8.50636767578125,9.889535903930664,0.5431707501411438,1.703689694404602
1772725513301884200,8.51588427734375,9.978070259094238,0.47617170214653015,1.6965112686157227
1772725513311401000,8.52540087890625,10.001998901367188,0.3756731450557709,1.698904037475586
1772725513320917800,8.534917724609375,9.992427825927734,0.349352091550827,1.7084753513336182
1772725513330434600,8.5444345703125,9.980463027954102,0.33020952343940735,1.7156537771224976
1772725513339951400,8.553951416015625,9.980463027954102,0.31345975399017334,1.7515461444854736
1772725513349468200,8.56346826171875,9.93260669708252,0.31824541091918945,1.710868239402771
1772725513358985000,8.57298486328125,9.839286804199219,0.35413774847984314,1.667797327041626
1772725513368501800,8.582501708984376,9.736394882202148,0.42352959513664246,1.703689694404602
1772725513378018600,8.5920185546875,9.659825325012207,0.49292147159576416,1.7060825824737549
1772725513387535400,8.601535400390626,9.652647018432617,0.5359922647476196,1.7012969255447388
1772725513397052200,8.61105224609375,9.743574142456055,0.5838487148284912,1.7060825824737549
1772725513406569000,8.62056884765625,9.834501266479492,0.5958128571510315,1.6869399547576904
1772725513416085800,8.630085693359375,9.865608215332031,0.5694918036460876,1.6701902151107788
1772725513425602600,8.6396025390625,9.868000984191895,0.5000999569892883,1.679761528968811
1772725513435119400,8.649119384765624,9.832108497619629,0.4307080805301666,1.6845471858978271
1772725513444636200,8.65863623046875,9.789037704467773,0.40677985548973083,1.7156537771224976
1772725513454152700,8.668152587890624,9.844072341918945,0.4163511395454407,1.710868239402771
1772725513463669500,8.67766943359375,9.92542839050293,0.3756731450557709,1.7180466651916504
1772725513473186300,8.687186279296874,9.956535339355469,0.3397808074951172,1.7587246894836426
1772725513482703000,8.696703125,9.91107177734375,0.28953152894973755,1.7180466651916504
1772725513492220000,8.706219970703126,9.820143699645996,0.34217363595962524,1.730010747909546
1772725513501736700,8.71573681640625,9.719645500183105,0.4307080805301666,1.7324036359786987
1772725513511253500,8.72525341796875,9.621540069580078,0.5216353535652161,1.7252250909805298
1772725513520770300,8.734770263671875,9.674181938171387,0.5647061467170715,1.6845471858978271
1772725513530287000,8.744287109375,9.547362327575684,0.607776939868927,1.679761528968811
1772725513539804000,8.753803955078125,9.501898765563965,0.5694918036460876,1.734796404838562
1772725513549320700,8.76332080078125,9.710074424743652,0.5335994362831116,1.7252250909805298
1772725513558837500,8.77283740234375,9.93978500366211,0.5072783827781677,1.7443677186965942
1772725513568354300,8.782354248046875,10.05703353881836,0.5096712112426758,1.6534404754638672
1772725513577871000,8.79187109375,10.138389587402344,0.5838487148284912,1.550549030303955
1772725513587388000,8.801387939453125,10.162318229675293,0.5096712112426758,1.521835207939148
1772725513596904400,8.810904541015624,10.243673324584961,0.4091726839542389,1.5553346872329712
