time,seconds_elapsed,z,y,x
1772708995483497500,0.02549755859375,-3.198776167565584,0.09904255803227424,-1.7459791594535112
1772708995493522400,0.0355224609375,-2.639596808928251,0.29130934320688245,-1.5610858256563542
1772708995503547400,0.04554736328125,-1.8398025215327738,0.4871335286021232,-1.4463473935812712
1772708995513573400,0.055573486328125,-0.8204314172327518,0.790993725824356,-1.4425646601721644
1772708995523598300,0.065598388671875,0.16251929716467856,1.0885621294260024,-1.598795086325705
1772708995533623600,0.07562353515625,1.0126467644810675,1.3840817838042974,-2.0781717171907426
1772708995543648500,0.0856484375,1.909087362422049,1.9304981069803238,-2.6667712315797805
1772708995553673200,0.095673095703125,2.4336077878713605,2.460172554191947,-2.952175442396104
1772708995563698200,0.1056982421875,2.512717564943433,2.7783967923313377,-2.9746853803679345
1772708995573723400,0.115723388671875,2.3582225842803717,3.1240333535313605,-2.808847752435505
1772708995583749400,0.125749267578125,1.9005989355400204,3.411024833539128,-2.5835455436214803
1772708995593774300,0.1357744140625,1.3285589262858033,3.48927711699903,-2.603693428637087
1772708995603799300,0.14579931640625,1.0820815352350472,3.6545711395740508,-2.833424852070212
1772708995613824300,0.15582421875,1.1694552827835083,3.9105373667210337,-2.986363543201983
1772708995623849500,0.165849365234375,1.4853227286636828,4.409344381982088,-2.9275246930032965
1772708995633874400,0.17587451171875,2.0012550662487745,5.275089689669013,-2.9355720981195565
1772708995643900400,0.185900390625,2.7239590997010468,6.305259251359105,-3.5206469455137848
1772708995653925400,0.19592529296875,2.7652731068640946,6.7665995825350285,-3.220434164883196
1772708995663950300,0.205950439453125,2.461507602187991,6.056330083242059,-2.503072953763604
1772708995673975600,0.2159755859375,2.0333985094845293,5.265120668840408,-1.9624334604233502
1772708995684000300,0.226000244140625,1.4778215592533348,5.064045138788223,-1.640330627284944
1772708995694025200,0.236025146484375,1.361004859599471,5.400063976815343,-1.9505951385915279
1772708995704051200,0.24605126953125,1.6190753655493257,6.084804482576251,-2.4387846059873697
1772708995714076200,0.256076171875,2.070794466421008,6.467929939693212,-2.6246163896784185
1772708995724101400,0.266101318359375,2.388310264030099,6.329824368295073,-2.5384347745239735
1772708995734126300,0.276126220703125,2.5129683248341084,5.83523058681488,-2.1032652419149875
1772708995744151300,0.2861513671875,2.462605918818712,5.184874581214785,-1.5140160314455628
1772708995754176300,0.29617626953125,2.3856419216036797,4.733481643557548,-0.9693082657530904
1772708995764202200,0.3062021484375,2.2086381720125674,4.457673236343265,-0.47752515777945514
1772708995774227500,0.3162275390625,1.7942647591948508,4.117649838849902,-0.15320026467740536
1772708995784252400,0.32625244140625,1.158480299782753,3.6552339873969553,-0.1069090536236763
1772708995794277400,0.33627734375,-1.0399462748169899,2.577292620706558,-0.5728498643323778
1772708995804302300,0.34630224609375,-0.4844529112160206,2.046767109623551,-1.1678270970597862
1772708995814327600,0.35632763671875,-0.27863106341958044,2.1620476857513187,-1.6362228997051715
1772708995824353500,0.366353515625,-1.7650141147911547,1.1103075127661228,-1.3671610441416502
1772708995834378500,0.37637841796875,-2.3031793269723653,-1.2665133890002964,-0.5404299422428012
1772708995844403200,0.3864033203125,-2.612821030205488,-3.578115091881156,1.0925441847994923
1772708995854428400,0.396428466796875,-2.631133516487479,-3.1204338677346706,1.1441688658356666
1772708995864453400,0.406453369140625,-3.0663281835377214,-1.5031635057806967,-0.5295113656044006
1772708995874478300,0.416478271484375,-4.170708644342422,-1.684745815333724,0.1415235631480813
1772708995884505000,0.426505126953125,-4.489671133628487,-1.814568711555004,1.4056900967612862
1772708995894530000,0.436530029296875,-4.035440342196822,-1.633407842284441,2.3563638046711683
1772708995904555000,0.446554931640625,-3.4567683475822206,-1.4094664004296062,2.656184371113777
1772708995914580200,0.456580322265625,-2.9293846416562794,-1.134198091441393,2.4943293830767272
1772708995924605200,0.466605224609375,-2.4672353321850298,-1.6683073062300682,2.3991443772554395
1772708995934630000,0.4766298828125,-1.9341823484510183,-1.806271423330903,1.789057545940578
1772708995944654800,0.48665478515625,-1.2955623733520507,-1.516483006080985,-0.5186185079291462
1772708995954680800,0.496680908203125,-0.8394225334286689,-1.4519821845978498,-2.368727319420874
1772708995964706000,0.5067060546875,-0.2009983731627464,-0.6475964777588844,-2.700093947727978
1772708995974731000,0.51673095703125,0.15077742144465445,0.32863749560415745,-2.6574866858839985
1772708995984756000,0.526755859375,0.5981576163291931,1.25835697055161,-1.8611568597286938
1772708995994781000,0.536781005859375,1.2507786442518234,2.26915313872993,-0.9228165636911988
1772708996004806100,0.54680615234375,0.9360141911774873,2.9202047253787518,-0.7481967866271734
1772708996014832000,0.55683203125,1.1704805341780185,3.2106963224619625,-0.14885346764475108
1772708996024857000,0.566857177734375,3.431838488987088,3.4010295092254874,0.584349163468182
1772708996034882000,0.576882080078125,3.1686294511049984,3.199990804052353,-0.8145807915084063
1772708996044907000,0.586906982421875,3.8531162743657825,2.885009493356943,0.22708076279386877
1772708996054932200,0.59693212890625,3.7608512476444242,2.5552386098086832,0.9498260050393641
1772708996064957200,0.606957275390625,3.3498002572476864,2.9190058709830042,0.8175828959338366
1772708996074983200,0.616983154296875,2.964802576518059,3.1402731251925227,0.49841450881212945
1772708996085008100,0.627008056640625,2.4252362653672694,2.7674299926370383,0.1124002714511007
1772708996095032800,0.63703271484375,1.8711258805572986,2.4498405452698466,-0.5573220403328537
1772708996105058000,0.64705810546875,1.2931582348197699,2.674524329924583,-0.8596475022684782
1772708996115083000,0.6570830078125,0.3573299216032028,3.1495974183768034,-0.5270074930246919
1772708996125108000,0.66710791015625,-0.6115642103910446,3.61917483202219,0.024504874648712573
1772708996135134000,0.677134033203125,-1.048812302839756,4.156601793056726,0.4364681575847789
1772708996145159000,0.687158935546875,-1.0128858339339495,4.810900398802757,0.5554205540930852
1772708996155184000,0.69718408203125,-0.9975649306833744,5.092819982373714,0.6301778715766966
1772708996165209000,0.707208984375,-1.0468021320611238,5.150801631221175,0.7927557670608163
1772708996175234000,0.717234130859375,-0.8690022636562585,5.384589928829669,0.7467533828858286
1772708996185259000,0.727259033203125,-0.7188029343605041,5.716033129504322,0.05418199170301668
1772708996195285000,0.737284912109375,-1.0263397742688656,5.764823171636462,-0.8806270158026367
1772708996205310200,0.747310302734375,-1.4335779283791779,4.8852340475142,-0.33429091825596985
1772708996215335200,0.757335205078125,-2.519654086208343,4.833542438721657,-0.030018642234662544
1772708996225360000,0.76735986328125,-3.2386598496645687,5.310657262134551,0.16172792759127913
1772708996235384800,0.777384765625,-3.093029727980494,5.635027747943997,0.37777394002117215
1772708996245410000,0.78741015625,-3.1348581144064664,5.398772183439135,0.7665431751787662
1772708996255435000,0.79743505859375,-3.717296183556318,4.511407164618372,1.423711052750796
1772708996265461000,0.8074609375,-4.795983984699845,2.9070453840762376,1.4458032037019728
1772708996275486000,0.81748583984375,-5.3937008715242145,0.6045049395292997,0.955980070689693
1772708996285511000,0.827510986328125,-4.591711996693909,-2.400126374030113,1.1867271739713847
1772708996295536000,0.8375361328125,-3.575154196248948,-5.655293706381321,1.8695313048422335
1772708996305561000,0.84756103515625,-3.7054911794722076,-9.806953951382637,2.346112459769845
1772708996315586000,0.8575859375,-6.195323543390631,-14.17343066701889,1.2704368460543454
1772708996325612000,0.867612060546875,-6.163550687032938,-14.190031088685988,1.3100580778248607
1772708996335637000,0.877636962890625,-6.084344463849067,-14.22999601932764,1.2991649278886614
1772708996345662200,0.887662109375,-6.013323885208368,-14.265776942282914,1.2353823376774786
1772708996355687200,0.897687255859375,-5.976763210052251,-14.284355386024712,1.1432618339933454
1772708996365712000,0.9077119140625,-5.958328558695316,-14.294279398667811,1.0741829640049487
1772708996375736800,0.91773681640625,-5.950034777602553,-14.298717088854312,1.0702429211422801
1772708996385762800,0.9277626953125,-5.969851238706708,-14.287999295485019,1.1283872132055461
1772708996395788000,0.9377880859375,-6.028361295342445,-14.257657933235167,1.2110768945910035
1772708996405813000,0.94781298828125,-8.219327617064119,-9.589031915947794,0.08293421246474608
1772708996415838000,0.957837890625,-4.222212621608376,-7.065287930077314,0.09073953418713063
1772708996425863000,0.96786279296875,-0.007722995467483997,-3.9464275952696797,1.6067754175551234
1772708996435888000,0.97788818359375,2.8114713789373633,-0.9059797029197215,2.922377977764606
1772708996445914000,0.9879140625,3.7741666562914844,1.3707353954970836,2.4279756272032857
1772708996455939000,0.99793896484375,3.8405280109494924,2.944189412078261,0.08788816334400326
1772708996465964000,1.007964111328125,3.6245658774107694,3.879327989464998,-2.26675148441568
1772708996475989000,1.017989013671875,3.79973568957299,4.691434645944834,-3.1393934197485445
1772708996486014200,1.02801416015625,4.64119791213572,5.650771845042705,-3.043744011285901
1772708996496039200,1.0380390625,5.6910150081038475,6.8635606581181285,-2.3408579002425074
1772708996506064000,1.04806396484375,6.983019396713376,7.99515002836585,-1.01842629773058
1772708996516089900,1.05808984375,8.078338014662265,8.78492619509399,0.4157316955588758
1772708996526114800,1.06811474609375,9.0225448646456,8.923782292598485,2.132808147263527
1772708996536140000,1.07814013671875,9.78947265522778,8.354496550488472,3.369592168432474
1772708996546165000,1.0881650390625,9.857628492087125,7.732019316416978,3.5929254152610897
1772708996556190000,1.09818994140625,9.407769924390315,7.493816124975681,3.6276334482878445
1772708996566215000,1.10821484375,8.3923940272063,7.692116929617524,4.032155913698673
1772708996576241000,1.118240966796875,6.945135948520899,7.557970324978232,4.862188979752362
1772708996586266000,1.12826611328125,5.174152696192264,6.935878875353932,5.1533700204044575
1772708996596291000,1.138291015625,1.9445514745131134,6.043176587158441,5.310870612624288
1772708996606316000,1.14831591796875,1.5513967908129096,5.759588193592429,4.071350444489717
1772708996616341000,1.158341064453125,2.65334417925179,6.208207574883103,2.8529934758931397
1772708996626366200,1.1683662109375,3.4288030668139458,5.786475615996122,2.7079502141863108
1772708996636391000,1.178390869140625,4.185808598318696,5.596015587982535,2.497468557885289
1772708996646417200,1.188417236328125,4.521471170254052,6.122289871361851,2.5796996818482874
1772708996656441900,1.19844189453125,4.471933524625003,6.8325605396986,1.9225252284049987
1772708996666467000,1.208467041015625,4.30566481179893,7.688326889684796,0.21068806559331713
1772708996676492000,1.218491943359375,4.760996257948875,6.871514247471094,0.8506075059182941
1772708996686517000,1.22851708984375,5.0353182259976865,6.252417888009548,1.3366804195515811
1772708996696542000,1.2385419921875,4.608018988372385,6.128331489613652,1.0330529351066797
1772708996706568000,1.24856787109375,4.410906516732275,5.900870641461014,0.710644616215676
1772708996716593200,1.25859326171875,4.104477053543925,5.650001445192098,0.37635114067643877
1772708996726618000,1.2686181640625,3.6019781980276107,5.445173869130015,-0.3085710052616894
1772708996736643000,1.27864306640625,3.451521679100394,6.452318529063463,-1.2117578625924885
1772708996746668000,1.28866796875,3.4467449662178753,8.654160465064644,-1.368388540109992
1772708996756693200,1.298693359375,2.714197584143281,8.359098491325973,-1.4778411407366394
1772708996766718200,1.30871826171875,0.800029849717021,6.772751675423979,-1.348696728298813
1772708996776744200,1.318744140625,-3.9889498091787097,4.502952640005946,-1.1237794271491468
1772708996786769200,1.32876904296875,-3.213597889122367,4.582556338074803,-2.923803626653552
1772708996796793900,1.3387939453125,-1.5833365281701086,4.956748547151684,-3.6409032642275094
1772708996806819000,1.348819091796875,-3.6514188130229708,3.6393940287083386,-2.999382891511917
1772708996816844000,1.358843994140625,-6.6511126701802015,1.7168395742088556,0.0001289601419121027
1772708996826869000,1.368868896484375,-10.866724870610236,-0.05427402650117874,1.6742548164576292
1772708996836895000,1.37889501953125,-14.297786530005931,-2.8459605085164306,2.3854047518469392
1772708996846920000,1.388919921875,-15.344854619526862,-7.255073419830203,2.2509739234387873
1772708996856945200,1.398945068359375,-15.54861076696515,-7.136133152151108,2.2153042057730254
1772708996866970000,1.40897021484375,-15.760075589084625,-7.019971117013692,2.1950439464241267
1772708996876995000,1.4189951171875,-15.898814197689294,-6.946611281770467,2.131929610863328
1772708996887019300,1.429019287109375,-15.926744991666078,-6.93170538906157,1.9872214263297616
1772708996897044200,1.439044189453125,-15.860131708073615,-6.969082056775688,1.7765538920678197
1772708996907070200,1.4490703125,-15.744929457879065,-7.039682364177703,1.5354115784347055
1772708996917095200,1.45909521484375,-15.619038640409707,-7.12311117349267,1.3184335458517074
1772708996927120100,1.4691201171875,-15.504754089581965,-7.199621581721305,1.183829552833736
1772708996937145300,1.479145263671875,-15.412114384329318,-7.255839143505692,1.1591067611180246
1772708996947170300,1.48917041015625,-15.343116251426935,-7.287993108135462,1.24947925209105
1772708996957195300,1.4991953125,-15.292572643625736,-7.303901455885171,1.4285221062943338
1772708996967221200,1.50922119140625,-15.254509747213124,-7.314965286213159,1.6367570065818726
1772708996977246200,1.51924609375,-4.628957439243793,-9.228315274515747,-6.349616279479861
1772708996987271400,1.529271484375,-3.32286256596148,-5.866389695188403,-6.655546268713474
1772708996997296400,1.53929638671875,-1.276122928866744,-1.7042010419100522,-5.300463200378418
1772708997007321300,1.5493212890625,0.49278819336295127,1.1608745014429092,-2.5564061922833323
1772708997017346000,1.559345947265625,2.5529215650379657,2.6466028882980344,-0.2844992613332346
1772708997027371300,1.569371337890625,4.438104027998447,3.3986668717473743,0.4743247543029487
1772708997037397200,1.579397216796875,5.794271968960762,4.365958829241991,0.030474943767953663
1772708997047422200,1.589422119140625,6.215668412283063,5.556577896085381,-0.7265139471292495
1772708997057447200,1.599447265625,6.056893562343716,6.613269553998112,-1.3891348294101655
1772708997067472100,1.60947216796875,5.908877422305941,7.602974418830871,-2.1049863666191695
1772708997077497300,1.619497314453125,5.835479008617996,8.252640688601137,-2.2085219982869924
1772708997087522300,1.629522216796875,5.687254778787493,8.252305757558345,-1.7549186911039054
1772708997097547300,1.63954736328125,5.293121020922064,8.125189782208205,-1.2349237802550197
1772708997107573200,1.6495732421875,4.825678281217813,7.857003540435433,-0.9718632109329104
1772708997117598200,1.65959814453125,4.455519273179769,7.342624277511239,-1.1715575888250023
1772708997127623400,1.66962353515625,4.365948307847977,6.883356660956144,-1.6958154908806085
1772708997137648400,1.6796484375,4.8236266093850135,6.662067779436707,-2.327296407879889
1772708997147673000,1.689673095703125,5.429570057284832,6.511269315204024,-2.7738746387317774
1772708997157698000,1.699697998046875,5.809465446439385,6.530424097529053,-2.566091427734494
1772708997167723300,1.70972314453125,5.94011836374402,6.884490048900246,-1.1950552957251668
1772708997177749200,1.719749267578125,5.921303188636899,6.737921769583225,0.5885552368558943
1772708997187774200,1.729774169921875,5.966699496677518,6.320813963365555,1.9950288852103053
1772708997197799200,1.739799072265625,6.14940876443386,6.241933903396129,2.5568255867391825
1772708997207824100,1.74982421875,6.246182793012261,6.248300515818595,2.2776951954953373
1772708997217849300,1.759849365234375,6.2594274745106695,5.994658347705006,1.3491878728166222
1772708997227874300,1.769874267578125,6.186847975990176,5.547606654122472,0.10367993550933897
1772708997237900300,1.779900390625,5.9118906326472755,5.170937241277098,-1.234246319384873
1772708997247925200,1.78992529296875,5.321154106229543,4.975025377598405,-2.3804952063649893
1772708997257950200,1.7999501953125,3.9835330448269843,5.083014043152332,-3.1468197703570127
1772708997267975400,1.809975341796875,1.9073025248318909,5.242607808259129,-2.9271541061252355
1772708997278000400,1.82000048828125,1.4612322435021399,5.8087891546130175,-2.9927085283145307
1772708997288025000,1.830025146484375,0.7759703442156315,6.456982429221272,-2.9332132600337264
1772708997298050000,1.840050048828125,0.203979434800148,7.0890130890578025,-2.5963001035153863
1772708997308076000,1.850075927734375,-0.08302548921108245,7.693266099652647,-2.0120574691615998
1772708997318101200,1.860101318359375,-0.1188116728633642,7.963655988949537,-1.5874553616657852
1772708997328126200,1.870126220703125,-0.0035340193450450895,7.9912588661462065,-1.736975184264779
1772708997338151200,1.880151123046875,0.4047229564189911,8.14929078876376,-1.9275639532245694
1772708997348176100,1.890176025390625,0.8183955274909734,8.023468360355496,-1.9309063955202697
1772708997358201300,1.900201416015625,1.1387871727973222,7.587654100102186,-1.4455788934268057
1772708997368226300,1.910226318359375,1.5456763673394918,6.048223933675885,-0.8929471298020333
1772708997378252300,1.920252197265625,1.339452953004837,4.165038197490572,-1.3431784032687544
1772708997388277200,1.93027734375,-0.3278407922685146,3.517910506287217,-1.1742169442273676
1772708997398302200,1.94030224609375,-4.707755081626773,1.3056038748949765,0.10688976440131663
1772708997408327400,1.950327392578125,-9.52322234995365,-2.6602678410351275,1.1109235988378525
1772708997418352000,1.96035205078125,-11.011726046741009,-6.490893466651439,1.2138630181781946
1772708997428377000,1.970377197265625,-7.074619237524271,-9.26137641711831,0.23376177492775022
1772708997438402000,1.980402099609375,-1.8194424550712107,-11.847964104914665,-1.2646405808657406
1772708997448428000,1.990427978515625,-1.2861585851907729,-15.802265210038422,-1.0755579786852
1772708997458453200,2.000453369140625,-1.1370131488621233,-15.921903981375694,-1.2495718988105653
1772708997468478200,2.010478271484375,-0.9929419470578431,-16.052977169919014,-1.4796163337156176
1772708997478503200,2.020503173828125,-0.9106009329795837,-16.147216127061842,-1.7061403394095598
1772708997488528100,2.030528076171875,-0.8768518081128597,-16.200657794392107,-1.8705398973628877
1772708997498553300,2.04055322265625,-0.841332166442275,-16.239381200540066,-1.929912854438275
1772708997508578300,2.050578369140625,-0.7746440640479326,-16.281452748072148,-1.8683232442267237
1772708997518604300,2.060604248046875,-0.6880190890401602,-16.325584150743484,-1.7118699691027401
1772708997528629200,2.070629150390625,-0.6043126318275928,-16.366277395659683,-1.5146490686520933
1772708997538654200,2.080654296875,-0.5400421119689941,-16.39877330559492,-1.3355378253877161
1772708997548679400,2.090679443359375,-0.4998854581475258,-16.420643776619432,-1.2131888452436774
1772708997558704000,2.1007041015625,-11.119412514477968,-5.973944060978293,-4.849213178323209
1772708997568729000,2.11072900390625,-7.602047367113828,-3.4624691895723343,-3.481742337580025
1772708997578755000,2.120755126953125,-4.472593157577514,-2.0629887611061335,-1.277828709871322
1772708997588780300,2.1307802734375,-1.9843267278015613,-1.429419055134058,0.09741656426563858
1772708997598805200,2.14080517578125,0.43569326422214505,-0.9795347684741019,-0.03110949707813561
1772708997608830200,2.150830322265625,2.582280345991254,-0.6547732375204562,-0.9937566244415938
1772708997618855200,2.160855224609375,4.087487340298295,0.4142804738372564,-1.6459119345486164
1772708997628880400,2.17088037109375,5.054703309947252,2.2580103979468342,-2.2926471193030475
1772708997638905300,2.1809052734375,5.725833223506808,3.8678140772819516,-2.693708046083152
1772708997648931300,2.190931396484375,6.1840229816973205,5.128931744718551,-2.385286824555695
1772708997658956300,2.200956298828125,6.482696131670474,6.102438923466205,-1.558700976346433
1772708997668981200,2.210981201171875,6.9748530413925645,6.488246167013049,-0.514786382420361
1772708997679006500,2.22100634765625,7.576061861985921,6.41190760821998,0.3710773649919778
1772708997689031200,2.23103125,8.036950942263006,6.313752938938141,0.9832526199534535
1772708997699056000,2.24105615234375,8.157152608180045,6.42936493897736,1.0894984604280442
1772708997709081000,2.2510810546875,8.054519332179426,6.502420822837949,0.6754992146849632
1772708997719107000,2.261107177734375,7.950335904127359,6.458437304204702,0.09817388543896377
1772708997729132300,2.27113232421875,7.805863135784864,6.218314542877674,-0.3344854909799993
1772708997739157200,2.2811572265625,7.6379866955012075,6.219826116484403,-0.5381012435669079
1772708997749182200,2.29118212890625,7.397288764634728,6.494677076843381,-0.5313240045169368
1772708997759207200,2.301207275390625,7.1552172073274845,7.058285942360758,-0.09549933246746659
1772708997769232400,2.311232421875,6.901141323971748,7.44521663697958,0.6348477630838751
1772708997779257300,2.32125732421875,6.575667845356464,7.571461090192198,1.4165322471626103
1772708997789283300,2.331283447265625,6.119632634851336,7.719913868081569,2.1105887166708706
1772708997799308300,2.341308349609375,5.583688021329045,7.699944262242317,2.3320304506644605
1772708997809333200,2.351333251953125,5.132802448672056,7.696162405616045,2.0538877552837134
1772708997819358500,2.3613583984375,5.0844917144894595,7.749022473666072,1.6819320730872451
1772708997829383200,2.371383056640625,5.1260512208461755,7.459331671571731,1.2885681305505334
1772708997839408000,2.381408203125,4.861314827266336,7.126040797203779,0.8028424959849566
1772708997849433000,2.39143310546875,4.464188317325711,6.821423644134402,0.03533733477308414
1772708997859459000,2.401458984375,4.034723133838177,6.792467014241218,-0.7776078092243522
1772708997869484300,2.411484375,3.3970231961935755,6.731610686740279,-1.2225444834142922
1772708997879509200,2.42150927734375,2.9194115291744467,6.54816550592482,-1.3462386676222085
1772708997889534700,2.43153466796875,2.753205652451515,6.52386517740488,-1.399055919443816
1772708997899559700,2.4415595703125,2.5907331170380115,6.663183631724118,-1.3369973765462637
1772708997909584600,2.451584716796875,2.500266664171219,6.715902245476841,-0.9857837458662688
1772708997919609600,2.461609619140625,2.480959906154871,6.577447714510559,-0.6234083043765276
1772708997929635800,2.4716357421875,2.222186220371723,6.574020078149437,-0.3228768862508237
1772708997939660500,2.48166064453125,1.534394510346651,6.310197876805066,-0.2257985957625322
1772708997949685500,2.491685546875,0.5320481906056403,6.010100831508636,-0.6887384893558919
1772708997959710700,2.501710693359375,-0.2981868277609348,6.025646775686741,-1.0406506236940622
1772708997969735700,2.511735595703125,-0.8176052538961172,5.620576028743386,-0.7012008613701909
1772708997979760600,2.5217607421875,-1.059763904964924,3.346498293092847,0.15356160880308597
1772708997989785600,2.53178564453125,-1.6588988418936728,-0.18711130210757254,1.3936920543231068
1772708997999811600,2.5418115234375,-3.297595438235998,-5.574560712021589,3.3322333286359904
1772708998009836800,2.5518369140625,-4.99911060206294,-12.64039341650009,5.776670845818519
1772708998019861800,2.56186181640625,-4.716486085093021,-16.21404568375349,5.770456209087372
1772708998029886700,2.57188671875,-4.7414410781294105,-16.19940224137306,5.805438090619445
1772708998039911700,2.58191162109375,-4.686478484842181,-16.231921532183886,5.758371803539991
1772708998049937000,2.59193701171875,-4.563132675680518,-16.308346600216627,5.607511379987001
1772708998059961600,2.601961669921875,-4.433420838618278,-16.395477771180868,5.4224102486580605
1772708998069987800,2.61198779296875,-4.344840053367615,-16.459766995739937,5.284307015347481
1772708998080012500,2.622012451171875,-4.289892657649517,-16.49855353025198,5.244217581543326
1772708998090037500,2.63203759765625,-4.236475540238619,-16.529348481488228,5.3315603494316335
1772708998100062700,2.642062744140625,-4.174287087351083,-16.563502095502614,5.535707542014122
1772708998110087700,2.652087646484375,-4.125052808582782,-16.594489938962457,5.792493853372335
1772708998120112600,2.662112548828125,-4.103837002074719,-16.614010631990432,6.036772565335035
1772708998130137600,2.6721376953125,-4.104088346487283,-16.623159568607807,6.235305425167083
1772708998140163600,2.68216357421875,-4.16780357055068,-10.41227196086049,-6.38535219424963
1772708998150188800,2.692188720703125,-1.6654957559406756,-6.455614647999406,-6.268447816312313
1772708998160213800,2.7022138671875,0.22384441122114657,-2.353265838655829,-5.196534623870253
1772708998170238700,2.71223876953125,1.7002034967064856,0.7922627228468656,-3.78675521196872
1772708998180263700,2.722263671875,3.265456086653471,2.629533680075407,-2.4921084921568633
1772708998190288600,2.73228857421875,4.647088139218091,3.4304297912329433,-1.236966976520419
1772708998200313600,2.742313720703125,4.693946921026707,3.9466140577524897,-0.11008768365979194
1772708998210339600,2.752339599609375,3.6749779677867886,4.668736491924524,0.4119743157867342
1772708998220364500,2.762364501953125,2.3097376625746486,4.992184602192044,0.3277961494091898
1772708998230389500,2.772389404296875,1.3716554329514503,5.214712670117616,-0.028037615352123974
1772708998240414700,2.782414794921875,1.4816203670144081,5.632865601474046,-0.5440956251434982
1772708998250439700,2.792439697265625,2.106490633702278,5.69393703303039,-0.9928928472191095
1772708998260464600,2.802464599609375,2.8411516469299793,5.480999215748906,-0.8966456920590251
1772708998270489600,2.812489501953125,3.564563536390662,5.489771135747432,-0.419866018884629
1772708998280515600,2.822515625,4.014446069484949,5.5596676787942645,0.11231149718910455
1772708998290540800,2.832540771484375,4.097106817036867,5.555634477755427,0.4403923087585717
1772708998300565800,2.842565673828125,4.01597400970459,5.485060473838448,0.3429667574688792
1772708998310590700,2.8525908203125,3.9716988146483896,5.59224016109705,-0.08863193091601133
1772708998320615700,2.86261572265625,3.8887417144984004,5.783284126478433,-0.539169055461511
1772708998330640600,2.872640625,3.5912674189209937,6.027416123446822,-0.8191607397098094
1772708998340665600,2.88266552734375,3.3945810637384652,6.288491071909665,-0.8170343221403658
1772708998350691600,2.892691650390625,3.4241794986665246,6.48360038703382,-0.7701085395101457
1772708998360716500,2.902716552734375,3.5442122377574443,6.6400669600307936,-0.7909452105075121
1772708998370741500,2.912741455078125,3.7791385994851585,6.9217767002433535,-0.8083519070561975
1772708998380766700,2.9227666015625,4.067487339320778,7.2400488691776985,-0.7291232528448104
1772708998390791700,2.932791748046875,4.423379921597242,7.36164461980164,-0.5095518427677452
1772708998400816600,2.942816650390625,4.682477432507277,7.338143917226791,-0.34303989577032623
1772708998410841600,2.952841552734375,4.721932075539231,7.48924867092967,-0.2425431934069842
1772708998420866800,2.96286669921875,4.62788133444488,7.676911177179217,-0.11546930363290012
1772708998430892800,2.972892822265625,4.595121805137396,7.608940633758902,-0.003649754679203033
1772708998440917800,2.982917724609375,4.512556334653496,7.4196362055212255,0.2562367877166718
1772708998450942700,2.992942626953125,4.305703974765539,7.2676102453202,0.47314168199822304
1772708998460967400,3.002967529296875,4.016242889773846,7.133746549275517,0.5823235759247094
1772708998470992600,3.01299267578125,3.63760071555078,6.888894421339034,0.6246020442057401
1772708998481017600,3.023017578125,3.12401523335278,6.541700109302997,0.6584622282315046
1772708998491042600,3.03304248046875,2.4947224740475415,6.224646668508648,0.7096843198161572
1772708998501068500,3.043068603515625,1.8509709812790154,6.027753977099061,0.6855598593197763
1772708998511093500,3.053093505859375,1.4489274732023476,5.935907468050718,0.7082658313203603
1772708998521118700,3.06311865234375,1.1371879209071396,5.582828189629316,0.9109839409478008
1772708998531143700,3.073143798828125,0.5386170476019382,4.642636420506238,1.131594704009965
1772708998541168600,3.083168701171875,-0.5351309590518474,3.2158792780578134,1.3438807063192129
1772708998551193600,3.093193603515625,-1.622357455959916,1.6476479645609854,1.6417257349051535
1772708998561218800,3.10321875,-2.823067124184966,-0.061439680346846576,1.8348410997331142
1772708998571244800,3.113244873046875,-4.986593650317192,-3.3061826493173836,2.762702087332308
1772708998581269800,3.123269775390625,-7.796420184656977,-9.663604634112119,4.966774266603589
1772708998591294700,3.133294677734375,-7.713971034029126,-15.267735139489172,4.763750525093078
1772708998601319400,3.1433193359375,-7.931107472044229,-15.163275232583283,4.924574708777666
1772708998611344600,3.1533447265625,-8.112894364258647,-15.082057085055112,5.046022575363517
1772708998621369600,3.16336962890625,-8.215763787102699,-15.034025752335786,5.0593631184518335
1772708998631394600,3.17339453125,-8.23219469742179,-15.019350745773314,4.970473705643415
1772708998641420500,3.183420654296875,-8.178563644999265,-15.03491539465189,4.8207773574337365
1772708998651445500,3.193445556640625,-8.072177153944969,-15.078492670571803,4.658444230490923
1772708998661470700,3.203470703125,-7.933267864948511,-15.143894824808836,4.533694399750233
1772708998671495700,3.21349560546875,-7.771634702968597,-15.22683964999914,4.4776714837551115
1772708998681520600,3.223520751953125,-7.59741970731318,-15.322268693709372,4.498661080291867
1772708998691545600,3.233545654296875,-7.433146844479441,-15.418337204366921,4.583531612847745
1772708998701570800,3.24357080078125,-7.6190201292246575,-10.64658925077915,-4.798558803623915
1772708998711596800,3.2535966796875,-6.735100282421707,-7.421796598425507,-6.693387046808004
1772708998721621800,3.263621826171875,-4.090997978767753,-4.503083572909236,-6.916161782971024
1772708998731646700,3.273646728515625,-0.39442718785405156,-1.6900526895701884,-5.502404991871118
1772708998741671700,3.283671630859375,2.656600550699234,0.5502671533852815,-3.4805990127637982
1772708998751696600,3.293696533203125,4.54654745158255,2.44703717828691,-1.499776493690908
1772708998761721600,3.3037216796875,5.528365947079658,4.039007679289579,0.33533578766640276
1772708998771746600,3.31374658203125,5.730058147725463,4.877874916923046,1.4435390581622718
1772708998781772500,3.3237724609375,5.196421811145544,5.574037564930319,1.599427977401763
1772708998791797800,3.3337978515625,4.023160706338286,6.182596163764596,1.1287443560801447
1772708998801822700,3.34382275390625,2.6967472676485778,6.300905732324719,0.3325042175022885
1772708998811847700,3.35384765625,1.6616075163304804,6.415287898308038,-0.3574595393322408
1772708998821872600,3.36387255859375,1.4136749580353498,6.569511076292395,-1.0468929521497339
1772708998831897900,3.37389794921875,1.99632111697793,6.599813275575637,-1.563298241008818
1772708998841922800,3.3839228515625,2.912092730593681,6.3822366925776,-1.6075032934382556
1772708998851947500,3.393947509765625,3.6488159370481967,6.046130760788917,-1.236062428896129
1772708998861973800,3.403973876953125,4.254010612407327,5.90807779636085,-0.7175762421097606
1772708998871998500,3.41399853515625,4.618222110217809,5.956788343515992,-0.21780673849210141
1772708998882023700,3.424023681640625,4.736177458512783,5.923523787295818,0.32239648232273754
1772708998892049000,3.434048828125,4.6532653665482995,5.65551874730885,0.70931307535097
1772708998902073900,3.444073974609375,4.31707760169506,5.388960983520746,0.8546814773589372
1772708998912098600,3.4540986328125,3.7544986637473103,4.885356212589144,0.8035019097417593
1772708998922123800,3.464123779296875,3.3533190790235996,4.693110470202565,0.5347974893137812
1772708998932149800,3.474149658203125,3.235988584628701,4.69002361010313,-0.03605053367689252
1772708998942174700,3.4841748046875,3.1988398804515596,4.678725386497378,-0.7163845481071621
1772708998952199700,3.49419970703125,3.178393889272213,4.73847696762681,-1.453113526715338
1772708998962224600,3.504224609375,3.3010657446950673,4.967577399680018,-2.341826453013718
1772708998972249900,3.514249755859375,3.40790640925765,5.375874122932553,-2.7459742398932576
1772708998982274800,3.52427490234375,3.179447782239318,5.933129820030928,-2.322359535999596
1772708998992299800,3.5342998046875,2.5939748754382133,6.4027680239528415,-1.1872995670318602
1772708999002325800,3.54432568359375,2.136549087357521,6.748503369352221,0.10357640206962823
1772708999012350700,3.554350830078125,1.8349556660234927,7.213588147753477,0.9435305581569671
1772708999022376000,3.5643759765625,1.443488497018814,7.701819992986321,1.3195619653597472
1772708999032401000,3.57440087890625,1.1700485725015402,7.985276869127154,1.2669056031882762
1772708999042425600,3.584425537109375,0.8922446075558662,7.824839638933539,0.8276509932227433
1772708999052450600,3.594450439453125,0.4853928224146366,7.530377384653687,0.08644696982605382
1772708999062475800,3.604475830078125,0.011034019711613654,7.266463413372636,-0.8153006302155554
1772708999072500700,3.614500732421875,-0.5124649537354707,6.890661431011557,-1.5342876889713108
1772708999082526700,3.624526611328125,-0.9537059152126312,6.49396980535686,-1.7570197550363837
1772708999092551700,3.6345517578125,-1.1731716729581356,5.975101998841763,-1.540902430935949
1772708999102576600,3.64457666015625,-0.9363435692623258,5.080166252505779,-0.8469996906846761
1772708999112601900,3.654601806640625,-0.6996256479427218,3.41695247002244,-0.42782910671830177
1772708999122626800,3.664626708984375,-0.6317889600351453,1.510354878589511,-0.8601381353296339
1772708999132651800,3.67465185546875,-1.1013695885509251,-0.22943594761788844,-1.435996679958701
1772708999142676700,3.6846767578125,-2.446019233416021,-2.5121096621781587,-0.7911408792100846
1772708999152702700,3.69470263671875,-4.122891246634722,-5.423050884649157,0.6837029063414782
1772708999162728000,3.70472802734375,-6.031127252924442,-8.118050431847571,2.106108356386423
1772708999172753000,3.7147529296875,-7.100719308942556,-8.5971754260391,2.5184862114727498
1772708999182777600,3.724777587890625,-6.666889500504732,-8.934380258980394,1.8931344448782503
1772708999192802600,3.734802490234375,-5.758333225095272,-11.483708767962455,1.968239516353607
1772708999202827800,3.744827880859375,-4.8464159488201135,-13.322488376188277,3.058277563551068
1772708999212852700,3.754852783203125,-4.909160866546631,-13.33298171315193,2.87136266079843
1772708999222877700,3.764877685546875,-4.959608612757921,-13.348284496223926,2.7069395758390424
1772708999232903700,3.774903564453125,-4.978630708613991,-13.372805189496278,2.5776731444567442
1772708999242928600,3.7849287109375,-4.942794840601087,-13.412984055149554,2.495627898454666
1772708999252953900,3.794953857421875,-4.834530280715227,-13.476575360572337,2.4634523065149785
1772708999262978800,3.804978759765625,-4.666050029319525,-13.561619788390397,2.474741762292385
1772708999273003800,3.815003662109375,-4.472399096310139,-13.655081331419945,2.521163613988459
1772708999283028700,3.82502880859375,-4.407565097349882,-10.529756184512376,4.203465835562348
1772708999293053700,3.8350537109375,-4.19335302234888,-7.425718155783414,1.9476950332358478
1772708999303080000,3.845079833984375,-3.2051363502472636,-4.993828277745843,0.652477820059657
1772708999313104600,3.855104736328125,-1.9660586651831864,-2.8248621909081932,-0.09206701993122696
1772708999323129600,3.865129638671875,-0.2027811649262905,-1.0167319879680872,0.35378377342894674
1772708999333154600,3.875154541015625,1.0418898101001977,-0.5914513966888189,-0.25600012941658495
1772708999343179800,3.8851796875,0.24078911628127098,0.5006622877389192,-2.4041937695994973
1772708999353204700,3.895204833984375,-1.4284703761070965,1.3444161283701657,-4.228410307204723
1772708999363229700,3.905229736328125,-2.839796725189686,2.2698960660517216,-5.8023646745234725
1772708999373255700,3.915255615234375,-3.5496056212335825,3.61523924613893,-5.907117426896095
1772708999383280600,3.92528076171875,-3.217277454417944,4.419438490495086,-4.370189014157653
1772708999393305900,3.935305908203125,-1.701937188631296,5.009922503456473,-2.7898241952747105
1772708999403330800,3.945330810546875,0.7128618538737297,5.868999000903964,-1.4803076769806445
1772708999413355800,3.955355712890625,3.3345454049706458,6.317835824337601,-0.1814409283209592
1772708999423380700,3.965380615234375,5.682760389977693,5.986958440852165,0.5922999032769352
1772708999433405700,3.97540576171875,7.009353276887536,5.77635345043242,0.8384214666273444
1772708999443430700,3.9854306640625,7.153102991652489,5.953795591440796,0.5992393471512943
1772708999453456600,3.99545654296875,6.508014697322249,6.427597344782948,0.11926168165318667
1772708999463481600,4.005481689453125,5.239707995164394,6.74555854807198,0.06311451822388917
1772708999473506800,4.0155068359375,3.99316362748146,6.56107350281477,0.5919098079808056
1772708999483531800,4.02553173828125,3.3964790063142773,6.796881323552131,1.0643260983139275
1772708999493556700,4.035556640625,3.2932588703364134,7.460208454406261,1.3207241410069166
1772708999503581700,4.045581787109375,3.5479730515956875,7.766535918524861,1.344286949032545
1772708999513607000,4.05560693359375,3.9914679294794797,7.541572147884964,0.9140927936833352
1772708999523632600,4.065632568359375,4.403411484801769,7.389411747649311,0.43544286965765056
1772708999533657900,4.075657958984375,4.4592017610847945,7.280683077383041,-0.2500558523257263
1772708999543682800,4.085682861328125,4.1888305764883755,7.211520693829655,-0.9341386796291917
1772708999553707800,4.095707763671875,3.6364012766331433,7.254231123787164,-1.1821163922403006
1772708999563732700,4.105732666015625,2.93371010363996,7.181144260266422,-1.1166568817928433
1772708999573757700,4.1157578125,2.235532900939882,7.051309673607349,-0.8460475045263767
1772708999583782700,4.12578271484375,1.5816776550471783,6.878230403983593,-0.7075907816030085
1772708999593807600,4.1358076171875,1.317509124483168,6.938471814456582,-0.7839154580011963
1772708999603833600,4.14583349609375,1.3204872635111211,7.26126935186088,-1.003298140573129
1772708999613858800,4.15585888671875,1.4448884269446134,7.363637839445471,-1.1879716941397636
1772708999623883800,4.1658837890625,1.7412544690191745,7.090922722071409,-1.3429719209112225
1772708999633908700,4.17590869140625,2.1701666947990654,6.67715078227818,-1.20338802058883
1772708999643933700,4.18593359375,2.346300675818324,6.201410169827938,-1.0119697420023381
1772708999653959000,4.195958984375,2.213714160102606,6.119190736302733,-1.1106834334064275
1772708999663983900,4.20598388671875,1.8852064283579586,5.881723457920551,-0.9825733324524014
1772708999674008800,4.2160087890625,1.524800752571225,5.5426598453700535,-0.7415672124195843
1772708999684034800,4.226034912109375,0.8557146197989582,5.505196083894372,-0.42317777378112076
1772708999694059800,4.236059814453125,-0.14093173473477363,4.958000008517503,0.4676953992910683
1772708999704084700,4.246084716796875,-1.2730150259792803,3.0940760221630335,2.145806745046377
1772708999714109700,4.256109619140625,-2.1315426573723553,0.35304011545479297,3.948099620135128
1772708999724134700,4.266134765625,-2.6417320673912763,-2.3182559000730514,4.649817564181983
1772708999734159600,4.27615966796875,-3.516477843135595,-4.861183309841156,4.065187537945807
1772708999744184800,4.286184814453125,-5.032746329683065,-7.967931182050704,2.721966464579105
1772708999754210800,4.2962109375,-6.700645639634132,-9.945296254146099,1.1779513084501028
1772708999764235800,4.30623583984375,-7.3356678825020785,-10.702387710368633,0.13843085782974957
1772708999774260700,4.3162607421875,-7.412253109532594,-10.66402904587984,0.14674378201439975
1772708999784285700,4.32628564453125,-7.495846754020452,-10.623290208256243,0.1548052156560123
1772708999794311000,4.336310791015625,-7.5872443502575155,-10.57894837770462,0.1692399837218225
1772708999804335900,4.3463359375,-7.679219454121589,-10.532876362359524,0.20014950124844907
1772708999814360800,4.35636083984375,-7.748280715388059,-10.496208135175705,0.24206337400078773
1772708999824385500,4.366385498046875,-7.762835894963144,-10.481213979661463,0.29965880000963807
1772708999834411800,4.376411865234375,-7.700029602438211,-10.493833807259797,0.40108328474238514
1772708999844436700,4.386436767578125,-7.559352134725451,-10.535504372775554,0.5633567173872143
1772708999854461700,4.396461669921875,-7.363924255171418,-10.605015715897082,0.7617529452275484
1772708999864486700,4.406486572265625,-7.1410209241926665,-10.698466737532614,0.9529538547363132
1772708999874511600,4.41651171875,-3.8778111551612615,-9.837512755775451,-1.8732472566254437
1772708999884537300,4.426537353515625,-3.80157254961133,-6.159905024006963,-1.9923896227478979
1772708999894562300,4.436562255859375,-3.809485806953907,-3.4251153182119127,-1.9559734706290066
1772708999904588300,4.44658837890625,-3.316072175168991,-1.7750053474515675,-2.460882456026971
1772708999914613200,4.45661328125,-2.3892770632356406,-0.20691957990527152,-3.571331715351343
1772708999924638200,4.46663818359375,-0.9572025251567363,1.7643804930627345,-4.521847310090065
1772708999934663200,4.4766630859375,0.5447621262282133,3.533573354843259,-4.799882745704054
1772708999944688000,4.486688232421875,1.6170190175414085,4.883253687351941,-3.7671380728289483
1772708999954713000,4.496713134765625,2.546156893208623,6.053517363908886,-1.8974324343331157
1772708999964738000,4.506738037109375,3.4635482169806955,7.6095497055679555,-0.23565215525161473
1772708999974763300,4.51676318359375,4.396514126503467,8.904929123568534,0.9196380797855556
1772708999984789200,4.526789306640625,5.168294617813825,9.506576335579156,1.7671467429056762
1772708999994814200,4.536814208984375,5.31025043489933,9.15122969674766,2.3838819261938333
1772709000004839200,4.546839111328125,5.025665431511402,8.554163382786513,2.261827325886488
1772709000014864100,4.556864013671875,4.402709474012255,8.226108070984482,1.4434570789672434
1772709000024889300,4.566889404296875,3.611076281240582,8.120427682372927,0.5187064054083079
1772709000034914300,4.576914306640625,2.663532980310917,7.7701465102374545,-0.26733824664130806
1772709000044939000,4.58693896484375,1.8397148432493209,7.382983760428428,-0.6614402211289853
1772709000054964000,4.5969638671875,1.5468483337283134,7.037523140317202,-0.8471986473228782
1772709000064990000,4.606989990234375,1.9779636225104331,6.728745944958924,-0.632645576864481
1772709000075015200,4.61701513671875,2.6255028171241284,6.24148382154107,-0.23316044803373515
1772709000085040000,4.6270400390625,3.0792659910440445,5.674366071119904,0.014615458394959568
1772709000095065000,4.637065185546875,3.2411218558639288,5.143189402651786,0.1910967184819281
1772709000105090000,4.647090087890625,2.9929706863820553,4.742776126125454,0.29761929353866723
1772709000115115300,4.657115234375,2.7318296869456766,4.419649502897262,0.25660163897369054
1772709000125140200,4.66714013671875,2.7430267882645127,4.205181991830468,0.30677133542858065
1772709000135165200,4.677165283203125,2.980822567948699,4.026954837924242,0.5075702039638534
1772709000145191200,4.687191162109375,3.10271700925827,3.9880595823407172,0.6194882083233445
1772709000155216100,4.697216064453125,2.9341566783636805,4.382169374808669,0.3329525823242962
1772709000165241300,4.707241455078125,2.564514972198009,5.1132379165023565,-0.39234322118684645
1772709000175266300,4.717266357421875,2.312847319027781,5.966252337431907,-0.913452303822711
1772709000185291000,4.727291015625,2.1430711826026436,6.424465476498008,-0.9100130500890314
1772709000195316000,4.73731591796875,2.0013129339158535,6.703638391709327,-0.7544814198546111
1772709000205341200,4.747341064453125,2.155385305252671,7.206679099017381,-0.7298655956447124
1772709000215366100,4.7573662109375,2.5489585066258904,7.891803635659813,-0.6746983466308564
1772709000225392000,4.76739208984375,3.0688977417647836,8.387292320153117,-0.5766444343097508
1772709000235417000,4.7774169921875,3.5346272478103637,8.823976348978281,-0.5750904098007827
1772709000245442000,4.787442138671875,3.8527749135822056,9.124891724920273,-0.6966195979945361
1772709000255467300,4.79746728515625,3.987216701775789,8.471769177216292,-1.05529735401012
1772709000265492200,4.8074921875,3.6714123842597006,7.061233101728559,-1.2012144759420305
1772709000275517200,4.81751708984375,2.926724482536316,4.980224115285277,-0.49721295100264246
1772709000285542100,4.827542236328125,1.995692755946517,2.035491682371497,1.9908719116613267
1772709000295567400,4.8375673828125,1.0903042969182133,-2.2667945929050446,5.705713980063796
1772709000305593300,4.84759326171875,0.3729743577197194,-7.704933741092681,9.703200146919489
1772709000315618300,4.857618408203125,0.6005640929490328,-11.374064151895045,11.44731175893545
1772709000325643000,4.86764306640625,1.4632479672387242,-11.013916834783553,8.576534204548597
1772709000335668000,4.87766796875,1.41342273683995,-10.962701026809215,8.824471439018845
1772709000345693200,4.887693115234375,1.457075123822689,-10.963964763134717,9.058373133873939
1772709000355718100,4.89771826171875,1.6036431108787654,-11.024220786654949,9.24580416945517
1772709000365743000,4.9077431640625,1.8234873465478418,-11.131371832340955,9.380920495909452
1772709000375769000,4.91776904296875,2.068137229910493,-11.262635575020312,9.469434061142803
1772709000385794000,4.9277939453125,2.2957629132360218,-11.3942149595201,9.52840939720273
1772709000395819300,4.9378193359375,2.4873124900519845,-11.511527333736419,9.596752281066776
1772709000405844200,4.94784423828125,2.6442899351805447,-11.61277704642415,9.721666362458468
1772709000415869200,4.957869140625,2.7665175539672373,-11.698452757883071,9.923837286531924
1772709000425894100,4.96789404296875,-7.9402353658735745,-10.210538259160518,-0.20049634192474186
1772709000435919000,4.977919189453125,-6.716064742562175,-7.6769456639707085,-2.059669553555548
1772709000445944000,4.987944091796875,-4.885070381385088,-6.276039002093673,-3.7262101423740384
1772709000455970000,4.997969970703125,-2.884953379255533,-4.6309027280926705,-5.000706931343674
1772709000465995000,5.0079951171875,-1.226487668082118,-2.916149312508106,-5.557657508015632
1772709000476020200,5.018020263671875,-0.7160147649466991,-0.9864268660753964,-5.494806207305192
1772709000486045200,5.028045166015625,-1.322943716752529,1.4387117841362953,-4.754383561810851
1772709000496070100,5.038070068359375,-2.2589444639265537,3.5828935583293435,-3.694159345857799
1772709000506095000,5.04809521484375,-3.296028335049748,4.684301140803099,-2.1712385618142784
1772709000516120300,5.058120361328125,-3.92440164142251,4.895859486424922,-0.34666254324689505
1772709000526145300,5.068145263671875,-3.04880012563169,5.012267605277896,0.7278500180386006
1772709000536171300,5.078171142578125,-0.7413689864337444,5.647765064442157,0.8787405444689095
1772709000546196200,5.0881962890625,1.9484592956066131,6.381708284789323,0.9542946748860179
1772709000556221200,5.09822119140625,4.215859453189373,6.924492388942837,1.3982368581458926
1772709000566246100,5.10824609375,5.714608649659157,7.372448337888717,2.1863963834576308
1772709000576271000,5.11827099609375,6.386230730649829,7.355030170097947,3.117351683810353
1772709000586296000,5.128296142578125,6.6210635688751935,6.883977423202991,3.703704296055436
1772709000596321000,5.138321044921875,6.5834174365699285,6.31080694861412,3.6215409766316413
1772709000606346200,5.14834619140625,6.294945362615585,6.149463709491491,2.959292580924928
1772709000616372200,5.158372314453125,5.77885111246705,6.685996352034807,1.966995653772354
1772709000626397200,5.168397216796875,4.914278940212727,7.4891282594203945,1.132943269074708
1772709000636422100,5.178422119140625,3.7238024967104195,7.9019573654055595,0.5261147089034318
1772709000646447000,5.188447021484375,2.5843583213090895,8.238335099872947,0.1936466952256858
1772709000656472300,5.198472412109375,1.958131379315257,8.732282400143147,0.2182731869600713
1772709000666497300,5.208497314453125,1.9836983667701482,8.9221321873039,0.43692397506088015
1772709000676522200,5.218522216796875,2.3973487260103226,8.60250918828249,0.33595249479264017
1772709000686547000,5.228546875,3.0424276679903266,8.115251741039753,-0.08574424665048717
1772709000696573200,5.2385732421875,3.7089866203725337,7.789163929918408,-0.3003274930514395
1772709000706598100,5.24859814453125,4.3153567692518235,7.481399710994959,-0.12210925310403108
1772709000716623000,5.258623046875,4.806847616280615,7.158785128942132,0.10249021426811813
1772709000736045000,5.278045166015625,4.947524207210541,6.567217412397265,-0.4099310464560985
1772709000746071000,5.288071044921875,4.698959488491714,5.875880577111244,-1.1005281692907214
1772709000756096000,5.298095947265625,4.394624659495055,5.860081534954905,-1.6669789802357553
1772709000766121200,5.308121337890625,3.707518009124696,6.013449557414651,-1.6759738953351973
1772709000776146200,5.318146240234375,3.2605186302512883,6.432064261063933,-0.6585884849596768
1772709000786171100,5.328171142578125,3.455126133333146,6.8949149968028065,0.613074395758286
1772709000796196000,5.338196044921875,3.811042681007087,7.078000696656107,1.2725174517206848
1772709000806221300,5.34822119140625,3.5466719058692453,7.524629780912399,1.267447601110488
1772709000816246300,5.358246337890625,2.4966639635041354,7.975465669208765,0.5960997339513152
1772709000826272300,5.368272216796875,1.2855939370453358,8.065467427173257,0.14630283331386745
1772709000836297200,5.378297119140625,0.29651743324398994,7.443176071062684,0.5898522543964907
1772709000846322200,5.388322265625,-0.7580757910847663,5.832587963351607,1.4353247720465063
1772709000856347100,5.39834716796875,-2.514019879713654,3.9086785871118304,2.247704546379298
1772709000866372000,5.4083720703125,-3.942534679484367,1.1298732139796017,2.1089855192579328
1772709000876397000,5.41839697265625,-3.9413790797084567,-2.957573209786415,1.4224896942622958
1772709000886422300,5.42842236328125,-3.1344618085652587,-8.317132157734036,1.5596718672052026
1772709000896446500,5.438446533203125,-1.9055057045429944,-12.74181264053583,1.1126903162494302
1772709000906472400,5.448472412109375,-0.6845537510171532,-14.27341547433734,-1.431800689573586
1772709000916497400,5.458497314453125,-0.9678981066942215,-15.25498320994377,-4.184468874147534
1772709000926522400,5.4685224609375,-2.9080265040680766,-17.593954565787314,-5.016179810285568
1772709000936547600,5.478547607421875,-4.70386216584146,-19.808392363989352,-3.9201936683386562
1772709000946572500,5.488572509765625,-5.885093226614594,-19.137640636092424,-2.0312180967055258
1772709000956597500,5.498597412109375,-7.696622424343228,-17.801767295140028,0.8072412424005567
1772709000966622500,5.50862255859375,-7.713043982312083,-18.130865978515146,3.249310130755603
1772709000976647700,5.518647705078125,-5.6399763102620835,-17.183523168593645,3.5317438013285396
1772709000986673700,5.528673583984375,-5.111121362739801,-15.00317001082301,2.6426956517264246
1772709000996698600,5.53869873046875,-5.8319479118824,-13.895271897286175,1.7813515016078947
1772709001006723600,5.5487236328125,-6.563691576358676,-12.782165693712233,0.048814957377687096
1772709001016748500,5.55874853515625,-6.94520726019144,-10.115927546095847,-1.933532067848742
1772709001026773500,5.5687734375,-6.226931564575433,-6.899615721839666,-3.1214836690485477
1772709001036798500,5.578798583984375,-3.9400110062256455,-4.16347752404511,-2.9231480853542684
1772709001046823400,5.588823486328125,-1.164895427522063,-2.627265735143423,-1.8157643510803578
1772709001056848600,5.5988486328125,0.7506067703783512,-1.278114394944906,-0.8779556777015328
1772709001066874600,5.60887451171875,1.3734849864661693,0.08459902213811873,-0.18542897504381833
1772709001086298400,5.62829833984375,0.6180044725716114,1.1868272733449936,-0.4540132031582296
1772709001096323600,5.638323486328125,0.2066279034823179,2.441305941158533,-0.9753144473653286
1772709001106348500,5.6483486328125,0.5920262739673257,4.1753234446614975,-1.2163135531354694
1772709001116373500,5.65837353515625,1.9629069231539964,5.734767640590667,-0.9418365406554192
1772709001126398500,5.6683984375,3.196248402653634,6.538209344577789,-0.1252471858035773
1772709001136424400,5.678424560546875,4.254910776117444,6.700677203816175,1.3142851940006017
1772709001146449700,5.68844970703125,5.346881252682208,6.306333602592349,2.237729534201324
1772709001156474600,5.698474609375,6.08767740766406,6.434891008922457,2.584581316410005
1772709001166499600,5.70849951171875,5.997459961122274,6.662486297109723,2.6897905803784727
1772709001176524500,5.718524658203125,5.0647828054130075,6.27576369228363,2.602228324520588
1772709001186549500,5.728549560546875,3.7713317251265046,5.611888864418864,1.9987036282002926
1772709001196574500,5.738574462890625,2.346688213831186,5.362445317038893,0.9326230874344706
1772709001206599400,5.748599365234375,1.0805530104935168,5.768026936113834,-0.13329700207263231
1772709001216625400,5.75862548828125,0.3919856399208307,6.121552204737067,-0.7308435738313943
1772709001226650400,5.768650390625,0.35048575479686256,6.061230714765191,-0.799408137622103
1772709001236675600,5.778675537109375,0.7408814951777458,5.891757360678911,-0.6296537746373564
1772709001246700500,5.788700439453125,1.7174194199234247,5.9900891400933265,-0.2901043513312936
1772709001256725500,5.7987255859375,3.0361227226272223,6.203125157052278,0.06345087403878569
1772709001266750500,5.80875048828125,4.173074496690929,6.554728517702221,0.06376045144461095
1772709001276775700,5.818775634765625,5.059471839523315,6.935895826488733,-0.2801516971156001
1772709001286800600,5.828800537109375,5.315439820235968,7.177450666445493,-0.8422345221094787
1772709001296826600,5.83882666015625,4.604356081950664,7.474959448814392,-1.4085767581135034
1772709001306851600,5.8488515625,3.2128666522383686,7.734016627714038,-1.71645788141489
1772709001316876500,5.85887646484375,1.572714596390724,7.822307490107416,-1.730778083190322
1772709001326901500,5.868901611328125,0.0729541770517826,7.964334034341573,-1.4897202329702675
1772709001336926500,5.878926513671875,-0.9701075994372367,8.008508107110858,-1.0134110268518328
1772709001346951400,5.888951416015625,-1.3133382685393094,7.905942635649442,-0.5949915900463238
1772709001356976400,5.898976318359375,-0.8920482082009314,7.891638215965032,-0.11985714506199582
1772709001367001600,5.909001708984375,0.30639293057024475,7.83416334759593,0.24332663540225474
1772709001377027600,5.919027587890625,1.6241250501543283,7.617121602126955,0.23083801470184698
1772709001387052500,5.929052490234375,2.543810622343421,7.336514854720234,0.11809657426341436
1772709001397077500,5.939077392578125,2.8977856805607676,6.9267696862250565,0.04998655387375038
1772709001407102500,5.9491025390625,2.646702841541171,6.69621204110086,0.09237521823071874
1772709001417127700,5.959127685546875,2.094673939180374,6.462044388785958,0.47917639558520164
1772709001427152600,5.969152587890625,1.575866630680859,5.594561297520995,1.2118290281325579
1772709001437177300,5.97917724609375,1.1839666232168673,3.9054017573982476,2.016364372575283
1772709001447202600,5.98920263671875,0.1898027331486344,1.2545844662755727,3.062574676223099
1772709001457228500,5.999228515625,-1.7385405338853597,-2.741438057768345,3.9170109466493126
1772709001467253500,6.00925341796875,-3.236713391771912,-7.27578069229424,3.8744764577805992
1772709001477278500,6.019278564453125,-3.0515760200858115,-10.463404766726493,2.6306106616571543
1772709001487303400,6.029303466796875,-1.4414382864907382,-11.610098767125606,0.15928893694132565
1772709001497328600,6.03932861328125,-1.5978022758960724,-11.563935566365718,0.28026355999223884
1772709001507353600,6.049353515625,-1.6927233700841664,-11.53556521192789,0.3228612502902746
1772709001517378600,6.059378662109375,-1.7332368745192885,-11.5220814609766,0.3191778856024146
1772709001527404500,6.069404541015625,-1.7210566073819993,-11.525471687936783,0.31213600426688787
1772709001537429500,6.079429443359375,-1.6552552246943115,-11.548409495931864,0.32869982025064526
1772709001547454700,6.089454833984375,-1.5361021910473704,-11.592717424213886,0.37467473189681766
1772709001557479700,6.099479736328125,-1.3597890540689228,-11.662969941091538,0.45363172955997283
1772709001567504600,6.109504638671875,-1.1342404692783952,-11.760657577383517,0.564166207139194
1772709001577529300,6.119529296875,-0.8914581333532929,-11.875205163061619,0.6858408682182431
1772709001587554600,6.129554443359375,-0.6601072920247912,-11.990984920883179,0.7833877078000455
1772709001597579500,6.13957958984375,-0.4487985372498631,-12.097840198493003,0.8274144079878926
1772709001607605500,6.14960546875,-4.426642138263583,-7.254734397134184,-4.85751046654731
1772709001617630500,6.15963037109375,-1.7714286580085754,-4.443423177194595,-3.78455390253216
1772709001627655400,6.169655517578125,0.6856257641628384,-1.4594003518998622,-1.763584958770871
1772709001637680600,6.1796806640625,1.6888754624843596,0.9175666803389787,-0.19349223531633614
1772709001647705600,6.18970556640625,1.500449570646882,2.2747902678340672,0.030459727932512757
1772709001657730600,6.19973046875,1.023558034595847,3.2628678237259385,-0.6597600860223174
1772709001667755500,6.209755615234375,0.6370844360947608,3.9616836165905,-1.637055843397975
1772709001677780700,6.21978076171875,0.3454056750535965,4.394968650627136,-2.2086476704932747
1772709001687806700,6.229806640625,0.3650970484733581,4.5057390558540815,-1.8341572091221807
1772709001697831700,6.239831787109375,0.6858207022130489,4.629627885851264,-1.0599803241945802
1772709001707856400,6.2498564453125,1.50435125426054,5.268013467672467,-0.5373009965673089
1772709001717881300,6.25988134765625,2.689358910962939,5.841805873551964,-0.20776932860240338
1772709001727906600,6.269906494140625,3.9547997022956607,5.973136251726746,-0.09452332704216242
1772709001737931500,6.279931640625,4.816253450268507,6.122290455883741,0.049640813742578026
1772709001747956500,6.28995654296875,5.227438296177983,6.450974713239074,0.4140913810059428
1772709001757981400,6.2999814453125,5.102296251249313,6.882112213853001,0.9580093114949763
1772709001768007400,6.31000732421875,4.065332791635394,7.211414310845733,1.4914429651096461
1772709001778032600,6.32003271484375,2.635628489819169,7.288825467306375,1.7770995432518422
1772709001788057600,6.3300576171875,1.4330723169445991,7.328620886600017,1.726351352789253
1772709001798082600,6.34008251953125,0.8636030349612236,7.424155728772282,1.4887426201097667
1772709001808107500,6.350107421875,0.9099334089815616,7.450066415098309,1.1116020826213062
1772709001818132700,6.3601328125,1.1676374197065829,7.481137845188379,0.6230353063456714
1772709001828157400,6.370157470703125,1.5016215370357036,7.624484239849448,0.3075694270037114
1772709001838182400,6.380182373046875,1.9699135870456694,7.675448703411221,0.15458134377226232
1772709001848208400,6.39020849609375,2.5575416260540482,7.453666485416889,0.018449848926067353
1772709001858233300,6.4002333984375,3.083108637946844,7.301086398464441,0.031154724459350108
1772709001868258600,6.410258544921875,3.415812652337551,7.420373287624121,0.3271621623545885
1772709001878283500,6.420283447265625,3.148870857667923,7.513107685422897,0.7868190704882144
1772709001888308500,6.43030859375,2.127124840930104,7.155629879781603,0.9999477341666817
1772709001898333700,6.440333740234375,1.0934405491173267,6.636027913773059,0.6702436322443187
1772709001908359000,6.45035888671875,0.7110954287230968,6.383273634409904,-0.029992402681708333
1772709001918383900,6.4603837890625,0.9940852718740701,5.982940437382459,-0.5538027801655233
1772709001928408800,6.470408935546875,1.833090456673503,5.40702504799962,-0.5256880809891968
1772709001938434800,6.480434814453125,2.777653865009546,5.157029127433896,-0.5208544502876699
1772709001948459500,6.49045947265625,3.124136229383945,5.524560709577798,-0.4416493961475789
1772709001958484700,6.500484619140625,2.5390017607569693,6.475637445330619,0.13204254503212867
1772709001968509700,6.510509765625,1.3114374033540486,7.472983764827251,0.6533179241456091
1772709001978534700,6.52053466796875,-0.12850304579436778,8.22822053309381,0.999392949828133
1772709001988559600,6.5305595703125,-1.6107529428839682,8.628065654343366,1.4756335476897655
1772709001998584800,6.540584716796875,-2.517467389819026,9.038593497648835,2.1132482912689445
1772709002008609800,6.55060986328125,-2.1018162121504544,8.714826822951435,2.6829712557524443
1772709002018635800,6.5606357421875,-0.7048322766751051,7.213200609740614,2.307014375090599
1772709002028660700,6.57066064453125,0.052901569104194635,5.000151635548472,1.0893293144062162
1772709002038685700,6.580685791015625,0.3914987331867218,2.057110808983445,0.21958510980885473
1772709002048711000,6.5907109375,1.2412012530893086,-1.5306629226028918,0.2012170208821073
1772709002058735900,6.60073583984375,2.2581150273650885,-4.450711580637097,0.35581188172306866
1772709002068760600,6.610760498046875,2.888703671699762,-6.642436027249693,-0.028073673046194014
1772709002078785500,6.62078564453125,1.8741870216935872,-8.811955656316876,-0.6024409927368164
1772709002088810800,6.630810791015625,-0.20113924293816088,-10.476039791893959,-0.9018373424179852
1772709002098836700,6.640836669921875,-1.5415917283743619,-11.772228772711752,-0.6141297500301152
1772709002108861700,6.65086181640625,-1.5174100577980278,-11.776196507298947,-0.7344664405036717
1772709002118886700,6.66088671875,-1.4523273447737097,-11.797103686249255,-0.870259424110502
1772709002128911600,6.67091162109375,-1.3412664321675896,-11.838864268136025,-0.9887672917217015
1772709002138936800,6.680936767578125,-1.1944298573032022,-11.898480824708939,-1.0560838282126932
1772709002148961800,6.6909619140625,-1.0342945326656103,-11.967019523406028,-1.0604932421527802
1772709002158986800,6.70098681640625,-0.8862854068905115,-12.033510057401656,-1.0188922347418963
1772709002169011700,6.71101171875,-0.7686760955542326,-12.088840899479388,-0.9621382279932499
1772709002179037700,6.72103759765625,-0.6892489230960607,-12.127683548092842,-0.9125963445805013
1772709002189063000,6.73106298828125,-0.6487064848273992,-12.148291451835632,-0.8715025560393929
1772709002199087900,6.741087890625,-0.6423369497954845,-12.152530404579638,-0.826223736898601
1772709002209112600,6.751112548828125,-0.6631137803643942,-12.1439122138381,-0.7734513471320271
1772709002219137800,6.7611376953125,-0.7026631159424781,-12.126616211122274,-0.7191428338393568
1772709002229162800,6.771162841796875,-3.649701487711072,-8.44702110492885,-1.7619648102231322
1772709002239187700,6.781187744140625,-0.14248393261283634,-6.1323448169082395,-1.7141966584846375
1772709002249212700,6.791212646484375,2.451045537145436,-3.7332518775790926,-0.6899998875938356
1772709002259238700,6.80123876953125,3.574105271717906,-1.3921943631112574,0.6626229281075299
1772709002269264000,6.811263916015625,3.0103704417333006,0.8727262526154518,1.6870792267173527
1772709002279288800,6.821288818359375,1.4573206230163573,2.6719524336099623,2.0307631925448772
1772709002289313800,6.831313720703125,-0.28383739989101886,3.9524487552553413,1.896914401808381
1772709002299338800,6.8413388671875,-1.292236443799734,4.922558692780137,1.16416448289901
1772709002309364000,6.851364013671875,-1.0399342921182513,5.9134162347793575,-0.2235186133328825
1772709002319388700,6.861388671875,0.37700960458517074,6.516748038876056,-1.2416356989838182
1772709002329413600,6.87141357421875,2.698021525368094,6.07952741895616,-1.644080189076811
1772709002339439600,6.881439697265625,4.591092111229896,6.264671804904937,-1.7894754790917038
1772709002349464600,6.891464599609375,5.447060705789923,7.0849155906111,-1.5994956358104944
1772709002359489800,6.90148974609375,5.582535344162583,7.395652103343606,-0.9811538210432976
1772709002369514800,6.9115146484375,5.267404980385304,7.685024925529956,0.04579948201403022
1772709002379539700,6.921539794921875,4.916754390415549,7.846667439860105,1.227716625355184
1772709002389564700,6.931564697265625,4.752959081965685,7.803753596284985,2.0791095825627446
1772709002399590000,6.94158984375,4.358158384624123,7.90654352415204,2.5157111938014625
1772709002409614800,6.95161474609375,3.6584862671911713,7.860577307268977,2.641115689058602
1772709002419639800,6.961639892578125,2.807065837454796,7.335408354783057,2.289291086873412
1772709002429665800,6.971665771484375,1.7440280253857374,6.92659432965815,1.713108863247931
1772709002439690800,6.981690673828125,0.8956097000747919,6.783461870008707,1.1903946104377507
1772709002449716000,6.991716064453125,1.060190605944395,6.647167147424817,0.6940608534224331
1772709002459740700,7.00174072265625,1.8121034904852509,6.461814087161422,0.1832291999772191
1772709002469765600,7.011765625,2.7593571608185767,6.552197537919879,-0.2932925529133528
1772709002479790600,7.02179052734375,3.837254980628192,6.865823926874995,-0.569711347110942
1772709002489815800,7.03181591796875,4.704275422817468,7.031282200101018,-0.8154371160767973
1772709002499840800,7.0418408203125,4.942122640427947,7.364286074221134,-1.0282347942352295
1772709002509865700,7.05186572265625,4.3888107125192874,7.845062342751025,-1.412464413201809
1772709002519891700,7.0618916015625,3.269358062528074,8.100861981159449,-1.7240499439790844
1772709002529916700,7.071916748046875,2.271217085522413,8.273100123783946,-1.6538957729093728
1772709002539942000,7.08194189453125,1.763495526921749,8.44191355265677,-1.4727324194207787
1772709002549966800,7.091966796875,1.4851120085224507,8.42881850876212,-1.6966016728222368
1772709002559991800,7.10199169921875,1.299586222040653,8.135092167541384,-1.9911945677444338
1772709002570016800,7.112016845703125,1.7153256625145672,7.625207877948879,-2.0240254087224603
1772709002580041700,7.122041748046875,2.5677783579081295,7.231345922762155,-1.9321390060551464
1772709002590066700,7.132066650390625,3.3916350734144447,6.631334202998876,-1.3884300421416758
1772709002600092700,7.1420927734375,3.9504038054242727,5.836512443318963,-0.5817937068317085
1772709002610117600,7.15211767578125,3.9776390183523294,4.9733688425630325,0.12389619131973012
1772709002620142600,7.162142578125,3.549654721072316,4.090975182414055,0.7156212355844676
1772709002630167800,7.172167724609375,2.6753561045736074,2.852080452701449,1.4641107215479015
1772709002640192800,7.18219287109375,1.2178908123895524,0.6637327890455722,2.9349548430040477
1772709002650217700,7.1922177734375,-0.2675552503928542,-1.9617063151925802,4.553281436012685
1772709002660242700,7.20224267578125,-1.4587643920838833,-4.690021272015572,5.106947876447439
1772709002670268000,7.212267822265625,-2.197374435198307,-7.038284187817573,3.810451729376614
1772709002680292900,7.22229296875,-2.193310254499316,-8.89540667746365,0.4040690225549042
1772709002690318800,7.23231884765625,-2.0386834641501306,-8.723668885576725,-4.462969296924769
1772709002700343800,7.24234375,-3.6001819622606037,-9.099314800593257,-6.966335972937941
1772709002710368500,7.252368408203125,-6.052019818827509,-11.972118892371654,-5.0310751816004515
1772709002720393700,7.262393798828125,-6.515938476058841,-14.62610195404887,-1.3900984137453138
1772709002730418700,7.272418701171875,-6.53018736616373,-14.620985049426555,-1.4555278943806886
1772709002740443600,7.282443603515625,-6.533085425692796,-14.621056361097096,-1.5038880206629632
1772709002750468600,7.292468505859375,-6.507753416037559,-14.632733939409254,-1.5011968818828463
1772709002760493800,7.302493896484375,-6.4345718599706885,-14.665128142535686,-1.4254489824593066
1772709002770519800,7.312519775390625,-6.310451559305191,-14.723380425018071,-1.3128456627167762
1772709002780544800,7.322544677734375,-6.140919753029942,-14.808577997571229,-1.2306944721221924
1772709002790569700,7.33256982421875,-5.9386389388412235,-14.916294860446452,-1.2268586933515966
1772709002800594700,7.3425947265625,-5.15401883970201,-9.743775318413972,-4.0057489682883025
1772709002810620000,7.352619873046875,-4.47692855643332,-5.625967658653855,-3.3720936298593878
1772709002820644900,7.362644775390625,-3.6786318141192194,-2.465140990254283,-1.5387515365123747
1772709002830669600,7.372669677734375,-2.9319752426713706,0.08297872745990753,1.0343528387241065
1772709002840694800,7.38269482421875,-1.7724796283662319,1.264386313843727,2.9912805413380266
1772709002850719700,7.3927197265625,-0.16653145541548728,1.3513771995544432,3.2124943117946385
1772709002860745700,7.402745849609375,1.332493050864339,1.5616536886721848,1.845818420821428
1772709002870770700,7.412770751953125,2.0380776072114704,1.6856489016532896,0.23151326534859834
1772709002880795600,7.422795654296875,2.513941553780436,1.7033897255271673,-0.9226214064452797
1772709002890820600,7.432820556640625,2.830002476406097,1.9182009354650973,-1.685925965029001
1772709002900845600,7.442845458984375,3.084726010015607,2.643807120099664,-1.913227238705754
1772709002910870500,7.45287060546875,3.30011005140543,3.5550142022788522,-1.7456601566322147
1772709002920895500,7.4628955078125,3.224808434444666,4.234260202276706,-1.339145202229917
1772709002930920700,7.472920654296875,2.913024458485842,4.7607653718024485,-1.0112192889612168
1772709002940945700,7.482945556640625,2.660094238033891,5.437124418187141,-0.4477927212081849
1772709002950971600,7.4929716796875,2.9197271709948778,5.828597432410716,0.36355500666312873
1772709002960996600,7.50299658203125,2.8423014014869925,5.918078381371497,0.9290719708241522
1772709002971021600,7.513021484375,2.461563131767511,6.228526140290499,1.0492242446415125
1772709002981046800,7.523046875,2.1334967140495777,6.542272356233,0.7245112290047109
1772709002991071700,7.53307177734375,2.040853501665592,6.574920241859555,0.0514215231468901
1772709003001096700,7.5430966796875,2.2401263662099837,6.411627037712932,-0.6958804700650274
1772709003011121400,7.553121337890625,2.5930261964112518,6.137707805246114,-0.9749534320332109
1772709003021146600,7.563146728515625,2.8198674513608215,6.024301206296682,-0.9144775552172213
1772709003031171600,7.573171630859375,3.040938306215405,6.065482526990771,-0.7689818005025386
1772709003041197600,7.583197509765625,3.2640263461112973,6.036289165732264,-0.6854032074533403
1772709003051222500,7.593222412109375,3.6878187446594235,6.150161628627777,-0.4136309238873422
1772709003061247500,7.60324755859375,4.178262420722842,6.34788258755505,-0.04471512084342539
1772709003071272700,7.613272705078125,4.0291444569230075,6.65736354726851,0.2988247238056734
1772709003081297700,7.623297607421875,3.457680201730132,7.016033777564764,1.0020487980991601
1772709003091322600,7.633322509765625,3.3498838438779113,6.786818779221177,1.7886118479996918
1772709003101347600,7.64334765625,1.9870207891911267,5.9571010627269745,1.956952690924704
1772709003111372800,7.653372802734375,0.31305121941566466,6.031752106824517,0.38359263623729345
1772709003121397800,7.663397705078125,-0.08585632872283458,6.19217297040522,-0.8806621601812541
1772709003131423700,7.673423828125,0.31686814735531804,5.84196427898407,-1.0421800252184272
1772709003141448700,7.68344873046875,0.826316968140006,5.324302341127395,-0.74959715494439
