time,seconds_elapsed,z,y,x
1772708995473472300,0.01547216796875,-0.17826774716377258,-0.8661851286888123,0.35953420400619507
1772708995483497500,0.02549755859375,-0.1859770566225052,-0.947577714920044,0.708252489566803
1772708995493522400,0.0355224609375,-0.16301821172237396,-1.1001310348510742,1.08370041847229
1772708995503547400,0.04554736328125,-0.1379200518131256,-1.3399540185928345,1.4226971864700317
1772708995513573400,0.055573486328125,-0.13289839029312134,-1.5461509227752686,1.6388161182403564
1772708995523598300,0.065598388671875,-0.18072690069675446,-1.6540765762329102,1.6600459814071655
1772708995533623600,0.07562353515625,-0.309743732213974,-1.6194549798965454,1.4793896675109863
1772708995543648500,0.0856484375,-0.49382463097572327,-1.4205831289291382,1.1142780780792236
1772708995553673200,0.095673095703125,-0.6810991764068604,-1.1679478883743286,0.653410017490387
1772708995563698200,0.1056982421875,-0.821368396282196,-0.9721598029136658,0.20008622109889984
1772708995573723400,0.115723388671875,-0.8729546666145325,-0.9074513912200928,-0.1479250192642212
1772708995583749400,0.125749267578125,-0.8649694323539734,-0.9708968997001648,-0.34432968497276306
1772708995593774300,0.1357744140625,-0.8675628304481506,-1.0685515403747559,-0.404256135225296
1772708995603799300,0.14579931640625,-0.9200678467750549,-1.0806881189346313,-0.36403414607048035
1772708995613824300,0.15582421875,-1.0232176780700684,-0.9617066383361816,-0.29152318835258484
1772708995623849500,0.165849365234375,-1.155510425567627,-0.804333508014679,-0.23139220476150513
1772708995633874400,0.17587451171875,-1.2543725967407227,-0.8169182538986206,-0.19735194742679596
1772708995643900400,0.185900390625,-1.2555787563323975,-1.2178771495819092,-0.24193060398101807
1772708995653925400,0.19592529296875,-1.2632709741592407,-1.8578568696975708,-0.38136041164398193
1772708995663950300,0.205950439453125,-1.249060034751892,-2.2657532691955566,-0.5685758590698242
1772708995673975600,0.2159755859375,-1.143843412399292,-2.2932145595550537,-0.6636078357696533
1772708995684000300,0.226000244140625,-1.000469446182251,-2.0295422077178955,-0.6617819666862488
1772708995694025200,0.236025146484375,-0.872842013835907,-1.5866618156433105,-0.6277893781661987
1772708995704051200,0.24605126953125,-0.7842897772789001,-1.0569268465042114,-0.600945770740509
1772708995714076200,0.256076171875,-0.7363104820251465,-0.5522977709770203,-0.593029797077179
1772708995724101400,0.266101318359375,-0.7324680685997009,-0.143251433968544,-0.5850536227226257
1772708995734126300,0.276126220703125,-0.7513235211372375,0.12759657204151154,-0.5738134980201721
1772708995744151300,0.2861513671875,-0.7739611864089966,0.11578652262687683,-0.5755378603935242
1772708995754176300,0.29617626953125,-0.7656388282775879,-0.21856136620044708,-0.6120525002479553
1772708995764202200,0.3062021484375,-0.6730780005455017,-0.8094015121459961,-0.6569637656211853
1772708995774227500,0.3162275390625,-0.5497012138366699,-1.5103199481964111,-0.6706361770629883
1772708995784252400,0.32625244140625,-0.5159118175506592,-1.939677357673645,-0.6619036793708801
1772708995794277400,0.33627734375,-0.6795292496681213,-1.1309832334518433,-0.6852502226829529
1772708995804302300,0.34630224609375,-0.8006253242492676,-1.1735211610794067,-0.4330132007598877
1772708995814327600,0.35632763671875,-0.8494977951049805,-0.9660563468933105,-0.011207913048565388
1772708995824353500,0.366353515625,-0.9273315668106079,-0.2733055651187897,0.4537017047405243
1772708995834378500,0.37637841796875,-1.1047124862670898,0.40618613362312317,0.8243945837020874
1772708995844403200,0.3864033203125,-1.2848409414291382,0.47139468789100647,1.0300675630569458
1772708995854428400,0.396428466796875,-1.4274905920028687,0.0878763273358345,1.0481171607971191
1772708995864453400,0.406453369140625,-1.5157866477966309,-0.2359885573387146,0.9998984932899475
1772708995874478300,0.416478271484375,-1.3971880674362183,-0.3140159845352173,1.0396053791046143
1772708995884505000,0.426505126953125,-1.0307562351226807,-0.17520244419574738,1.1630746126174927
1772708995894530000,0.436530029296875,-0.517862856388092,-0.07561113685369492,1.260345220565796
1772708995904555000,0.446554931640625,0.07077936083078384,-0.19818338751792908,1.2404325008392334
1772708995914580200,0.456580322265625,0.7249169945716858,-0.4613790810108185,1.1193140745162964
1772708995924605200,0.466605224609375,1.1454087495803833,-1.0251084566116333,1.0946002006530762
1772708995934630000,0.4766298828125,1.1508355140686035,-1.6870707273483276,1.2740503549575806
1772708995944654800,0.48665478515625,0.6967226266860962,-2.0839879512786865,1.5553669929504395
1772708995954680800,0.496680908203125,-0.033848509192466736,-2.6240744590759277,1.7358819246292114
1772708995964706000,0.5067060546875,-0.6540585160255432,-3.168469190597534,1.8100850582122803
1772708995974731000,0.51673095703125,-0.9729171991348267,-3.635369062423706,1.8742563724517822
1772708995984756000,0.526755859375,-0.973568856716156,-3.962353467941284,1.9433925151824951
1772708995994781000,0.536781005859375,-0.7259705066680908,-3.8155035972595215,1.7527799606323242
1772708996004806100,0.54680615234375,-0.22594045102596283,-1.6726750135421753,0.7933682203292847
1772708996014832000,0.55683203125,0.26950550079345703,-1.464011549949646,0.4763481616973877
1772708996024857000,0.566857177734375,0.6810160875320435,-1.4256333112716675,0.38642093539237976
1772708996034882000,0.576882080078125,0.790815532207489,-1.109471321105957,0.21944500505924225
1772708996044907000,0.586906982421875,0.8670583963394165,-1.4104814529418945,0.046306245028972626
1772708996054932200,0.59693212890625,0.9265193343162537,-1.6271648406982422,-0.07571553438901901
1772708996064957200,0.606957275390625,0.9108575582504272,-1.891781210899353,-0.2069939225912094
1772708996074983200,0.616983154296875,0.7820971608161926,-2.2139649391174316,-0.3287142515182495
1772708996085008100,0.627008056640625,0.5683563947677612,-2.6059951782226562,-0.3868643641471863
1772708996095032800,0.63703271484375,0.2345547080039978,-2.982801675796509,-0.4652097523212433
1772708996105058000,0.64705810546875,-0.14360083639621735,-3.3237154483795166,-0.531604528427124
1772708996115083000,0.6570830078125,-0.42773401737213135,-3.488853693008423,-0.49591973423957825
1772708996125108000,0.66710791015625,-0.5846461653709412,-3.377357006072998,-0.36660727858543396
1772708996135134000,0.677134033203125,-0.6440271735191345,-3.069214344024658,-0.2202085256576538
1772708996145159000,0.687158935546875,-0.6651431322097778,-2.7024738788604736,-0.13679753243923187
1772708996155184000,0.69718408203125,-0.7099348306655884,-2.3425815105438232,-0.08635059744119644
1772708996165209000,0.707208984375,-0.7359278202056885,-1.912701964378357,-0.026579946279525757
1772708996175234000,0.717234130859375,-0.7493762373924255,-1.5322273969650269,0.05368506535887718
1772708996185259000,0.727259033203125,-0.8875037431716919,-1.3035610914230347,0.16000191867351532
1772708996195285000,0.737284912109375,-1.1322213411331177,-1.1920028924942017,0.2987411618232727
1772708996205310200,0.747310302734375,-1.3408461809158325,-1.4335294961929321,0.4118210971355438
1772708996215335200,0.757335205078125,-1.5424906015396118,-1.5249284505844116,0.684257447719574
1772708996225360000,0.76735986328125,-1.6312791109085083,-1.3791499137878418,1.0423005819320679
1772708996235384800,0.777384765625,-1.6508482694625854,-1.3529518842697144,1.3323150873184204
1772708996245410000,0.78741015625,-1.623301386833191,-1.6322040557861328,1.5569393634796143
1772708996255435000,0.79743505859375,-1.4806663990020752,-2.1942596435546875,1.761465311050415
1772708996265461000,0.8074609375,-1.2613213062286377,-2.6260316371917725,2.031545877456665
1772708996275486000,0.81748583984375,-1.1636570692062378,-3.0466291904449463,2.3460371494293213
1772708996285511000,0.827510986328125,-1.1739333868026733,-3.573855400085449,2.4380459785461426
1772708996295536000,0.8375361328125,-1.1195510625839233,-3.8463406562805176,2.0349740982055664
1772708996305561000,0.84756103515625,-1.0226095914840698,-3.785956859588623,1.1477465629577637
1772708996315586000,0.8575859375,-1.0240623950958252,-3.4380292892456055,0.0299038365483284
1772708996325612000,0.867612060546875,-1.174100399017334,-2.7091171741485596,-0.8078214526176453
1772708996335637000,0.877636962890625,-1.2726868391036987,-1.6190029382705688,-1.0089987516403198
1772708996345662200,0.887662109375,-1.2745749950408936,-0.5458976626396179,-0.6211168169975281
1772708996355687200,0.897687255859375,-1.0870435237884521,-0.07655602693557739,-0.2707827687263489
1772708996365712000,0.9077119140625,-0.650489091873169,-0.3310045599937439,-0.17256911098957062
1772708996375736800,0.91773681640625,-0.024356205016374588,-0.7480713129043579,0.018266089260578156
1772708996385762800,0.9277626953125,0.4698553681373596,-0.8227665424346924,0.4523509442806244
1772708996395788000,0.9377880859375,0.5899282693862915,-0.6525117754936218,0.8614076972007751
1772708996405813000,0.94781298828125,0.4551408886909485,-0.19918900728225708,1.0391696691513062
1772708996415838000,0.957837890625,0.41020509600639343,0.29566359519958496,0.8692008852958679
1772708996425863000,0.96786279296875,0.7232629060745239,0.5227252840995789,0.47822675108909607
1772708996435888000,0.97788818359375,1.332667589187622,0.43764472007751465,0.14903981983661652
1772708996445914000,0.9879140625,1.8793269395828247,0.1311636120080948,0.12215493619441986
1772708996455939000,0.99793896484375,2.0187931060791016,-0.3284532427787781,0.3886156678199768
1772708996465964000,1.007964111328125,1.7450038194656372,-0.6965060830116272,0.8314021229743958
1772708996475989000,1.017989013671875,1.232835292816162,-0.817710280418396,1.2072430849075317
1772708996486014200,1.02801416015625,0.6197695136070251,-0.6433784365653992,1.3582403659820557
1772708996496039200,1.0380390625,0.03525625914335251,-0.17830795049667358,1.236943244934082
1772708996506064000,1.04806396484375,-0.38109540939331055,0.4054771959781647,0.8703522086143494
1772708996516089900,1.05808984375,-0.5864318013191223,0.9590205550193787,0.40759122371673584
1772708996526114800,1.06811474609375,-0.6031433939933777,1.2442405223846436,-0.07739119231700897
1772708996536140000,1.07814013671875,-0.5895959138870239,1.2141796350479126,-0.5714131593704224
1772708996546165000,1.0881650390625,-0.6396644115447998,0.9495388865470886,-0.9995527863502502
1772708996556190000,1.09818994140625,-0.6977300643920898,0.3850078582763672,-1.2520420551300049
1772708996566215000,1.10821484375,-0.653619647026062,-0.3971351087093353,-1.255829095840454
1772708996576241000,1.118240966796875,-0.48321032524108887,-1.3455685377120972,-1.0014891624450684
1772708996586266000,1.12826611328125,-0.2907322347164154,-2.3239519596099854,-0.47049906849861145
1772708996596291000,1.138291015625,-0.09534595906734467,-2.816182851791382,0.4002744257450104
1772708996606316000,1.14831591796875,-0.035161715000867844,-2.8621718883514404,1.1166563034057617
1772708996616341000,1.158341064453125,-0.07555866986513138,-2.9410102367401123,1.4736346006393433
1772708996626366200,1.1683662109375,-0.1671631634235382,-2.8216500282287598,1.5388983488082886
1772708996636391000,1.178390869140625,-0.19653277099132538,-2.4770123958587646,1.3911693096160889
1772708996646417200,1.188417236328125,-0.16444993019104004,-2.042071580886841,1.043946385383606
1772708996656441900,1.19844189453125,-0.23741015791893005,-1.4786176681518555,0.6426580548286438
1772708996666467000,1.208467041015625,-0.421252965927124,-0.7221187949180603,0.23710016906261444
1772708996676492000,1.218491943359375,-0.4456680119037628,-0.38339319825172424,-0.38860073685646057
1772708996686517000,1.22851708984375,-0.44497454166412354,-0.19650986790657043,-0.9427158832550049
1772708996696542000,1.2385419921875,-0.46510377526283264,-0.35253435373306274,-1.270583987236023
1772708996706568000,1.24856787109375,-0.5599285364151001,-0.9971679449081421,-1.4286514520645142
1772708996716593200,1.25859326171875,-0.687837541103363,-1.7488590478897095,-1.4487707614898682
1772708996726618000,1.2686181640625,-0.8435498476028442,-2.3600852489471436,-1.4185572862625122
1772708996736643000,1.27864306640625,-0.9440820813179016,-3.1646156311035156,-1.3273674249649048
1772708996746668000,1.28866796875,-0.9909955263137817,-3.6919116973876953,-1.436899185180664
1772708996756693200,1.298693359375,-0.8935110569000244,-3.3279759883880615,-1.7827266454696655
1772708996766718200,1.30871826171875,-0.8030239939689636,-2.2534310817718506,-1.9139435291290283
1772708996776744200,1.318744140625,-0.7183954119682312,0.374369353055954,-1.906036138534546
1772708996786769200,1.32876904296875,-0.9932562708854675,1.2686353921890259,-1.8421162366867065
1772708996796793900,1.3387939453125,-1.4905986785888672,1.5531177520751953,-1.8880614042282104
1772708996806819000,1.348819091796875,-1.7410646677017212,1.4351849555969238,-1.8517478704452515
1772708996816844000,1.358843994140625,-1.4599765539169312,1.2482662200927734,-1.4501924514770508
1772708996826869000,1.368868896484375,-0.919481635093689,0.9848452210426331,-0.5748896598815918
1772708996836895000,1.37889501953125,-0.45145267248153687,0.8120132684707642,0.7209160923957825
1772708996846920000,1.388919921875,-0.18533124029636383,0.684566855430603,2.031696081161499
1772708996856945200,1.398945068359375,-0.07075805962085724,0.3127738833427429,2.639378309249878
1772708996866970000,1.40897021484375,-0.3753325939178467,-0.07737894356250763,2.146104335784912
1772708996876995000,1.4189951171875,-1.1444854736328125,0.05661933869123459,0.9755569100379944
1772708996887019300,1.429019287109375,-1.7469884157180786,0.680673360824585,-0.315048485994339
1772708996897044200,1.439044189453125,-1.8008135557174683,1.7013074159622192,-1.1853135824203491
1772708996907070200,1.4490703125,-1.3593295812606812,2.673473358154297,-1.6095772981643677
1772708996917095200,1.45909521484375,-0.4860554039478302,3.003856897354126,-1.678822636604309
1772708996927120100,1.4691201171875,0.4974507987499237,2.5547091960906982,-1.4854882955551147
1772708996937145300,1.479145263671875,1.2704588174819946,1.488013505935669,-1.103114366531372
1772708996947170300,1.48917041015625,1.7150112390518188,0.012047608382999897,-0.6959527134895325
1772708996957195300,1.4991953125,1.6834571361541748,-1.2859102487564087,-0.4305553734302521
1772708996967221200,1.50922119140625,1.2518188953399658,-1.8730424642562866,-0.29621249437332153
1772708996977246200,1.51924609375,0.7340494990348816,-1.4356938600540161,-0.1538476198911667
1772708996987271400,1.529271484375,0.36127084493637085,-0.49174362421035767,-0.15106141567230225
1772708996997296400,1.53929638671875,0.35926389694213867,0.7904195189476013,-0.19079045951366425
1772708997007321300,1.5493212890625,0.7710649967193604,2.1027708053588867,-0.23973962664604187
1772708997017346000,1.559345947265625,1.1932709217071533,3.005974769592285,-0.461791068315506
1772708997027371300,1.569371337890625,1.3860547542572021,3.320312023162842,-0.811802864074707
1772708997037397200,1.579397216796875,1.4060637950897217,3.1476340293884277,-1.1299376487731934
1772708997047422200,1.589422119140625,1.2919915914535522,2.895451784133911,-1.2655519247055054
1772708997057447200,1.599447265625,1.110216498374939,2.5719611644744873,-1.0976802110671997
1772708997067472100,1.60947216796875,0.8638604879379272,2.1725587844848633,-0.7308605909347534
1772708997077497300,1.619497314453125,0.6366262435913086,1.6893048286437988,-0.32723405957221985
1772708997087522300,1.629522216796875,0.4932275414466858,1.2537951469421387,0.04855715110898018
1772708997097547300,1.63954736328125,0.44284799695014954,1.0010223388671875,0.3916519284248352
1772708997107573200,1.6495732421875,0.42117518186569214,0.892351508140564,0.709135890007019
1772708997117598200,1.65959814453125,0.3805992603302002,0.9112207889556885,0.9851980805397034
1772708997127623400,1.66962353515625,0.26084303855895996,1.0609650611877441,1.2719686031341553
1772708997137648400,1.6796484375,0.02533997781574726,1.0491597652435303,1.490103840827942
1772708997147673000,1.689673095703125,-0.30813732743263245,0.8393503427505493,1.6389458179473877
1772708997157698000,1.699697998046875,-0.6079418659210205,0.5027028322219849,1.7585265636444092
1772708997167723300,1.70972314453125,-0.7040159702301025,0.0799611434340477,1.8799504041671753
1772708997177749200,1.719749267578125,-0.605891227722168,-0.4045858383178711,1.98403799533844
1772708997187774200,1.729774169921875,-0.3837242126464844,-0.8408558368682861,1.9900052547454834
1772708997197799200,1.739799072265625,-0.07982026040554047,-1.08841073513031,1.7823519706726074
1772708997207824100,1.74982421875,0.2338809370994568,-1.030735969543457,1.3413255214691162
1772708997217849300,1.759849365234375,0.4290408492088318,-0.8406305313110352,0.7082391977310181
1772708997227874300,1.769874267578125,0.4579545259475708,-0.701065719127655,-0.021467741578817368
1772708997237900300,1.779900390625,0.3144756555557251,-0.6640943884849548,-0.7424666881561279
1772708997247925200,1.78992529296875,0.04156235605478287,-0.6895973086357117,-1.3803770542144775
1772708997257950200,1.7999501953125,-0.28157976269721985,-0.640626847743988,-1.7812331914901733
1772708997267975400,1.809975341796875,-0.5166990756988525,-0.4987157881259918,-1.925991177558899
1772708997278000400,1.82000048828125,-0.7419766187667847,-0.39431509375572205,-1.9580620527267456
1772708997288025000,1.830025146484375,-0.9395791888237,-0.35811367630958557,-1.8805805444717407
1772708997298050000,1.840050048828125,-1.0311729907989502,-0.27708327770233154,-1.6915764808654785
1772708997308076000,1.850075927734375,-1.0164753198623657,-0.3182986080646515,-1.431648850440979
1772708997318101200,1.860101318359375,-0.9613010287284851,-0.5528194904327393,-1.0959019660949707
1772708997328126200,1.870126220703125,-0.9454455971717834,-0.8977614641189575,-0.7263966202735901
1772708997338151200,1.880151123046875,-0.9733669757843018,-1.3310151100158691,-0.3937632739543915
1772708997348176100,1.890176025390625,-1.0176979303359985,-1.7909116744995117,-0.1442868709564209
1772708997358201300,1.900201416015625,-0.9799362421035767,-2.1929004192352295,-0.026373816654086113
1772708997368226300,1.910226318359375,-0.9613825082778931,-2.5626885890960693,-0.07599835842847824
1772708997378252300,1.920252197265625,-1.0430365800857544,-3.141246795654297,-0.3037055432796478
1772708997388277200,1.93027734375,-0.9879075884819031,-3.5404326915740967,-0.49625715613365173
1772708997398302200,1.94030224609375,-0.6371961832046509,-2.9736552238464355,-0.31595849990844727
1772708997408327400,1.950327392578125,-0.23639868199825287,-1.573094367980957,0.2568837106227875
1772708997418352000,1.96035205078125,-0.02135935053229332,-0.26846128702163696,0.8002599477767944
1772708997428377000,1.970377197265625,-0.10285953432321548,0.06850609183311462,0.6184256672859192
1772708997438402000,1.980402099609375,-0.6078388094902039,0.12355656176805496,-0.32209068536758423
1772708997448428000,1.990427978515625,-1.2593865394592285,0.629193127155304,-1.5583149194717407
1772708997458453200,2.000453369140625,-1.4004498720169067,1.71799635887146,-2.2200124263763428
1772708997468478200,2.010478271484375,-1.0267434120178223,2.744593858718872,-1.8331654071807861
1772708997478503200,2.020503173828125,-0.34885358810424805,2.9716079235076904,-1.111421823501587
1772708997488528100,2.030528076171875,0.3063599169254303,2.364356517791748,-0.7446587085723877
1772708997498553300,2.04055322265625,0.7295836210250854,0.8918401598930359,-0.8250270485877991
1772708997508578300,2.050578369140625,1.0311994552612305,-0.6432977318763733,-0.9544258117675781
1772708997518604300,2.060604248046875,1.2360318899154663,-1.5314990282058716,-0.9398159384727478
1772708997528629200,2.070629150390625,1.2829999923706055,-1.6272633075714111,-0.8053132891654968
1772708997538654200,2.080654296875,1.1750324964523315,-1.0415617227554321,-0.5812514424324036
1772708997548679400,2.090679443359375,0.9868772029876709,-0.27637380361557007,-0.36621394753456116
1772708997558704000,2.1007041015625,0.7590885162353516,0.26576563715934753,-0.15955424308776855
1772708997568729000,2.11072900390625,0.6928128004074097,0.4311583340167999,-0.04439596086740494
1772708997578755000,2.120755126953125,0.8903123140335083,0.4472898840904236,0.0513787679374218
1772708997588780300,2.1307802734375,1.155798077583313,0.3804176449775696,0.15871481597423553
1772708997598805200,2.14080517578125,1.2668553590774536,0.30666378140449524,0.21381960809230804
1772708997608830200,2.150830322265625,1.170357346534729,0.3436122238636017,0.16852296888828278
1772708997618855200,2.160855224609375,0.9618679881095886,0.527654767036438,0.057064883410930634
1772708997628880400,2.17088037109375,0.6455614566802979,0.8326234817504883,-0.061049506068229675
1772708997638905300,2.1809052734375,0.3137102425098419,1.1695135831832886,-0.1267973631620407
1772708997648931300,2.190931396484375,0.07176819443702698,1.4417014122009277,-0.11842917650938034
1772708997658956300,2.200956298828125,-0.05042242631316185,1.4656767845153809,0.023627031594514847
1772708997668981200,2.210981201171875,-0.08402086794376373,1.141607642173767,0.27327069640159607
1772708997679006500,2.22100634765625,-0.08558094501495361,0.6122767329216003,0.5046804547309875
1772708997689031200,2.23103125,-0.04627828299999237,0.07697734236717224,0.665730893611908
1772708997699056000,2.24105615234375,0.02033243514597416,-0.3472844660282135,0.7424376606941223
1772708997709081000,2.2510810546875,0.008421980775892735,-0.6680917739868164,0.7997307777404785
1772708997719107000,2.261107177734375,-0.10653762519359589,-0.8722579479217529,0.8486743569374084
1772708997729132300,2.27113232421875,-0.2892960011959076,-1.0211398601531982,0.8642873764038086
1772708997739157200,2.2811572265625,-0.5006955862045288,-1.0784028768539429,0.8473009467124939
1772708997749182200,2.29118212890625,-0.6858960390090942,-0.9981303811073303,0.810538113117218
1772708997759207200,2.301207275390625,-0.7632840871810913,-0.8522490859031677,0.7763000130653381
1772708997769232400,2.311232421875,-0.7275888919830322,-0.7359299659729004,0.7587612271308899
1772708997779257300,2.32125732421875,-0.5846919417381287,-0.6516254544258118,0.745077908039093
1772708997789283300,2.331283447265625,-0.3712547719478607,-0.6507527232170105,0.7384045720100403
1772708997799308300,2.341308349609375,-0.11452498286962509,-0.7205848097801208,0.7997320890426636
1772708997809333200,2.351333251953125,0.12364550679922104,-0.8118454813957214,0.8683313727378845
1772708997819358500,2.3613583984375,0.2966098189353943,-1.0091817378997803,0.8634895086288452
1772708997829383200,2.371383056640625,0.42066627740859985,-1.263529896736145,0.794468104839325
1772708997839408000,2.381408203125,0.49409493803977966,-1.368889331817627,0.6727384328842163
1772708997849433000,2.39143310546875,0.4713379740715027,-1.2950533628463745,0.49455541372299194
1772708997859459000,2.401458984375,0.3669212758541107,-1.0928212404251099,0.28488340973854065
1772708997869484300,2.411484375,0.2531193494796753,-0.7248021960258484,0.10007333755493164
1772708997879509200,2.42150927734375,0.15037138760089874,-0.3129991888999939,-0.06369322538375854
1772708997889534700,2.43153466796875,0.027308320626616478,0.0326215922832489,-0.22642141580581665
1772708997899559700,2.4415595703125,-0.08037713170051575,0.23012295365333557,-0.32635441422462463
1772708997909584600,2.451584716796875,-0.1701139360666275,0.2312191128730774,-0.35935550928115845
1772708997919609600,2.461609619140625,-0.25014567375183105,0.018135327845811844,-0.3463590145111084
1772708997929635800,2.4716357421875,-0.2971203625202179,-0.2547302842140198,-0.2924358546733856
1772708997939660500,2.48166064453125,-0.34089767932891846,-0.44052013754844666,-0.1641436666250229
1772708997949685500,2.491685546875,-0.3430841267108917,-0.34766900539398193,0.06353183835744858
1772708997959710700,2.501710693359375,-0.3067737817764282,-0.0758228600025177,0.31651750206947327
1772708997969735700,2.511735595703125,-0.21984660625457764,0.10551950335502625,0.5713551044464111
1772708997979760600,2.5217607421875,-0.08032040297985077,0.15678028762340546,0.7259390950202942
1772708997989785600,2.53178564453125,0.12451636046171188,0.2951490879058838,0.7761231660842896
1772708997999811600,2.5418115234375,0.3352363109588623,0.7573790550231934,0.8725296258926392
1772708998009836800,2.5518369140625,0.6840265393257141,0.9675948619842529,0.9653042554855347
1772708998019861800,2.56186181640625,1.1033673286437988,0.8906441330909729,0.6628628969192505
1772708998029886700,2.57188671875,0.9662579298019409,1.4766900539398193,-0.12590999901294708
1772708998039911700,2.58191162109375,0.07521725445985794,2.2206690311431885,-1.1586230993270874
1772708998049937000,2.59193701171875,-0.7526034712791443,2.370107650756836,-1.7216066122055054
1772708998059961600,2.601961669921875,-0.7707984447479248,2.0777363777160645,-1.4488661289215088
1772708998069987800,2.61198779296875,-0.23872655630111694,1.4255259037017822,-0.8946809768676758
1772708998080012500,2.622012451171875,0.5206195116043091,0.4133652150630951,-0.6200481057167053
1772708998090037500,2.63203759765625,1.447326898574829,-0.6604181528091431,-0.7068871259689331
1772708998100062700,2.642062744140625,2.2539703845977783,-1.1168136596679688,-0.7191240787506104
1772708998110087700,2.652087646484375,2.5673224925994873,-0.937852680683136,-0.45092323422431946
1772708998120112600,2.662112548828125,2.394674062728882,-0.5546663999557495,-0.12036209553480148
1772708998130137600,2.6721376953125,2.0170180797576904,-0.17657344043254852,0.05874080955982208
1772708998140163600,2.68216357421875,1.5874109268188477,0.26236796379089355,0.021574800834059715
1772708998150188800,2.692188720703125,1.2420506477355957,0.8121815919876099,-0.15989352762699127
1772708998160213800,2.7022138671875,1.1046028137207031,1.4683319330215454,-0.38754531741142273
1772708998170238700,2.71223876953125,1.1104910373687744,2.0452663898468018,-0.5757104158401489
1772708998180263700,2.722263671875,1.1066360473632812,2.181752920150757,-0.7947801947593689
1772708998190288600,2.73228857421875,1.0665658712387085,1.8487226963043213,-1.0937697887420654
1772708998200313600,2.742313720703125,1.0600489377975464,1.3380240201950073,-1.2903300523757935
1772708998210339600,2.752339599609375,1.0357496738433838,0.7809783816337585,-1.2521005868911743
1772708998220364500,2.762364501953125,0.962219774723053,0.36700624227523804,-0.9401144981384277
1772708998230389500,2.772389404296875,0.8834312558174133,0.21606865525245667,-0.48211151361465454
1772708998240414700,2.782414794921875,0.7224077582359314,0.22082851827144623,-0.06780754029750824
1772708998250439700,2.792439697265625,0.4629617929458618,0.17111395299434662,0.2589130401611328
1772708998260464600,2.802464599609375,0.20747356116771698,0.0701250284910202,0.47523948550224304
1772708998270489600,2.812489501953125,0.03133102506399155,-0.07381483167409897,0.5960665941238403
1772708998280515600,2.822515625,-0.06091528385877609,-0.265659898519516,0.6749001145362854
1772708998290540800,2.832540771484375,-0.09496752172708511,-0.45707833766937256,0.7657282948493958
1772708998300565800,2.842565673828125,-0.11506906151771545,-0.5844213962554932,0.8591189980506897
1772708998310590700,2.8525908203125,-0.17932794988155365,-0.6697556972503662,0.9365882277488708
1772708998320615700,2.86261572265625,-0.2703089714050293,-0.7393028140068054,1.002713918685913
1772708998330640600,2.872640625,-0.3403695523738861,-0.7531992197036743,1.0961685180664062
1772708998340665600,2.88266552734375,-0.38789474964141846,-0.771978497505188,1.1877131462097168
1772708998350691600,2.892691650390625,-0.41324377059936523,-0.810756266117096,1.246364951133728
1772708998360716500,2.902716552734375,-0.43172529339790344,-0.8118787407875061,1.2506028413772583
1772708998370741500,2.912741455078125,-0.42900729179382324,-0.7753452658653259,1.201309084892273
1772708998380766700,2.9227666015625,-0.4067201018333435,-0.7110962271690369,1.1075959205627441
1772708998390791700,2.932791748046875,-0.3913046419620514,-0.621489405632019,0.937771737575531
1772708998400816600,2.942816650390625,-0.3924436867237091,-0.4979993999004364,0.7016444206237793
1772708998410841600,2.952841552734375,-0.3784354627132416,-0.3048698902130127,0.45099806785583496
1772708998420866800,2.96286669921875,-0.3802352249622345,-0.06807652115821838,0.22572340071201324
1772708998430892800,2.972892822265625,-0.40439942479133606,0.12260740995407104,0.016800284385681152
1772708998440917800,2.982917724609375,-0.41990354657173157,0.27270954847335815,-0.16492584347724915
1772708998450942700,2.992942626953125,-0.42313289642333984,0.36685389280319214,-0.29861918091773987
1772708998460967400,3.002967529296875,-0.42896705865859985,0.37323057651519775,-0.3583988845348358
1772708998470992600,3.01299267578125,-0.45322659611701965,0.28510019183158875,-0.34293150901794434
1772708998481017600,3.023017578125,-0.5005877017974854,0.16696129739284515,-0.2768816649913788
1772708998491042600,3.03304248046875,-0.5586563348770142,0.043710727244615555,-0.148575097322464
1772708998501068500,3.043068603515625,-0.6021479368209839,-0.03093607723712921,0.01594913937151432
1772708998511093500,3.053093505859375,-0.5786260962486267,0.019327359274029732,0.15385960042476654
1772708998521118700,3.06311865234375,-0.4737955331802368,0.20138424634933472,0.22099097073078156
1772708998531143700,3.073143798828125,-0.30972057580947876,0.5470508337020874,0.20922085642814636
1772708998541168600,3.083168701171875,-0.07009093463420868,1.0031776428222656,0.1856023520231247
1772708998551193600,3.093193603515625,0.22874262928962708,1.3795256614685059,0.17517074942588806
1772708998561218800,3.10321875,0.5512442588806152,1.5294922590255737,0.32622843980789185
1772708998571244800,3.113244873046875,0.9720767140388489,1.4559117555618286,0.890340268611908
1772708998581269800,3.123269775390625,1.4601750373840332,1.0663731098175049,1.873107671737671
1772708998591294700,3.133294677734375,1.7268922328948975,-0.024566330015659332,2.4907643795013428
1772708998601319400,3.1433193359375,1.3575303554534912,-0.9035146832466125,2.343327045440674
1772708998611344600,3.1533447265625,0.36020025610923767,-0.9806305170059204,1.5848753452301025
1772708998621369600,3.16336962890625,-0.7271388173103333,-0.4686790704727173,0.6069085597991943
1772708998631394600,3.17339453125,-1.212651252746582,0.4731428027153015,-0.21780236065387726
1772708998641420500,3.183420654296875,-1.1600452661514282,1.4953721761703491,-0.8586979508399963
1772708998651445500,3.193445556640625,-0.6579020023345947,2.1766202449798584,-1.347249984741211
1772708998661470700,3.203470703125,0.018677014857530594,2.137310266494751,-1.6741688251495361
1772708998671495700,3.21349560546875,0.5363473296165466,1.3800508975982666,-1.9520951509475708
1772708998681520600,3.223520751953125,0.9284935593605042,0.45742934942245483,-2.0221571922302246
1772708998691545600,3.233545654296875,1.1199383735656738,-0.23803360760211945,-1.7886652946472168
1772708998701570800,3.24357080078125,0.9992590546607971,-0.5168628096580505,-1.2411081790924072
1772708998711596800,3.2535966796875,0.6600533127784729,-0.47059333324432373,-0.5714741349220276
1772708998721621800,3.263621826171875,0.24190478026866913,-0.2511054575443268,-0.10054178535938263
1772708998731646700,3.273646728515625,-0.04922720044851303,-0.016989102587103844,-0.02569551020860672
1772708998741671700,3.283671630859375,-0.13999305665493011,0.23852388560771942,-0.28525224328041077
1772708998751696600,3.293696533203125,-0.017535584047436714,0.5603194832801819,-0.7239904403686523
1772708998761721600,3.3037216796875,0.27118170261383057,0.8611248731613159,-1.211098074913025
1772708998771746600,3.31374658203125,0.5991981625556946,1.0335490703582764,-1.6403224468231201
1772708998781772500,3.3237724609375,0.8700882792472839,1.1395407915115356,-1.9189079999923706
1772708998791797800,3.3337978515625,1.0266622304916382,1.2027604579925537,-1.9424606561660767
1772708998801822700,3.34382275390625,1.0413124561309814,1.1480474472045898,-1.6514475345611572
1772708998811847700,3.35384765625,0.9492054581642151,0.9293745160102844,-1.084362506866455
1772708998821872600,3.36387255859375,0.7690277099609375,0.4831882417201996,-0.3505620062351227
1772708998831897900,3.37389794921875,0.49507445096969604,-0.1398487091064453,0.37066781520843506
1772708998841922800,3.3839228515625,0.1719941347837448,-0.8276747465133667,0.9389296770095825
1772708998851947500,3.393947509765625,-0.11560436338186264,-1.3896957635879517,1.3278294801712036
1772708998861973800,3.403973876953125,-0.3066997528076172,-1.7880889177322388,1.5352479219436646
1772708998871998500,3.41399853515625,-0.4029378592967987,-1.9715815782546997,1.5818984508514404
1772708998882023700,3.424023681640625,-0.39390069246292114,-1.9501044750213623,1.5040076971054077
1772708998892049000,3.434048828125,-0.2993089556694031,-1.7412357330322266,1.3505922555923462
1772708998902073900,3.444073974609375,-0.17283809185028076,-1.3724256753921509,1.1588380336761475
1772708998912098600,3.4540986328125,-0.04895981773734093,-0.8884459733963013,0.9552849531173706
1772708998922123800,3.464123779296875,0.028961343690752983,-0.4060622751712799,0.7667259573936462
1772708998932149800,3.474149658203125,0.02521693892776966,-0.046365369111299515,0.5985470414161682
1772708998942174700,3.4841748046875,-0.09718593955039978,0.11143864691257477,0.4709853529930115
1772708998952199700,3.49419970703125,-0.3374193012714386,0.08391034603118896,0.36618250608444214
1772708998962224600,3.504224609375,-0.7188633680343628,-0.07462150603532791,0.26530757546424866
1772708998972249900,3.514249755859375,-1.190696120262146,-0.2579505741596222,0.13561135530471802
1772708998982274800,3.52427490234375,-1.5988385677337646,-0.37936756014823914,-0.009821738116443157
1772708998992299800,3.5342998046875,-1.8180484771728516,-0.38097691535949707,-0.10864818096160889
1772708999002325800,3.54432568359375,-1.844933271408081,-0.3371330201625824,-0.1773955523967743
1772708999012350700,3.554350830078125,-1.7191410064697266,-0.26962029933929443,-0.22779828310012817
1772708999022376000,3.5643759765625,-1.4735661745071411,-0.12351927161216736,-0.24543479084968567
1772708999032401000,3.57440087890625,-1.1940197944641113,0.05501025542616844,-0.26362550258636475
1772708999042425600,3.584425537109375,-0.9852628111839294,0.18180948495864868,-0.2606941759586334
1772708999052450600,3.594450439453125,-0.871050238609314,0.2588861584663391,-0.21654722094535828
1772708999062475800,3.604475830078125,-0.8887322545051575,0.3627385199069977,-0.12052774429321289
1772708999072500700,3.614500732421875,-1.002320408821106,0.5043315887451172,0.04151042550802231
1772708999082526700,3.624526611328125,-1.1527135372161865,0.6702867746353149,0.2752366364002228
1772708999092551700,3.6345517578125,-1.2750743627548218,0.8029484152793884,0.5453980565071106
1772708999102576600,3.64457666015625,-1.2937541007995605,0.8071508407592773,0.7728139162063599
1772708999112601900,3.654601806640625,-1.2740408182144165,0.6319625377655029,0.8777121305465698
1772708999122626800,3.664626708984375,-1.3072052001953125,0.19786007702350616,0.8217210173606873
1772708999132651800,3.67465185546875,-1.4418209791183472,-0.3918764293193817,0.6660885214805603
1772708999142676700,3.6846767578125,-1.563460350036621,-0.8008426427841187,0.5313613414764404
1772708999152702700,3.69470263671875,-1.5715806484222412,-0.778783917427063,0.4499163031578064
1772708999162728000,3.70472802734375,-1.3880478143692017,-0.19502301514148712,0.4706740379333496
1772708999172753000,3.7147529296875,-1.053887963294983,0.7492750287055969,0.539461612701416
1772708999182777600,3.724777587890625,-0.8412502408027649,1.7830193042755127,0.5069790482521057
1772708999192802600,3.734802490234375,-0.8010956048965454,2.549051284790039,0.35111674666404724
1772708999202827800,3.744827880859375,-0.811060905456543,2.8242435455322266,0.16029779613018036
1772708999212852700,3.754852783203125,-0.7689036130905151,2.638249635696411,0.06784801930189133
1772708999222877700,3.764877685546875,-0.7281132936477661,2.0450937747955322,-0.07018441706895828
1772708999232903700,3.774903564453125,-0.6476906538009644,1.2444355487823486,-0.37745487689971924
1772708999242928600,3.7849287109375,-0.45902085304260254,0.39971598982810974,-0.944268524646759
1772708999252953900,3.794953857421875,-0.16581159830093384,-0.11214038729667664,-1.6673632860183716
1772708999262978800,3.804978759765625,0.23869140446186066,-0.2413146197795868,-2.1689774990081787
1772708999273003800,3.815003662109375,0.60931795835495,-0.19005116820335388,-2.3046371936798096
1772708999283028700,3.82502880859375,0.7576496005058289,-0.002692189533263445,-2.2282845973968506
1772708999293053700,3.8350537109375,0.7371848225593567,0.20963124930858612,-2.0758183002471924
1772708999303080000,3.845079833984375,0.6477819681167603,0.21027494966983795,-1.9549267292022705
1772708999313104600,3.855104736328125,0.6111744046211243,-0.18299351632595062,-1.8341161012649536
1772708999323129600,3.865129638671875,0.8119688034057617,-1.161716341972351,-1.7227592468261719
1772708999333154600,3.875154541015625,1.0130046606063843,-2.262082815170288,-1.7278183698654175
1772708999343179800,3.8851796875,1.0508772134780884,-2.905405044555664,-1.6669132709503174
1772708999353204700,3.895204833984375,0.9180858731269836,-2.990144729614258,-1.432334542274475
1772708999363229700,3.905229736328125,0.5935520529747009,-2.479689598083496,-1.0333749055862427
1772708999373255700,3.915255615234375,0.28681260347366333,-1.5105420351028442,-0.5081630945205688
1772708999383280600,3.92528076171875,0.1630062311887741,-0.5109346508979797,0.12680375576019287
1772708999393305900,3.935305908203125,0.124703049659729,0.11680997163057327,0.7749332785606384
1772708999403330800,3.945330810546875,0.13679192960262299,0.19682997465133667,1.3179994821548462
1772708999413355800,3.955355712890625,0.1683085858821869,-0.2209225296974182,1.685478925704956
1772708999423380700,3.965380615234375,0.14302533864974976,-0.9617494940757751,1.787145972251892
1772708999433405700,3.97540576171875,0.08480463922023773,-1.683831810951233,1.6839295625686646
1772708999443430700,3.9854306640625,0.02636183239519596,-2.0573158264160156,1.4854191541671753
1772708999453456600,3.99545654296875,-0.047977644950151443,-2.0995967388153076,1.2901899814605713
1772708999463481600,4.005481689453125,-0.11722090095281601,-1.8986694812774658,1.1941797733306885
1772708999473506800,4.0155068359375,-0.10106643289327621,-1.4640661478042603,1.1970787048339844
1772708999483531800,4.02553173828125,0.010044378228485584,-0.8184903264045715,1.179262399673462
1772708999493556700,4.035556640625,0.20270757377147675,-0.10056442767381668,1.1097232103347778
1772708999503581700,4.045581787109375,0.42807066440582275,0.45598456263542175,1.0002830028533936
1772708999513607000,4.05560693359375,0.5729551315307617,0.753974974155426,0.8565823435783386
1772708999523632600,4.065632568359375,0.6400446891784668,0.7711129784584045,0.6681452989578247
1772708999533657900,4.075657958984375,0.596325159072876,0.5441301465034485,0.49869343638420105
1772708999543682800,4.085682861328125,0.4287574887275696,0.10852168500423431,0.4079720377922058
1772708999553707800,4.095707763671875,0.2110094428062439,-0.35955071449279785,0.3923179805278778
1772708999563732700,4.105732666015625,0.003733751829713583,-0.7175959348678589,0.4109739661216736
1772708999573757700,4.1157578125,-0.12804505228996277,-0.8468514084815979,0.44186103343963623
1772708999583782700,4.12578271484375,-0.19153374433517456,-0.6816717386245728,0.46998295187950134
1772708999593807600,4.1358076171875,-0.22895728051662445,-0.32870012521743774,0.42579764127731323
1772708999603833600,4.14583349609375,-0.2525422275066376,0.07417383044958115,0.35545584559440613
1772708999613858800,4.15585888671875,-0.28504663705825806,0.4065954387187958,0.30033719539642334
1772708999623883800,4.1658837890625,-0.37222787737846375,0.6068038940429688,0.25088736414909363
1772708999633908700,4.17590869140625,-0.4771449863910675,0.673581600189209,0.19512341916561127
1772708999643933700,4.18593359375,-0.5932247042655945,0.6926509141921997,0.1116037592291832
1772708999653959000,4.195958984375,-0.7316761016845703,0.7813916802406311,0.03718571737408638
1772708999663983900,4.20598388671875,-0.8770215511322021,0.9711592197418213,-0.017557421699166298
1772708999674008800,4.2160087890625,-1.0209344625473022,1.168875813484192,-0.06965897232294083
1772708999684034800,4.226034912109375,-1.1757837533950806,1.2954739332199097,-0.0509052574634552
1772708999694059800,4.236059814453125,-1.2615143060684204,1.3705508708953857,0.07105793058872223
1772708999704084700,4.246084716796875,-1.1805777549743652,1.4278171062469482,0.24896134436130524
1772708999714109700,4.256109619140625,-0.8858949542045593,1.332744836807251,0.370597779750824
1772708999724134700,4.266134765625,-0.43909400701522827,1.128843903541565,0.2959890365600586
1772708999734159600,4.27615966796875,0.04181668907403946,1.103635549545288,0.15815554559230804
1772708999744184800,4.286184814453125,0.4237768352031708,1.2619357109069824,0.11620410531759262
1772708999754210800,4.2962109375,0.6763318777084351,1.4382867813110352,0.2795639932155609
1772708999764235800,4.30623583984375,0.8124588131904602,1.51333749294281,0.5430571436882019
1772708999774260700,4.3162607421875,0.7839656472206116,1.4331567287445068,0.6791455149650574
1772708999784285700,4.32628564453125,0.6917068362236023,1.2889494895935059,0.7699872255325317
1772708999794311000,4.336310791015625,0.7147218585014343,1.0123175382614136,0.9022020101547241
1772708999804335900,4.3463359375,0.7340039610862732,0.7014390826225281,0.8530610799789429
1772708999814360800,4.35636083984375,0.7043280601501465,0.4358564019203186,0.4624062478542328
1772708999824385500,4.366385498046875,0.7955400347709656,-0.0623541884124279,-0.23200367391109467
1772708999834411800,4.376411865234375,1.1732805967330933,-0.7013168334960938,-1.0711805820465088
1772708999844436700,4.386436767578125,1.5892858505249023,-1.1759587526321411,-1.8132585287094116
1772708999854461700,4.396461669921875,1.7208404541015625,-1.1744590997695923,-2.3050014972686768
1772708999864486700,4.406486572265625,1.615033507347107,-0.8269227147102356,-2.5733728408813477
1772708999874511600,4.41651171875,1.424324631690979,-0.5079220533370972,-2.713690757751465
1772708999884537300,4.426537353515625,1.3034961223602295,-0.267227441072464,-2.70088529586792
1772708999894562300,4.436562255859375,1.2087910175323486,-0.11896952986717224,-2.508659601211548
1772708999904588300,4.44658837890625,0.9436871409416199,-0.13098597526550293,-2.2071609497070312
1772708999914613200,4.45661328125,0.479124516248703,-0.19449864327907562,-1.8346596956253052
1772708999924638200,4.46663818359375,-0.18358980119228363,-0.14608317613601685,-1.4894872903823853
1772708999934663200,4.4766630859375,-0.9150189757347107,0.01834678277373314,-1.2071278095245361
1772708999944688000,4.486688232421875,-1.4856982231140137,0.17660406231880188,-0.9112860560417175
1772708999954713000,4.496713134765625,-1.7536572217941284,0.19049112498760223,-0.5687524080276489
1772708999964738000,4.506738037109375,-1.7919188737869263,0.0010868359822779894,-0.20916253328323364
1772708999974763300,4.51676318359375,-1.691451907157898,-0.4244261085987091,0.09680430591106415
1772708999984789200,4.526789306640625,-1.4788618087768555,-0.9836084246635437,0.31101328134536743
1772708999994814200,4.536814208984375,-1.1793944835662842,-1.511521577835083,0.40695977210998535
1772709000004839200,4.546839111328125,-0.8992072939872742,-1.8731348514556885,0.3870912492275238
1772709000014864100,4.556864013671875,-0.6704979538917542,-1.9938905239105225,0.3084976375102997
1772709000024889300,4.566889404296875,-0.5093601942062378,-1.9211000204086304,0.2333935797214508
1772709000034914300,4.576914306640625,-0.39032381772994995,-1.7081084251403809,0.24802125990390778
1772709000044939000,4.58693896484375,-0.30755674839019775,-1.352175235748291,0.34257811307907104
1772709000054964000,4.5969638671875,-0.2544005811214447,-0.927162230014801,0.4165029525756836
1772709000064990000,4.606989990234375,-0.20212380588054657,-0.5698525309562683,0.36645230650901794
1772709000075015200,4.61701513671875,-0.15246596932411194,-0.2658527195453644,0.2228993922472
1772709000085040000,4.6270400390625,-0.11822783946990967,-0.01642451249063015,0.018628012388944626
1772709000095065000,4.637065185546875,-0.07361377030611038,0.230895534157753,-0.19631224870681763
1772709000105090000,4.647090087890625,-0.026396453380584717,0.5021145343780518,-0.34628018736839294
1772709000115115300,4.657115234375,-0.023448068648576736,0.7142560482025146,-0.4211709201335907
1772709000125140200,4.66714013671875,-0.05040857940912247,0.8044307231903076,-0.4453686773777008
1772709000135165200,4.677165283203125,-0.06898333132266998,0.8123418688774109,-0.4596829116344452
1772709000145191200,4.687191162109375,-0.04605111479759216,0.8152229189872742,-0.4620267450809479
1772709000155216100,4.697216064453125,-0.005561213009059429,0.8980517387390137,-0.416473388671875
1772709000165241300,4.707241455078125,-0.012941631488502026,0.9779156446456909,-0.26769641041755676
1772709000175266300,4.717266357421875,-0.07449154555797577,0.9472568035125732,-0.030709443613886833
1772709000185291000,4.727291015625,-0.13271276652812958,0.8121509552001953,0.2899862825870514
1772709000195316000,4.73731591796875,-0.17782805860042572,0.6525285243988037,0.6704390645027161
1772709000205341200,4.747341064453125,-0.19875571131706238,0.5077716112136841,1.0482726097106934
1772709000215366100,4.7573662109375,-0.17812632024288177,0.4069296717643738,1.372322678565979
1772709000225392000,4.76739208984375,-0.12454112619161606,0.3316466510295868,1.5914866924285889
1772709000235417000,4.7774169921875,-0.03346208482980728,0.3126188814640045,1.7376681566238403
1772709000245442000,4.787442138671875,0.04717283695936203,0.3856624662876129,1.7718473672866821
1772709000255467300,4.79746728515625,0.046711310744285583,0.6754612922668457,1.6797065734863281
1772709000265492200,4.8074921875,-0.03437155485153198,1.2132169008255005,1.48261296749115
1772709000275517200,4.81751708984375,-0.09657953679561615,1.815322995185852,1.2548487186431885
1772709000285542100,4.827542236328125,0.03863447904586792,2.149791717529297,1.143550992012024
1772709000295567400,4.8375673828125,0.4337053596973419,1.9927973747253418,1.2448128461837769
1772709000305593300,4.84759326171875,1.1547101736068726,1.3539063930511475,1.4347202777862549
1772709000315618300,4.857618408203125,2.1155755519866943,0.5418393015861511,1.3850769996643066
1772709000325643000,4.86764306640625,2.8938870429992676,0.3737102150917053,0.9283537268638611
1772709000335668000,4.87766796875,3.1724488735198975,0.7537766098976135,0.018862370401620865
1772709000345693200,4.887693115234375,2.974757671356201,1.1684856414794922,-1.1818912029266357
1772709000355718100,4.89771826171875,2.5814411640167236,1.5274935960769653,-2.25907301902771
1772709000365743000,4.9077431640625,2.2443301677703857,1.836389422416687,-2.845198631286621
1772709000375769000,4.91776904296875,1.9615145921707153,2.059798240661621,-2.8857288360595703
1772709000385794000,4.9277939453125,1.8272299766540527,1.9543043375015259,-2.5380733013153076
1772709000395819300,4.9378193359375,1.9528038501739502,1.4059597253799438,-2.1035165786743164
1772709000405844200,4.94784423828125,2.2061398029327393,0.31450867652893066,-1.7160539627075195
1772709000415869200,4.957869140625,2.286905527114868,-0.9531269669532776,-1.2933902740478516
1772709000425894100,4.96789404296875,2.1841835975646973,-1.99180269241333,-0.8283426761627197
1772709000435919000,4.977919189453125,1.9928383827209473,-2.4474735260009766,-0.48080575466156006
1772709000445944000,4.987944091796875,1.6666873693466187,-2.3694491386413574,-0.4590293765068054
1772709000455970000,4.997969970703125,1.2752083539962769,-1.951564908027649,-0.7676050662994385
1772709000465995000,5.0079951171875,0.8454055786132812,-1.440477728843689,-1.2992188930511475
1772709000476020200,5.018020263671875,0.4192870259284973,-0.9127721190452576,-1.8006258010864258
1772709000486045200,5.028045166015625,0.1048654317855835,-0.4540119767189026,-2.019090175628662
1772709000496070100,5.038070068359375,-0.16022855043411255,-0.14535053074359894,-1.8332300186157227
1772709000506095000,5.04809521484375,-0.3418406844139099,0.016156865283846855,-1.2427606582641602
1772709000516120300,5.058120361328125,-0.39688342809677124,-0.006875216495245695,-0.2883132994174957
1772709000526145300,5.068145263671875,-0.4371275305747986,-0.2460329383611679,0.7779176235198975
1772709000536171300,5.078171142578125,-0.5682117938995361,-0.6564484238624573,1.6721961498260498
1772709000546196200,5.0881962890625,-0.7515339255332947,-1.1386467218399048,2.252012252807617
1772709000556221200,5.09822119140625,-0.896600604057312,-1.5559028387069702,2.4827895164489746
1772709000566246100,5.10824609375,-0.9024142622947693,-1.7692101001739502,2.409397840499878
1772709000576271000,5.11827099609375,-0.7304611206054688,-1.7524244785308838,2.1445250511169434
1772709000586296000,5.128296142578125,-0.45054346323013306,-1.6468091011047363,1.8099029064178467
1772709000596321000,5.138321044921875,-0.19780442118644714,-1.492321252822876,1.4469071626663208
1772709000606346200,5.14834619140625,-0.03321893885731697,-1.3124507665634155,1.1054645776748657
1772709000616372200,5.158372314453125,0.05337986722588539,-1.113060712814331,0.813220202922821
1772709000626397200,5.168397216796875,0.08203042298555374,-0.9361394643783569,0.5999795794487
1772709000636422100,5.178422119140625,0.06761472672224045,-0.8107152581214905,0.5276212096214294
1772709000646447000,5.188447021484375,0.04531368613243103,-0.7214764356613159,0.6135097742080688
1772709000656472300,5.198472412109375,0.05150952935218811,-0.6359553933143616,0.7951778173446655
1772709000666497300,5.208497314453125,0.09776357561349869,-0.469412237405777,0.9433635473251343
1772709000676522200,5.218522216796875,0.12946930527687073,-0.19605526328086853,0.9922876954078674
1772709000686547000,5.228546875,0.07845912128686905,0.11017817258834839,0.9351482391357422
1772709000696573200,5.2385732421875,-0.04039642587304115,0.37380048632621765,0.8071905374526978
1772709000706598100,5.24859814453125,-0.17389003932476044,0.5269505977630615,0.6300232410430908
1772709000716623000,5.258623046875,-0.2890765368938446,0.5962444543838501,0.4073816239833832
1772709000727273200,5.269273193359375,-0.47410205006599426,0.7860732674598694,0.1071605384349823
1772709000737299200,5.27929931640625,-0.7010622620582581,1.1930879354476929,-0.22581927478313446
1772709000747324200,5.28932421875,-0.9917563796043396,1.7045820951461792,-0.6044920086860657
1772709000757349400,5.299349365234375,-1.2646294832229614,2.177406072616577,-0.8537849187850952
1772709000767374300,5.309374267578125,-1.3260822296142578,2.3788585662841797,-0.8805521130561829
1772709000777399000,5.31939892578125,-1.231994867324829,2.173607349395752,-0.7854370474815369
1772709000787424000,5.329424072265625,-1.080647349357605,1.637572169303894,-0.6885563135147095
1772709000797449200,5.33944921875,-0.9270679354667664,1.0454190969467163,-0.5638676285743713
1772709000807474200,5.34947412109375,-0.8107687830924988,0.6080196499824524,-0.33796846866607666
1772709000817500200,5.359500244140625,-0.7181237936019897,0.40091732144355774,-0.04182920604944229
1772709000827525000,5.369525146484375,-0.5489978790283203,0.38681402802467346,0.2474105954170227
1772709000837550000,5.379550048828125,-0.21514692902565002,0.5120707750320435,0.49227067828178406
1772709000847575300,5.3895751953125,0.2879851758480072,0.7278962731361389,0.7653786540031433
1772709000857600300,5.399600341796875,0.8351777195930481,0.8532573580741882,1.2046865224838257
1772709000867625200,5.409625244140625,1.2014331817626953,0.9010440707206726,1.6417200565338135
1772709000877650200,5.419650146484375,1.409479022026062,0.6907952427864075,1.9066438674926758
1772709000887675100,5.429675048828125,1.5043491125106812,0.39710527658462524,1.8675962686538696
1772709000897700600,5.43970068359375,1.4034554958343506,0.5606588125228882,1.375623345375061
1772709000907725600,5.4497255859375,0.9412751197814941,1.3163483142852783,0.6202909350395203
1772709000917750500,5.45975048828125,0.20482690632343292,1.963965654373169,0.07490753382444382
1772709000927775700,5.469775634765625,-0.4944283664226532,2.020076274871826,-0.1061171144247055
1772709000937800700,5.47980078125,-0.9955186247825623,1.4451230764389038,-0.06378137320280075
1772709000947825400,5.489825439453125,-1.0357922315597534,0.5146340131759644,0.2820495367050171
1772709000957850400,5.499850341796875,-0.7459666132926941,-0.6530987024307251,0.5840961933135986
1772709000967875600,5.50987548828125,-0.3499835729598999,-1.455942153930664,0.30473408102989197
1772709000977901600,5.519901611328125,0.12856942415237427,-1.4484142065048218,-0.3201364576816559
1772709000987926500,5.529926513671875,0.6434974670410156,-0.7339344620704651,-1.0366090536117554
1772709000997951500,5.539951416015625,0.9914757013320923,0.4357389509677887,-1.6767607927322388
1772709001007976400,5.5499765625,1.094098687171936,1.769824504852295,-2.056694746017456
1772709001018001700,5.560001708984375,0.9568833708763123,2.8410370349884033,-2.1286213397979736
1772709001028026600,5.570026611328125,0.715112030506134,2.9559175968170166,-1.9403700828552246
1772709001038051600,5.580051513671875,0.4813874065876007,1.985097050666809,-1.6227836608886719
1772709001048076500,5.59007666015625,0.2958553433418274,0.44868698716163635,-1.2473613023757935
1772709001058102500,5.6001025390625,0.184981569647789,-1.2071374654769897,-0.7603865265846252
1772709001077526500,5.619526611328125,0.027483023703098297,-3.207038164138794,0.11703287810087204
1772709001087551500,5.629551513671875,-0.0331619493663311,-2.99117112159729,0.3548204004764557
1772709001097576700,5.63957666015625,-0.04224812239408493,-1.952803611755371,0.3800189793109894
1772709001107601700,5.6496015625,-0.044717937707901,-0.6577102541923523,0.19425097107887268
1772709001117626400,5.65962646484375,-0.04519277811050415,0.46484890580177307,-0.0968967154622078
1772709001127651300,5.6696513671875,0.050462909042835236,1.1999801397323608,-0.3635481297969818
1772709001137677300,5.67967724609375,0.16208983957767487,1.4429744482040405,-0.5979204177856445
1772709001147702500,5.68970263671875,0.23427481949329376,1.2699846029281616,-0.8026708960533142
1772709001157727500,5.6997275390625,0.28227484226226807,0.8233622908592224,-0.9196909666061401
1772709001167752400,5.70975244140625,0.30529093742370605,0.24210557341575623,-0.885331392288208
1772709001177777400,5.71977734375,0.2556842267513275,-0.31719261407852173,-0.7177517414093018
1772709001187802600,5.729802734375,0.10335701704025269,-0.7015866041183472,-0.4551645815372467
1772709001197827600,5.73982763671875,-0.09579923003911972,-0.8124228715896606,-0.10553202033042908
1772709001207852500,5.7498525390625,-0.30579695105552673,-0.6552579998970032,0.25539660453796387
1772709001217878500,5.75987841796875,-0.4769265949726105,-0.38089755177497864,0.5533382892608643
1772709001227903500,5.769903564453125,-0.6031977534294128,-0.09131287038326263,0.773624062538147
1772709001237928700,5.7799287109375,-0.6693631410598755,0.07978803664445877,0.885466992855072
1772709001247953700,5.78995361328125,-0.6811436414718628,0.08419983088970184,0.822407603263855
1772709001257978400,5.799978271484375,-0.6604660749435425,-0.04202628135681152,0.589827299118042
1772709001268003600,5.810003662109375,-0.6517503261566162,-0.2690911293029785,0.2189272791147232
1772709001278028500,5.820028564453125,-0.675518810749054,-0.4865241050720215,-0.2502758800983429
1772709001288053500,5.830053466796875,-0.7425668239593506,-0.6065500974655151,-0.6762290596961975
1772709001298079500,5.84007958984375,-0.8361620306968689,-0.601547360420227,-0.9324350357055664
1772709001308104400,5.8501044921875,-0.9135446548461914,-0.4645647406578064,-0.9699112772941589
1772709001318129700,5.860129638671875,-0.9363796710968018,-0.13149358332157135,-0.7818990349769592
1772709001328154600,5.870154541015625,-0.892576277256012,0.33028870820999146,-0.42534971237182617
1772709001338179600,5.8801796875,-0.8139208555221558,0.7256120443344116,0.03242798149585724
1772709001348204500,5.89020458984375,-0.7065925598144531,0.9194946885108948,0.5279764533042908
1772709001358229800,5.900229736328125,-0.5981206893920898,0.8692304491996765,0.9434234499931335
1772709001368254500,5.91025439453125,-0.5461357831954956,0.6066741943359375,1.2143590450286865
1772709001378280700,5.92028076171875,-0.5638543367385864,0.2271212935447693,1.3560261726379395
1772709001388305400,5.930305419921875,-0.6116042733192444,-0.08333536982536316,1.3938822746276855
1772709001398330400,5.940330322265625,-0.6499170064926147,-0.20354007184505463,1.3694440126419067
1772709001408355600,5.95035546875,-0.61126309633255,-0.20123058557510376,1.3602817058563232
1772709001418380500,5.960380615234375,-0.45898303389549255,-0.13785719871520996,1.3497693538665771
1772709001428405500,5.970405517578125,-0.20372062921524048,-0.14545892179012299,1.2857462167739868
1772709001438430500,5.980430419921875,0.17508259415626526,-0.3450298309326172,1.2566196918487549
1772709001448455700,5.99045556640625,0.6924602389335632,-0.5184415578842163,1.5331977605819702
1772709001458481700,6.000481689453125,1.2561103105545044,-0.45452195405960083,2.031874418258667
1772709001468506600,6.010506591796875,1.6867657899856567,-0.4283018112182617,2.4285616874694824
1772709001478531600,6.020531494140625,1.8888823986053467,-0.3888859748840332,2.3972854614257812
1772709001488556500,6.030556640625,1.6386067867279053,0.0022479742765426636,1.9417821168899536
1772709001498581800,6.040581787109375,0.8802698254585266,0.41848379373550415,1.2852990627288818
1772709001508606500,6.0506064453125,0.20256935060024261,0.4306027889251709,0.6729192733764648
1772709001518631400,6.06063134765625,-0.0832245796918869,0.1623351126909256,0.0944434180855751
1772709001528657400,6.070657470703125,-0.01992577128112316,-0.24628913402557373,-0.5156028866767883
1772709001538682400,6.080682373046875,0.2192375510931015,-0.4671405553817749,-1.1046065092086792
1772709001548707600,6.09070751953125,0.5258557796478271,-0.5246323347091675,-1.713126301765442
1772709001558732500,6.100732666015625,0.976098358631134,-0.32646864652633667,-2.3432891368865967
1772709001568757500,6.110757568359375,1.3317928314208984,-0.06969013065099716,-2.6855227947235107
1772709001578782500,6.120782470703125,1.385391354560852,0.27941006422042847,-2.6349103450775146
1772709001588807700,6.1308076171875,1.0948190689086914,0.7257135510444641,-2.3766555786132812
1772709001598832600,6.14083251953125,0.5790969133377075,1.0299434661865234,-2.1520180702209473
1772709001608858600,6.150858642578125,0.12787353992462158,1.0771533250808716,-2.1155216693878174
1772709001618883600,6.160883544921875,0.020254138857126236,0.8117696046829224,-2.231273651123047
1772709001628908500,6.170908447265625,0.26730093359947205,0.3343369662761688,-2.2879908084869385
1772709001638933500,6.18093359375,0.6210803389549255,-0.1633031666278839,-2.166951894760132
1772709001648958500,6.19095849609375,0.8328325152397156,-0.5843127369880676,-1.9086343050003052
1772709001658983400,6.2009833984375,0.8421269655227661,-0.7660702466964722,-1.5776454210281372
1772709001669008400,6.21100830078125,0.7075361013412476,-0.6247730851173401,-1.2173138856887817
1772709001679033600,6.22103369140625,0.5458250045776367,-0.36559396982192993,-0.8234571218490601
1772709001689059600,6.2310595703125,0.417294979095459,-0.13957920670509338,-0.4046233892440796
1772709001699084500,6.24108447265625,0.32727372646331787,0.053287189453840256,-0.027299264445900917
1772709001709109500,6.251109619140625,0.21204088628292084,0.16455087065696716,0.23567697405815125
1772709001719134500,6.261134521484375,0.0291789248585701,0.1635444611310959,0.30895569920539856
1772709001729159700,6.27115966796875,-0.20442929863929749,0.048416536301374435,0.24692882597446442
1772709001739184600,6.2811845703125,-0.4014366567134857,-0.19877274334430695,0.1172933354973793
1772709001749209600,6.291209716796875,-0.5349374413490295,-0.5691074132919312,-0.031382955610752106
1772709001759234300,6.301234375,-0.5804950594902039,-0.982748806476593,-0.07723406702280045
1772709001769260500,6.311260498046875,-0.5601181387901306,-1.3326056003570557,0.0437442846596241
1772709001779285500,6.321285400390625,-0.5298758149147034,-1.5325932502746582,0.26469478011131287
1772709001789310500,6.331310546875,-0.48816195130348206,-1.5002264976501465,0.49396976828575134
1772709001799335400,6.34133544921875,-0.4468776285648346,-1.2640448808670044,0.6148096323013306
1772709001809360400,6.3513603515625,-0.43299031257629395,-0.9263837933540344,0.6137233376502991
1772709001819385600,6.361385498046875,-0.4415947198867798,-0.572331964969635,0.539692759513855
1772709001829410600,6.37141064453125,-0.4583052396774292,-0.27336761355400085,0.41867661476135254
1772709001839435500,6.381435546875,-0.5155081152915955,-0.056959424167871475,0.2646026313304901
1772709001849461500,6.39146142578125,-0.6107112765312195,0.06334195286035538,0.08151483535766602
1772709001859486500,6.401486572265625,-0.6862697005271912,0.08837034553289413,-0.09347055852413177
1772709001869511700,6.41151171875,-0.6860079169273376,0.11705365031957626,-0.24681058526039124
1772709001879536600,6.42153662109375,-0.6324176788330078,0.269465833902359,-0.3134665787220001
1772709001889561600,6.4315615234375,-0.5636569857597351,0.5722382068634033,-0.2662375569343567
1772709001899586600,6.441586669921875,-0.5463911890983582,0.9154344797134399,-0.15392884612083435
1772709001909611800,6.45161181640625,-0.6296617984771729,1.1973633766174316,-0.03063061274588108
1772709001919636700,6.46163671875,-0.7640960812568665,1.250329613685608,0.06268122047185898
1772709001929661700,6.47166162109375,-0.9617476463317871,0.9722500443458557,0.1047423928976059
1772709001939687700,6.481687744140625,-1.208113193511963,0.4200145900249481,0.10982077568769455
1772709001949712600,6.491712646484375,-1.3632612228393555,-0.1794736236333847,0.17281411588191986
1772709001959737900,6.50173779296875,-1.3770878314971924,-0.6578338146209717,0.3663921058177948
1772709001969762800,6.5117626953125,-1.303749918937683,-0.86902916431427,0.6623989939689636
1772709001979787800,6.521787841796875,-1.1221064329147339,-0.6823365092277527,1.0386722087860107
1772709001989812700,6.531812744140625,-0.7790025472640991,-0.2271633744239807,1.4851067066192627
1772709001999837700,6.541837646484375,-0.3272643983364105,0.14832395315170288,1.8901599645614624
1772709002009862700,6.551862548828125,0.07881917804479599,0.2498260736465454,2.103909730911255
1772709002019888600,6.561888671875,0.29862186312675476,0.19526909291744232,2.210712194442749
1772709002029913600,6.57191357421875,0.2905348837375641,-0.0023094932548701763,2.345627546310425
1772709002039938800,6.581938720703125,0.1545293927192688,-0.38750430941581726,2.4424569606781006
1772709002049963800,6.5919638671875,0.06250252574682236,-0.7193339467048645,2.313387870788574
1772709002059988700,6.60198876953125,0.060030579566955566,-0.7426573634147644,1.8219465017318726
1772709002070013700,6.612013671875,0.10346274077892303,-0.12887915968894958,1.148636817932129
1772709002080039000,6.622038818359375,0.1763894110918045,0.9493170380592346,0.6201101541519165
1772709002090064000,6.63206396484375,0.17183168232440948,2.233863592147827,0.33354735374450684
1772709002100089900,6.64208984375,0.04664846137166023,3.282315969467163,0.03950959071516991
1772709002110114800,6.65211474609375,-0.12672172486782074,3.5662038326263428,-0.4064289927482605
1772709002120139800,6.662139892578125,-0.3275211453437805,2.8600480556488037,-0.97767174243927
1772709002130164700,6.672164794921875,-0.4519192576408386,1.3639373779296875,-1.495033621788025
1772709002140189700,6.682189697265625,-0.40759122371673584,-0.2786222994327545,-1.768703579902649
1772709002150214700,6.692214599609375,-0.2634555995464325,-1.339072823524475,-1.7453206777572632
1772709002160239600,6.702239501953125,-0.09043695777654648,-1.5774075984954834,-1.482312560081482
1772709002170264800,6.712264892578125,0.1062508076429367,-1.0564574003219604,-1.0777966976165771
1772709002180290800,6.722290771484375,0.3678368628025055,-0.2242666631937027,-0.6272228956222534
1772709002190315800,6.732315673828125,0.731865406036377,0.5257918834686279,-0.1937771886587143
1772709002200340700,6.7423408203125,1.0492668151855469,0.9563632607460022,0.15766605734825134
1772709002210365700,6.75236572265625,1.0991020202636719,0.9804605841636658,0.4188705086708069
1772709002220391000,6.762390869140625,0.9087345004081726,0.6470085978507996,0.5394294261932373
1772709002230416000,6.772415771484375,0.5833877921104431,0.12441515922546387,0.4423188269138336
1772709002240440800,6.78244091796875,0.3262268304824829,-0.41478413343429565,0.14212492108345032
1772709002250465500,6.792465576171875,0.2145189493894577,-0.8864813446998596,-0.2656063735485077
1772709002260491800,6.80249169921875,0.2700437307357788,-1.2733800411224365,-0.5626478791236877
1772709002270516700,6.812516845703125,0.43782979249954224,-1.523193120956421,-0.6103919744491577
1772709002280541700,6.822541748046875,0.6940389275550842,-1.37180757522583,-0.43919894099235535
1772709002290566700,6.832566650390625,0.9469926357269287,-0.7909596562385559,-0.16320116817951202
1772709002300591600,6.842591552734375,1.0441313982009888,-0.017043698579072952,0.09016025066375732
1772709002310616800,6.852616943359375,1.002038836479187,0.5312020778656006,0.3393191993236542
1772709002320641800,6.862641845703125,0.7524207830429077,0.6938671469688416,0.3908793330192566
1772709002330666800,6.872666748046875,0.3973742723464966,0.6362089514732361,0.22824808955192566
1772709002340692700,6.882692626953125,0.028357604518532753,0.5975571274757385,-0.0032812808640301228
1772709002350717700,6.8927177734375,-0.30302858352661133,0.6075969934463501,-0.23000949621200562
1772709002360743000,6.902742919921875,-0.5331893563270569,0.6148818135261536,-0.37178927659988403
1772709002370768000,6.912767822265625,-0.6355218291282654,0.5469038486480713,-0.4249022901058197
1772709002380792800,6.922792724609375,-0.6416931748390198,0.36680516600608826,-0.4480606019496918
1772709002390817500,6.932817626953125,-0.5832546353340149,0.1734226495027542,-0.4421555697917938
1772709002400842800,6.9428427734375,-0.45393845438957214,-0.040710143744945526,-0.3386422395706177
1772709002410867700,6.95286767578125,-0.3458455502986908,-0.31850579380989075,-0.1443862020969391
1772709002420892700,6.962892578125,-0.27579164505004883,-0.5904004573822021,0.1569954752922058
1772709002430918700,6.972918701171875,-0.2006406933069229,-0.6850108504295349,0.556187093257904
1772709002440943600,6.982943603515625,-0.15106727182865143,-0.6098631024360657,0.89011549949646
1772709002450968800,6.99296875,-0.1493266373872757,-0.44405919313430786,1.058146595954895
1772709002460993800,7.002993896484375,-0.17881901562213898,-0.23411528766155243,1.0559734106063843
1772709002471018800,7.013018798828125,-0.20975695550441742,-0.04406120255589485,0.8539652228355408
1772709002481043700,7.023043701171875,-0.25115659832954407,0.06804563105106354,0.4711712598800659
1772709002491069000,7.03306884765625,-0.27821803092956543,0.19722199440002441,-0.03753006458282471
1772709002501093600,7.04309375,-0.2955078184604645,0.44994932413101196,-0.5280409455299377
1772709002511118600,7.05311865234375,-0.335891991853714,0.7484521269798279,-0.8494245409965515
1772709002521144600,7.06314453125,-0.35653814673423767,1.0032095909118652,-0.9432895183563232
1772709002531169500,7.07316943359375,-0.3520384728908539,1.1386020183563232,-0.8641680479049683
1772709002541194800,7.08319482421875,-0.37602874636650085,1.1204915046691895,-0.6463537216186523
1772709002551219700,7.0932197265625,-0.46533945202827454,0.9731302261352539,-0.29142385721206665
1772709002561244700,7.10324462890625,-0.6057865619659424,0.7124874591827393,0.08763610571622849
1772709002571269600,7.11326953125,-0.7756957411766052,0.48408040404319763,0.35167255997657776
1772709002581294800,7.123294921875,-0.9345636963844299,0.338839054107666,0.465787410736084
1772709002591319800,7.13331982421875,-1.0088101625442505,0.30599454045295715,0.40976622700691223
1772709002601345800,7.143345703125,-1.0195198059082031,0.35601508617401123,0.23302020132541656
1772709002611370800,7.153370849609375,-0.9900306463241577,0.4211387038230896,0.04656350612640381
1772709002621395700,7.163395751953125,-0.9248138666152954,0.45367321372032166,-0.10220599919557571
1772709002631421000,7.1734208984375,-0.6949241757392883,0.48009151220321655,-0.12489426136016846
1772709002641445600,7.183445556640625,-0.22732876241207123,0.39824163913726807,0.011471300385892391
1772709002651470600,7.193470703125,0.3548334538936615,0.06941662728786469,0.24312449991703033
1772709002661495800,7.203495849609375,0.9296019673347473,-0.33195769786834717,0.4887084364891052
1772709002671520800,7.213520751953125,1.3065828084945679,-0.6813367605209351,0.5420113205909729
1772709002681545700,7.223545654296875,1.157820463180542,-0.8090358376502991,0.25467169284820557
1772709002691571700,7.23357177734375,0.5025414228439331,-0.4275825023651123,-0.04307449981570244
1772709002701596700,7.2435966796875,-0.12152323871850967,0.12777048349380493,0.00510021997615695
1772709002711622000,7.253621826171875,-0.38359320163726807,0.5042967200279236,0.19447067379951477
1772709002721646800,7.263646728515625,-0.4693533778190613,0.6130748391151428,0.18538743257522583
1772709002731671800,7.273671875,-0.4194270968437195,0.536620557308197,0.07944262772798538
1772709002741696800,7.28369677734375,-0.17658701539039612,0.18938617408275604,-0.12412221729755402
1772709002751722000,7.293721923828125,0.3636549115180969,-0.4201866388320923,-0.5889426469802856
1772709002761746700,7.30374658203125,0.9692696928977966,-0.5870217084884644,-1.1843074560165405
1772709002771773000,7.31377294921875,1.1878135204315186,-0.007467237301170826,-1.7473628520965576
1772709002781797600,7.323797607421875,0.899440586566925,0.9007402062416077,-2.228131055831909
1772709002791822600,7.333822509765625,0.3473033607006073,1.7249232530593872,-2.468329429626465
1772709002801847800,7.343847900390625,-0.15210111439228058,2.190023422241211,-2.45859432220459
1772709002811872800,7.353872802734375,-0.44810640811920166,2.0680625438690186,-2.2198057174682617
1772709002821897700,7.363897705078125,-0.41549521684646606,1.3465070724487305,-1.7259329557418823
1772709002831922700,7.373922607421875,-0.08751972764730453,0.19585418701171875,-1.0546122789382935
1772709002841948000,7.383947998046875,0.28193235397338867,-1.0156928300857544,-0.4623410105705261
1772709002851972900,7.393972900390625,0.4766826629638672,-1.917336106300354,-0.11546161770820618
1772709002861998800,7.403998779296875,0.48890870809555054,-2.294623613357544,0.03494706377387047
1772709002872023800,7.41402392578125,0.42264845967292786,-2.150294542312622,-0.016861004754900932
1772709002882048800,7.424048828125,0.2977970540523529,-1.6167004108428955,-0.23296481370925903
1772709002892073700,7.43407373046875,0.15783996880054474,-0.8510733246803284,-0.5429194569587708
1772709002902098700,7.4440986328125,0.04939471185207367,-0.11082877963781357,-0.8521910309791565
1772709002912123600,7.45412353515625,-0.038852591067552567,0.43063420057296753,-1.0577657222747803
1772709002922148600,7.464148681640625,-0.08916982263326645,0.6685485243797302,-1.0874602794647217
1772709002932173800,7.474173828125,-0.08740974217653275,0.5043821930885315,-0.8336735367774963
1772709002942198500,7.484198486328125,-0.06837905943393707,-0.07977605611085892,-0.4868532717227936
1772709002952224800,7.494224853515625,-0.01871563121676445,-0.8134114146232605,-0.1341836303472519
1772709002962249500,7.50424951171875,0.059545617550611496,-1.3772143125534058,0.19315454363822937
1772709002972274400,7.5142744140625,0.15528039634227753,-1.5764573812484741,0.46648702025413513
1772709002982299600,7.524299560546875,0.23129554092884064,-1.394148588180542,0.6531474590301514
1772709002992324600,7.53432470703125,0.21585214138031006,-0.9760671854019165,0.7370330095291138
1772709003002349600,7.544349609375,0.14941558241844177,-0.4927961230278015,0.7204638719558716
1772709003012374500,7.55437451171875,0.06381120532751083,-0.06085029989480972,0.6631734371185303
1772709003022399700,7.564399658203125,-0.03449619188904762,0.22260324656963348,0.6212472915649414
1772709003032424700,7.5744248046875,-0.1260005384683609,0.38584116101264954,0.6208848357200623
1772709003042450700,7.58445068359375,-0.18991561233997345,0.4543059766292572,0.6413936018943787
1772709003052475600,7.5944755859375,-0.2546634376049042,0.3938479721546173,0.6072071194648743
1772709003062500600,7.60450048828125,-0.35830995440483093,0.1496930867433548,0.6097072958946228
1772709003072525600,7.614525634765625,-0.40460526943206787,-0.24066907167434692,0.7772781848907471
1772709003082550500,7.624550537109375,-0.31755879521369934,-1.0641453266143799,0.7568349838256836
1772709003092575500,7.634575439453125,-0.11906300485134125,-1.331474781036377,0.723941445350647
1772709003102600400,7.644600341796875,-0.04689373821020126,-1.1266013383865356,0.7968335151672363
1772709003112625700,7.654625732421875,-0.1057962030172348,-0.654514729976654,0.8605602979660034
1772709003122650600,7.664650634765625,-0.1946919858455658,-0.16153642535209656,0.8474335670471191
1772709003132676600,7.674676513671875,-0.2604329288005829,0.20936360955238342,0.757405161857605
1772709003142701600,7.68470166015625,-0.209358811378479,0.37946105003356934,0.6653037071228027
