time,seconds_elapsed,z,y,x
1772709227685216000,0.060216064453125,0.1249164194792509,-0.04064670236073434,0.04067457674834877
1772709227695240700,0.07024072265625,-0.08219663717150688,0.0002554360657930374,0.033092889447696505
1772709227705265700,0.080265625,-0.12507891656458378,0.010905644091591239,-0.0313707052975893
1772709227715291000,0.090290771484375,-0.01707914509475231,-0.008737871598452329,-0.05127740196846425
1772709227725314800,0.100314697265625,0.1142243450731039,-0.04676840011142194,-0.0008249065168201923
1772709227735339800,0.11033984375,0.13189853345155717,-0.08113711818121373,0.022286869805678722
1772709227745365000,0.120364990234375,0.03626549160182476,-0.08986614888608455,-0.014365611819736659
1772709227755390000,0.130389892578125,-0.05380991612076759,-0.032744989325478674,-0.01439998901337385
1772709227765415000,0.140414794921875,-0.06155716924667358,0.01136032905653119,0.014675810280069708
1772709227775439600,0.150439697265625,0.02241349186003208,-0.04222162352725863,0.005557086137868463
1772709227785464800,0.16046484375,0.09167056795954703,-0.06758863143064081,0.020720862597972154
1772709227795489800,0.17048974609375,0.06424655446112155,-0.018992431370168924,0.030212438640557226
1772709227805514800,0.1805146484375,-0.011944120293855666,-0.012034648121520877,0.006235094997286797
1772709227815539700,0.190539794921875,-0.03173193982541561,0.008736410293728113,-0.008531243110448122
1772709227825564000,0.20056396484375,-0.009439443996548651,0.015166735602170228,-0.010932751294225454
1772709227835588900,0.2105888671875,0.028770167410373686,0.004108312101662159,-0.021276194925792514
1772709227845614000,0.220614013671875,0.05694762962460517,-0.04021883233748376,-0.01919986357577145
1772709227855638800,0.230638671875,0.07191255904436111,-0.05063537773787975,-0.0018284210035577416
1772709227865663700,0.240663818359375,0.031056817042827603,-0.028678762799873945,0.0007629471965134143
1772709227875688700,0.250688720703125,-0.02801321156322956,0.011136164911836385,-0.016377243903093038
1772709227885714000,0.2607138671875,-0.00727320587337017,0.00503251427449286,-0.028079627862945197
1772709227895739000,0.27073876953125,0.030236732831597328,-0.01304704003445804,-0.020056188144162296
1772709227905763800,0.280763916015625,0.05829378353655338,-0.019183643093332647,0.003717193892225623
1772709227915788800,0.290788818359375,0.04460428088009357,-0.0428627709750086,0.0024877251625061033
1772709227925814000,0.30081396484375,0.0382592957675457,-0.047807168574631215,-0.006985767234116792
1772709227935837700,0.310837646484375,0.019051906472444532,-0.035318200814351434,-0.02500321609228849
1772709227945862700,0.320862548828125,0.00658873074054718,-0.023213629261776805,-0.0052288405641913414
1772709227955887900,0.330887939453125,0.005061959564685821,-0.05143829161860049,-0.015986344889365137
1772709227965912800,0.340912841796875,0.029556349352002142,-0.061613721739500756,-0.0038375323362648483
1772709227975937800,0.350937744140625,0.04517243615686893,-0.050065980352088806,0.0002053133137524128
1772709227985962800,0.360962646484375,0.027117139506340024,-0.033967005401104686,0.007170695346966386
1772709227995988000,0.370988037109375,0.00324643457531929,0.011948504208028315,-0.008771956531144678
1772709228006013000,0.381012939453125,-0.003947860842943191,-0.005945026009529828,-0.04097410768419504
1772709228016038000,0.391037841796875,0.006548983252048492,-0.05642623609900474,-0.03704381903056055
1772709228026062800,0.401062744140625,0.05962006370425224,-0.07754223549440503,-0.019684066896140575
1772709228036086800,0.411086669921875,0.06726034932434559,-0.0765483290862292,0.006828713508881628
1772709228046111700,0.42111181640625,0.02041618056297302,-0.06105718383528292,0.012789375478960573
1772709228056137000,0.431136962890625,-0.005908931782841682,-0.021137334444373844,-0.0009029767217114568
1772709228066162000,0.441161865234375,-0.0034673838496208187,-0.003893134981021285,-0.01658639314174652
1772709228076187000,0.451186767578125,0.012438625812530517,-0.006685980569943785,-0.0031571123240515587
1772709228086211800,0.4612119140625,0.04419511555731296,0.011393792934715747,0.020838607226125894
1772709228096237000,0.471237060546875,0.04711246430873871,0.02654408885873854,-0.00031330373287200925
1772709228106261800,0.48126171875,0.021650106272101403,-0.026808804209530353,-0.01641640686970204
1772709228116286700,0.49128662109375,0.031037527820467946,-0.04885916184559464,-0.0037817835610359906
1772709228126311200,0.501311279296875,0.053853755262494085,-0.03566927927434444,0.006884571881964802
1772709228136335000,0.511335205078125,0.03684533731639385,-0.011920593287795782,-0.008508739017695189
1772709228146360000,0.521360107421875,0.00504325486421585,0.0031526188120245932,-0.01138962821625173
1772709228156385300,0.53138525390625,-0.008913374295830726,-0.0037991730872541664,-0.022032383587956426
1772709228166410200,0.54141015625,-0.008052958074212075,-0.017468363608047367,-0.008184621629863977
1772709228176435200,0.551435302734375,0.02211363213062286,-0.047003231780603526,-0.00903930223044008
1772709228186460200,0.561460205078125,0.04611117831170559,-0.053844329847022886,0.010376761379279195
1772709228196485400,0.5714853515625,0.04360767105817794,-0.06332045259214937,-0.014974427900463341
1772709228206510000,0.581510009765625,0.033469723403453826,-0.04913067226335406,0.005253390483558178
1772709228216535000,0.59153515625,0.03769464762210846,-0.024748656809329986,0.011095467575266957
1772709228226560000,0.60156005859375,0.005405073913931847,-0.03630699265599251,0.006114354694448411
1772709228236584200,0.611584228515625,0.010540098714828491,-0.0454112133488059,0.021211459126509725
1772709228246609200,0.621609130859375,0.02497369773685932,-0.044395241239294406,0.01770597175620496
1772709228256634000,0.631634033203125,0.053768415066599844,-0.03701930564381182,0.004124496051482856
1772709228266659300,0.641659423828125,0.04322714730799198,-0.04099485821127891,-0.01598521237820387
1772709228276684300,0.651684326171875,0.03642974225282669,-0.05444112669639289,-0.01828369857892394
1772709228286709000,0.661708984375,0.04787468085289001,-0.064668140874058,-0.016287629390880465
1772709228296734200,0.671734130859375,0.03833645265698433,-0.05805770975835621,-0.02118753026165068
1772709228306759200,0.68175927734375,0.009624152913689612,-0.046123087945207954,-0.015690576813183723
1772709228316784000,0.6917841796875,0.0005091185659170151,-0.03815386263169348,-0.007559292805753647
1772709228326809000,0.70180908203125,0.013248188629746437,-0.0370752005495131,-0.01109225270487368
1772709228336834300,0.711834228515625,0.027476620468497276,-0.03499737136214971,0.02448912909030914
1772709228346858200,0.721858154296875,0.03840075006484985,-0.04687697505243122,0.023320925561152398
1772709228356883200,0.73188330078125,0.04989829563498497,-0.05240794036835432,0.023081929173506793
1772709228366908200,0.741908203125,0.03310556626617908,-0.03763919110782444,0.020060718188807367
1772709228376933000,0.75193310546875,0.011220482194423675,-0.036776509863883255,0.011118884983472525
1772709228386958000,0.7619580078125,0.007425766086578369,-0.0033433190785348414,0.0044631168887019155
1772709228396983000,0.771983154296875,0.0057446811318397515,-0.0074962009742856025,-0.021103724435716866
1772709228407008300,0.78200830078125,0.003957797715067863,0.011550590931624173,-0.023220387796126306
1772709228417033200,0.792033203125,0.017596446967124937,0.014169395127892493,0.005711582579836249
1772709228427058200,0.80205810546875,0.028073417317867277,-0.020617183027788994,0.014059249284304678
1772709228437083100,0.812083251953125,0.038218379235267635,-0.05257423684597015,0.0215434310272336
1772709228447107000,0.822107177734375,0.021411621341109275,-0.0220760765992105,0.03259392694961279
1772709228457132000,0.832132080078125,0.005655833804607391,-0.008354571369290352,0.02021181709729135
1772709228467157200,0.8421572265625,-0.015928221493959425,-0.01952398096360266,0.014219919738732278
1772709228477182200,0.85218212890625,-0.0018874211817979812,-0.02821932859458029,0.010419431477226316
1772709228487207200,0.862207275390625,0.04388005825877189,-0.006673267218843102,-0.0017518121033906935
1772709228497232100,0.872232177734375,0.05494096597731113,-0.012207739666104316,0.0034744711775332687
1772709228507257300,0.88225732421875,0.05090250424146652,-0.010395867938548325,-0.01883121292646974
1772709228517282300,0.8922822265625,0.022640286353230475,-0.010699746255949138,-0.029056473538465796
1772709228527307300,0.902307373046875,0.002326397120952606,-0.026404022800922394,-0.03722483815327286
1772709228537331200,0.912331298828125,0.017331658551096914,-0.034900048467516896,-0.03218706318177283
1772709228547356200,0.922356201171875,0.04263210402429104,-0.055186245975270866,0.0035760318558663126
1772709228557381000,0.932381103515625,0.04590367304086685,-0.04538425227664411,0.01057202822305262
1772709228567406000,0.942406005859375,-0.000045592707395553586,-0.056547232130169864,-0.003996412692405283
1772709228577431300,0.952431396484375,0.0021837737798690794,-0.08558153036944567,-0.007192030395939946
1772709228587456300,0.962456298828125,0.03342529973983764,-0.08301891333982347,-0.03632412645388394
1772709228597481200,0.972481201171875,0.056873979866504665,-0.08874496283642948,-0.01133183361440897
1772709228607506200,0.982506103515625,0.049041386544704434,-0.05289893875569105,-0.028137860856205222
1772709228617531100,0.99253125,0.017745500048995017,-0.02486168872974813,-0.029322430998273193
1772709228627556000,1.00255615234375,0.01564531289935112,-0.027229659970104694,-0.031130539866164327
1772709228637580000,1.012580078125,0.03869125744402408,-0.033002032826468346,-0.011575542709790169
1772709228647605200,1.022605224609375,0.02389525485038757,-0.01510747969560325,-0.0058348801659420125
1772709228657630200,1.032630126953125,0.021978023052215575,-0.03261347190029919,0.010002776967734097
1772709228667655200,1.0426552734375,0.03904430866539478,-0.064547875495255,0.004727430380694568
1772709228677680000,1.05268017578125,0.05429916094243526,-0.059491761149466034,0.008003639039769769
1772709228687705300,1.062705322265625,0.020177111110091208,-0.03244622557461262,0.0010080810640007256
1772709228697730000,1.07272998046875,-0.0016407529443502424,0.003261778274923563,-0.014369776538200676
1772709228707755000,1.082755126953125,0.00017243395745754242,-0.0167631379481405,0.017430552348308263
1772709228717780200,1.0927802734375,0.027691724523901937,-0.02190305811986327,0.01993950296193361
1772709228727805200,1.10280517578125,0.03620762393474579,-0.043555283283814784,0.01324106476921588
1772709228737829000,1.1128291015625,0.035897827333211896,-0.04086472902558744,0.004919993810728192
1772709228747854300,1.122854248046875,0.026740707409381864,-0.0415247273042798,0.005827719772793352
1772709228757879300,1.13287939453125,0.025642975300550458,-0.04180924333408475,0.003868365865945816
1772709228767904300,1.142904296875,-0.0034369887113571166,-0.03522986494377255,0.005183028661087155
1772709228777929000,1.152928955078125,0.006544891598820686,-0.02566533326283097,-0.013309380765073
1772709228787954200,1.1629541015625,0.0289525382399559,-0.029439152713119983,-0.009639423548057675
1772709228797979100,1.172979248046875,0.027249241453409193,-0.02025901723988354,0.00420607338771224
1772709228808004000,1.183004150390625,0.016869886258244513,-0.02806464948952198,-0.006758899675682187
1772709228818029000,1.193029052734375,0.015645897421240805,-0.029463337306305765,-0.019994082693383097
1772709228828054300,1.20305419921875,0.024161796832084654,-0.03579809328578412,-0.019545717871375382
1772709228838078200,1.213078125,0.025503274568915366,-0.028384017636999485,-0.02551748575735837
1772709228848103200,1.223103271484375,0.013069909453392028,-0.022272695149853826,0.010036423509009181
1772709228858128100,1.233128173828125,0.019058336213231084,-0.024975085976347327,-0.007284530984982848
1772709228868153000,1.243153076171875,0.01669043803811073,-0.035252295971289274,-0.021221469063870606
1772709228878178000,1.253177978515625,0.03195756527483463,-0.054590691234916444,-0.0037989173589274283
1772709228888203300,1.263203369140625,0.03222644534409046,-0.0560424974784255,-0.02447225102074444
1772709228898228200,1.273228271484375,0.025320319217443463,-0.036894437155127524,-0.010005041990056633
1772709228908253200,1.283253173828125,-0.0037070378243923186,-0.01849171530641615,-0.0020754180345684287
1772709228918278100,1.293278076171875,0.0027156886994838714,-0.04874985625222325,-0.015794877437874673
1772709228928302300,1.30330224609375,0.018095044139027596,-0.07403788063526154,-0.008247859591804444
1772709228938327000,1.3133271484375,0.032874680119752885,-0.033823432211950416,-0.00710983200520277
1772709228948352000,1.32335205078125,0.013261632633209227,-0.0246407394554466,-0.0186405491925776
1772709228958377200,1.333377197265625,0.01492985810637474,-0.03322152079604566,-0.020196656060777602
1772709228968402200,1.343402099609375,0.024514263531565664,-0.02454663143120706,-0.010189568244107067
1772709228978427100,1.35342724609375,0.040210429835319514,-0.02641169465072453,0.011536489341035485
1772709228988452000,1.3634521484375,0.0357014279782772,-0.02629566705562174,0.004005947705730796
1772709228998477300,1.373477294921875,0.02177870108783245,-0.00852671306580305,-0.01887359076347202
1772709229008502300,1.383502197265625,0.00009410802423954009,-0.021146248403191566,-0.021586393386125564
1772709229018527200,1.39352734375,0.009070610684156417,-0.04598192590884864,-0.014773790761828422
1772709229028551200,1.40355126953125,0.009192775759100914,-0.04379917504228651,-0.003077946140617132
1772709229038576000,1.413576171875,0.019334230545163155,-0.0354995487306267,-0.009735065942257643
1772709229048601000,1.42360107421875,0.022424597775936125,-0.03817797415964305,-0.0054336058886721725
1772709229058626000,1.4336259765625,0.02655658301413059,-0.047465953921526666,0.010274871907383203
1772709229068651300,1.4436513671875,0.021233342164754865,-0.03500453175529837,0.018889665115438402
1772709229078676200,1.45367626953125,-0.001903203272819519,-0.02184014895148575,0.012501169654726982
1772709229088701200,1.463701171875,0.020638298881053924,-0.004611877709627152,-0.01038388523980975
1772709229098726400,1.473726318359375,0.016402268746495245,-0.025079715394601226,-0.021485417229682207
1772709229108751000,1.483751220703125,0.04240764761865139,-0.03298025938607752,0.013558569753170012
1772709229118775000,1.493775146484375,0.03061608753800392,-0.048795522024855015,0.016109971269033848
1772709229128800500,1.503800537109375,0.025419687938690184,-0.02325673775114119,0.01262402884941548
1772709229138825700,1.51382568359375,0.0013847323566675185,-0.016890417589619754,-0.010417787509411573
1772709229148850400,1.523850341796875,0.010016951623558997,0.0019379823252558706,-0.015960735524073243
1772709229158875400,1.53387548828125,0.025090602114796638,-0.027325010103359818,-0.03238693313542753
1772709229168900600,1.543900634765625,0.0485462965041399,-0.010810440088808536,-0.010577033191733061
1772709229178925600,1.553925537109375,0.041028175958991046,-0.027404870406538245,-0.014615567992813884
1772709229188950500,1.563950439453125,0.024575638329982757,-0.02637355459742248,-0.03279679257795214
1772709229198975500,1.5739755859375,0.025924714851379392,-0.049312312440574164,-0.020192893201112744
1772709229209000700,1.584000732421875,0.023533435800671576,-0.05693206672929227,-0.0057203869407996535
1772709229219024600,1.594024658203125,0.042490649726986886,-0.07471132291741668,-0.015533230827003716
1772709229229049300,1.60404931640625,0.03693009299039841,-0.027339184759184718,-0.014189086209051311
1772709229239074600,1.614074462890625,-0.0045078328132629394,-0.029093042689189313,-0.026094993384368718
1772709229249099500,1.624099609375,-0.00867839649617672,-0.03495455513373017,-0.009297843568772076
1772709229259124500,1.63412451171875,0.025251930156350133,-0.05478402184993028,0.006758278621174394
1772709229269149400,1.6441494140625,0.027439211067557333,-0.052363516704738135,0.005719729353673756
1772709229279174700,1.654174560546875,0.031443186011910436,-0.041076106753945345,-0.02873739765193313
1772709229289199600,1.66419970703125,0.03263794875442982,-0.00650441345795989,-0.029126470034755766
1772709229299224600,1.674224609375,0.01571019482910633,-0.0444228598985821,-0.013573986518010497
1772709229309248500,1.68424853515625,0.010146130961179733,-0.01706570109128952,0.008326441253349184
1772709229319273500,1.6942734375,0.03585515723526478,-0.014654256035387515,0.006972359763272106
1772709229329298400,1.70429833984375,0.03360825509130955,-0.008229922076314688,0.0007173910217359662
1772709229339323600,1.71432373046875,0.024177578923106194,-0.024377704605087636,0.0033497853519394993
1772709229349348600,1.7243486328125,0.06007832886576652,-0.020718451445177196,0.011953618774563073
1772709229359373600,1.73437353515625,0.03612812895774841,-0.019252324415370822,0.012917568435892462
1772709229369398500,1.7443984375,0.004117372190952301,-0.0073133917532861225,-0.005432984834164381
1772709229379423700,1.754423828125,0.027182605957984923,-0.02468070613965392,-0.0204862501244992
1772709229389448700,1.76444873046875,0.012834347131848334,-0.02449519350491464,0.0012525938769802451
1772709229399473700,1.7744736328125,0.020928806260228156,-0.04922309978716075,-0.005514964029192924
1772709229409497600,1.78449755859375,0.029010405907034874,-0.02712817235700786,0.004847293900698423
1772709229419522600,1.7945224609375,0.03156418204307556,-0.02189597079195082,-0.0008042655875906348
1772709229429547500,1.804547607421875,0.02976385462284088,-0.04326974434070289,0.0006956906465813517
1772709229439572500,1.814572509765625,0.030043256086111067,-0.06885850523598491,-0.020111681191064417
1772709229449597700,1.82459765625,0.027023616003990173,-0.049319326703250406,-0.011999357612431049
1772709229459622700,1.83462255859375,0.016976269242167472,-0.04706599481850862,-0.01713489386998117
1772709229469647600,1.844647705078125,0.013656769430637358,-0.03180821993201971,-0.007873473321460187
1772709229479672300,1.85467236328125,0.011377718582749366,-0.05382021831907332,0.0062189475800842045
1772709229489697500,1.864697509765625,0.01761339810192585,-0.04766235327646136,-0.003946143809892237
1772709229499721500,1.874721435546875,0.012336919003725052,-0.025501740198954938,-0.012670023415610193
1772709229509746400,1.884746337890625,0.01949205145537853,-0.02079984611831605,0.0012326470674946903
1772709229519771600,1.894771728515625,0.017061024916172028,-0.027141031838580965,0.006226217571087181
1772709229529796600,1.904796630859375,0.024212650236487387,-0.02095759396329522,-0.003270144244469702
1772709229539821600,1.914821533203125,0.025246669459342955,-0.008263678215444088,-0.023178813676722348
1772709229549846500,1.924846435546875,0.015678630647063256,-0.0013208002749830483,-0.011804492627456784
1772709229559871500,1.93487158203125,0.025696166792511937,-0.029466990568116306,-0.00571739126611501
1772709229569896400,1.944896484375,0.023283260431885718,-0.030826807679235933,-0.009620463119260967
1772709229579921400,1.95492138671875,0.022524551019072532,-0.022155206250026822,-0.004970847215130925
1772709229589946600,1.964946533203125,0.01997662010192871,-0.016509017056599257,-0.01053556867018342
1772709229599970600,1.974970458984375,0.02728723537623882,-0.03329553588032722,-0.002752075187116861
1772709229609995500,1.98499560546875,0.02831073320508003,-0.02055259335897863,-0.0014530118199065326
1772709229620020700,1.995020751953125,0.004340659552812576,-0.04392682000994682,-0.0037369580386206504
1772709229630045700,2.005045654296875,0.01508709449470043,-0.031345424725860355,-0.002274995727278292
1772709229640070400,2.0150703125,0.028681904605031013,-0.04193944558501243,-0.004639788629859686
1772709229650095400,2.025095458984375,0.029251813447475433,-0.05351882421970367,0.0036337168598547577
1772709229660120600,2.03512060546875,0.032194296640157695,-0.0389411405518651,0.006052541504614055
1772709229670145500,2.0451455078125,0.009703647890686989,-0.04753134730793535,-0.010147628798522055
1772709229680170500,2.05517041015625,0.016852350601553916,-0.0265066794577986,-0.007831351212784648
1772709229690194700,2.065194580078125,0.020415596041083336,-0.016673852229490874,-0.011129004518687724
1772709229700219600,2.0752197265625,0.025346038180589673,-0.015395502856746315,-0.027927725236862898
1772709229710244600,2.08524462890625,0.014268179327249527,-0.02369096444994211,-0.015301175636798142
1772709229720269600,2.09526953125,0.011431494596600532,-0.023471257284656166,-0.0034581045646220445
1772709229730294500,2.10529443359375,0.02609773333072662,-0.03437295585349202,-0.004902348556183278
1772709229740319500,2.115319580078125,0.0347691155642271,-0.05044613877609372,-0.008632036603800951
1772709229750344400,2.125344482421875,0.045239071652293204,-0.028549510397017,-0.011519245945289731
1772709229760369700,2.13536962890625,0.022227613899111747,-0.0004792348843067884,-0.01651840593945235
1772709229770394600,2.14539453125,-0.002419336101412773,-0.0031917087133973834,-0.013998824333958326
1772709229780419600,2.155419677734375,0.006261398482322693,-0.024924305637180805,0.023071736573055387
1772709229790443800,2.16544384765625,0.02136953576505184,-0.045767625571042296,0.019132862754166126
1772709229800468500,2.175468505859375,0.047268531653285026,-0.036570319767296314,-0.02919266713876277
1772709229810493400,2.185493408203125,0.0463894107311964,-0.01984707543812692,-0.03375233973711729
1772709229820518400,2.195518310546875,0.011250877332687377,-0.028244536101073026,-0.033878961791470645
1772709229830543600,2.205543701171875,0.0045329672545194625,-0.04099368916749954,-0.011886800616048276
1772709229840568600,2.215568603515625,0.014872574961185454,-0.012284896555542945,-0.01758789833448827
1772709229850593500,2.225593505859375,0.02417991701066494,-0.013255422088131307,0.003084339348785579
1772709229860618500,2.235618408203125,0.026752982369065283,-0.03228175572790205,0.019828407270275055
1772709229870643700,2.245643798828125,0.04174596883952617,-0.011232026501744985,-0.0032501974349841475
1772709229880667400,2.25566748046875,0.030555881783366202,-0.03432049501389265,0.0032264147005975244
1772709229890692400,2.2656923828125,0.026090134546160697,-0.03224785345830023,-0.005986563596315681
1772709229900717600,2.275717529296875,0.01383621765077114,-0.028054055030271408,0.010247143650241196
1772709229910742500,2.285742431640625,0.01804945143163204,-0.03524769286140799,0.0037357889948412774
1772709229920767500,2.295767578125,0.012380758145451545,-0.040983533099666236,-0.0032038740752264854
1772709229930792400,2.30579248046875,0.03439268346726894,-0.0457163337752223,0.0010586056748405099
1772709229940817700,2.315817626953125,0.02078793648481369,-0.029437764473631976,0.004569171079061925
1772709229950842600,2.325842529296875,0.021560089901089666,-0.027003742259740827,0.0027466683596372604
1772709229960867600,2.33586767578125,0.020259528696537018,-0.028048429007083178,0.005639722920022905
1772709229970891500,2.3458916015625,0.029431261667609215,-0.023341420359909534,0.000271291222050786
1772709229980916500,2.35591650390625,0.036059739896655084,-0.027638021575286983,-0.010974873402900993
1772709229990941400,2.36594140625,0.031463644278049464,-0.03249291426055133,-0.01425086286626756
1772709230000966700,2.375966552734375,0.017442717710137366,-0.0226060187574476,-0.004891607966460287
1772709230010991600,2.38599169921875,0.007913841864466666,-0.025675270134955644,-0.0065986676126718515
1772709230021016600,2.3960166015625,0.009748071554303168,-0.0289889977928251,-0.01302881025802344
1772709230031041500,2.40604150390625,0.02804886739850044,-0.03499693297073245,-0.003420110641792416
1772709230041066800,2.416066650390625,0.03915302973687648,-0.04295373719409108,-0.004975706053338944
1772709230051091500,2.426091552734375,0.03379413305222988,-0.028601678975671528,0.005574183403141796
1772709230061115400,2.436115478515625,0.026951719811558722,-0.0087761577822268,-0.002832666142657399
1772709230071140600,2.446140625,0.02700315773785114,-0.017090177945420146,-0.010401968885771929
1772709230081165600,2.45616552734375,0.015381109005212782,-0.028611250521615145,-0.010142148905806243
1772709230091190500,2.4661904296875,0.022299510091543195,-0.05529423639439046,-0.011452939243428408
1772709230101215500,2.476215576171875,0.0137900404214859,-0.047182314674556254,0.009436119528301059
1772709230111240700,2.48624072265625,0.020102292308211325,-0.029079817881435155,0.004690824697352946
1772709230121265700,2.496265625,0.010262450817227363,-0.01496449102833867,-0.022308752843923866
1772709230131290000,2.5062900390625,0.02511222942471504,-0.019311288060992957,0.0015184782715514302
1772709230141315300,2.5163154296875,0.031277766317129134,-0.014586889887601137,0.00681110478695482
1772709230151339300,2.52633935546875,0.024269933381676673,-0.01717054970525205,0.01223747721724212
1772709230161364200,2.5363642578125,0.020102292308211325,-0.020825711211934685,0.0061715282417833806
1772709230171389200,2.54638916015625,0.018190905728936193,-0.025609438357129692,0.0022067893292754886
1772709230181414100,2.5564140625,0.022567221117019653,-0.03684818686060607,0.005932422256283462
1772709230191439000,2.566439208984375,0.027076222974061964,-0.025336174373701212,-0.01039137442652136
1772709230201464000,2.576464111328125,0.02318915240764618,-0.03041735009551048,-0.00471738391071558
1772709230211489300,2.5864892578125,0.026508067697286603,-0.03499335277415812,-0.0161440562017262
1772709230221514200,2.59651416015625,0.019202713119983672,-0.025659561109170316,-0.007079363801702857
1772709230231539200,2.606539306640625,0.02625380067527294,-0.021234072817116974,-0.01581314374692738
1772709230241563400,2.6165634765625,0.015813070681691167,-0.018482362956181168,0.0019388591080904006
1772709230251588000,2.626588134765625,0.012553192102909087,-0.018806772604957223,-0.013246800390258431
1772709230261613000,2.636613037109375,0.022313538616895674,-0.03004778613075614,0.006690620212443173
1772709230271638300,2.64663818359375,0.01201017126739025,-0.032123058034852145,-0.0042371626457199454
1772709230281663200,2.656663330078125,0.02160392904281616,-0.048935003560781475,0.003420110641792416
1772709230291688200,2.666688232421875,0.035979075875878334,-0.023065745223686096,-0.01571315397117287
1772709230301713200,2.676713134765625,0.02941781766414642,-0.012742869456112384,-0.02370323940962553
1772709230311738400,2.68673828125,0.0010223287850618362,-0.011768179205060004,-0.015537687806412577
1772709230321763300,2.696763427734375,0.00015840543210506437,-0.022150968466326592,0.010490377821587026
1772709230331787000,2.706787109375,0.025455343773961067,-0.03043766223117709,0.00660513388607651
1772709230341812200,2.716812255859375,0.03129471745193004,-0.04485124137848615,0.0010791370062157512
1772709230351837200,2.726837158203125,0.02741583019196987,-0.03163205964751541,-0.024372918832115828
1772709230361862100,2.736862060546875,0.0032031799554824826,-0.025061083759367466,-0.023516411600634453
1772709230371887000,2.74688720703125,0.002620411631464958,-0.04268412647247314,-0.026624789412133393
1772709230381912300,2.756912353515625,0.02162964800596237,-0.024961861168593166,-0.0228017970578745
1772709230391937300,2.766937255859375,0.027018355306982992,-0.03255786925554275,-0.011312873185612261
1772709230401962200,2.776962158203125,0.01400397543311119,-0.02139978477284312,-0.004588131507858634
1772709230411987200,2.7869873046875,0.03945347398817539,-0.013350406895205377,-0.00614979133401066
1772709230422011100,2.79701123046875,0.02616436882615089,-0.021901596815139052,-0.0037643940348178148
1772709230432036000,2.8070361328125,0.005540098470449447,-0.014334814822673797,-0.011858122510835527
1772709230442061300,2.817061279296875,0.027266192588210104,-0.010195523060858249,-0.011302680585160851
1772709230452086300,2.827086181640625,0.019364625683426857,-0.019005948438867926,-0.018762458539195358
1772709230462111200,2.837111328125,0.006673486414551734,-0.04455079712718725,0.004926350486278533
1772709230472136200,2.84713623046875,0.019710662642121315,-0.023236864006891844,-0.008777546021714806
1772709230482161400,2.857161376953125,0.033791210442781446,-0.02863463139720261,-0.003957541986741126
1772709230492186400,2.867186279296875,0.010751695638895034,-0.038561128258332605,-0.007856704849749803
1772709230502210000,2.8772099609375,0.013453940334916113,-0.03135821114219725,-0.006955116367526352
1772709230512235300,2.8872353515625,0.03124970926642418,-0.026786665442958473,0.012441511889360844
1772709230522260200,2.89726025390625,0.020457097095251082,-0.03516995145007968,0.0031355580793693658
1772709230532285200,2.90728515625,0.02582768421769142,-0.027482831013575196,-0.0023879545824602244
1772709230542310100,2.91731005859375,0.020137948143482208,-0.04067972784750163,-0.0016605536233633756
1772709230552335400,2.92733544921875,0.017732056045532227,-0.03266001445576548,-0.00858604203760624
1772709230562360300,2.9373603515625,0.015180033475160597,-0.022795549980178475,-0.001746259145438671
1772709230572385300,2.94738525390625,0.024602526336908338,-0.042528278323635454,-0.007062193471193313
1772709230582409200,2.9574091796875,0.025494506740570067,-0.038411052263155575,-0.003592288870923221
1772709230592434200,2.96743408203125,0.03461889343857765,-0.03291691182628274,-0.013603322210349142
1772709230602459100,2.977459228515625,0.029531214910745618,-0.026668884282186625,-0.008367284720391034
1772709230612484000,2.987484130859375,0.025360066705942153,-0.019519889310374856,-0.018719569245539604
1772709230622509300,2.99750927734375,0.020006430718302725,-0.015991349858045577,-0.008102496304363011
1772709230632534300,3.0075341796875,0.02526303607225418,-0.02439034489095211,-0.009914842955954373
1772709230642559200,3.017559326171875,0.01644610788822174,-0.013430632524564862,-0.0010777852993458508
1772709230652584200,3.027584228515625,0.02948503768146038,-0.02065115836262703,-0.007584500312246382
1772709230662608100,3.037608154296875,0.011416881549358368,-0.017954685820266603,-0.01960486418008804
1772709230672633000,3.047633056640625,0.025510873353481293,-0.020970599575340747,0.004877871702052653
1772709230682658300,3.057658203125,0.021786299872398374,-0.012236015912517904,0.01125993742197752
1772709230692683300,3.067683349609375,0.014005144476890562,-0.013805822512507438,0.007315583710372447
1772709230702708200,3.077708251953125,0.023290859216451642,-0.027619316874817012,0.008332797928899526
1772709230712733200,3.087733154296875,0.02732172216773033,-0.020670447584986686,0.015741247554495928
1772709230722758400,3.09775830078125,0.018781272837519646,-0.03440583520978689,-0.0010997048702090979
1772709230732783400,3.107783447265625,0.018923311656713484,-0.02739361836016178,-0.011043773920647799
1772709230742808000,3.11780810546875,0.029833412727713584,-0.02967844136171043,-0.0087775094890967
1772709230752832300,3.127832275390625,0.03491583055853843,-0.04264094491787255,0.001674180289916694
1772709230762857200,3.137857177734375,0.0319154796987772,-0.02841726231947541,-0.007791494126431643
1772709230772882200,3.147882080078125,0.032063363736867904,-0.030200200213491915,0.0004985971719026565
1772709230782907100,3.1579072265625,0.01995265470445156,-0.025297595928981897,-0.025138021453097462
1772709230792932400,3.167932373046875,0.023709961411356926,-0.0225303962379694,-0.011152020068094133
1772709230802957300,3.177957275390625,0.026562428233027457,-0.019389467863738536,-0.010988390471599996
1772709230812982300,3.187982177734375,0.030165421161055563,-0.03192205557003617,-0.007993775232881308
1772709230823007200,3.19800732421875,0.016557751569151877,-0.02680873114429414,-0.000020860124938189982
1772709230833031200,3.20803125,0.023006197056174276,-0.03248217367082834,-0.0025896876996383067
1772709230843056000,3.21805615234375,0.029432430711388586,-0.04574862860962748,-0.028691183890029788
1772709230853081300,3.228081298828125,0.04259703271090984,-0.024832681830972432,-0.029412301238812503
1772709230863106300,3.238106201171875,0.0014689035087823868,-0.0011675824746489524,-0.01661291582249105
1772709230873131300,3.24813134765625,-0.015261282017827033,-0.026991321169584987,0.006773695386014879
1772709230883156200,3.25815625,0.02123801833987236,-0.04099317771084606,0.010990545896068215
1772709230893181400,3.268181396484375,0.056522682210803026,-0.041430619280040264,0.007907083330117165
1772709230903206100,3.2782060546875,0.023292028260231017,-0.03118183166198432,-0.016854213765077293
1772709230913230000,3.28822998046875,0.002181435692310333,-0.012074468675255775,-0.018662943687476216
1772709230923255300,3.29825537109375,0.003209609696269035,-0.0455314056623727,-0.008867598925344645
1772709230933280300,3.3082802734375,0.013960136291384696,-0.04223981677107513,-0.006286642521433532
1772709230943305200,3.31830517578125,0.03158756291866302,-0.039205198315531015,-0.015560484160110353
1772709230953330200,3.328330078125,0.03723462889492511,-0.0512703146405518,-0.00007324789930135012
1772709230963355400,3.33835546875,0.03853577462136745,-0.029129648372530934,0.003977233067899942
1772709230973380400,3.34838037109375,0.014128478595614433,-0.02457081602439284,-0.005823372391238808
1772709230983405000,3.358405029296875,0.02414893735051155,-0.01449037071056664,-0.014924305148422717
1772709230993429200,3.36842919921875,0.03507131338119507,-0.02235832760669291,-0.011528707893379031
1772709231003454200,3.3784541015625,0.02954115178287029,-0.02742898193448782,0.0003733633570373058
1772709231013479200,3.388479248046875,0.021909633991122245,-0.02773373703472316,-0.0010786620821803808
1772709231023504400,3.39850439453125,0.029386253482103344,-0.01683320750966668,0.0015819719618186353
1772709231033529300,3.408529296875,0.009494973576068877,-0.011940101705864072,-0.005332958525791764
1772709231043554300,3.41855419921875,0.017585341051220893,-0.021183803934603927,-0.012918591349199414
1772709231053579300,3.428579345703125,0.03164426154196262,-0.034801410398632285,0.01474251884073019
1772709231063604200,3.438604248046875,0.02085457198023796,-0.02835048069357872,-0.002167735960520804
1772709231073628200,3.448628173828125,0.030568741264939307,-0.024217253346368667,0.003977817589789628
1772709231083653000,3.458653076171875,0.023363924452662468,-0.029610490692034364,-0.0017716127824038265
1772709231093678300,3.46867822265625,0.012421674677729606,-0.04055617453306913,-0.0004211114889010787
1772709231103703300,3.478703369140625,0.023621114084124564,-0.05028780640922487,-0.011286715831048786
1772709231113728300,3.488728271484375,0.02538227853775024,-0.03605937457047403,-0.011565094381012022
1772709231123753200,3.498753173828125,0.03298983093202114,-0.025495456588640806,0.0023894524198025463
1772709231133778700,3.50877880859375,0.014288637593388557,-0.02178681132905185,0.0022841288818046448
1772709231143802600,3.518802734375,0.016221651482582092,-0.02101984554454684,-0.002734210736863315
1772709231153827600,3.52882763671875,0.03131692928373814,-0.02505889180228114,0.01958290807660669
1772709231163852800,3.538852783203125,0.02263619470000267,-0.02156936918608844,-0.0018729907976463437
1772709231173877500,3.54887744140625,0.027139935860037802,-0.019650895278900862,-0.005890702006407082
1772709231183902500,3.55890234375,0.02759060223698616,-0.023912644376605747,0.0022486191770061848
1772709231193927400,3.568927490234375,0.024423662638664245,-0.02754990490041673,0.00966463105455041
1772709231203952600,3.57895263671875,0.014676175606250763,-0.02067183582447469,0.010586020215786992
1772709231213977600,3.5889775390625,0.017357377514243124,-0.03853299814239144,-0.0016062296202406286
1772709231224002600,3.59900244140625,0.019874913293123245,-0.029175606406107543,-0.0006633592795580625
1772709231234026800,3.60902685546875,0.026266660156846044,-0.02139094387926161,0.00797718942426145
1772709231244051700,3.6190517578125,0.029083471143245696,-0.010634499000012874,0.001788600449822843
1772709231254076400,3.629076416015625,0.017246902877092362,-0.02070120804943144,-0.017451960462518037
1772709231264101600,3.6391015625,0.027998598515987395,-0.03018631781861186,-0.004423077139258384
1772709231274126600,3.649126708984375,0.03515840714275837,-0.015911343424394726,0.0025960443751886484
1772709231284151600,3.659151611328125,0.028549802657961844,-0.025038287405669688,-0.01870375062189996
1772709231294176500,3.669176513671875,0.030609657797217367,-0.030773543122038245,-0.010531696212664246
1772709231304201700,3.67920166015625,0.027882278659939766,-0.021668737907335162,0.0019817118691280483
1772709231314225700,3.6892255859375,0.01273614745438099,-0.03068272303342819,-0.012933533190004527
1772709231324250600,3.699250732421875,0.030806641674041745,-0.030022140232846137,-0.003002835077792406
1772709231334275600,3.709275634765625,0.04932780227065086,-0.0201534379735589,-0.013811667731404303
1772709231344300500,3.719300537109375,0.03120294751524925,-0.014978300357982515,-0.009525587910041213
1772709231354325500,3.729325439453125,0.03388531846702099,-0.03581723637767136,-0.0014825301753357053
1772709231364350500,3.7393505859375,0.012309446474909782,-0.031641777323931454,-0.0025306144561618566
1772709231374375700,3.749375732421875,0.0021118775874376296,-0.03153261786103249,0.0007999182060360908
1772709231384400600,3.759400634765625,0.014651041164994239,-0.0357871335003525,-0.00816628225557506
1772709231394424600,3.769424560546875,0.032281390401721,-0.030256971902027724,0.0014395678164437413
1772709231404449800,3.77944970703125,0.03493745786845684,-0.023869974278658626,-0.005772299791127443
1772709231414474500,3.789474609375,0.03326104908883572,-0.018477759846299884,-0.00286116158477962
1772709231424499500,3.79949951171875,0.0056026423126459115,-0.004373392778635025,-0.015820852129347623
1772709231434524400,3.8095244140625,-0.011737199544906615,-0.009751213359460234,0.02852013817206025
1772709231444549600,3.819549560546875,0.027584757018089292,-0.04360496764443814,0.027729937642440198
1772709231454574600,3.82957470703125,0.028874796828627584,-0.046421778630837796,-0.007822400721348821
1772709231464599600,3.839599609375,0.023465046739578246,-0.025846754244342445,-0.01770136864632368
1772709231474623700,3.849623779296875,0.018969488885998725,-0.022019158780202268,-0.016951938518509267
1772709231484648700,3.859648681640625,0.005185878205299377,-0.04521569077670574,-0.020295184531807897
1772709231494673400,3.86967333984375,0.025348960790038108,-0.02775865228027105,-0.0037537265103310346
1772709231504698600,3.87969873046875,0.02441781741976738,-0.024503522941842673,-0.0025335735982283947
1772709231514723600,3.8897236328125,0.015731237617135047,-0.03074563220180571,-0.0030181422447785734
1772709231524748500,3.89974853515625,0.017966449323296545,-0.02546308868899941,-0.0017713205214589833
1772709231534773500,3.9097734375,0.025281156250834463,-0.024802505888417363,-0.0015441972346976398
1772709231544798700,3.919798828125,0.020337270107865332,-0.023268647384643553,-0.005431523529440164
1772709231554822700,3.92982275390625,0.021231588599085808,-0.033945743417367336,-0.007779584492929279
1772709231564847600,3.93984765625,0.011796820777654647,-0.03928564314059913,0.013681867339275776
1772709231574872600,3.94987255859375,0.01386018304824829,-0.04694244150407612,0.01885294983424246
1772709231584897500,3.9598974609375,0.0204214412599802,-0.0280141614113003,0.006889467252790928
1772709231594922500,3.969922607421875,0.03611468495428562,-0.015767624104768035,-0.013325016725622117
1772709231604947500,3.979947509765625,0.030412089398503303,-0.011967208908498287,-0.019559308005310593
1772709231614972700,3.98997265625,0.01679156032502651,-0.012231924259290098,-0.002237622858956456
1772709231624997600,3.99999755859375,0.029196868389844893,-0.01929302175194025,0.0038464828277006745
1772709231635022600,4.010022705078125,0.023480828830599782,-0.027436580719053742,-0.01081047662142664
1772709231645046500,4.020046630859375,0.022404724031686783,-0.029717019806429743,0.003215089588984847
1772709231655071500,4.030071533203125,0.013710545444488525,-0.02325958729535341,-0.005673223330825567
1772709231665096400,4.040096435546875,0.014134908336400985,-0.024625322690606116,-0.01593026732057333
1772709231675121700,4.05012158203125,0.014705986222624779,-0.03166851920038462,-0.014152480525709688
1772709231685146600,4.060146728515625,0.025154315000772476,-0.02229797572158277,-0.010359956374950706
1772709231695171600,4.070171630859375,0.023780104038119313,-0.02145195335149765,-0.003100596363842487
1772709231705196500,4.080196533203125,0.008791793742775916,-0.017144684611633418,-0.002719634222239256
1772709231715221800,4.0902216796875,0.029874329259991644,-0.02570866094790399,-0.013520502765104175
1772709231725245400,4.100245361328125,0.021197686329483986,-0.017839315812289713,-0.002119184111058712
1772709231735270400,4.1102705078125,0.02971767739355564,-0.0427986196976155,0.001645684847794473
1772709231745295600,4.120295654296875,0.018320669588446616,-0.04158997456021607,-0.020697737450711427
1772709231755320600,4.130320556640625,0.026378303837776184,-0.035727658398076886,0.0001894946901127696
1772709231765345500,4.140345458984375,0.028747955578565597,-0.01669993651881814,0.005545030373893678
1772709231775370500,4.15037060546875,0.02633738730549812,-0.01589570746384561,-0.008972484071925283
1772709231785395700,4.160395751953125,0.03828209212124348,-0.021953400067612528,0.012645729224570095
1772709231795420700,4.170420654296875,0.04139642474949359,-0.0191246063824743,0.009534465336240827
1772709231805445600,4.180445556640625,0.005768062007427215,-0.013617095007374881,-0.008070384133048355
1772709231815469600,4.190469482421875,0.01324760410785675,-0.024704306210950017,-0.011181136564724147
1772709231825494500,4.20049462890625,0.037626258561015126,-0.023148235875368118,-0.002986139671318233
1772709231835519500,4.21051953125,0.014434183543920516,-0.027722558053582907,0.0030494141658768056
1772709231845544700,4.220544677734375,0.017266776621341705,-0.014517477913200854,-0.004823730362020433
1772709231855569700,4.230569580078125,0.018447510838508607,-0.012380977341160178,-0.01950845460090786
1772709231865594600,4.2405947265625,0.028157588469982144,-0.03593552899509668,-0.004351582805626094
1772709231875619600,4.25061962890625,0.022003742015361785,-0.019108020573854446,-0.008634155495651066
1772709231885644800,4.260644775390625,0.017800445106625557,-0.023651216961443424,-0.01402078043743968
1772709231895668500,4.27066845703125,0.02334463523030281,-0.019326047238707542,-0.007905110568739474
1772709231905693400,4.280693359375,0.023041268369555473,-0.03351129752285778,-0.0007971051944419741
1772709231915718700,4.29071875,0.03276186739504337,-0.03527158519364893,0.0008191708957776426
1772709231925743600,4.30074365234375,0.018839140504598617,-0.018859817966446278,0.010707271975278853
1772709231935768600,4.3107685546875,0.03452712350189686,-0.028249650667607783,0.00006163052674382925
1772709231945793500,4.32079345703125,0.029273440757393836,-0.024583456310257313,-0.00884757905062288
1772709231955818800,4.33081884765625,0.031662966242432596,-0.023414120269939304,-0.01747683917544782
1772709231965843700,4.34084375,0.018515315377712248,0.0009327508054673672,-0.028511260745860634
1772709231975868700,4.35086865234375,0.0034340661019086837,-0.016033435434103013,-0.005172470734454691
1772709231985892600,4.360892578125,0.00746492905318737,-0.026670710913091897,0.02038523743543774
1772709231995917600,4.37091748046875,0.03437222520112991,-0.03836450970768928,0.024239501710794864
1772709232005942500,4.380942626953125,0.016115268498659133,-0.034835677994415164,-0.013573949985392391
1772709232015967500,4.390967529296875,0.027649638947844505,-0.0013076485324651002,-0.024913199721276758
1772709232025992700,4.40099267578125,0.030808395239710806,-0.022755291035026312,-0.025003837146796284
1772709232036017700,4.411017578125,0.04562310253381729,-0.022872122347727418,-0.020081760976836085
1772709232046042600,4.421042724609375,0.023932079729437828,-0.017654022373259068,-0.004064290296845138
1772709232056067600,4.431067626953125,0.02501286070346832,-0.027154183581098914,-0.006158011173084378
1772709232066092500,4.441092529296875,0.029388591569662094,-0.01634498560130596,-0.002496858317032456
1772709232076116500,4.451116455078125,0.026581717455387115,0.0008791939873248338,-0.007383899706229567
1772709232086141700,4.4611416015625,0.031259061616659166,0.013503478565067051,-0.010310125883854925
1772709232096166700,4.471166748046875,0.01348375095129013,-0.0020264643263071774,-0.0025139921149238942
1772709232106191600,4.481191650390625,0.01981061588525772,-0.01034559905603528,-0.01085110089275986
1772709232116216600,4.491216552734375,0.026425065588951108,-0.024863880686834452,-0.00219093417301774
1772709232126240800,4.50124072265625,0.02705459566414356,-0.021101970870047806,-0.006553805557638406
1772709232136265700,4.511265625,0.005835866546630859,-0.01356010412313044,0.0015566548574715853
1772709232146290700,4.521290771484375,0.008411854514479636,-0.02715221081972122,-0.004327946201711893
1772709232156314600,4.531314697265625,0.022955343651771543,-0.030274434493482112,-0.001773695141635835
1772709232166339600,4.541339599609375,0.02460954059958458,-0.03217376530878246,0.00456204721853137
1772709232176364500,4.551364501953125,0.02103285115659237,-0.01896437431946397,0.012909823520854114
1772709232186389800,4.5613896484375,0.004134907847642899,-0.019100933245941996,0.004524272491410374
1772709232196414700,4.571414794921875,0.021212883898615836,-0.03125686965957284,0.0071337608700618145
1772709232206439700,4.581439697265625,0.027962942680716512,-0.01882248163074255,-0.013362316528707742
1772709232216464600,4.591464599609375,0.02678922272622585,-0.028320743142440912,-0.009973879666812718
1772709232226489900,4.60148974609375,0.02801438060700893,-0.032445348791778086,0.00472757651116699
1772709232236514800,4.611514892578125,0.023992285484075546,-0.023921119944006204,-0.014143420436419547
1772709232246538800,4.621538818359375,0.025498598393797874,-0.025567791172489522,-0.0011316343784332275
1772709232256563700,4.631563720703125,0.024915830069780348,-0.024171514508500695,-0.00865497908797115
1772709232266588700,4.641588623046875,0.02509177115857601,-0.01548566535823047,-0.02239168188702315
1772709232276613600,4.651613525390625,0.021850012758374213,-0.0025889205146580932,-0.010476787687651812
1772709232286638800,4.661638916015625,0.031465397843718525,-0.024195626036450264,-0.0014496142864227294
1772709232296663800,4.671663818359375,0.03343640565574169,-0.031242256612330672,-0.009356551486067474
1772709232306688800,4.681688720703125,0.024935119292140005,-0.02686170344054699,-0.006164477446489036
1772709232316713700,4.691713623046875,0.014192776003479957,-0.010973375565558672,-0.003962108564004301
1772709232326739000,4.701739013671875,0.018264555487036704,-0.006710676619783043,-0.009193396813608706
1772709232336762600,4.7117626953125,0.023670798444747922,-0.008991115707159042,-0.0033358664244413374
1772709232346787600,4.72178759765625,0.03431903370916843,-0.018028481708839535,0.00901055105999112
1772709232356812800,4.731812744140625,0.02626899824440479,-0.018232845174521208,0.006579122661985457
1772709232366837800,4.741837646484375,0.034681437280774115,-0.016976269242167472,-0.010311294927634298
1772709232376862700,4.75186279296875,0.04055471322834491,-0.017115166256204246,-0.011901084869727492
1772709232386887700,4.7618876953125,0.01799801350533962,-0.0336059170037508,-0.006374211207032203
1772709232396913000,4.771912841796875,0.010537176105380058,-0.01763553686849773,0.0025193258771672843
1772709232406937600,4.7819375,0.03149754654765129,-0.022352628518268466,0.0004937383336946368
1772709232416961800,4.7919619140625,0.025390461844205854,-0.020695070569589732,-0.0005061959564685822
1772709232426986800,4.80198681640625,0.03409633086919785,-0.02221643491797149,-0.01365373722333461
1772709232437011700,4.81201171875,0.028595395365357396,-0.01782755230925977,-0.012703779554739593
1772709232447036700,4.82203662109375,0.023386720806360242,-0.018877938145026564,-0.018866357305087147
1772709232457062000,4.832061767578125,0.008605331259965897,-0.012438114355877041,-0.0013045432599261403
1772709232467086800,4.8420869140625,0.013729250144958495,-0.02908741666600108,-0.0034722061552107334
1772709232477111800,4.85211181640625,0.02452712301313877,-0.037240985570475456,0.0036887715153396125
1772709232487136500,4.862136474609375,0.04862929861247539,-0.03636624856255948,0.0103727427912876
1772709232497161700,4.87216162109375,0.040699674656987185,-0.009894348157197237,0.00838905816078186
1772709232507185700,4.882185546875,0.019174656069278716,0.005140650824084878,-0.017213073672726748
1772709232517210600,4.892210693359375,-0.008607084825634955,0.0007163315758109092,0.003558386601321399
1772709232527235800,4.90223583984375,0.011163783571124077,-0.03162599523290992,0.00923866072744131
1772709232537260800,4.9122607421875,0.03523673307597637,-0.041716961940750474,0.007829488049261271
1772709232547285800,4.92228564453125,0.03717734574973583,-0.014879954550042748,-0.013149952419660984
1772709232557310700,4.932310791015625,0.026579963889718054,-0.000848141261935234,-0.026659422334097325
1772709232567335700,4.942335693359375,0.007616904744505882,-0.018785072229802607,-0.023304558948241173
1772709232577360600,4.952360595703125,0.02139993090331554,-0.0233445621650666,-0.005121653862670063
1772709232587385600,4.962385498046875,0.027245149800181386,-0.01916881085038185,-0.0062126639697700735
1772709232597409800,4.972409912109375,0.01814063684642315,-0.004817921675741672,-0.012934409972839057
1772709232607434800,4.982434814453125,0.025205168405175206,-0.008941358281299472,0.0058776598617434495
1772709232617459700,4.992459716796875,0.01895136870741844,-0.01799962094053626,0.00904335735104978
1772709232627484700,5.002484619140625,0.026607436418533324,-0.019839549718797207,-0.003193535344302654
1772709232637510000,5.012510009765625,0.030983167284727095,-0.011070479264482855,-0.0011218071041628717
1772709232647534600,5.02253466796875,0.02623275788724422,-0.01640519135594368,-0.004807071488164365
1772709232657559600,5.0325595703125,0.026257892328500745,-0.029524565974250433,0.005915215393155813
1772709232667584800,5.042584716796875,0.024329554614424705,-0.022611717845872042,0.011392660423554479
1772709232677609700,5.052609619140625,0.02898351790010929,-0.022109467412158846,-0.012291362828947603
1772709232687633700,5.062633544921875,0.018533435556292534,-0.017096388490498066,-0.005738251391053199
1772709232697659000,5.072658935546875,0.02648351777791977,-0.02406279343701899,0.007172229716926813
1772709232707683800,5.082683837890625,0.0284428351521492,-0.025224603758007287,-0.01276654259264469
1772709232717708800,5.092708740234375,0.02814823611974716,-0.017419629095494747,-0.005793232981301844
1772709232727733500,5.1027333984375,0.020232640689611434,-0.029306977700814602,-0.0020490049516782164
1772709232737758700,5.1127587890625,0.0027408231407403945,-0.03610978958345949,-0.01283222823999822
1772709232747783700,5.12278369140625,0.026401684713363648,-0.030861075275018808,-0.013440386733599007
1772709232757808600,5.13280859375,0.022077391773462293,-0.017770049968361852,-0.003873370834626257
1772709232767833600,5.14283349609375,0.031524434554576874,-0.014261165064573287,-0.010721300500631331
1772709232777857800,5.15285791015625,0.03395136944055557,-0.01784435731358826,-0.004535049613751471
1772709232787882800,5.1628828125,0.026332126608490942,-0.024046646019816396,0.001353971892222762
1772709232797907700,5.17290771484375,0.021695698979496955,-0.03276522839590907,-0.0010906447809189558
1772709232807932700,5.1829326171875,0.02665945886671543,-0.011227788718044758,-0.013643508090265094
1772709232817957600,5.19295751953125,0.024604279902577398,-0.0013262071024626493,-0.020254121869057416
1772709232827982600,5.202982666015625,0.023141221612691876,-0.03916311273947358,0.00019537644162774084
1772709232838007800,5.2130078125,0.021958733829855918,-0.038928646396473046,-0.008773746629431842
1772709232848032800,5.22303271484375,0.026153847432136536,-0.02466653148382902,-0.012109795716963708
1772709232858056700,5.233056640625,0.02062836200892925,-0.014462094464153051,-0.0034639497835189104
1772709232868082000,5.24308203125,0.02288578554689884,-0.018899273194000123,-0.0017057079393416642
1772709232878107000,5.25310693359375,0.018989947152137754,-0.029603549494594334,0.003531133268214762
1772709232888131600,5.263131591796875,0.027205986833572386,-0.024267376098409295,0.00594915419537574
1772709232898156500,5.273156494140625,0.03663023326098919,-0.008306202182918786,-0.011117715939693152
1772709232908181800,5.283181640625,0.03739186528325081,-0.017255305379256604,-0.01100658371541649
1772709232918206700,5.293206787109375,0.023923896422982215,-0.026466566643118857,-0.0025273265205323693
1772709232928231700,5.303231689453125,0.026019991919398307,-0.009078501729667187,-0.012394238681532442
1772709232938256600,5.313256591796875,0.0156985043913126,-0.009354103800654412,-0.0073404989559203385
1772709232957678800,5.332678955078125,0.01736030012369156,-0.02442958092279732,-0.013539170932956038
1772709232967703800,5.342703857421875,0.034434769043326374,-0.010313888743519782,-0.010754289454780519
1772709232977728500,5.352728515625,0.02800970443189144,-0.01566504051312804,-0.0026661870019510387
1772709232987753700,5.362753662109375,0.019033201771974564,-0.02982157615944743,-0.009852299113757908
1772709232997778700,5.37277880859375,0.020990765580534934,-0.030257337228208777,-0.006636990329064428
1772709233007802600,5.382802734375,0.014113281026482582,-0.04697006016336381,0.010478577785938978
1772709233017827800,5.392827880859375,0.03339373555779457,-0.04070091676600277,0.004688450077176094
1772709233027852800,5.402852783203125,0.04906710550785064,-0.028815321726351973,0.000572319995239377
1772709233037877800,5.412877685546875,0.021208207723498344,0.0019384207166731357,-0.017537154527939854
1772709233047902700,5.42290283203125,-0.006914309433102607,-0.005612140793353319,-0.013212057870440184
1772709233057927700,5.432927734375,0.004779050970077514,-0.0034783436350524425,0.008408749241940676
1772709233067952600,5.44295263671875,0.05175123002529144,-0.03725559861771762,0.020473609838634728
1772709233077977600,5.4529775390625,0.04170797491669655,-0.0353436275165528,0.00019190584290772674
1772709233088002600,5.46300244140625,0.01881283701956272,-0.018157003459334374,-0.0024182401228696106
1772709233098026800,5.47302685546875,0.016724340307712554,-0.02301613392829895,-0.0057784007383510465
1772709233108051700,5.4830517578125,0.022995675662159917,-0.028141806378960608,-0.006647438657842576
1772709233118077000,5.493076904296875,0.02208382151424885,-0.01484276434481144,-0.010629822824895382
1772709233128102000,5.503101806640625,0.03404372389912605,-0.01951331343911588,0.0020748335126787422
1772709233138126800,5.513126953125,0.040758126845955846,-0.019579729738831517,-0.011736943816579878
1772709233148151800,5.52315185546875,0.01799625993967056,-0.020775296198949217,-0.009010733723081648
1772709233158177000,5.533177001953125,0.02218085214793682,-0.00920658508874476,-0.030046069097705182
1772709233168202000,5.543201904296875,0.02278641682565212,-0.01482069864347577,-0.014635770530626178
1772709233178227000,5.55322705078125,0.03267477363348007,-0.029512144884094593,-0.004204100626334548
1772709233188251100,5.563251220703125,0.023846739533543587,-0.02933583846911788,-0.002643317583017051
1772709233198276000,5.573276123046875,0.016063830572366714,-0.04142798893153667,-0.017685075098648667
1772709233208301000,5.583301025390625,0.0248830968439579,-0.04627360233180225,-0.003103409375436604
1772709233218325800,5.59332568359375,0.01124678567945957,-0.023662834334000942,-0.009373904479667544
1772709233228351000,5.60335107421875,0.011973930910229682,-0.0150301766756922,-0.00042421676144003867
1772709233238376000,5.6133759765625,0.02571779410243034,-0.014660466580465435,0.005523329998739063
1772709233248401000,5.62340087890625,0.032280221357941626,-0.013165624912828206,-0.010344941468909382
1772709233258425900,5.63342578125,0.02746726811826229,-0.029996275139227507,-0.00573697274941951
1772709233268451000,5.643451171875,0.014709493353962898,-0.019923209414258597,-0.007976677967607974
1772709233278475000,5.65347509765625,0.006294131708145141,-0.03473718605600297,0.010350092568062245
1772709233288500000,5.6635,0.01927519383430481,-0.017120646148920057,0.00024100568164139985
1772709233307924000,5.682924072265625,0.030433716708421706,-0.011749328374117612,-0.009300656580366193
1772709233317949200,5.69294921875,0.02682254047393799,-0.02323825224637985,-0.0037200799690559503
1772709233327974100,5.70297412109375,0.03397065866291523,-0.037731691696867346,0.0019931831112131476
1772709233337998800,5.712998779296875,0.03902326587736606,-0.0056552492827177045,0.0014611585937440396
1772709233348023800,5.72302392578125,0.013425883284211158,0.006134776427969336,-0.005720204277709126
1772709233358049000,5.733049072265625,0.015526654955744743,-0.018217720670625565,-0.005489793055318296
1772709233368074000,5.743073974609375,0.009524199670553207,-0.03164667269475758,-0.0017069135157391428
1772709233378099000,5.753098876953125,0.031041034951806067,-0.02186119173951447,-0.009490772324986756
1772709233388123100,5.763123046875,0.02204056689441204,-0.02255903781056404,-0.005333652645535767
1772709233398148000,5.773148193359375,0.03548515487909317,-0.035364231913164255,-0.0003965981021523475
1772709233408173000,5.783173095703125,0.01420095930993557,-0.02727466815561056,0.0015656418815255164
1772709233418197800,5.79319775390625,0.01790098287165165,-0.022347587016969917,-0.007154767125472426
1772709233428223000,5.803222900390625,0.025503274568915366,-0.01962517631575465,-0.011428498921915888
1772709233438248000,5.813248046875,0.030869770038127898,-0.01806019202135503,-0.008326185525022447
1772709233448273000,5.82327294921875,0.02276245142817497,-0.021048779378086326,-0.0038381533907726403
1772709233458297900,5.8332978515625,0.02213467491865158,-0.02209741164818406,-0.019516930168308317
1772709233468323000,5.843322998046875,0.023308979395031928,-0.01499284033998847,-0.003552906708605587
1772709233478348000,5.85334814453125,0.013412439280748367,-0.02823335711993277,-0.01246025312244892
1772709233488372000,5.8633720703125,0.023844985967874526,-0.021769421802833675,-0.011283208699710667
1772709233498397000,5.87339697265625,0.03339022842645645,-0.015736425248906016,-0.00879749283120036
1772709233508422000,5.883421875,0.05267360556721687,-0.01581840444393456,-0.021464484039507806
1772709233518446800,5.89344677734375,0.017488894939422607,-0.021749182732403276,-0.0013921850107610225
1772709233528472000,5.90347216796875,0.022405893075466154,-0.012425254874303937,0.008524740304425358
1772709233538497000,5.9134970703125,0.009669745621085166,-0.03319777459427714,-0.0006276669116690754
1772709233548522000,5.92352197265625,0.019063596910238265,-0.03702398181892931,0.009846417362242937
1772709233558547000,5.933546875,0.05523381144404411,-0.005685717486217617,0.007183408698067069
1772709233568572200,5.943572265625,0.03559562951624393,0.0023480974961072204,-0.006486841268651187
1772709233578595800,5.953595947265625,-0.0073643912881612775,-0.009284399565309286,-0.015524389933422207
1772709233588620800,5.963620849609375,-0.013192659050226211,-0.016236191464588046,0.004882182550989091
1772709233598646000,5.97364599609375,0.023601824861764906,-0.0412060898091644,0.01804842851832509
1772709233608671000,5.9836708984375,0.03552607141137123,-0.032909239976480605,0.0016677505491301417
1772709233618696000,5.993696044921875,0.0303992299169302,-0.017351240034401416,-0.013612126571312546
1772709233628721000,6.003720947265625,0.01660217523276806,-0.02612776314280927,-0.035294345014728605
1772709233638746000,6.01374609375,0.008939677780866623,-0.035669790730997915,-0.010722542609646916
1772709233648771000,6.02377099609375,0.026552491360902784,-0.026154870345443487,-0.0084777593575418
1772709233658796000,6.033796142578125,0.029952655193209648,-0.020771789067611096,-0.0204254963805899
1772709233668820000,6.043820068359375,0.02992810527384281,-0.008231529511511326,0.0018782514946535228
1772709233678845000,6.053844970703125,0.032008418679237365,-0.017712109236046672,0.008469356855377554
1772709233688870000,6.063869873046875,0.021517419803142545,-0.011200243123993276,-0.006411876336298882
1772709233698895000,6.07389501953125,0.032278467792272565,-0.015533450022712348,-0.007192943711392581
1772709233708920000,6.083920166015625,0.02240998472869396,-0.03008979864157736,-0.007006152435019612
1772709233718945000,6.093945068359375,0.019868483552336693,-0.03163008688613772,-0.0053786973636597395
1772709233728970000,6.103969970703125,0.016561258700489998,-0.03285210296176374,-0.0061557826833799475
1772709233738995200,6.1139951171875,0.015642974811792373,-0.022889584939181803,-0.014563801272958516
1772709233749020000,6.12402001953125,0.0058937342137098305,-0.02094232332892716,-0.015105433868989347
1772709233759044900,6.134044921875,0.020242577561736107,-0.02454940791018307,-0.00607566665187478
1772709233769069000,6.144069091796875,0.015729484051465986,-0.01936082629114389,0.0018727350693196058
1772709233779094000,6.154093994140625,0.02049158388674259,-0.0065445262726396315,-0.0012181801507249474
1772709233789119000,6.164118896484375,0.02211363213062286,-0.03569309854134917,0.0024911226959899065
1772709233799144000,6.17414404296875,0.03601882336437702,-0.013374226162210106,-0.0077810092650353905
1772709233809169200,6.184169189453125,0.023289105650782585,-0.015705299458280204,-0.012326799468509852
1772709233819194000,6.194194091796875,0.023868951365351675,-0.010647285416349768,-0.00741389298569411
1772709233829218800,6.20421875,0.015625439155101777,-0.0035397184334695336,-0.019066081128269432
1772709233839243800,6.214243896484375,0.024901217022538183,-0.00032024493031203744,-0.013250965108722448
1772709233849269000,6.22426904296875,0.03118716542422771,-0.012467121254652738,-0.0038305911388248205
1772709233859294000,6.2342939453125,0.024434184032678604,-0.029967633566632866,-0.00913786723408848
1772709233869318000,6.24431787109375,0.019352935245633123,0.002399023965746164,-0.008356799858994781
1772709233879343000,6.254343017578125,0.015786182674765586,-0.023172785794734953,-0.012265388137474655
1772709233889368000,6.2643681640625,0.03107318365573883,-0.054759398865327234,-0.005282653110660613
1772709233899393000,6.27439306640625,0.025387539234757422,-0.0511339018445462,-0.014632847921177744
1772709233909418000,6.28441796875,0.00696866996884346,-0.02977269551642239,-0.014116605494730174
1772709233919443000,6.29444287109375,0.005906593695282936,-0.01837846419028938,-0.013995792126655578
1772709233929468000,6.304468017578125,0.025195816054940222,-0.003032061172276735,-0.01251216597277671
1772709233939492900,6.314492919921875,0.012449731728434561,-0.01238039281927049,0.0018898688672110437
1772709233949518000,6.32451806640625,0.012120061382651329,-0.016191621670499444,-0.009667261403053998
1772709233959542000,6.3345419921875,0.02003974846601486,-0.027400924883782863,-0.0037904783241450783
1772709233969567000,6.34456689453125,0.02736614583134651,-0.02196326387450099,0.011758315398171543
1772709233979592000,6.354592041015625,0.036026422148942944,-0.0246259072124958,-0.005740260685048997
1772709233989617000,6.364616943359375,0.016985621592402456,-0.017573942874372004,-0.0036469051349908113
1772709233999641900,6.374641845703125,0.009466916525363921,-0.005640124778822064,-0.0004223901305347681
1772709234009666800,6.384666748046875,0.015420271971821784,-0.02764832377359271,-0.0039868776790797705
1772709234019692000,6.394692138671875,0.02630699216723442,-0.017600538620352744,-0.007566964655555784
1772709234029717000,6.404717041015625,0.028967151287198064,-0.010047492892295121,-0.013260792382992803
1772709234039742000,6.414741943359375,0.016844167295098304,-0.01963314042650163,-0.007093976848945021
1772709234049767000,6.424766845703125,0.03346037105321884,-0.012778598356619476,-0.008154226491600275
1772709234059792100,6.434792236328125,0.023427637338638303,-0.019745368629321455,0.0014595146259292959
1772709234069815800,6.44481591796875,0.013240005323290824,-0.025096958790346978,0.008132233855500817
1772709234079841000,6.454841064453125,0.029229017093777655,-0.03954933557808399,0.004254771367646753
1772709234089866000,6.464865966796875,0.050747021418809886,-0.02258124964237213,-0.014734993121400475
1772709234099891000,6.474890869140625,0.024537059885263442,0.0019648703321814534,-0.011521547500230371
1772709234109916000,6.484916015625,-0.02153553998172283,-0.014217545118555426,0.004598579836636782
1772709234119941000,6.494941162109375,0.004811784195899963,-0.025282836751267312,0.023251221325807273
1772709234129966300,6.50496630859375,0.03604863398075103,-0.036996655420586465,0.01555438321288675
1772709234139991300,6.5149912109375,0.022526889106631278,-0.03652406947277486,-0.025650501019880173
1772709234150016000,6.52501611328125,0.033873043507337566,-0.007228124622628092,-0.04047667955607175
1772709234160041200,6.535041259765625,0.021894436421990394,-0.023377076195180414,-0.024901436218246815
1772709234170065200,6.545065185546875,0.019027941074967383,-0.03470854448340833,-0.012153269532509147
1772709234180090000,6.555090087890625,0.017047580912709234,-0.008931932865828275,0.003442103277891874
1772709234190115300,6.565115234375,0.012243980023264885,0.0074056000813841815,-0.015223288094997406
1772709234200140300,6.575140380859375,0.015550035831332206,-0.003349675754085183,-0.0045419542785733935
1772709234210165200,6.585165283203125,0.04699906706213951,-0.018992723631113765,0.00693363518808037
1772709234220190200,6.595190185546875,0.05106324776113033,-0.025552009081467986,-0.0046290480401366945
1772709234230215200,6.605215087890625,0.025794950991868973,-0.011615399796143174,-0.002966192861832678
1772709234240240000,6.615240234375,0.02388181084692478,0.0002707067001610994,-0.005944441487640142
1772709234250265000,6.62526513671875,-0.013187982875108717,-0.01696881658807397,-0.00019892010558396578
1772709234260290000,6.6352900390625,0.012274959683418274,-0.035272973433136935,0.008177716965042055
1772709234270314200,6.645314208984375,0.034442367827892305,-0.021328911493718624,-0.006057400342822075
1772709234280339200,6.655339111328125,0.029665654945373533,-0.041469343855231995,0.004262187489122152
1772709234290364200,6.6653642578125,0.018458032232522962,-0.03615421324707568,0.004963869485072791
1772709234300389400,6.675389404296875,0.01713350563049316,-0.01802365940324962,-0.003912460735999048
1772709234310414000,6.6854140625,0.007124737313389778,-0.032972441405802966,-0.017946539046429098
1772709234320439000,6.69543896484375,0.013584873238205909,-0.022046923569962382,-0.007625380311906337
1772709234330464000,6.705464111328125,0.02453355275392532,-0.013684826481342316,-0.01512293299306184
1772709234340489200,6.7154892578125,0.03846913912594318,-0.02577880357466638,-0.013666815900616348
1772709234350514200,6.72551416015625,0.010200491496920585,-0.025720643646642564,-0.014199899864010513
1772709234360539100,6.7355390625,0.008126023310422897,-0.010093012534454463,-0.013907200527749955
1772709234370563300,6.745563232421875,0.02836392469704151,-0.02414433424063027,0.0011487681763246655
1772709234380588000,6.755588134765625,0.039300913774967194,-0.039521278527379036,0.006462035620957612
1772709234390613000,6.765613037109375,0.027182021436095237,-0.01803147738352418,-0.009156937260739505
1772709234400638200,6.77563818359375,0.019867899030447004,0.004318155460059643,-0.00833984872419387
1772709234410663200,6.7856630859375,0.022456746479868887,-0.0002418459318578243,-0.013018836853280662
1772709234420688100,6.795688232421875,0.014869652351737022,-0.021384879464656115,0.0009103197779506445
1772709234430713000,6.805713134765625,0.02282441074848175,-0.025230448976904154,0.0001431713303551078
1772709234440738300,6.81573828125,0.034357612153887745,-0.015573270576447248,-0.004400865307450294
1772709234450763300,6.82576318359375,0.022268530431389807,-0.006038184185698628,-0.016757877251133323
1772709234460788200,6.835788330078125,0.011379472148418427,-0.010945245449617504,0.001905249099433422
1772709234470812200,6.845812255859375,0.018432313269376752,-0.009009308950975537,-0.0006446545790880919
1772709234480837000,6.855837158203125,0.021443770045042037,-0.0075546531632542605,-0.0014235299970954656
1772709234490862000,6.865862060546875,0.02656009014546871,0.00006458966881036758,0.002181399159692228
1772709234500887000,6.875886962890625,0.026298808860778806,-0.021234438143298028,-0.008164747885614634
1772709234510912300,6.885912353515625,0.03231938432455063,-0.034648630989715455,-0.01506473653241992
1772709234520937200,6.895937255859375,0.025758710634708405,-0.024266791576519606,-0.0017435191990807651
1772709234530962200,6.905962158203125,0.008722235637903213,-0.036367344541102645,-0.015530637011118233
1772709234540987100,6.915987060546875,0.021015900021791458,-0.042460912175849075,-0.011203859853185713
1772709234551012400,6.926012451171875,0.0361503407895565,-0.030841420726478098,-0.012328114642761647
1772709234561037000,6.936037109375,0.024044892454147336,-0.032081995372101664,-0.008604564074985683
1772709234571061200,6.946061279296875,0.019420739784836768,-0.027022300829738378,-0.011171017029508947
1772709234581086200,6.956086181640625,0.020486323189735412,-0.009204539262130856,-0.012118709675781427
1772709234591111200,6.966111083984375,0.017528057906031607,-0.02401252455450594,0.00013823942691087722
1772709234601136000,6.97613623046875,0.00858604203760624,-0.029456176913157103,0.010658245201781392
1772709234611161300,6.986161376953125,0.03823006967306137,-0.03938859205842018,0.013068155887722968
1772709234621186300,6.996186279296875,0.04496551540791988,-0.010791881518810987,-0.007403554254770278
1772709234631211300,7.006211181640625,0.01877367405295372,0.026595234524086117,-0.027084808139316737
1772709234641236000,7.016236083984375,-0.016484686332941055,0.029380846654623746,-0.01265738312974572
1772709234651261200,7.02626123046875,-0.008189736196398735,-0.000524389200285077,0.011617226427048445
1772709234661286100,7.0362861328125,0.0510819524616003,-0.017790435169264672,0.007045644195191562
1772709234671310000,7.04631005859375,0.04795066869854927,-0.02237535180673003,-0.012460618448629975
1772709234681335300,7.056335205078125,0.020447744745016098,-0.00772146109752357,-0.020573380418680606
1772709234691360300,7.0663603515625,0.016000117686390876,-0.020785598397254943,-0.013031184878200291
1772709234701385200,7.07638525390625,0.013929156631231307,-0.031445889425650235,-0.016249708533287048
1772709234711410200,7.08641015625,0.01020809028148651,-0.016327011553198097,-0.015199249632284044
1772709234721435100,7.09643505859375,0.021156769797205925,-0.030703327430039642,-0.01740150891691446
1772709234731460000,7.106460205078125,0.023727497068047523,-0.028001155799254773,0.0011750716613605618
1772709234741485000,7.116485107421875,0.021950550523400305,-0.02541026252321899,0.0027488968493416905
1772709234751510000,7.126510009765625,0.021664719319343564,-0.029918825988844034,-0.0083677231118083
1772709234761535200,7.13653515625,0.019447043269872663,-0.010916019355133175,-0.0044164282027631995
1772709234771559200,7.14655908203125,0.029960838499665257,-0.017593670488148926,-0.00602726093288511
1772709234781584400,7.15658447265625,0.04032265803813934,-0.016260814449191092,-0.005283201099932193
1772709234791609300,7.166609375,0.017148118677735327,-0.02826082964874804,-0.012504274927265942
1772709234801634000,7.176634033203125,0.012223521757125854,-0.024623642190173267,-0.00801573133636266
1772709234811659000,7.186658935546875,0.0022165070056915284,-0.013823212038725614,-0.0038216406473889943
1772709234821684200,7.196684326171875,0.012719780841469764,-0.017663666984438896,-0.013552176545001566
1772709234831709200,7.206709228515625,0.03489244968295097,-0.013017740874737501,-0.0037928164117038247
1772709234841734100,7.216734130859375,0.030113983234763143,-0.025763386809825897,-0.004435425164178014
1772709234851759000,7.226759033203125,0.015311550900340079,-0.020224530448392033,-0.006254786078445613
1772709234861784300,7.236784423828125,0.02295592817366123,-0.017577669201418757,-0.00832687964476645
1772709234871808300,7.246808349609375,0.008763152170181273,-0.01610343193039298,-0.004221636283025145
1772709234881833000,7.2568330078125,0.011627893951535224,-0.022491306336596607,-0.010629384433478117
1772709234891858200,7.266858154296875,0.032898060995340345,-0.008293342701345682,-0.009202018511481582
1772709234901883100,7.276883056640625,0.024993571481108662,-0.010833236442506312,-0.00109857235904783
1772709234911908000,7.286908203125,0.01528758550286293,-0.018022490359470247,-0.0026104382267221806
1772709234921933000,7.29693310546875,0.01949906571805477,-0.004668503267690539,0.0017799422193318605
1772709234931958300,7.306958251953125,0.030301030239462852,-0.0083623162843287,-0.013536248323507607
1772709234941983200,7.316983154296875,0.03946867155730724,-0.034627661266922946,-0.00526961096599698
1772709234952008200,7.32700830078125,0.030519641426205633,-0.033317309320718046,0.007564334307052194
1772709234962033200,7.337033203125,0.03443418452143669,-0.046981969796866176,-0.003918817411549389
1772709234972057000,7.34705712890625,0.014396189621090889,-0.026413375151157378,-0.004949256437830627
1772709234982082000,7.35708203125,0.01949438954293728,-0.017499562463909386,-0.0014549115160480141
1772709234992107300,7.367107177734375,0.012476035213470458,-0.030060645612329243,-0.004078172691725194
1772709235002132200,7.37713232421875,0.01861293053328991,-0.03396897816248238,-0.027331841702945527
1772709235012157200,7.3871572265625,0.029684359645843504,-0.02991743774935603,-0.011113368558138608
1772709235022182100,7.39718212890625,0.030885552129149434,-0.014165961061790584,-0.01998250185344368
1772709235032207400,7.407207275390625,0.03554126898050308,-0.021318609295412898,-0.008861972902156411
1772709235042232300,7.417232421875,0.012215922972559929,-0.021298662485927343,0.007611388319171965
1772709235052257000,7.427257080078125,0.013121347379684447,-0.02738112420476973,-0.002643755974434316
1772709235062281200,7.43728125,0.01596679993867874,-0.027267800023406744,-0.014416136430576442
1772709235072306200,7.44730615234375,0.027492402559518812,-0.025496187241002916,0.0038935368398204445
1772709235082331100,7.4573310546875,0.029889526829123495,-0.018265797596052288,-0.0038891894582659004
1772709235092356000,7.467356201171875,0.028410686448216437,-0.005028934077918529,-0.008730090150795877
1772709235102381300,7.47738134765625,0.030522564035654065,-0.009402619117498397,-0.01739880550317466
1772709235112406300,7.48740625,0.024710662886500357,-0.022893092070519924,-0.0066018094178289174
1772709235122431200,7.49743115234375,0.022189035454392433,-0.01481799522973597,0.007703231321088969
1772709235132456200,7.507456298828125,0.022506430840492246,-0.037175957510247826,0.007061316688358783
1772709235142481400,7.5174814453125,0.03551905714869499,-0.03720058049485087,-0.00463975209724158
1772709235152506400,7.52750634765625,0.03013151889145374,-0.012893676103651523,-0.010072700398787856
1772709235162531300,7.53753125,0.020855741024017334,-0.002619169522449374,-0.01630582263469696
1772709235172555500,7.547555419921875,-0.003962473890185356,0.001371288353204727,-0.010764591653086245
1772709235182580200,7.557580322265625,0.011189502534270286,-0.03350231049880385,0.011779212055727838
1772709235192605200,7.567605224609375,0.05264321042895317,-0.03666179744303226,-0.003989398429729044
1772709235202630400,7.57763037109375,0.04515139336884021,-0.028622867894172666,-0.010622735496982932
1772709235212655400,7.5876552734375,0.014477438163757324,-0.013773600743338464,-0.015741685945913193
1772709235222680300,7.597680419921875,0.011350246053934096,-0.023025705474242566,-0.021709069917723534
1772709235232705300,7.607705322265625,0.009257657688856124,-0.03851341665908694,-0.01197155629005283
1772709235242730500,7.61773046875,0.03229132727384567,-0.03353862392120063,-0.010007014751434326
1772709235252755500,7.62775537109375,0.04125321688652038,-0.03645261167176068,0.004804514204896986
1772709235262780400,7.637780517578125,0.025534254229068756,-0.009568331073224544,-0.0063986149959266185
1772709235272804400,7.647804443359375,0.03211012548804283,-0.011899258238822222,0.006080342826992273
1772709235282829300,7.657829345703125,0.014300328031182289,0.000692877634987235,-0.015534728664346038
1772709235292854300,7.667854248046875,0.02328793660700321,-0.0018780688315629959,-0.006586027326807379
1772709235302879200,7.677879150390625,0.03526771273612976,-0.02072495425119996,0.0015230083161965012
1772709235312904400,7.687904541015625,0.030789690539240834,-0.031912995480746026,0.004840352703258395
1772709235322929400,7.697929443359375,0.017484218764305115,-0.026029636530578135,0.0030563918959349394
1772709235332954400,7.707954345703125,0.02080313405394554,-0.026088161784783005,-0.010280534463189541
1772709235342979300,7.717979248046875,0.022310616007447243,-0.01528049817495048,-0.01595255221761763
1772709235353004500,7.728004638671875,0.030693828949332234,-0.022363369107991457,-0.0030304172044619917
1772709235363029200,7.738029296875,0.03922375688552856,-0.029349720863997935,-0.0014849778607487678
1772709235373053400,7.748053466796875,0.020665771409869194,-0.02751271469518542,-0.006906856779009103
1772709235383078400,7.758078369140625,0.014528876090049743,-0.03212115833871066,-0.004886566465161741
1772709235393103400,7.768103271484375,0.01572714596390724,-0.018334113591909406,0.0024553572628647088
1772709235403128300,7.77812841796875,0.02738134340047836,-0.03711699386462569,0.0017547347128391265
1772709235413153500,7.788153564453125,0.024970775127410888,-0.027214170140028,-0.011401720512844622
1772709235423178500,7.798178466796875,0.021662965753674508,-0.0008491641752421856,-0.013033997889794409
1772709235433203500,7.808203369140625,0.021512159106135367,-0.01494395969696343,-0.013205920390598475
1772709235443228200,7.818228271484375,0.020309797579050062,-0.03160729053243994,-0.004334120214171708
1772709235453253400,7.82825341796875,0.02867021416723728,-0.016564400505647062,-0.0074915247991681096
1772709235463278300,7.8382783203125,0.024922844332456586,-0.00385894045047462,-0.025338220200315117
1772709235473302300,7.84830224609375,0.020592121651768682,-0.03153495594859123,-0.0017112243646755813
1772709235483327500,7.858327392578125,0.021181904238462446,-0.03978730905242264,0.012652597356773912
1772709235493352400,7.8683525390625,0.022359715846180916,-0.023512246882170438,0.0011655001154169439
1772709235503377400,7.87837744140625,0.01620645391345024,-0.013780468875542282,-0.0016551833285018802
1772709235513402000,7.888402099609375,0.0051233343631029125,-0.021429741519689557,-0.020679398076422512
1772709235523427300,7.89842724609375,0.025313304954767225,-0.01623480322510004,0.005180434845201671
1772709235533452300,7.908452392578125,0.01840893239378929,-0.011919058917835354,0.003429828318208456
1772709235543477200,7.918477294921875,0.01703296786546707,-0.026079393956437706,-0.006185666364990175
1772709235553502200,7.928502197265625,0.02883446481823921,-0.026297785947471855,-0.015504881515353917
1772709235563527400,7.93852734375,0.029266426494717595,-0.022640140222758055,-0.002901822388730943
1772709235573552400,7.948552490234375,0.02326397120952606,-0.03416428153887391,-0.0015711217742413281
1772709235583576300,7.958576416015625,0.024292145213484762,-0.01767228868231177,-0.019294957980699835
1772709235593601300,7.968601318359375,0.024722353324294087,-0.03819280640259385,-0.006272431332990527
1772709235603626200,7.978626220703125,0.027853052565455436,-0.035838206100463864,-0.015867467750050126
1772709235613651200,7.988651123046875,0.02243745725750923,-0.02088650148846209,-0.01225786241814494
1772709235623676400,7.998676513671875,0.006838321587443351,-0.025367227099090815,-0.010719035478308797
1772709235633701400,8.008701416015626,0.016397592571377753,-0.014305442597717046,-0.02510061205215752
1772709235643726300,8.018726318359375,0.013401917886734008,-0.016621391389891504,-0.02557359985876828
1772709235653751300,8.028751220703125,0.031655367457866665,-0.02890891829393804,0.002878478045761585
1772709235663776500,8.038776611328124,0.022064532291889188,-0.02702266615591943,-0.019066154193505644
1772709235673801500,8.048801513671876,0.024298574954271315,-0.020304829142987726,-0.0006703004769980907
1772709235683826400,8.058826416015625,0.00993102690577507,-0.029608152604475614,0.001582118092291057
1772709235693850400,8.068850341796875,0.03744681034088135,-0.029112843368202447,-0.01226790888812393
1772709235703875300,8.078875244140624,0.05042670342326164,-0.009927154448255896,-0.020831519898213444
1772709235713900300,8.088900390625,0.00940378816127777,0.011769055987894534,-0.027024163993261754
1772709235723925200,8.09892529296875,-0.0046545478075742715,0.005749503437429666,-0.009109335259348154
1772709235733950500,8.108950439453125,0.02797521764039993,-0.036926366663351654,0.013909977006725966
1772709235743975400,8.118975341796874,0.04066343429982662,-0.04262450523972511,0.002792005338706076
1772709235754000400,8.12900048828125,0.045409167522192,-0.024367913863435387,-0.015048698713071643
1772709235764025300,8.139025390625,0.027132337075471878,-0.0070050564564764495,-0.02370068212635815
1772709235774050300,8.14905029296875,0.027274375894665717,-0.02505268125720322,-0.011847966443002223
1772709235784075300,8.1590751953125,0.03698386900424957,-0.028897081725671885,-0.009693637953326105
1772709235794099500,8.169099365234375,0.028269232150912284,-0.01123867543824017,-0.0068865811759606
1772709235804124400,8.17912451171875,0.0011620295166969298,-0.01142776826955378,-0.01002155473344028
1772709235814149400,8.1891494140625,0.005353635987639427,-0.031066826980188488,0.006358465648628771
1772709235824174300,8.19917431640625,0.036163200271129604,-0.020224968839809298,-0.005255545908026397
1772709235834199600,8.209199462890625,0.016693945169448852,-0.021040523006394505,-0.012953845325671136
1772709235844224500,8.219224609375,0.02222176868021488,-0.007640066424384712,-0.010626059965230524
1772709235854249200,8.229249267578124,0.009952069693803786,-0.016953399823233486,0.008467018767818808
1772709235864274200,8.239274169921876,0.009791910696029662,-0.03265153888836503,0.008353694586455821
1772709235874299400,8.24929931640625,0.032521044376492496,-0.024291852952539918,0.0012576353782787918
1772709235884324400,8.259324462890625,0.04358019852936268,-0.01659194609969854,-0.005206190340965986
1772709235894348300,8.269348388671874,0.03025193040072918,-0.022661475271731613,-0.01652191307079047
1772709235904373500,8.27937353515625,0.025885551884770392,-0.028447219066321847,-0.002595934777334332
1772709235914398500,8.2893984375,0.008798223483562469,-0.023315116874873636,0.01121302954033017
1772709235924423400,8.29942333984375,0.018649755412340163,-0.023673721054196357,0.005087057473324239
1772709235934448000,8.3094482421875,0.040323827081918714,-0.018501871374249457,-0.0006095832657068967
1772709235944473300,8.319473388671875,0.033114918616414066,-0.008203034069389104,-0.013686068590357899
1772709235954498300,8.329498291015625,0.016630232283473014,-0.023484628222882747,-0.020496808051131663
1772709235964523300,8.339523193359375,0.017504092508554458,-0.01663344715386629,-0.010431596839055418
1772709235974548200,8.34954833984375,0.027813889598846436,-0.007323547821119427,-0.020964169834554194
1772709235984573400,8.359573486328125,0.008353402325510979,-0.006604512831568717,-0.0008435746846720576
1772709235994597400,8.369597412109375,0.03482990584075451,-0.014658566884323954,-0.00007390548642724753
1772709236004622300,8.379622314453124,0.03241875304579735,-0.010404051245003938,-0.004938698511198163
1772709236014647300,8.389647216796876,0.04408756352961063,-0.009174582515284418,-0.010529065864160657
1772709236024672300,8.39967236328125,0.025989012259244916,-0.023334479162469505,-0.019688706538639963
1772709236034697200,8.409697265625,0.028241759622097014,-0.023310586830228564,-0.003606755787692964
1772709236044722400,8.419722412109374,0.02897475007176399,-0.03344334685318172,-0.01392674547843635
1772709236054747400,8.429747314453126,0.011748305460810661,-0.013868001028522849,0.0022149361031129954
1772709236064772400,8.4397724609375,0.028804654201865194,-0.014280015895515679,0.004961129538714885
1772709236074797300,8.44979736328125,0.019217910689115523,-0.021985256510600446,0.0005620543295517563
1772709236084822500,8.459822509765624,0.02278817039132118,-0.031159765960648653,-0.006460318587906658
1772709236094846200,8.46984619140625,0.022919687816500663,-0.016368439542129635,-0.010520224970579146
1772709236104871200,8.47987109375,0.01677285562455654,-0.019771745179593563,-0.009834507728740572
1772709236114896400,8.489896484375,0.026786884638667106,-0.03113295101895928,-0.002908288662135601
1772709236124921300,8.49992138671875,0.02976385462284088,-0.014151421079784631,-0.004088255694322288
1772709236134946800,8.50994677734375,0.017918518528342246,-0.022989099790900944,-0.002816518725454807
1772709236144971800,8.5199716796875,0.014610709154605864,-0.02572268947325647,-0.0015559972703456878
1772709236154997000,8.5299970703125,0.025970307558774948,-0.014298209139332175,-0.002532514152303338
1772709236165022000,8.54002197265625,0.025803134298324582,-0.022570874378830194,-0.00947568435370922
1772709236175046700,8.550046630859375,0.02906418192088604,-0.003112652127817273,-0.009993863008916377
1772709236185071600,8.560071533203125,0.01826864714026451,-0.0015646189682185648,-0.023957542964257297
1772709236195095800,8.570095703125,0.006602759265899658,-0.011955810731649398,-0.011887092876993119
1772709236205120800,8.580120849609376,0.02650046891272068,-0.01102211007811129,-0.008667180982418358
1772709236215145700,8.590145751953125,0.010778583645820617,-0.018640110801160334,-0.00685465166773647
1772709236225171000,8.6001708984375,0.014812369206547736,-0.02251132621131837,0.0019274609312415123
1772709236235196000,8.61019580078125,0.03155424517095089,-0.03985460213497281,0.011968158756569027
1772709236245220900,8.620220947265626,0.03960661872327328,-0.022807824939861894,-0.011929653377085923
1772709236255245600,8.63024560546875,0.03270166164040565,0.002405672902241349,-0.03020725100878626
1772709236265270800,8.640270751953125,-0.014278700721263885,-0.0177690270550549,-0.009186163355223834
1772709236275295700,8.650295654296874,-0.001685176607966423,-0.028021394869685173,0.020705811159312724
1772709236285320700,8.66032080078125,0.040783845809102055,-0.04278035338856279,0.019591931633278728
1772709236295345000,8.670344970703125,0.03161678901314735,-0.037838951463624836,-0.03364157283902168
1772709236305369900,8.680369873046875,0.033091537740826606,-0.006506897675991058,-0.028945633575133977
1772709236315394800,8.690394775390626,0.01751227581501007,-0.025880364252999423,-0.03343629605788737
1772709236325419800,8.700419677734375,0.01974222682416439,-0.03172967480309307,-0.025782128042913972
1772709236335444700,8.71044482421875,0.031245033091306683,-0.009786723064258694,-0.00940769715141505
1772709236345469700,8.7204697265625,0.009123802176117897,-0.001381225225329399,-0.003178885764442384
1772709236355494700,8.73049462890625,0.06992460009753704,0.11143106109276413,-0.035582733502052724
1772709236365520000,8.740519775390625,0.2938637038648128,-0.01741480678990483,-0.16087810582891104
1772709236375544800,8.750544921875,0.1799111614704132,-0.08947188887149095,0.08863956623319535
1772709236385569800,8.76056982421875,-0.20890578528642653,-0.1227858371913433,0.14256569261215626
1772709236395594000,8.770593994140626,-0.41417525989711285,0.007188377134129405,-0.018945194694958627
1772709236405619000,8.780618896484375,-0.1749216826200485,0.11111330038048327,-0.08323971648365258
1772709236415643600,8.7906435546875,0.23526421537995337,-0.036527211277931924,0.019706607521511613
1772709236425668600,8.800668701171874,0.33478958849310875,-0.18829671249985694,0.09501801522392779
1772709236435693800,8.81069384765625,0.06949556103050708,-0.06252623347453773,0.006604878157749771
1772709236445718800,8.82071875,-0.20219372042715547,0.07447758722677826,-0.06728464351538568
1772709236455743700,8.83074365234375,-0.13721417551636694,0.041819107140973207,-0.034797537941113114
1772709236465768700,8.840768798828124,0.014178747478127479,-0.011661650090664624,0.042429494124278426
1772709236475794000,8.8507939453125,0.13826339230835438,-0.0624457155842334,-0.008476224987581372
1772709236485819000,8.86081884765625,0.26673253583312034,-0.05571560361161828,-0.10080682775843888
