time,seconds_elapsed,z,y,x
1772709227685216000,0.060216064453125,-0.00013418379239737988,-0.013854390010237694,0.00450543686747551
1772709227695240700,0.07024072265625,0.0008984487503767014,-0.008884916082024574,0.009467225521802902
1772709227705265700,0.080265625,0.002856404520571232,0.0055981529876589775,0.010785490274429321
1772709227715291000,0.090290771484375,0.0028769108466804028,0.00323539599776268,0.012258484028279781
1772709227725314800,0.100314697265625,0.0005365249235183001,-0.004151413682848215,0.008718078024685383
1772709227735339800,0.11033984375,0.0016319220885634422,-0.0029780897311866283,0.0012431723298504949
1772709227745365000,0.120364990234375,0.002224475611001253,0.002891784068197012,-0.002457023598253727
1772709227755390000,0.130389892578125,0.001477476442232728,0.0016729137860238552,0.0030155901331454515
1772709227765415000,0.140414794921875,0.00006653368473052979,0.002237237524241209,0.004158086143434048
1772709227775439600,0.150439697265625,0.0001305481418967247,0.0031458353623747826,-0.002730519277974963
1772709227785464800,0.16046484375,0.0016898289322853088,0.0018558008596301079,-0.0068208687007427216
1772709227795489800,0.17048974609375,-0.0010056362953037024,0.00013197539374232292,-0.004282376728951931
1772709227805514800,0.1805146484375,-0.0016016517765820026,0.0004670009948313236,-0.0060493843629956245
1772709227815539700,0.190539794921875,0.00048275734297931194,-0.00107493344694376,-0.00499593373388052
1772709227825564000,0.20056396484375,0.0024979712907224894,0.0034625609405338764,0.001469955313950777
1772709227835588900,0.2105888671875,0.004549851641058922,0.007372090592980385,0.0032078600488603115
1772709227845614000,0.220614013671875,0.006288896314799786,0.007211501710116863,-0.002034040167927742
1772709227855638800,0.230638671875,0.006138969212770462,0.003706987015902996,-0.0028906615916639566
1772709227865663700,0.240663818359375,0.006708619184792042,0.0035338811576366425,-0.0015135409776121378
1772709227875688700,0.250688720703125,0.008045321330428123,0.006465040612965822,0.005975864361971617
1772709227885714000,0.2607138671875,0.007596046198159456,0.0108302291482687,0.008075767196714878
1772709227895739000,0.27073876953125,0.006257640663534403,0.006258603651076555,0.007559614256024361
1772709227905763800,0.280763916015625,0.008368195965886116,0.002640699502080679,0.007874133065342903
1772709227915788800,0.290788818359375,0.008069179952144623,0.0023296354338526726,0.011855164542794228
1772709227925814000,0.30081396484375,0.006795123685151339,0.002986903302371502,0.011257817968726158
1772709227935837700,0.310837646484375,0.00927499309182167,0.002775958739221096,0.012884030118584633
1772709227945862700,0.320862548828125,0.010554907843470573,0.0014792662113904953,0.014781797304749489
1772709227955887900,0.330887939453125,0.008901790715754032,0.00509981345385313,0.014995799399912357
1772709227965912800,0.340912841796875,0.008868500590324402,0.0006363559514284134,0.01085591595619917
1772709227975937800,0.350937744140625,0.007031661458313465,-0.00040360214188694954,0.007395265623927116
1772709227985962800,0.360962646484375,0.009869258850812912,-0.0017285249195992947,0.007739345543086529
1772709227995988000,0.370988037109375,0.011966003105044365,-0.0027926978655159473,0.016373559832572937
1772709228006013000,0.381012939453125,0.012305555865168571,0.00605245865881443,0.021667923778295517
1772709228016038000,0.391037841796875,0.010744309052824974,0.009120995178818703,0.015958670526742935
1772709228026062800,0.401062744140625,0.012980564497411251,0.000557600986212492,0.0072591882199049
1772709228036086800,0.411086669921875,0.011471843346953392,-0.004808960482478142,0.0017576511017978191
1772709228046111700,0.42111181640625,0.006925828289240599,-0.0035596718080341816,0.0005395213374868035
1772709228056137000,0.431136962890625,0.009142224676907063,0.004956571850925684,0.0006468575447797775
1772709228066162000,0.441161865234375,0.006937127560377121,0.008418414741754532,0.002856215927749872
1772709228076187000,0.451186767578125,0.00733875622972846,0.003993896767497063,0.002895716344937682
1772709228086211800,0.4612119140625,0.006608517374843359,0.00012725358828902245,0.005796165205538273
1772709228096237000,0.471237060546875,0.006194371730089188,0.003582380246371031,0.014051079750061035
1772709228106261800,0.48126171875,0.007340063340961933,0.002488620113581419,0.01654539629817009
1772709228116286700,0.49128662109375,0.006100486032664776,0.00078953942283988,0.011853492818772793
1772709228126311200,0.501311279296875,0.005835235118865967,-0.0023029232397675514,0.00855410285294056
1772709228136335000,0.511335205078125,0.005948209203779697,-0.0021526659838855267,0.009917130693793297
1772709228146360000,0.521360107421875,0.007188709452748299,0.0016703014262020588,0.012019962072372437
1772709228156385300,0.53138525390625,0.007348557002842426,0.0060428776778280735,0.013735558837652206
1772709228166410200,0.54141015625,0.00739782489836216,0.0035147392190992832,0.012782946228981018
1772709228176435200,0.551435302734375,0.007843486964702606,0.001276605762541294,0.01101674884557724
1772709228186460200,0.561460205078125,0.008707948960363865,-0.00029492564499378204,0.006315204314887524
1772709228196485400,0.5714853515625,0.007764778565615416,0.0008830679580569267,0.006473332643508911
1772709228206510000,0.581510009765625,0.0048147947527468204,-0.0004828674718737602,0.007124475669115782
1772709228216535000,0.59153515625,0.003504981752485037,-0.005116257816553116,0.007433753460645676
1772709228226560000,0.60156005859375,0.003748394548892975,-0.0073589058592915535,0.01076456904411316
1772709228236584200,0.611584228515625,0.002042627427726984,-0.007321916986256838,0.015105213038623333
1772709228246609200,0.621609130859375,0.0022242548875510693,-0.010132350958883762,0.0175851471722126
1772709228256634000,0.631634033203125,0.002009491203352809,-0.014079941436648369,0.02007652446627617
1772709228266659300,0.641659423828125,0.002011088887229562,-0.012330776080489159,0.022624103352427483
1772709228276684300,0.651684326171875,0.00131702097132802,-0.010876745916903019,0.020914334803819656
1772709228286709000,0.661708984375,0.0023964005522429943,-0.01103626936674118,0.016867928206920624
1772709228296734200,0.671734130859375,0.0009997333399951458,-0.011602149344980717,0.011634314432740211
1772709228306759200,0.68175927734375,0.00067935511469841,-0.009705179370939732,0.009029743261635303
1772709228316784000,0.6917841796875,0.00017730379477143288,-0.007533160503953695,0.007144737057387829
1772709228326809000,0.70180908203125,-0.0017162037547677755,-0.0055270008742809296,0.005787590518593788
1772709228336834300,0.711834228515625,-0.0020442595705389977,-0.007708074990659952,0.0062973396852612495
1772709228346858200,0.721858154296875,-0.002243996597826481,-0.009254839271306992,0.006304796785116196
1772709228356883200,0.73188330078125,-0.0030133360996842384,-0.011572623625397682,0.00224410486407578
1772709228366908200,0.741908203125,-0.005737749859690666,-0.007577349431812763,0.0004845543298870325
1772709228376933000,0.75193310546875,-0.0064360592514276505,-0.008862587623298168,-0.002410238143056631
1772709228386958000,0.7619580078125,-0.005489838309586048,-0.00929641630500555,-0.0028270226903259754
1772709228396983000,0.771983154296875,-0.005417308770120144,-0.005459253676235676,0.001566927065141499
1772709228407008300,0.78200830078125,-0.004834609106183052,-0.0001347954384982586,0.0033714850433170795
1772709228417033200,0.792033203125,-0.004734306130558252,-0.002676802221685648,0.0026640319265425205
1772709228427058200,0.80205810546875,-0.004769992548972368,-0.0038544521667063236,-0.00009180721826851368
1772709228437083100,0.812083251953125,-0.0042688134126365185,-0.0021191327832639217,-0.005614340305328369
1772709228447107000,0.822107177734375,-0.004157226998358965,-0.000008044764399528503,-0.007858852855861187
1772709228457132000,0.832132080078125,-0.005357135087251663,-0.00060620391741395,-0.006976803299039602
1772709228467157200,0.8421572265625,-0.00490280007943511,0.0015397709794342518,-0.005135226994752884
1772709228477182200,0.85218212890625,-0.00364032038487494,-0.0013838629238307476,-0.002923525171354413
1772709228487207200,0.862207275390625,-0.0036618919111788273,-0.0027106497436761856,-0.00020843255333602428
1772709228497232100,0.872232177734375,-0.004464738070964813,-0.004634231328964233,0.0018111595418304205
1772709228507257300,0.88225732421875,-0.0025624423287808895,-0.006538125220686197,0.005506029352545738
1772709228517282300,0.8922822265625,-0.0026956689544022083,-0.003028368577361107,0.004956704564392567
1772709228527307300,0.902307373046875,-0.0012410501949489117,0.0006846110336482525,0.006139148026704788
1772709228537331200,0.912331298828125,-0.0014676086138933897,0.0032899421639740467,0.00248532323166728
1772709228547356200,0.922356201171875,-0.0018726754933595657,-0.0006115888245403767,-0.0015887804329395294
1772709228557381000,0.932381103515625,-0.0010802908800542355,-0.0007002521306276321,-0.0014557719696313143
1772709228567406000,0.942406005859375,-0.002884848741814494,-0.0006445921026170254,-0.00003311131149530411
1772709228577431300,0.952431396484375,-0.0035690804943442345,-0.0006142547354102135,-0.004466123413294554
1772709228587456300,0.962456298828125,-0.0016321634175255895,0.0026007131673395634,-0.007492539472877979
1772709228597481200,0.972481201171875,-0.0009482440073043108,0.00009713368490338326,-0.008948138915002346
1772709228607506200,0.982506103515625,-0.0011232136748731136,0.0009197844192385674,-0.007490324787795544
1772709228617531100,0.99253125,-0.0005034375935792923,0.004758519120514393,-0.00500450748950243
1772709228627556000,1.00255615234375,0.0006286720745265484,0.004430417902767658,-0.0048513757064938545
1772709228637580000,1.012580078125,0.001023448072373867,0.0022425889037549496,-0.0011240483727306128
1772709228647605200,1.022605224609375,-0.0006610013078898191,0.0018945136107504368,0.0011849121656268835
1772709228657630200,1.032630126953125,-0.0017472888575866818,0.0018031359650194645,0.0031036126893013716
1772709228667655200,1.0426552734375,-0.0013009430840611458,-0.00041607674211263657,-0.0017276278231292963
1772709228677680000,1.05268017578125,0.00120103033259511,-0.001594814471900463,-0.0008140781428664923
1772709228687705300,1.062705322265625,-0.001084228279069066,0.0020028501749038696,-0.0005664040800184011
1772709228697730000,1.07272998046875,-0.002171511063352227,0.002811641898006201,0.0037064466159790754
1772709228707755000,1.082755126953125,-0.0003075646236538887,-0.003334134817123413,0.0025397157296538353
1772709228717780200,1.0927802734375,-0.001412307028658688,-0.0055894977413117886,0.00016418658196926117
1772709228727805200,1.10280517578125,-0.0021798298694193363,-0.0010842285118997097,-0.00006351363845169544
1772709228737829000,1.1128291015625,-0.0023172490764409304,-0.0030128895305097103,-0.0008020082022994757
1772709228747854300,1.122854248046875,-0.0008703537750989199,-0.003637400921434164,-0.005881189368665218
1772709228757879300,1.13287939453125,-0.0007272788789123297,-0.006161080207675695,-0.005752569064497948
1772709228767904300,1.142904296875,-0.002876183483749628,-0.0029996419325470924,-0.006409836933016777
1772709228777929000,1.152928955078125,-0.0015044751344248652,0.001829211600124836,-0.006952397990971804
1772709228787954200,1.1629541015625,-0.0027460407000035048,-0.002175117377191782,-0.007595018949359655
1772709228797979100,1.172979248046875,-0.002080886159092188,-0.003758857259526849,-0.008954264223575592
1772709228808004000,1.183004150390625,-0.0016188279259949923,-0.001712217926979065,-0.007057560607790947
1772709228818029000,1.193029052734375,-0.00203713565133512,-0.0011836192570626736,-0.005211425945162773
1772709228828054300,1.20305419921875,-0.0003787851892411709,-0.00044006481766700745,-0.0036135290283709764
1772709228838078200,1.213078125,-0.001644376665353775,-0.002029965166002512,-0.003693029750138521
1772709228848103200,1.223103271484375,-0.0007034819573163986,-0.003925070632249117,-0.0010051012504845858
1772709228858128100,1.233128173828125,-0.0017058284720405936,-0.0018826699815690517,0.0027543979231268167
1772709228868153000,1.243153076171875,-0.0009763885755091906,0.00007741665467619896,0.0018281504744663835
1772709228878178000,1.253177978515625,-0.000692201079800725,-0.001575344242155552,-0.0023778437171131372
1772709228888203300,1.263203369140625,0.0003629433922469616,-0.0027311560697853565,-0.004451647400856018
1772709228898228200,1.273228271484375,0.000026655150577425957,-0.00047197379171848297,-0.0017856420017778873
1772709228908253200,1.283253173828125,-0.001499868812970817,-0.0004876861348748207,0.0005169271025806665
1772709228918278100,1.293278076171875,-0.0021197968162596226,-0.0012986259534955025,-0.003479539882391691
1772709228928302300,1.30330224609375,-0.0015922244638204575,-0.0015673385933041573,-0.006310480181127787
1772709228938327000,1.3133271484375,-0.002607023809105158,-0.002455282025039196,-0.003418383188545704
1772709228948352000,1.32335205078125,-0.0010264376178383827,-0.0004653679206967354,0.00009272829629480839
1772709228958377200,1.333377197265625,-0.0023419323842972517,-0.0016988953575491905,0.001057218643836677
1772709228968402200,1.343402099609375,-0.0016100957291200757,-0.004156460054218769,0.0002992830704897642
1772709228978427100,1.35342724609375,-0.003173847682774067,-0.006458503659814596,0.00018543843179941177
1772709228988452000,1.3634521484375,-0.0037381714209914207,-0.00457405112683773,0.0007060865173116326
1772709228998477300,1.373477294921875,-0.00018720957450568676,-0.003785180626437068,0.001885899342596531
1772709229008502300,1.383502197265625,-0.0027505022007972,-0.0020109829492866993,0.0006150389090180397
1772709229018527200,1.39352734375,-0.0019748923368752003,-0.003560451790690422,-0.0011117872782051563
1772709229028551200,1.40355126953125,-0.0032201865687966347,-0.004342888481914997,-0.002254815772175789
1772709229038576000,1.413576171875,-0.003031113650649786,-0.002367917448282242,-0.0061561232432723045
1772709229048601000,1.42360107421875,-0.003245498053729534,-0.002362058497965336,-0.007544162683188915
1772709229058626000,1.4336259765625,-0.0035651058424264193,-0.0014262204058468342,-0.011106610298156738
1772709229068651300,1.4436513671875,-0.004147272557020187,-0.0051503852009773254,-0.012882672250270844
1772709229078676200,1.45367626953125,-0.014290176331996918,-0.006022807210683823,-0.008096130564808846
1772709229088701200,1.463701171875,0.03294897451996803,0.003965378273278475,-0.008696937933564186
1772709229098726400,1.473726318359375,-0.040957022458314896,-0.0028837299905717373,-0.007379014510661364
1772709229108751000,1.483751220703125,0.02893843688070774,0.005351030733436346,-0.01504199393093586
1772709229118775000,1.493775146484375,-0.038804519921541214,-0.014597393572330475,-0.015183994546532631
1772709229128800500,1.503800537109375,0.024027975276112556,0.0027365898713469505,-0.017486562952399254
1772709229138825700,1.51382568359375,-0.03415427356958389,-0.010505160316824913,-0.008310258388519287
1772709229148850400,1.523850341796875,0.024924490600824356,0.005449837539345026,-0.009336641058325768
1772709229158875400,1.53387548828125,-0.02964496612548828,-0.009060697630047798,-0.004499978385865688
1772709229168900600,1.543900634765625,0.02199718914926052,0.004736341070383787,-0.006657937541604042
1772709229178925600,1.553925537109375,-0.0254556592553854,-0.009325341321527958,-0.0004920470528304577
1772709229188950500,1.563950439453125,0.02093101479113102,0.007959372363984585,-0.00018871319480240345
1772709229198975500,1.5739755859375,-0.021471599116921425,-0.010611440055072308,0.002687414176762104
1772709229209000700,1.584000732421875,0.015670975670218468,0.004061779007315636,-0.002864744048565626
1772709229219024600,1.594024658203125,-0.01752515882253647,-0.013669239357113838,-0.001365085132420063
1772709229229049300,1.60404931640625,0.014935844577848911,0.00810183584690094,-0.002868173411116004
1772709229239074600,1.614074462890625,-0.01370261237025261,-0.004680285230278969,0.0039697689935564995
1772709229249099500,1.624099609375,0.008103616535663605,0.007058928720653057,-0.00292249140329659
1772709229259124500,1.63412451171875,-0.011842267587780952,-0.013470891863107681,-0.003458149963989854
1772709229269149400,1.6441494140625,0.0060871983878314495,0.003662820439785719,-0.0073040202260017395
1772709229279174700,1.654174560546875,-0.0076607693918049335,-0.00555702019482851,-0.0034366631880402565
1772709229289199600,1.66419970703125,0.0016597616486251354,0.009279981255531311,-0.005128303077071905
1772709229299224600,1.674224609375,-0.001999057363718748,-0.008507783524692059,-0.003691942896693945
1772709229309248500,1.68424853515625,-0.00047759339213371277,0.005263156723231077,-0.004091416951268911
1772709229319273500,1.6942734375,0.00016261893324553967,-0.011291553266346455,0.0006568405078724027
1772709229329298400,1.70429833984375,-0.004148772452026606,0.005039216950535774,0.0007902649231255054
1772709229339323600,1.71432373046875,0.002603378612548113,-0.014470033347606659,0.0036867826711386442
1772709229349348600,1.7243486328125,-0.006612490396946669,-0.0010583540424704552,0.002767193131148815
1772709229359373600,1.73437353515625,0.006266861688345671,-0.01552947424352169,0.007286139763891697
1772709229369398500,1.7443984375,-0.009411966428160667,0.0010180776007473469,0.006103696301579475
1772709229379423700,1.754423828125,0.007590440101921558,-0.015750277787446976,0.009275211952626705
1772709229389448700,1.76444873046875,-0.012601381167769432,0.0003698347136378288,0.006329488940536976
1772709229399473700,1.7744736328125,0.013030003756284714,-0.014115042984485626,0.006893303245306015
1772709229409497600,1.78449755859375,-0.017052797600626945,-0.0008029663003981113,0.004500452894717455
1772709229419522600,1.7945224609375,0.01691768690943718,-0.012170669622719288,0.004213896580040455
1772709229429547500,1.804547607421875,-0.01967388018965721,0.0011619143187999725,0.0005547134205698967
1772709229439572500,1.814572509765625,0.019212359562516212,-0.010202809236943722,-0.0012280470691621304
1772709229449597700,1.82459765625,-0.02298915572464466,0.004991856869310141,-0.0022222050465643406
1772709229459622700,1.83462255859375,0.0223699864000082,-0.003952186554670334,-0.0039445385336875916
1772709229469647600,1.844647705078125,-0.005492269992828369,0.0026114401407539845,-0.00546999741345644
1772709229479672300,1.85467236328125,0.0016098921187222004,-0.001309300772845745,-0.007317868992686272
1772709229489697500,1.864697509765625,-0.0012285050470381975,0.000023344997316598892,-0.009783956222236156
1772709229499721500,1.874721435546875,-0.0012290936429053545,0.003063676878809929,-0.0065186419524252415
1772709229509746400,1.884746337890625,-0.002799559850245714,0.0007192967459559441,-0.007812673225998878
1772709229519771600,1.894771728515625,0.0005575073882937431,-0.001450162846595049,-0.006552359089255333
1772709229529796600,1.904796630859375,-0.0003860506694763899,0.0013160621747374535,-0.006211474537849426
1772709229539821600,1.914821533203125,0.0009693019092082977,0.0030005346052348614,-0.0029289470985531807
1772709229549846500,1.924846435546875,0.00005903374403715134,0.0014905226416885853,-0.0012141377665102482
1772709229559871500,1.93487158203125,0.0008629721123725176,-0.0010578795336186886,-0.0032268697395920753
1772709229569896400,1.944896484375,0.00042141973972320557,-0.00020140688866376877,-0.0027605504728853703
1772709229579921400,1.95492138671875,-0.0010569572914391756,0.001623664516955614,-0.0006836897227913141
1772709229589946600,1.964946533203125,-0.0008561548311263323,-0.00035639572888612747,-0.003758308943361044
1772709229599970600,1.974970458984375,0.0009430081117898226,-0.001971564255654812,-0.004290972836315632
1772709229609995500,1.98499560546875,0.0006322173867374659,0.00001142546534538269,-0.003498948412016034
1772709229620020700,1.995020751953125,-0.0002885223366320133,0.00015651574358344078,-0.0037574998568743467
1772709229630045700,2.005045654296875,-0.00038572773337364197,0.0013863630592823029,-0.004918904043734074
1772709229640070400,2.0150703125,-0.0014673182740807533,0.0011688540689647198,-0.007216070778667927
1772709229650095400,2.025095458984375,0.00007678242400288582,0.002186714205890894,-0.008534335531294346
1772709229660120600,2.03512060546875,-0.000039321137592196465,0.0022260970436036587,-0.008658013306558132
1772709229670145500,2.0451455078125,0.00010369066148996353,0.0034668636508286,-0.00918824877589941
1772709229680170500,2.05517041015625,0.0002078763209283352,0.0029049301519989967,-0.007520439103245735
1772709229690194700,2.065194580078125,0.0012662163935601711,0.0038090739399194717,-0.007756661623716354
1772709229700219600,2.0752197265625,-0.00026281573809683323,0.004678342025727034,-0.006034139543771744
1772709229710244600,2.08524462890625,0.002302340930327773,0.003985121380537748,-0.004821335896849632
1772709229720269600,2.09526953125,0.001599147217348218,0.005259488709270954,-0.005568521097302437
1772709229730294500,2.10529443359375,0.0010265677701681852,0.001545976847410202,-0.004421231336891651
1772709229740319500,2.115319580078125,0.0005046243313699961,0.0011216998100280762,-0.004383852705359459
1772709229750344400,2.125344482421875,0.002764582633972168,0.0027140043675899506,-0.0030602612532675266
1772709229760369700,2.13536962890625,0.002595948986709118,0.007710101082921028,0.0022861624602228403
1772709229770394600,2.14539453125,0.0002483727876096964,0.0027571534737944603,0.00017294404096901417
1772709229780419600,2.155419677734375,-0.0009220035281032324,-0.0025993334129452705,-0.00015629851259291172
1772709229790443800,2.16544384765625,-0.0003369071055203676,-0.00005361763760447502,0.000038911355659365654
1772709229800468500,2.175468505859375,0.0029476380441337824,0.0029131672345101833,-0.00036011566407978535
1772709229810493400,2.185493408203125,0.00016410206444561481,0.0011855741031467915,0.00040474417619407177
1772709229820518400,2.195518310546875,0.0010008271783590317,0.0010313517414033413,-0.0002343934029340744
1772709229830543600,2.205543701171875,0.0028152386657893658,0.0028329803608357906,0.0005887898150831461
1772709229840568600,2.215568603515625,0.0024268648121505976,0.005614927504211664,0.0005703394999727607
1772709229850593500,2.225593505859375,0.0021962348837405443,0.0012207119725644588,0.0034132639411836863
1772709229860618500,2.235618408203125,0.002853394253179431,-0.0012165391817688942,0.003117527114227414
1772709229870643700,2.245643798828125,0.0005987619515508413,0.001153141725808382,0.0050560422241687775
1772709229880667400,2.25566748046875,0.002173555549234152,0.0025611165910959244,0.0024783990811556578
1772709229890692400,2.2656923828125,0.0018118983134627342,0.0006026281043887138,0.004032886121422052
1772709229900717600,2.275717529296875,0.0035338045563548803,0.000020502135157585144,0.0011593687813729048
1772709229910742500,2.285742431640625,0.001442423788830638,0.0022703404538333416,0.0024403491988778114
1772709229920767500,2.295767578125,0.0007605815771967173,0.0032897768542170525,-0.00027412688359618187
1772709229930792400,2.30579248046875,0.0016788395587354898,0.0008295485749840736,0.0006843447918072343
1772709229940817700,2.315817626953125,0.001991647994145751,0.0007994063198566437,0.0013678177492693067
1772709229950842600,2.325842529296875,0.0021098924335092306,0.000705130398273468,0.004005678929388523
1772709229960867600,2.33586767578125,0.0032108996529132128,0.0007059224881231785,0.006035412661731243
1772709229970891500,2.3458916015625,0.00024307286366820335,-0.0007367120124399662,0.004398101009428501
1772709229980916500,2.35591650390625,0.001482171006500721,0.0004521622322499752,0.004902205429971218
1772709229990941400,2.36594140625,0.0017085396684706211,0.001672955695539713,0.0036995222326368093
1772709230000966700,2.375966552734375,0.0025419064331799746,0.00034063030034303665,0.004234841093420982
1772709230010991600,2.38599169921875,0.00183670106343925,0.00008576596155762672,0.004591172561049461
1772709230021016600,2.3960166015625,0.0021179793402552605,0.00024602049961686134,0.00430833175778389
1772709230031041500,2.40604150390625,0.004439989570528269,0.001255625393241644,0.004320049658417702
1772709230041066800,2.416066650390625,0.00008598738349974155,-0.0013052704744040966,0.0035525262355804443
1772709230051091500,2.426091552734375,0.0006926553323864937,-0.003574550151824951,0.007625831291079521
1772709230061115400,2.436115478515625,0.0015197382308542728,-0.0003395671956241131,0.008075938560068607
1772709230071140600,2.446140625,0.002055033575743437,0.0006127795204520226,0.006043946370482445
1772709230081165600,2.45616552734375,0.0015180956106632948,0.0014340723864734173,0.005101474467664957
1772709230091190500,2.4661904296875,0.0019106452818959951,-0.0012477305717766285,0.004884959198534489
1772709230101215500,2.476215576171875,0.0013606040738523006,-0.001392892561852932,0.0033559210132807493
1772709230111240700,2.48624072265625,0.0018767248839139938,0.0010391059331595898,0.0033213000278919935
1772709230121265700,2.496265625,0.002308483934029937,0.0003802953287959099,0.003632380161434412
1772709230131290000,2.5062900390625,0.0024538927245885134,0.0012311753816902637,0.004468878731131554
1772709230141315300,2.5163154296875,0.0012671605218201876,0.00083969347178936,0.0032566720619797707
1772709230151339300,2.52633935546875,0.00003891065716743469,-0.0014319824986159801,0.003995432984083891
1772709230161364200,2.5363642578125,0.002110327361151576,0.00036455364897847176,0.0018501491285860538
1772709230171389200,2.54638916015625,0.0018589247483760118,0.001714776735752821,0.002353220246732235
1772709230181414100,2.5564140625,0.0011969744227826595,0.0016742832958698273,0.0020813217852264643
1772709230191439000,2.566439208984375,0.0017450531013309956,-0.0012165778316557407,-0.00004095141775906086
1772709230201464000,2.576464111328125,0.00020562461577355862,0.0008154585957527161,0.0019634412601590157
1772709230211489300,2.5864892578125,0.0016168334987014532,0.0006639249622821808,0.003964274190366268
1772709230221514200,2.59651416015625,0.0033470280468463898,0.00028783222660422325,0.002126936335116625
1772709230231539200,2.606539306640625,0.0025827009230852127,0.0006915670819580555,0.0029349392279982567
1772709230241563400,2.6165634765625,0.0016001209150999784,0.0021944050677120686,0.003488664049655199
1772709230251588000,2.626588134765625,0.0015409986954182386,0.0006154165603220463,0.0022894428111612797
1772709230261613000,2.636613037109375,-0.0005373875610530376,0.002105994615703821,0.0033375245984643698
1772709230271638300,2.64663818359375,-0.0005578938871622086,-0.0006333328783512115,0.0026490974705666304
1772709230281663200,2.656663330078125,0.0005051754415035248,-0.0019185361452400684,0.002482619369402528
1772709230291688200,2.666688232421875,0.0021965489722788334,-0.000991756096482277,0.0015851340722292662
1772709230301713200,2.676713134765625,0.0014834192115813494,0.003279916476458311,0.0019260492408648133
1772709230311738400,2.68673828125,0.00021468917839229107,0.003218130674213171,0.0041135698556900024
1772709230321763300,2.696763427734375,0.0005008128937333822,-0.0009473003447055817,0.0016145770205184817
1772709230331787000,2.706787109375,-0.000094669871032238,0.0006063878536224365,0.0001644857693463564
1772709230341812200,2.716812255859375,0.0018965755589306355,0.001561131328344345,-0.001694666687399149
1772709230351837200,2.726837158203125,0.0019399849697947502,0.002480720169842243,0.001918976427987218
1772709230361862100,2.736862060546875,0.0007343410979956388,0.0010675899684429169,0.0006315179634839296
1772709230371887000,2.74688720703125,0.002794562606140971,0.0034516509622335434,-0.0013405526988208294
1772709230381912300,2.756912353515625,0.0022699618712067604,0.0032735122367739677,-0.0014769278932362795
1772709230391937300,2.766937255859375,0.00023717107251286507,0.0023264922201633453,-0.0016652133781462908
1772709230401962200,2.776962158203125,0.0000787847675383091,0.00019412115216255188,-0.0022884774953126907
1772709230411987200,2.7869873046875,0.0009323279373347759,-0.0004967027343809605,0.0016466095112264156
1772709230422011100,2.79701123046875,0.0018941338639706373,0.0004993029870092869,0.002878533909097314
1772709230432036000,2.8070361328125,0.0023902805987745523,0.001571225468069315,0.0027112874668091536
1772709230442061300,2.817061279296875,0.0008787428960204124,0.0011419467628002167,0.0023937541991472244
1772709230452086300,2.827086181640625,0.0003809982445091009,0.0010524643585085869,0.003413212252780795
1772709230462111200,2.837111328125,0.00123765436001122,0.00228551821783185,0.0020682415924966335
1772709230472136200,2.84713623046875,0.0013796009588986635,0.00107963802292943,0.0010567731224000454
1772709230482161400,2.857161376953125,0.001960418652743101,0.002177630551159382,-0.0006815157830715179
1772709230492186400,2.867186279296875,0.000678373035043478,0.001650058664381504,-0.0008588822092860937
1772709230502210000,2.8772099609375,0.001208608504384756,0.000292378943413496,-0.0015859254635870457
1772709230512235300,2.8872353515625,0.0007654586806893349,0.00007399963214993477,-0.0035308320075273514
1772709230522260200,2.89726025390625,0.00012299325317144394,0.0009358115494251251,-0.0030639898031949997
1772709230532285200,2.90728515625,-0.00005996599793434143,0.0013717710971832275,-0.0034285765141248703
1772709230542310100,2.91731005859375,-0.0003715646453201771,0.0008311811834573746,-0.0027022252324968576
1772709230552335400,2.92733544921875,0.0007935683242976665,0.0007262527942657471,-0.003938198089599609
1772709230562360300,2.9373603515625,0.001629323000088334,0.0019768672063946724,-0.002874126425012946
1772709230572385300,2.94738525390625,0.0000929452944546938,0.0007888311520218849,-0.0033002325799316168
1772709230582409200,2.9574091796875,-0.0001282915472984314,0.00009832717478275299,-0.0017627649940550327
1772709230592434200,2.96743408203125,0.0005883651319891214,-0.0018146215006709099,-0.00037179584614932537
1772709230602459100,2.977459228515625,0.0009654448367655277,-0.0013525919057428837,0.0017989019397646189
1772709230612484000,2.987484130859375,0.000648262444883585,0.001099113840609789,0.0010449610417708755
1772709230622509300,2.99750927734375,0.0016800055745989084,0.00165195157751441,0.0014543830184265971
1772709230632534300,3.0075341796875,-0.00041084224358201027,-0.00033849477767944336,0.0021537290886044502
1772709230642559200,3.017559326171875,0.0010016807354986668,0.0009006448090076447,-0.00019255932420492172
1772709230652584200,3.027584228515625,0.0012573441490530968,0.0030788443982601166,0.0009720409289002419
1772709230662608100,3.037608154296875,0.0007792082615196705,0.003650073427706957,0.0026217515114694834
1772709230672633000,3.047633056640625,0.001401588786393404,0.0036732428707182407,0.0013005574000999331
1772709230682658300,3.057658203125,-0.00020534684881567955,-0.00015422329306602478,0.001385821495205164
1772709230692683300,3.067683349609375,0.00008014403283596039,-0.00005115894600749016,0.00016343058086931705
1772709230702708200,3.077708251953125,0.0011179065331816673,0.0014465800486505032,0.00039521045982837677
1772709230712733200,3.087733154296875,-0.0005356501787900925,-0.0012551965191960335,-0.0027462542057037354
1772709230722758400,3.09775830078125,-0.0004458394832909107,0.0009579439647495747,-0.0024956276174634695
1772709230732783400,3.107783447265625,0.00024098996073007584,0.0003749779425561428,-0.00314570521004498
1772709230742808000,3.11780810546875,-0.0010810655076056719,0.0002819797955453396,-0.0021382546983659267
1772709230752832300,3.127832275390625,0.0007988596335053444,-0.0004863422363996506,-0.0026615657843649387
1772709230762857200,3.137857177734375,-0.00020066369324922562,0.00014060083776712418,-0.001362837152555585
1772709230772882200,3.147882080078125,-0.0011093341745436192,-0.0016964473761618137,0.00011708168312907219
1772709230782907100,3.1579072265625,0.0002353913150727749,0.0010999226942658424,-0.00021505425684154034
1772709230792932400,3.167932373046875,0.0010223553981631994,0.0007784795016050339,0.0001324883196502924
1772709230802957300,3.177957275390625,0.00011378992348909378,0.00028421543538570404,0.00013340567238628864
1772709230812982300,3.187982177734375,0.0011878428049385548,0.000014703720808029175,-0.0005494286306202412
1772709230823007200,3.19800732421875,0.0012467838823795319,-0.0011794990859925747,0.0021493840031325817
1772709230833031200,3.20803125,-0.0008262207265943289,-0.0023619425483047962,0.0005275190342217684
1772709230843056000,3.21805615234375,0.0015135577414184809,-0.0007116035558283329,-0.001914515858516097
1772709230853081300,3.228081298828125,0.002249389188364148,0.0018114750273525715,-0.001146193826571107
1772709230863106300,3.238106201171875,-0.0016386600909754634,0.004820561967790127,0.002704352606087923
1772709230873131300,3.24813134765625,-0.0007760622538626194,-0.0016581104137003422,0.0028806538321077824
1772709230883156200,3.25815625,0.0010690726339817047,-0.003212639596313238,-0.004135476425290108
1772709230893181400,3.268181396484375,0.0007348456420004368,-0.000104464590549469,-0.0028409138321876526
1772709230903206100,3.2782060546875,0.001192243304103613,0.0017526345327496529,-0.002358411205932498
1772709230913230000,3.28822998046875,-0.0001987256109714508,-0.00121332798153162,-0.0027195357251912355
1772709230923255300,3.29825537109375,0.002093888120725751,0.0005129142664372921,-0.003965213894844055
1772709230933280300,3.3082802734375,0.0010946702677756548,0.002402959857136011,-0.006003331393003464
1772709230943305200,3.31830517578125,-0.0014637054409831762,0.0010517193004488945,-0.005491575226187706
1772709230953330200,3.328330078125,-0.0008991153445094824,-0.002223968505859375,-0.006618091836571693
1772709230963355400,3.33835546875,-0.0009425375610589981,-0.00300673209130764,-0.0033372300677001476
1772709230973380400,3.34838037109375,-0.0008051183540374041,-0.0018405341543257236,0.00001702108420431614
1772709230983405000,3.358405029296875,-0.00037435698322951794,-0.0014306572265923023,0.0005595609545707703
1772709230993429200,3.36842919921875,0.0016501781065016985,0.0005848235450685024,0.00023438897915184498
1772709231003454200,3.3784541015625,-0.0007367306388914585,-0.0014101606793701649,0.0012994612334296107
1772709231013479200,3.388479248046875,-0.0009516477584838867,-0.002413639798760414,-0.00029310910031199455
1772709231023504400,3.39850439453125,0.0002608539070934057,-0.0018247799016535282,-0.0004074529279023409
1772709231033529300,3.408529296875,0.00016631162725389004,-0.000517700333148241,-0.0001291525550186634
1772709231043554300,3.41855419921875,-0.00048776925541460514,-0.0007113725878298283,0.001324248849414289
1772709231053579300,3.428579345703125,0.00033834343776106834,-0.001291142776608467,-0.0024726197589188814
1772709231063604200,3.438604248046875,-7.227063179016113e-7,-0.0004359348677098751,-0.0007444808725267649
1772709231073628200,3.448628173828125,-0.002617012243717909,-0.0018636556342244148,-0.0017072136979550123
1772709231083653000,3.458653076171875,-0.0012421519495546818,-0.002226926852017641,-0.003099036170169711
1772709231093678300,3.46867822265625,-0.0012661204673349857,0.0006844410672783852,-0.0033009035978466272
1772709231103703300,3.478703369140625,-0.0012449442874640226,-0.00227461289614439,-0.003956095315515995
1772709231113728300,3.488728271484375,-0.0006044541951268911,-0.0031587821431457996,-0.0025976167526096106
1772709231123753200,3.498753173828125,0.0007871300913393497,0.0007880125194787979,-0.00181483943015337
1772709231133778700,3.50877880859375,-0.0014376745093613863,-0.0004431665875017643,-0.002620179206132889
1772709231143802600,3.518802734375,0.00032091187313199043,-0.0007792380638420582,-0.003757763421162963
1772709231153827600,3.52882763671875,0.0004972130991518497,-0.0009214510209858418,-0.001617114758118987
1772709231163852800,3.538852783203125,0.001431542681530118,0.0007381890900433064,0.0007240365957841277
1772709231173877500,3.54887744140625,0.00010875076986849308,0.0018460634164512157,-0.00192927080206573
1772709231183902500,3.55890234375,-0.0008641397580504417,-0.0008399654179811478,-0.0028260517865419388
1772709231193927400,3.568927490234375,-0.0008271217811852694,-0.0020189466886222363,-0.0034148767590522766
1772709231203952600,3.57895263671875,0.0011591932270675898,0.0011683404445648193,-0.00426197424530983
1772709231213977600,3.5889775390625,-0.0006320490501821041,0.0022935261949896812,-0.0050689117051661015
1772709231224002600,3.59900244140625,-0.002449620282277465,-0.002450397703796625,-0.0047455099411308765
1772709231234026800,3.60902685546875,-0.0009902080055326223,-0.002432021778076887,-0.00511196069419384
1772709231244051700,3.6190517578125,-0.0016774572432041168,0.0006310716271400452,-0.0034596091136336327
1772709231254076400,3.629076416015625,-0.0007757109124213457,-0.000922882929444313,-0.002800476737320423
1772709231264101600,3.6391015625,-0.001500863814726472,-0.0030661369673907757,-0.0031588522251695395
1772709231274126600,3.649126708984375,-0.0018103232141584158,-0.0013364139012992382,-0.0045527508482337
1772709231284151600,3.659151611328125,-0.0006716540083289146,-0.002746044658124447,-0.006400303449481726
1772709231294176500,3.669176513671875,-0.0012511578388512135,-0.002420606091618538,-0.005166993476450443
1772709231304201700,3.67920166015625,-0.0015979137970134616,-0.00215692026540637,-0.005342921242117882
1772709231314225700,3.6892255859375,-0.0020048446021974087,-0.0026581273414194584,-0.004677397198975086
1772709231324250600,3.699250732421875,-0.0016061697388067842,-0.002210778184235096,-0.004451977089047432
1772709231334275600,3.709275634765625,-0.00039309985004365444,-0.0023284899070858955,-0.0040644872933626175
1772709231344300500,3.719300537109375,0.0007857577875256538,0.0009836680255830288,-0.0031143249943852425
1772709231354325500,3.729325439453125,-0.0008566137403249741,0.00028991419821977615,-0.00410475442185998
1772709231364350500,3.7393505859375,-0.0027293581515550613,-0.0005732090212404728,-0.004185288213193417
1772709231374375700,3.749375732421875,-0.0027053896337747574,-0.0019998643547296524,-0.0032670299988240004
1772709231384400600,3.759400634765625,-0.0006558860186487436,-0.0036891030613332987,-0.0030158094596117735
1772709231394424600,3.769424560546875,-0.00125855952501297,-0.0011782748624682426,-0.0038440523203462362
1772709231404449800,3.77944970703125,-0.0005318997427821159,-0.003511507995426655,-0.0053282324224710464
1772709231414474500,3.789474609375,-0.0015657389303669333,0.0005426220595836639,-0.0026855773758143187
1772709231424499500,3.79949951171875,-0.0016701685963198543,0.0025129960849881172,0.0022492394782602787
1772709231434524400,3.8095244140625,-0.001035537337884307,-0.0021171756088733673,0.00015439698472619057
1772709231444549600,3.819549560546875,-0.0015707608545199037,-0.004884504713118076,-0.006914932280778885
1772709231454574600,3.82957470703125,-0.0003334563225507736,-0.003971839789301157,-0.006666992790997028
1772709231464599600,3.839599609375,-0.000058756908401846886,0.0012735994532704353,-0.0026914882473647594
1772709231474623700,3.849623779296875,-0.0000742033589631319,0.0014906469732522964,-0.003900829702615738
1772709231484648700,3.859648681640625,-0.00006502773612737656,-0.000806574709713459,-0.004647922236472368
1772709231494673400,3.86967333984375,-0.00016649416647851467,-0.0009248191490769386,-0.006493226625025272
1772709231504698600,3.87969873046875,-0.0001646976452320814,0.001257765106856823,-0.0036981762386858463
1772709231514723600,3.8897236328125,-0.0009604501537978649,-0.0002344045788049698,-0.0020110635086894035
1772709231524748500,3.89974853515625,-0.0003505994100123644,-0.0023523326963186264,-0.0029345834627747536
1772709231534773500,3.9097734375,0.00031678867526352406,-0.00016481243073940277,-0.0017777062021195889
1772709231544798700,3.919798828125,0.00012789247557520866,-0.0014960318803787231,0.0001499077770859003
1772709231554822700,3.92982275390625,-0.0018380529945716262,-0.001305083278566599,-0.0007688829209655523
1772709231564847600,3.93984765625,-0.0018834188813343644,-0.0035721624735742807,-0.0018433937802910805
1772709231574872600,3.94987255859375,-0.0011872686445713043,-0.00201208284124732,-0.00387245649471879
1772709231584897500,3.9598974609375,0.0014183076564222574,-0.0025311755016446114,-0.0037697169464081526
1772709231594922500,3.969922607421875,-0.0004701400175690651,-0.0012193024158477783,-0.0026258893776685
1772709231604947500,3.979947509765625,-0.0005728136748075485,-0.0007432629354298115,-0.00047687580808997154
1772709231614972700,3.98997265625,0.0007393257692456245,-0.0018255715258419514,-0.0012593124993145466
1772709231624997600,3.99999755859375,0.0003131616394966841,-0.0030694385059177876,-0.003981682471930981
1772709231635022600,4.010022705078125,-0.000609091017395258,-0.0030268277041614056,-0.004296468570828438
1772709231645046500,4.020046630859375,-0.000197733286768198,-0.001290028914809227,-0.005224153399467468
1772709231655071500,4.030071533203125,-0.0005420800298452377,0.0002617952413856983,-0.005878225900232792
1772709231665096400,4.040096435546875,-0.0014035741332918406,-0.0017060888931155205,-0.0031407163478434086
1772709231675121700,4.05012158203125,-0.0020581791177392006,-0.0007135290652513504,-0.003537260927259922
1772709231685146600,4.060146728515625,-0.0014656443381682038,-0.0003036228008568287,-0.005272301845252514
1772709231695171600,4.070171630859375,0.0004795284476131201,-0.0008210749365389347,-0.0031598820351064205
1772709231705196500,4.080196533203125,-0.0017189359059557319,-0.004194196313619614,-0.0011401688680052757
1772709231715221800,4.0902216796875,-0.0011628679931163788,-0.0005158386193215847,-0.0002852941397577524
1772709231725245400,4.100245361328125,-0.00044317194260656834,0.0005104225128889084,-0.0016794472467154264
1772709231735270400,4.1102705078125,0.0001517783384770155,-0.0003385930322110653,-0.0037308803293854
1772709231745295600,4.120295654296875,-0.000860992819070816,0.0004319623112678528,-0.0038369745016098022
1772709231755320600,4.130320556640625,-0.0015768506564199924,-0.0018359855748713017,-0.004697442054748535
1772709231765345500,4.140345458984375,-0.0020220335572957993,0.00031685084104537964,-0.004484370816498995
1772709231775370500,4.15037060546875,-0.0006406519096344709,-0.0015921029262244701,-0.003094200510531664
1772709231785395700,4.160395751953125,-0.0008718471508473158,-0.0030828858725726604,-0.0025379906874150038
1772709231795420700,4.170420654296875,-0.002059617079794407,-0.0028325486928224564,-0.0030847375746816397
1772709231805445600,4.180445556640625,-0.001335425185970962,0.0003836899995803833,-0.0027182400226593018
1772709231815469600,4.190469482421875,-0.0006299538072198629,-0.0001723780296742916,-0.0029579242691397667
1772709231825494500,4.20049462890625,-0.000177877489477396,-0.00014954106882214546,-0.0014746540691703558
1772709231835519500,4.21051953125,-0.002519062487408519,-0.0011559496633708477,-0.000907134497538209
1772709231845544700,4.220544677734375,-0.0017540547996759415,0.0005399510264396667,-0.002380736405029893
1772709231855569700,4.230569580078125,0.000026002060621976852,0.0002581886947154999,-0.0027152292896062136
1772709231865594600,4.2405947265625,-0.0018065612530335784,-0.0017741569317877293,-0.00232866732403636
1772709231875619600,4.25061962890625,0.0001817548181861639,-0.0007206103764474392,-0.0026594316586852074
1772709231885644800,4.260644775390625,0.001032408094033599,0.0011774511076509953,-0.0025851509999483824
1772709231895668500,4.27066845703125,0.0006792729254812002,0.0013484260998666286,-0.0006506310310214758
1772709231905693400,4.280693359375,0.001574585447087884,-0.0007514413446187973,-0.0027152085676789284
1772709231915718700,4.29071875,-0.0010182682890444994,0.00020543253049254417,-0.003119476605206728
1772709231925743600,4.30074365234375,-0.0016470960108563304,0.002317058853805065,-0.002980331424623728
1772709231935768600,4.3107685546875,-0.001143492292612791,-0.0016601053066551685,-0.00318832416087389
1772709231945793500,4.32079345703125,0.0005767550319433212,-0.0013322830200195312,-0.0014916141517460346
1772709231955818800,4.33081884765625,0.001433494035154581,0.001042990479618311,-0.0007014542352408171
1772709231965843700,4.34084375,0.00086451624520123,0.003808667417615652,0.00015523075126111507
1772709231975868700,4.35086865234375,-0.000836710911244154,0.0031564594246447086,0.0008463212288916111
1772709231985892600,4.360892578125,-0.0019085068488493562,-0.0006374642252922058,-0.005395808722823858
1772709231995917600,4.37091748046875,-0.002041398547589779,0.0002658800221979618,-0.00349590927362442
1772709232005942500,4.380942626953125,-0.0004228963516652584,0.0043016537092626095,-0.00282627297565341
1772709232015967500,4.390967529296875,0.0011377159971743822,0.005260924343019724,-0.0008049337193369865
1772709232025992700,4.40099267578125,0.0007625322323292494,0.002696293406188488,-0.001357134897261858
1772709232036017700,4.411017578125,0.0023276719730347395,0.0024105366319417953,-0.000508118886500597
1772709232046042600,4.421042724609375,0.0020264252088963985,0.003438490442931652,0.0024115252308547497
1772709232056067600,4.431067626953125,0.0029345634393393993,0.0009732022881507874,0.003616871777921915
1772709232066092500,4.441092529296875,0.002472126856446266,-0.0006603673100471497,0.0029713110998272896
1772709232076116500,4.451116455078125,0.0016247089952230453,0.0014256867580115795,0.002152389148250222
1772709232086141700,4.4611416015625,0.00221434747800231,0.0019814553670585155,0.005163251888006926
1772709232096166700,4.471166748046875,0.0009512100368738174,0.0009215180762112141,0.005173904821276665
1772709232106191600,4.481191650390625,0.002402285346761346,-0.0006419527344405651,0.005471455864608288
1772709232116216600,4.491216552734375,0.002673395210877061,0.0025719497352838516,0.003991005010902882
1772709232126240800,4.50124072265625,0.0008922412525862455,0.001101294532418251,0.0026867680717259645
1772709232136265700,4.511265625,0.0009617495816200972,0.0034520672634243965,0.0033379108645021915
1772709232146290700,4.521290771484375,0.0017039040103554726,0.0008376184850931168,0.0032189530320465565
1772709232156314600,4.531314697265625,0.0006045510526746511,0.0013239113613963127,0.0020128071773797274
1772709232166339600,4.541339599609375,0.0034991693682968616,0.0007159090600907803,0.0020066178403794765
1772709232176364500,4.551364501953125,0.0009209630079567432,-0.0003365720622241497,0.0025507016107439995
1772709232186389800,4.5613896484375,0.00038523157127201557,0.0013108779676258564,0.0008671686518937349
1772709232196414700,4.571414794921875,0.0008848404977470636,0.0029071769677102566,0.001105787931010127
1772709232206439700,4.581439697265625,0.0016970352735370398,0.0033434415236115456,-0.0008173119276762009
1772709232216464600,4.591464599609375,0.001375857973471284,0.004545859061181545,0.0013744696043431759
1772709232226489900,4.60148974609375,0.001342974603176117,0.00263901986181736,0.0007997055072337389
1772709232236514800,4.611514892578125,-0.00020192540250718594,0.0015212912112474442,0.0012889283243566751
1772709232246538800,4.621538818359375,0.0015331401955336332,-0.0003298437222838402,0.00014248117804527283
1772709232256563700,4.631563720703125,0.000806363532319665,-0.00014342227950692177,0.002434397581964731
1772709232266588700,4.641588623046875,0.000491477781906724,0.002323177643120289,0.0030148488003760576
1772709232276613600,4.651613525390625,0.0017018846701830626,0.0033133411779999733,0.0036300390493124723
1772709232286638800,4.661638916015625,0.0028662325348705053,0.0012773224152624607,0.002992104971781373
1772709232296663800,4.671663818359375,0.0009245218243449926,0.0005068699829280376,0.0023529462050646544
1772709232306688800,4.681688720703125,0.0003998789470642805,0.0018693436868488789,0.0031716020312160254
1772709232316713700,4.691713623046875,0.0019493063446134329,0.002285861875861883,0.0017563982401043177
1772709232326739000,4.701739013671875,0.0012631788849830627,0.00083501311019063,0.002302378648892045
1772709232336762600,4.7117626953125,0.0006530485115945339,-0.002346931491047144,0.004355143290013075
1772709232346787600,4.72178759765625,0.0003928581718355417,-0.0008031581528484821,0.004410919733345509
1772709232356812800,4.731812744140625,0.002124978229403496,-0.000036700163036584854,0.005368858575820923
1772709232366837800,4.741837646484375,0.0013976404443383217,0.00006290478631854057,0.00509275309741497
1772709232376862700,4.75186279296875,0.001023466233164072,-0.00038051139563322067,0.005609139800071716
1772709232386887700,4.7618876953125,0.0014555277302861214,0.00006265798583626747,0.003646507393568754
1772709232396913000,4.771912841796875,0.0027841790579259396,-0.00003508012741804123,0.0021412887144833803
1772709232406937600,4.7819375,0.0017685622442513704,-0.0002955500967800617,0.004247060511261225
1772709232416961800,4.7919619140625,0.0022940037306398153,-0.00032937247306108475,0.005185558460652828
1772709232426986800,4.80198681640625,-0.00019389274530112743,0.0009292345494031906,0.0024645430967211723
1772709232437011700,4.81201171875,0.0028008318040519953,0.00270263385027647,0.002532187383621931
1772709232447036700,4.82203662109375,0.0011921131517738104,0.0016262037679553032,0.0033379108645021915
1772709232457062000,4.832061767578125,0.001045373035594821,0.0044616712257266045,0.0012697000056505203
1772709232467086800,4.8420869140625,0.0017768179532140493,0.0036501893773674965,0.0011862897081300616
1772709232477111800,4.85211181640625,0.0023880137596279383,0.000886094756424427,0.0020659316796809435
1772709232487136500,4.862136474609375,0.0014283920172601938,0.0013412381522357464,0.0003585049416869879
1772709232497161700,4.87216162109375,0.0018510355148464441,0.00039102230221033096,-0.000589846633374691
1772709232507185700,4.882185546875,0.0019322200678288937,0.004273680504411459,0.0027035893872380257
1772709232517210600,4.892210693359375,0.00040250038728117943,0.002733308356255293,0.00542480731382966
1772709232527235800,4.90223583984375,0.003199297469109297,-0.00022125709801912308,0.0002686388324946165
1772709232537260800,4.9122607421875,-0.0004734680987894535,0.00034839287400245667,-0.003407588694244623
1772709232547285800,4.92228564453125,0.00019531999714672565,0.00032391399145126343,-0.0004768648650497198
1772709232557310700,4.932310791015625,0.0006147678941488266,0.0034304913133382797,0.0025950914714485407
1772709232567335700,4.942335693359375,0.0021998416632413864,0.0032586916349828243,0.0017450317973271012
1772709232577360600,4.952360595703125,0.0009140674956142902,0.0017566694878041744,-0.0011040179524570704
1772709232587385600,4.962385498046875,0.001097851898521185,0.002422517631202936,0.0007530900184065104
1772709232597409800,4.972409912109375,0.0010483171790838242,0.0033165407367050648,0.0017642923630774021
1772709232607434800,4.982434814453125,0.002522572409361601,0.0033402200788259506,0.0004972449969500303
1772709232617459700,4.992459716796875,0.0025321594439446926,-0.00042495736852288246,0.0016549210995435715
1772709232627484700,5.002484619140625,0.0011419602669775486,0.00006524287164211273,0.0050809504464268684
1772709232637510000,5.012510009765625,0.0006298345979303122,0.0021944399923086166,0.006331305019557476
1772709232647534600,5.02253466796875,0.0015759197995066643,0.001600334420800209,0.0031401340384036303
1772709232657559600,5.0325595703125,0.0023482362739741802,-0.0003134128637611866,0.003772102063521743
1772709232667584800,5.042584716796875,0.0019134948961436749,-0.0007450981065630913,0.001417058170773089
1772709232677609700,5.052609619140625,0.0022517163306474686,0.0018293792381882668,0.002710821805521846
1772709232687633700,5.062633544921875,0.0022266935557127,0.000723737757652998,0.0030671691056340933
1772709232697659000,5.072658935546875,0.0007710093632340431,-0.00032421620562672615,0.001991518307477236
1772709232707683800,5.082683837890625,-0.0003183051012456417,0.00025436747819185257,0.0005113382358103991
1772709232717708800,5.092708740234375,0.00035973568446934223,0.0004634256474673748,0.00045168353244662285
1772709232727733500,5.1027333984375,0.0011593014933168888,0.0013787224888801575,0.0025435069110244513
1772709232737758700,5.1127587890625,0.000025061191990971565,0.0005331691354513168,0.0020657358691096306
1772709232747783700,5.12278369140625,0.002256037201732397,0.0009972001425921917,0.00045036268420517445
1772709232757808600,5.13280859375,0.0018754713237285614,-0.0004110792651772499,0.0023430711589753628
1772709232767833600,5.14283349609375,-0.0007540804799646139,0.003067533951252699,0.002701936289668083
1772709232777857800,5.15285791015625,0.0015530160162597895,0.0007926612161099911,0.0018558499868959188
1772709232787882800,5.1628828125,0.000462324358522892,-0.001718043815344572,0.000554507365450263
1772709232797907700,5.17290771484375,0.0021544969640672207,0.00018824683502316475,0.000964634120464325
1772709232807932700,5.1829326171875,0.0015411041676998138,0.002460070885717869,0.003224010579288006
1772709232817957600,5.19295751953125,0.0004902207292616367,0.000799856148660183,0.0038333418779075146
1772709232827982600,5.202982666015625,0.0012772346381098032,0.00011610519140958786,0.0025317389518022537
1772709232838007800,5.2130078125,0.0022942961659282446,-0.0008945642039179802,0.001553826150484383
1772709232848032800,5.22303271484375,0.0025921526830643415,0.002222836948931217,0.0010020843474194407
1772709232858056700,5.233056640625,-0.0022891550324857235,0.0027120597660541534,-0.0003782319836318493
1772709232868082000,5.24308203125,-0.000015110708773136139,0.001334410160779953,-0.0010570078156888485
1772709232878107000,5.25310693359375,-0.0010872993152588606,-0.000214484054595232,-0.002688193693757057
1772709232888131600,5.263131591796875,0.000757529865950346,-0.00004777684807777405,-0.0029967159498482943
1772709232898156500,5.273156494140625,-0.0014587529003620148,0.0011471835896372795,0.0012233293382450938
1772709232908181800,5.283181640625,-0.0007223691791296005,-0.0006128414534032345,0.00006999913603067398
1772709232918206700,5.293206787109375,0.000012929784134030342,-0.0003811460919678211,-0.0005316089373081923
1772709232928231700,5.303231689453125,-0.0017765448428690434,0.0002830270677804947,-0.0010289386846125126
1772709232938256600,5.313256591796875,-0.0006295214407145977,0.0007887613028287888,0.0008184961043298244
1772709232957678800,5.332678955078125,0.0005069745238870382,0.0005352445878088474,0.0003996342420578003
1772709232967703800,5.342703857421875,-0.00023430818691849709,0.0008505461737513542,0.000016351928934454918
1772709232977728500,5.352728515625,0.0009784954600036144,0.002034587785601616,0.000016351928934454918
1772709232987753700,5.362753662109375,0.0005752835422754288,0.0021557328291237354,-0.0015182036440819502
1772709232997778700,5.37277880859375,0.002623787149786949,0.003589045722037554,-0.0005344320088624954
1772709233007802600,5.382802734375,0.0017140605486929417,0.0009245825931429863,-0.0012758136726915836
1772709233017827800,5.392827880859375,0.0003798166289925575,-0.0015726634301245213,-0.005776822566986084
1772709233027852800,5.402852783203125,-0.0000075018033385276794,-0.00020594894886016846,-0.007078160066157579
1772709233037877800,5.412877685546875,-0.0011843526735901833,0.0037586987018585205,-0.005256823729723692
1772709233047902700,5.42290283203125,-0.0006834694650024176,0.005654609762132168,-0.000735181150957942
1772709233057927700,5.432927734375,-0.0008627001661807299,0.0022835806012153625,-0.0003010858781635761
1772709233067952600,5.44295263671875,-0.0012667304836213589,0.0012787729501724243,-0.005965565796941519
1772709233077977600,5.4529775390625,-0.0011697914451360703,0.0018580099567770958,-0.00372984167188406
1772709233088002600,5.46300244140625,0.0007649865001440048,0.0022324221208691597,-0.0023754003923386335
1772709233098026800,5.47302685546875,0.00009440281428396702,0.001257704570889473,-0.0025849908124655485
1772709233108051700,5.4830517578125,-0.0002551758661866188,-0.00023764045909047127,-0.0024083065800368786
1772709233118077000,5.493076904296875,-0.00046636443585157394,0.00018580211326479912,-0.0004319748841226101
1772709233128102000,5.503101806640625,-0.0013316154945641756,0.000007931608706712723,-0.0018599196337163448
1772709233138126800,5.513126953125,0.0016543206293135881,-0.0031567024998366833,-0.0024170526303350925
1772709233148151800,5.52315185546875,-0.001346444245427847,-0.0042557986453175545,0.0007825434440746903
1772709233158177000,5.533177001953125,-0.0015397898387163877,-0.002186788711696863,0.0018328941660001874
1772709233168202000,5.543201904296875,0.0009328601881861687,-0.0014525745064020157,0.00215661758556962
1772709233178227000,5.55322705078125,-0.0009803546126931906,-0.0010240720584988594,0.000868446659296751
1772709233188251100,5.563251220703125,0.00012220395728945732,-0.0015241848304867744,0.0008919248357415199
1772709233198276000,5.573276123046875,-0.0000064265914261341095,0.0001259096898138523,-0.0008218192961066961
1772709233208301000,5.583301025390625,-0.0016004827339202166,0.0003286246210336685,-0.0036368859000504017
1772709233218325800,5.59332568359375,0.0005524165462702513,-0.00018110405653715134,-0.004563665948808193
1772709233228351000,5.60335107421875,-0.0005366436671465635,0.0012678415514528751,-0.003940487280488014
1772709233238376000,5.6133759765625,-0.0008591522928327322,0.0018742424435913563,-0.003331156214699149
1772709233248401000,5.62340087890625,-0.000337876845151186,0.0024590925313532352,-0.007026706822216511
1772709233258425900,5.63342578125,0.0006488244980573654,0.0019022258929908276,-0.008388115093111992
1772709233268451000,5.643451171875,0.0007866737432777882,0.0015817983075976372,-0.0066087497398257256
1772709233278475000,5.65347509765625,0.001345404889434576,0.001917090266942978,-0.007460429333150387
1772709233288500000,5.6635,-0.0007862963248044252,0.0011051343753933907,-0.009559767320752144
1772709233307924000,5.682924072265625,-0.0022874241694808006,0.0009514894336462021,-0.004584599751979113
1772709233317949200,5.69294921875,-0.002571317134425044,-0.0014568069018423557,-0.0031733904033899307
1772709233327974100,5.70297412109375,0.000525359995663166,-0.004401519428938627,-0.004148394335061312
1772709233337998800,5.712998779296875,0.0007791593670845032,-0.002571661490947008,-0.0029121548868715763
1772709233348023800,5.72302392578125,-0.000563446432352066,0.0013703922741115093,-0.0009176821913570166
1772709233358049000,5.733049072265625,-0.000028417445719242096,-0.0013897079043090343,-0.0006407133769243956
1772709233368074000,5.743073974609375,-0.002281791530549526,-0.003690465120598674,-0.0021948907524347305
1772709233378099000,5.753098876953125,-0.0009195846505463123,-0.0007247691974043846,-0.0030039590783417225
1772709233388123100,5.763123046875,-0.0017189146019518375,-0.0007532513700425625,-0.002716881688684225
1772709233398148000,5.773148193359375,-0.0009146400261670351,-0.001373235136270523,-0.004806131590157747
1772709233408173000,5.783173095703125,-0.0034047611989080906,-0.004515164531767368,-0.00409186165779829
1772709233418197800,5.79319775390625,-0.003230590606108308,-0.0028693308122456074,-0.0027493617963045835
1772709233428223000,5.803222900390625,-0.0029485472477972507,-0.0012168106622993946,-0.002791662933304906
1772709233438248000,5.813248046875,-0.0032066074199974537,-0.0006383722648024559,-0.004482237622141838
1772709233448273000,5.82327294921875,-0.002471970161423087,-0.0016424907371401787,-0.004421229474246502
1772709233458297900,5.8332978515625,-0.002141738310456276,-0.0016113314777612686,-0.004072088748216629
1772709233468323000,5.843322998046875,-0.0006117220036685467,0.0024207821115851402,-0.004911123774945736
1772709233478348000,5.85334814453125,-0.0012594028376042843,-0.0018948707729578018,-0.004746540449559689
1772709233488372000,5.8633720703125,-0.001213999930769205,-0.003570577362552285,-0.005303237121552229
1772709233498397000,5.87339697265625,-0.001422259258106351,0.0014593349769711494,-0.004830526188015938
1772709233508422000,5.883421875,-0.00025842897593975067,0.0026982342824339867,-0.004275321029126644
1772709233518446800,5.89344677734375,0.00013705040328204632,0.0009104544296860695,-0.005195709876716137
1772709233528472000,5.90347216796875,-0.0018297020578756928,0.00017699087038636208,-0.004860726185142994
1772709233538497000,5.9134970703125,-0.0004824087955057621,0.000922142993658781,-0.003454044461250305
1772709233548522000,5.92352197265625,-0.0003281254321336746,-0.0027375826612114906,-0.004684083163738251
1772709233558547000,5.933546875,-0.000349696958437562,-0.0019285143353044987,-0.004044392146170139
1772709233568572200,5.943572265625,-0.0009611514396965504,-0.0015095695853233337,-0.003599602961912751
1772709233578595800,5.953595947265625,-0.0008548912592232227,0.0035437787882983685,-0.0016291297506541014
1772709233588620800,5.963620849609375,-0.00326058198697865,0.0010939431376755238,-0.0006561491172760725
1772709233598646000,5.97364599609375,-0.0036272993311285973,-0.003325838828459382,-0.0042317090556025505
1772709233608671000,5.9836708984375,-0.002185586839914322,-0.0007330016233026981,-0.006811299826949835
1772709233618696000,5.993696044921875,-0.0018122118199244142,0.0007304055616259575,-0.008194811642169952
1772709233628721000,6.003720947265625,0.00046003470197319984,0.0019150055013597012,-0.004238441586494446
1772709233638746000,6.01374609375,0.00033433339558541775,-0.00013456353917717934,-0.006163374520838261
1772709233648771000,6.02377099609375,-0.0004373360425233841,-0.0006560231558978558,-0.008082970976829529
1772709233658796000,6.033796142578125,0.0009533665142953396,0.0006459960713982582,-0.006493595894426107
1772709233668820000,6.043820068359375,-0.001456965459510684,0.0004673176445066929,-0.0048199486918747425
1772709233678845000,6.053844970703125,-0.0015773404156789184,-0.00112898088991642,-0.0021325526759028435
1772709233688870000,6.063869873046875,-0.0011923855636268854,-0.0030738231725990772,-0.0013764372561126947
1772709233698895000,6.07389501953125,-0.00007146107964217663,-0.0013771234080195427,0.00011839484795928001
1772709233708920000,6.083920166015625,-0.0017929613823071122,-0.0018004700541496277,0.0017805263632908463
1772709233718945000,6.093945068359375,-0.0004129114095121622,-0.0023003453388810158,-0.0008362957742065191
1772709233728970000,6.103969970703125,0.0004739081487059593,-0.0023959032259881496,-0.0029431304428726435
1772709233738995200,6.1139951171875,-0.0004462141077965498,-0.0007846909575164318,-0.0029101071413606405
1772709233749020000,6.12402001953125,-0.001818631193600595,0.00032001547515392303,-0.004137175623327494
1772709233759044900,6.134044921875,-0.0010202154517173767,0.00042707473039627075,-0.003749419469386339
1772709233769069000,6.144069091796875,-0.00026195659302175045,-0.0003858567215502262,-0.004064962733536959
1772709233779094000,6.154093994140625,0.0009649619460105896,-0.0011259494349360466,-0.003655368462204933
1772709233789119000,6.164118896484375,-0.0012801694683730602,-0.0005411049351096153,-0.0017415457405149937
1772709233799144000,6.17414404296875,-0.0007531298324465752,-0.00010621082037687302,-0.001943147275596857
1772709233809169200,6.184169189453125,0.0011652407702058554,-0.000265488401055336,-0.001898864284157753
1772709233819194000,6.194194091796875,-0.0012433221563696861,-0.0017696418799459934,-0.0020104506984353065
1772709233829218800,6.20421875,-0.0009644166566431522,-0.0005106921307742596,-0.0009058874566107988
1772709233839243800,6.214243896484375,-0.0014610962243750691,-0.0011053760536015034,-0.00018656766042113304
1772709233849269000,6.22426904296875,-0.0018259782809764147,-0.0030390960164368153,0.0002207770012319088
1772709233859294000,6.2342939453125,-0.001089614350348711,-0.003841506317257881,0.0005965488962829113
1772709233869318000,6.24431787109375,0.00006723427213728428,-0.0012284093536436558,0.0048515452072024345
1772709233879343000,6.254343017578125,-0.00010693655349314213,-0.0015016496181488037,0.004140480887144804
1772709233889368000,6.2643681640625,-0.0006370623596012592,-0.0018593547865748405,0.0022866236977279186
1772709233899393000,6.27439306640625,-0.0002948462497442961,-0.00149450171738863,0.000039714621379971504
1772709233909418000,6.28441796875,2.169981598854065e-7,-0.0011458322405815125,-0.001348443329334259
1772709233919443000,6.29444287109375,-0.0010882169008255005,-0.0003431555815041065,-0.001312224194407463
1772709233929468000,6.304468017578125,-0.00035162968561053276,0.0009473571553826332,-0.004876885563135147
1772709233939492900,6.314492919921875,-0.00042593199759721756,-0.0005083270370960236,-0.0056081898510456085
1772709233949518000,6.32451806640625,-0.001524810097180307,-0.0008148504421114922,-0.0023893655743449926
1772709233959542000,6.3345419921875,-0.0005839152727276087,0.0005604061298072338,-0.0014191761147230864
1772709233969567000,6.34456689453125,-0.00012212758883833885,0.0003635697066783905,-0.002519901841878891
1772709233979592000,6.354592041015625,-0.0018356054788455367,0.0003108391538262367,-0.005482402164489031
1772709233989617000,6.364616943359375,-0.0005187650676816702,-0.0011892188340425491,-0.00630573695525527
1772709233999641900,6.374641845703125,-0.0014119893312454224,-0.00098468828946352,-0.004829812794923782
1772709234009666800,6.384666748046875,-0.00102975033223629,0.00041369860991835594,-0.004598884843289852
1772709234019692000,6.394692138671875,0.00023445207625627518,-0.0022262930870056152,-0.005744043737649918
1772709234029717000,6.404717041015625,0.0015102582983672619,0.0013151918537914753,-0.002877161605283618
1772709234039742000,6.414741943359375,-0.0004900419153273106,0.0000659031793475151,-0.00035115331411361694
1772709234049767000,6.424766845703125,0.001298731192946434,0.0013984963297843933,-0.0008794807363301516
1772709234059792100,6.434792236328125,-0.0023591206409037113,-0.00041884463280439377,-0.001929564867168665
1772709234069815800,6.44481591796875,-0.0015807364834472537,-0.0015826397575438023,-0.0016721764113754034
1772709234079841000,6.454841064453125,-0.0018390631303191185,-0.005091087892651558,-0.0013131822925060987
1772709234089866000,6.464865966796875,-0.0005534973461180925,-0.003364833537489176,-0.003332518506795168
1772709234099891000,6.474890869140625,-0.0011361970100551844,0.0024765441194176674,-0.0022717812098562717
1772709234109916000,6.484916015625,0.00004077027551829815,0.004197198897600174,0.000896326033398509
1772709234119941000,6.494941162109375,-0.0013070555869489908,-0.00032058730721473694,-0.002804136136546731
1772709234129966300,6.50496630859375,-0.0004527084529399872,-0.001630566082894802,-0.008202588185667992
1772709234139991300,6.5149912109375,-0.0016884150682017207,0.0017465883865952492,-0.007857175543904305
1772709234150016000,6.52501611328125,-0.0009704558178782463,0.0033993488177657127,-0.005544423125684261
1772709234160041200,6.535041259765625,0.00017337198369204998,0.0033865654841065407,-0.006308483891189098
1772709234170065200,6.545065185546875,0.0011766422539949417,0.003166849259287119,-0.0067059556022286415
1772709234180090000,6.555090087890625,0.0015870356000959873,0.002342867199331522,-0.007190917618572712
1772709234190115300,6.565115234375,0.0004877361934632063,0.00318705290555954,-0.0026706368662416935
1772709234200140300,6.575140380859375,0.0018922872841358185,0.0022522835060954094,0.0006716303760185838
1772709234210165200,6.585165283203125,0.0022929764818400145,0.0005883532576262951,0.0017933421768248081
1772709234220190200,6.595190185546875,0.00045992271043360233,-0.0004694545641541481,0.004527077078819275
1772709234230215200,6.605215087890625,-0.00018413946963846684,0.0015599173493683338,0.0033350775483995676
1772709234240240000,6.615240234375,0.0004765908233821392,0.001625963021069765,0.003148656338453293
1772709234250265000,6.62526513671875,0.000921773025766015,0.0022150049917399883,0.0034931106492877007
1772709234260290000,6.6352900390625,0.00024266703985631466,0.001023240853101015,0.002205738564953208
1772709234270314200,6.645314208984375,0.0021589905954897404,0.0018280581571161747,0.0024405543226748705
1772709234280339200,6.655339111328125,0.0007989141158759594,0.0013998220674693584,0.00037367502227425575
1772709234290364200,6.6653642578125,0.0024129976518452168,0.0029636360704898834,-0.0001423177309334278
1772709234300389400,6.675389404296875,0.002389295492321253,0.0009422972798347473,0.0025666498113423586
1772709234310414000,6.6854140625,0.002251256722956896,0.0018467162735760212,0.0017772138817235827
1772709234320439000,6.69543896484375,0.002449129708111286,0.0034057307057082653,0.0015167567180469632
1772709234330464000,6.705464111328125,0.0016135750338435173,0.0035460633225739002,-0.000332861440256238
1772709234340489200,6.7154892578125,0.000384259968996048,0.004926646593958139,-0.0007685546297580004
1772709234350514200,6.72551416015625,0.0021340278908610344,0.0013620569370687008,-0.0014575584791600704
1772709234360539100,6.7355390625,0.002495418768376112,0.004811649676412344,0.000618375837802887
1772709234370563300,6.745563232421875,0.001178148202598095,0.0048060049302875996,-0.0000026295892894268036
1772709234380588000,6.755588134765625,0.00013951538130640984,-0.0004598633386194706,0.000014148419722914696
1772709234390613000,6.765613037109375,0.00009743752889335155,-0.0002441471442580223,-0.00010862341150641441
1772709234400638200,6.77563818359375,0.000048168934881687164,0.0018645436502993107,0.003406482981517911
1772709234410663200,6.7856630859375,0.0012217431794852018,0.002036356832832098,0.0063827987760305405
1772709234420688100,6.795688232421875,0.0006832520011812449,0.0015596509911119938,0.004427239764481783
1772709234430713000,6.805713134765625,0.0007218034006655216,-0.0005730320699512959,0.0015029083006083965
1772709234440738300,6.81573828125,0.0022568493150174618,0.0011923774145543575,0.002293334575369954
1772709234450763300,6.82576318359375,0.00034720846451818943,0.00035847024992108345,0.003991294652223587
1772709234460788200,6.835788330078125,0.0031848065555095673,0.00030227750539779663,0.003402469912543893
1772709234470812200,6.845812255859375,0.0012960350140929222,0.00032361922785639763,0.0015844982117414474
1772709234480837000,6.855837158203125,0.0022688875906169415,0.00019072741270065308,0.00509028322994709
1772709234490862000,6.865862060546875,0.0018123923800885677,0.0001619681715965271,0.005094075575470924
1772709234500887000,6.875886962890625,0.0025263861753046513,0.00019925273954868317,0.00404771976172924
1772709234510912300,6.885912353515625,0.0006935242563486099,-0.00016366783529520035,0.004920979030430317
1772709234520937200,6.895937255859375,0.001691143959760666,0.0005953330546617508,0.003944663796573877
1772709234530962200,6.905962158203125,0.002408296801149845,-0.0009658383205533028,0.003531363094225526
1772709234540987100,6.915987060546875,0.0019755330868065357,0.000669608823955059,0.002649057889357209
1772709234551012400,6.926012451171875,0.002399974502623081,-0.000592661090195179,0.0024607826489955187
1772709234561037000,6.936037109375,0.0012974259443581104,0.0019607781432569027,0.0006341205444186926
1772709234571061200,6.946061279296875,0.0017062823753803968,0.0030935886316001415,-0.0008447850123047829
1772709234581086200,6.956086181640625,0.0016596766654402018,0.004806267563253641,0.00027560675516724586
1772709234591111200,6.966111083984375,0.002752157626673579,0.004140828270465136,0.0012362715788185596
1772709234601136000,6.97613623046875,0.0005981929134577513,0.0032249675132334232,0.00161843525711447
1772709234611161300,6.986161376953125,0.001164342276751995,-0.0008630105294287205,0.0014416228514164686
1772709234621186300,6.996186279296875,0.0003811062779277563,-0.001820150762796402,-0.0009893104434013367
1772709234631211300,7.006211181640625,0.0014841221272945404,0.0015202290378510952,0.002095514442771673
1772709234641236000,7.016236083984375,0.0006508189253509045,0.005212435964494944,0.00816619023680687
1772709234651261200,7.02626123046875,-0.00011005531996488571,-0.000011946074664592743,0.00663851760327816
1772709234661286100,7.0362861328125,-0.0006096644792705774,-0.0027872263453900814,0.0034112990833818913
1772709234671310000,7.04631005859375,-0.00003430177457630634,-0.0022311420179903507,0.003692048601806164
1772709234681335300,7.056335205078125,0.0018288458231836557,0.0008908812887966633,0.005977041088044643
1772709234691360300,7.0663603515625,0.0013356618583202362,-0.0006630467250943184,0.003384697949513793
1772709234701385200,7.07638525390625,0.0028858883306384087,-0.0014366949908435345,0.003578309901058674
1772709234711410200,7.08641015625,0.002182316966354847,0.0006821425631642342,0.00331996101886034
1772709234721435100,7.09643505859375,0.0013796398416161537,0.0024507474154233932,0.0032323431223630905
1772709234731460000,7.106460205078125,0.0009225271642208099,-0.00009069405496120453,0.004142601042985916
1772709234741485000,7.116485107421875,0.0002367631532251835,-0.0010787267237901688,0.001997158396989107
1772709234751510000,7.126510009765625,0.0036232308484613895,-0.0007543833926320076,0.0029001939110457897
1772709234761535200,7.13653515625,0.0010149306617677212,0.00026560714468359947,0.004365198779851198
1772709234771559200,7.14655908203125,0.0022927233949303627,0.002079515717923641,0.003778280457481742
1772709234781584400,7.15658447265625,0.0005645980127155781,0.0009788312017917633,0.00279663922265172
1772709234791609300,7.166609375,0.0010647031012922525,-0.00010510114952921867,0.0016328594647347927
1772709234801634000,7.176634033203125,0.0016647137235850096,0.0007982430979609489,0.0010605461429804564
1772709234811659000,7.186658935546875,0.002344208536669612,0.0014438088983297348,0.0017564829904586077
1772709234821684200,7.196684326171875,0.0015415314119309187,0.002438233233988285,0.0010978832142427564
1772709234831709200,7.206709228515625,0.0012869553174823523,-0.000012439675629138947,0.001521486439742148
1772709234841734100,7.216734130859375,0.0012880207505077124,0.0012850519269704819,0.0000980268232524395
1772709234851759000,7.226759033203125,0.0003490827511996031,0.0000019613653421401978,0.0005554084200412035
1772709234861784300,7.236784423828125,0.0014447071589529514,0.0014565796591341496,0.0016507667023688555
1772709234871808300,7.246808349609375,-0.00009566498920321465,-0.00017194310203194618,0.0026105698198080063
1772709234881833000,7.2568330078125,0.0012257955968379974,0.0006469790823757648,0.0029679660219699144
1772709234891858200,7.266858154296875,0.0017293994314968586,0.0005106250755488873,0.0030467957258224487
1772709234901883100,7.276883056640625,0.0013855849392712116,0.003162067849189043,0.0023977833334356546
1772709234911908000,7.286908203125,0.0011182120069861412,-0.0025282790884375572,0.0023365728557109833
1772709234921933000,7.29693310546875,0.0002425648272037506,-0.0015993686392903328,0.005378968082368374
1772709234931958300,7.306958251953125,-0.000027880771085619926,0.0014775730669498444,0.005186284892261028
1772709234941983200,7.316983154296875,0.001301036449149251,0.0008631814271211624,0.0043087732046842575
1772709234952008200,7.32700830078125,0.0005075410008430481,-0.00027633924037218094,0.0037922144401818514
1772709234962033200,7.337033203125,0.00022497959434986115,-0.0011629052460193634,0.0018446447793394327
1772709234972057000,7.34705712890625,0.0006450829096138477,0.0005633719265460968,0.0017027509165927768
1772709234982082000,7.35708203125,-0.0003035350237041712,-0.0004510260187089443,-0.000004868023097515106
1772709234992107300,7.367107177734375,0.0016029751859605312,0.0005258568562567234,0.000022999243810772896
1772709235002132200,7.37713232421875,0.001472746953368187,0.0005199979059398174,0.000398505013436079
1772709235012157200,7.3871572265625,0.0013952488079667091,-0.0004965309053659439,-0.000684602651745081
1772709235022182100,7.39718212890625,-0.00023300782777369022,0.0005564829334616661,-0.00029365066438913345
1772709235032207400,7.407207275390625,0.003324244637042284,0.0024999896995723248,0.002598799066618085
1772709235042232300,7.417232421875,-0.0009125785436481237,0.0009095496498048306,-0.001779171172529459
1772709235052257000,7.427257080078125,-0.0003844951279461384,0.000248852651566267,-0.0005122001748532057
1772709235062281200,7.43728125,-0.0012345761060714722,0.001617983914911747,-0.0013990325387567282
1772709235072306200,7.44730615234375,-0.0013503150548785925,0.0015910426154732704,-0.0007122340612113476
1772709235082331100,7.4573310546875,0.0011325497180223465,0.001060275360941887,0.0004576924256980419
1772709235092356000,7.467356201171875,0.0008286833763122559,-0.0008108620531857014,0.001910446910187602
1772709235102381300,7.47738134765625,0.0006196252070367336,0.0016823895275592804,0.002513652900233865
1772709235112406300,7.48740625,0.002392116468399763,0.0010549910366535187,0.001272117835469544
1772709235122431200,7.49743115234375,0.0014775870367884636,0.00045924214646220207,0.002858030144125223
1772709235132456200,7.507456298828125,0.00003963196650147438,-0.0008358401246368885,0.0009855512762442231
1772709235142481400,7.5174814453125,0.00013444037176668644,-0.002346917986869812,-0.0002943640574812889
1772709235152506400,7.52750634765625,0.00008492637425661087,0.0010120952501893044,0.0008823806419968605
1772709235162531300,7.53753125,0.0007744187023490667,0.002952740527689457,-0.0002947365865111351
1772709235172555500,7.547555419921875,0.0010113762691617012,0.0029146336019039154,0.004217543173581362
1772709235182580200,7.557580322265625,-0.000056285178288817406,0.0010890373960137367,0.0022654463537037373
1772709235192605200,7.567605224609375,0.0015021741855889559,-0.001967173535376787,-0.0016255928203463554
1772709235202630400,7.57763037109375,0.0012728760484606028,0.0012848121114075184,-0.001995772123336792
1772709235212655400,7.5876552734375,0.0008955348748713732,0.0023428830318152905,-0.002222737530246377
1772709235222680300,7.597680419921875,0.0007479956839233637,0.0025362283922731876,0.00010965904220938683
1772709235232705300,7.607705322265625,-0.0015324113192036748,0.0019497936591506004,-0.001609272789210081
1772709235242730500,7.61773046875,-0.00001840433105826378,0.0020339498296380043,-0.0031136926263570786
1772709235252755500,7.62775537109375,0.0004026414826512337,0.0017239581793546677,-0.0034615015611052513
1772709235262780400,7.637780517578125,0.001251923618838191,-0.000003900844603776932,-0.0028926501981914043
1772709235272804400,7.647804443359375,0.001180932391434908,0.0003644009120762348,-0.0017245765775442123
1772709235282829300,7.657829345703125,0.0005524265579879284,0.0014746724627912045,-0.0008497282397001982
1772709235292854300,7.667854248046875,-0.00011798320338129997,0.000526833813637495,0.0018194412114098668
1772709235302879200,7.677879150390625,0.0022724701557308435,0.0003188410773873329,0.00031635304912924767
1772709235312904400,7.687904541015625,-0.000987995881587267,-0.0013940483331680298,0.0005115829408168793
1772709235322929400,7.697929443359375,0.0009425296448171139,0.0006216983310878277,0.001249012304469943
1772709235332954400,7.707954345703125,-0.000017315614968538284,-0.00018209964036941528,0.003450627438724041
1772709235342979300,7.717979248046875,0.0010578024666756392,0.00041897594928741455,0.0009051780216395855
1772709235353004500,7.728004638671875,0.0018771952018141747,-0.00022979266941547394,0.00034546805545687675
1772709235363029200,7.738029296875,0.00014587445184588432,-0.0013360697776079178,0.00023334892466664314
1772709235373053400,7.748053466796875,0.0007071061991155148,-0.0006558201275765896,0.00021357531659305096
1772709235383078400,7.758078369140625,0.00011242227628827095,-0.001259824726730585,0.0004354165866971016
1772709235393103400,7.768103271484375,-0.00046424660831689835,0.00003684870898723602,-0.0032017792109400034
1772709235403128300,7.77812841796875,-0.0005587886553257704,-0.0016958038322627544,-0.0033826075959950686
1772709235413153500,7.788153564453125,-0.00023679225705564022,-0.0018561887554824352,-0.0015603534411638975
1772709235423178500,7.798178466796875,0.0000612153671681881,-0.00037600379437208176,-0.0013923079241067171
1772709235433203500,7.808203369140625,-0.0009285863488912582,0.0006312532350420952,-0.000268029747530818
1772709235443228200,7.818228271484375,0.0000610442366451025,-0.0016798381693661213,-0.0009918769355863333
1772709235453253400,7.82825341796875,0.00011915317736566067,-0.002320393919944763,-0.0023018300998955965
1772709235463278300,7.8382783203125,0.0002994493115693331,-0.00020717550069093704,-0.0008512064814567566
1772709235473302300,7.84830224609375,-0.000640170881524682,0.001533235888928175,-0.0007189449388533831
1772709235483327500,7.858327392578125,-0.002070554532110691,-0.0028471313416957855,-0.0009519716259092093
1772709235493352400,7.8683525390625,-0.00040100677870213985,-0.002479289658367634,-0.0010240597184747458
1772709235503377400,7.87837744140625,-0.00021698232740163803,0.0006493921391665936,-0.0018786678556352854
1772709235513402000,7.888402099609375,0.0004179151728749275,0.0010656444355845451,-0.0034432753454893827
1772709235523427300,7.89842724609375,-0.0006172554567456245,-0.0007543601095676422,-0.002550050849094987
1772709235533452300,7.908452392578125,-0.00044152303598821163,-0.002195688895881176,-0.0024613458663225174
1772709235543477200,7.918477294921875,-0.0009832100477069616,-0.0016095270402729511,-0.0033740107901394367
1772709235553502200,7.928502197265625,-0.0011268409434705973,-0.0008920617401599884,-0.0034894004929810762
1772709235563527400,7.93852734375,0.0001589332241564989,-0.0006947214715182781,-0.0029394577722996473
1772709235573552400,7.948552490234375,-0.0023143538273870945,-0.003803754923865199,-0.001571741420775652
1772709235583576300,7.958576416015625,-0.0017851836746558547,-0.002369376365095377,-0.0032556583173573017
1772709235593601300,7.968601318359375,-0.0019751843065023422,0.0009100530296564102,-0.0023054536432027817
1772709235603626200,7.978626220703125,-0.0017570712370797992,-0.0010657459497451782,-0.0034215841442346573
1772709235613651200,7.988651123046875,-0.0022302272263914347,-0.0029933517798781395,-0.0037109949626028538
1772709235623676400,7.998676513671875,0.00008672289550304413,-0.00353077775798738,-0.0031804931350052357
1772709235633701400,8.008701416015626,0.0008601373992860317,0.0005018073134124279,-0.0012345437426120043
1772709235643726300,8.018726318359375,0.0005051379557698965,0.00004534143954515457,-0.0016654431819915771
1772709235653751300,8.028751220703125,-0.0011819188948720694,-0.0010226229205727577,-0.0007665290031582117
1772709235663776500,8.038776611328124,-0.00019601662643253803,-0.0010034479200839996,-0.0029955946374684572
1772709235673801500,8.048801513671876,-0.0015960403252393007,0.0005971118807792664,-0.002038721228018403
1772709235683826400,8.058826416015625,-0.0002463501878082752,-0.0003054337576031685,-0.0015809235628694296
1772709235693850400,8.068850341796875,-0.0036755437031388283,-0.002329896204173565,-0.003305780701339245
1772709235703875300,8.078875244140624,-0.0008193033281713724,-0.004068141337484121,-0.004065847024321556
1772709235713900300,8.088900390625,-0.001267140032723546,0.00007566483691334724,-0.0021657536271959543
1772709235723925200,8.09892529296875,-0.001111344899982214,0.0033761202357709408,0.0001988669391721487
1772709235733950500,8.108950439453125,-0.0019360528094694018,-0.002657454926520586,-0.0010251249186694622
1772709235743975400,8.118975341796874,-0.0016170060262084007,-0.004026586189866066,-0.004829450510442257
1772709235754000400,8.12900048828125,-0.00011268025264143944,-0.002103270962834358,-0.004139808472245932
1772709235764025300,8.139025390625,-0.0011358666233718395,0.0006544329226016998,-0.0029227440245449543
1772709235774050300,8.14905029296875,0.0003993525169789791,-0.0022966358810663223,-0.0008341432549059391
1772709235784075300,8.1590751953125,0.0004933620803058147,0.000041087158024311066,-0.002660805592313409
1772709235794099500,8.169099365234375,0.0005413861945271492,-0.000877446960657835,-0.00470044557005167
1772709235804124400,8.17912451171875,-0.0012802158016711473,0.001992108765989542,-0.0026876286137849092
1772709235814149400,8.1891494140625,0.000044295331463217735,-0.0015112636610865593,-0.0016779713332653046
1772709235824174300,8.19917431640625,0.000491440063342452,-0.0036977187264710665,-0.00234242994338274
1772709235834199600,8.209199462890625,0.0004875611048191786,-0.0010438915342092514,-0.0016428064554929733
1772709235844224500,8.219224609375,0.0003221789374947548,0.0007478836923837662,0.000002494547516107559
1772709235854249200,8.229249267578124,-0.0004847445525228977,0.0011117295362055302,-0.0014477791264653206
1772709235864274200,8.239274169921876,-0.0008767619729042053,-0.0010520890355110168,-0.00341452332213521
1772709235874299400,8.24929931640625,0.0006855728570371866,0.000012393109500408173,-0.002324172295629978
1772709235884324400,8.259324462890625,-0.0001043207012116909,0.0004709893837571144,-0.0032986230216920376
1772709235894348300,8.269348388671874,-0.0004871846176683903,0.00016199052333831787,-0.004143717233091593
1772709235904373500,8.27937353515625,-0.000044567277655005455,0.0009010182693600655,-0.00558901485055685
1772709235914398500,8.2893984375,-0.0005670539103448391,-0.0006255386397242546,-0.0038250419311225414
1772709235924423400,8.29942333984375,0.0013123387470841408,0.00017740437760949135,-0.0036039999686181545
1772709235934448000,8.3094482421875,0.00022026733495295048,-0.0014689420349895954,-0.004631863906979561
1772709235944473300,8.319473388671875,-0.00014165625907480717,-0.0014481693506240845,-0.003987112082540989
1772709235954498300,8.329498291015625,-0.0026385332457721233,0.0008940957486629486,-0.0035324746277183294
1772709235964523300,8.339523193359375,-0.0013498296029865742,0.0009502880275249481,-0.0037575119640678167
1772709235974548200,8.34954833984375,-0.0004626659210771322,0.002003734465688467,-0.0036710938438773155
1772709235984573400,8.359573486328125,-0.0010104782413691282,-0.0006940471939742565,-0.0013735848478972912
1772709235994597400,8.369597412109375,0.0002400125376880169,-0.001512838527560234,-0.0022953376173973083
1772709236004622300,8.379622314453124,-0.0012063502799719572,-0.0013937950134277344,-0.001594393514096737
1772709236014647300,8.389647216796876,-0.0007546753622591496,-0.0005558193661272526,0.0019049923866987228
1772709236024672300,8.39967236328125,-0.0003016714472323656,-0.00017978111281991005,0.002279699081555009
1772709236034697200,8.409697265625,0.0018763209227472544,0.0000308905728161335,-0.0005945703014731407
1772709236044722400,8.419722412109374,0.0007503365632146597,-0.0021675489842891693,-0.0028729047626256943
1772709236054747400,8.429747314453126,-0.0013638006057590246,0.001649392768740654,-0.001760147511959076
1772709236064772400,8.4397724609375,0.0006780447438359261,-0.00016635004431009293,-0.0004322952590882778
1772709236074797300,8.44979736328125,-0.0008073220960795879,-0.001676938496530056,-0.002823521848767996
1772709236084822500,8.459822509765624,-0.002024120418354869,-0.0018372605554759502,-0.0014416077174246311
1772709236094846200,8.46984619140625,-0.0009386043529957533,-0.0008967295289039612,-0.0032763658091425896
1772709236104871200,8.47987109375,-0.001402260735630989,-0.0003004474565386772,-0.0020358655601739883
1772709236114896400,8.489896484375,-0.00011094240471720695,0.00018143747001886368,-0.001982545480132103
1772709236124921300,8.49992138671875,-0.000890183262526989,0.0000043371692299842834,-0.004247297998517752
1772709236134946800,8.50994677734375,-0.0007204290013760328,-0.0010167546570301056,-0.0024963878095149994
1772709236144971800,8.5199716796875,0.00022872164845466614,-0.00017759250476956367,-0.0027627036906778812
1772709236154997000,8.5299970703125,0.0010641170665621758,0.00006408616900444031,-0.0034160404466092587
1772709236165022000,8.54002197265625,-0.0004216607194393873,-0.0018224972300231457,-0.0029702275060117245
1772709236175046700,8.550046630859375,-0.0006543588824570179,-0.0028696847148239613,-0.004771348088979721
1772709236185071600,8.560071533203125,-0.000883923377841711,0.001164205837994814,-0.002232822822406888
1772709236195095800,8.570095703125,0.0016915169544517994,0.0019791899248957634,-0.0016199387609958649
1772709236205120800,8.580120849609376,0.000507475808262825,-0.0008847732096910477,-0.00294432882219553
1772709236215145700,8.590145751953125,-0.00039370846934616566,0.000303835142403841,-0.0028902257326990366
1772709236225171000,8.6001708984375,-0.0009979796595871449,0.0007243487052619457,-0.0010419923346489668
1772709236235196000,8.61019580078125,-0.0006358101963996887,-0.002901923842728138,-0.0026779919862747192
1772709236245220900,8.620220947265626,-0.00008746539242565632,-0.0025501204654574394,-0.0025000926107168198
1772709236255245600,8.63024560546875,-0.000051985494792461395,0.0005051670596003532,-0.00226580910384655
1772709236265270800,8.640270751953125,-0.0007449397817254066,0.0027989475056529045,0.0025230874307453632
1772709236275295700,8.650295654296874,-0.0026492495089769363,0.0004094126634299755,-0.0004121842794120312
1772709236285320700,8.66032080078125,-0.0005277753807604313,-0.0027520256116986275,-0.005158203653991222
1772709236295345000,8.670344970703125,-0.0007144620176404715,-0.00013456866145133972,-0.005399688612669706
1772709236305369900,8.680369873046875,-0.0012614752631634474,0.0022154049947857857,-0.003911513835191727
1772709236315394800,8.690394775390626,-0.00048502860590815544,0.0007131150923669338,-0.0029701204039156437
1772709236325419800,8.700419677734375,0.0005943505093455315,0.0015240474604070187,-0.002173835411667824
1772709236335444700,8.71044482421875,0.0005009870510548353,0.0010853130370378494,-0.005223896354436874
1772709236345469700,8.7204697265625,-0.00323942257091403,-0.0025528310798108578,0.024433331564068794
1772709236355494700,8.73049462890625,0.004749909974634647,0.033286549150943756,0.09862754493951797
1772709236365520000,8.740519775390625,0.0008092306088656187,0.07618581503629684,0.06066099554300308
1772709236375544800,8.750544921875,0.005370629485696554,0.028216935694217682,0.014706636779010296
1772709236385569800,8.76056982421875,0.0026701842434704304,-0.035011835396289825,-0.019048398360610008
1772709236395594000,8.770593994140626,0.00280937971547246,-0.019250910729169846,-0.012486560270190239
1772709236405619000,8.780618896484375,-0.0035108341835439205,0.014502525329589844,0.0038074576295912266
1772709236415643600,8.7906435546875,-0.0015246003167703748,-0.000883923377841711,-0.013837751932442188
1772709236425668600,8.800668701171874,-0.0003618642222136259,-0.030359257012605667,-0.044905923306941986
1772709236435693800,8.81069384765625,-0.00163337925914675,-0.023828405886888504,-0.04055570065975189
1772709236445718800,8.82071875,-0.0014831769512966275,-0.00038406485691666603,-0.018746543675661087
1772709236455743700,8.83074365234375,-0.0003549107350409031,-0.004546305630356073,-0.01808103173971176
1772709236465768700,8.840768798828124,-0.0015219079796224833,-0.027520330622792244,-0.012945923954248428
1772709236475794000,8.8507939453125,-0.0003995590377599001,-0.013964584097266197,0.013375503942370415
1772709236485819000,8.86081884765625,-0.0014725466025993228,0.021167036145925522,-0.0028796326369047165
