time,seconds_elapsed,z,y,x
1772709124086220300,0.00522021484375,-0.04677306488156319,-0.9836251139640808,-0.962544322013855
1772709124096245200,0.015245361328125,-0.021277396008372307,-0.994216799736023,-1.0341639518737793
1772709124106270200,0.025270263671875,0.04346378520131111,-1.0217617750167847,-1.1443134546279907
1772709124116295200,0.035295166015625,0.058340735733509064,-1.0591765642166138,-1.2416188716888428
1772709124126320000,0.045320068359375,0.17856009304523468,-1.089499592781067,-1.3024511337280273
1772709124136345000,0.055344970703125,0.6604891419410706,-1.5273329019546509,-1.2479667663574219
1772709124146370000,0.0653701171875,1.4199916124343872,-2.1958930492401123,-1.073948621749878
1772709124156395300,0.075395263671875,1.9484591484069824,-2.3881428241729736,-1.0135842561721802
1772709124166420200,0.085420166015625,2.0181522369384766,-2.4290554523468018,-1.1043775081634521
1772709124176445200,0.095445068359375,1.9183509349822998,-2.5640745162963867,-1.2658804655075073
1772709124186470100,0.10547021484375,1.7446016073226929,-2.75327467918396,-1.4521647691726685
1772709124196495400,0.115495361328125,1.5158275365829468,-2.8777575492858887,-1.6748793125152588
1772709124206520300,0.125520263671875,0.9056195020675659,-2.8827478885650635,-2.0964598655700684
1772709124216545000,0.135544921875,0.4549221694469452,-2.8924195766448975,-2.4277946949005127
1772709124226571300,0.1455712890625,0.1751435101032257,-3.0550758838653564,-2.651981830596924
1772709124236595200,0.15559521484375,-0.1435975283384323,-3.162499189376831,-2.773587226867676
1772709124246621200,0.16562109375,-0.43300190567970276,-3.354806900024414,-2.87630295753479
1772709124256646100,0.175646240234375,-0.5811395645141602,-3.5830681324005127,-2.9388201236724854
1772709124266671000,0.185671142578125,-0.5870028138160706,-3.6726622581481934,-2.975051164627075
1772709124276696300,0.1956962890625,-0.5701790452003479,-3.5583527088165283,-2.9859862327575684
1772709124286721300,0.20572119140625,-0.5340639352798462,-3.1915178298950195,-2.927699327468872
1772709124296746200,0.215746337890625,-0.46690282225608826,-2.8679938316345215,-2.747095823287964
1772709124306771200,0.225771240234375,-0.3601638674736023,-2.7370779514312744,-2.4721617698669434
1772709124316796400,0.23579638671875,-0.22850771248340607,-2.2481722831726074,-2.0968475341796875
1772709124326821400,0.2458212890625,-0.06265188753604889,-2.022991895675659,-1.6943293809890747
1772709124336846000,0.25584619140625,0.1795293390750885,-1.956030011177063,-1.4114753007888794
1772709124346871000,0.26587109375,0.3733656704425812,-1.8557212352752686,-1.2521069049835205
1772709124356896300,0.275896240234375,0.4145769774913788,-1.6822868585586548,-1.1648545265197754
1772709124366921200,0.285921142578125,0.33972591161727905,-1.4439648389816284,-1.132784128189087
1772709124376946200,0.2959462890625,0.1877036690711975,-1.176042079925537,-1.137411117553711
1772709124386971100,0.30597119140625,-0.02271188795566559,-0.9493111371994019,-1.157030701637268
1772709124396996400,0.315996337890625,-0.23078350722789764,-0.682179868221283,-1.0929094552993774
1772709124407021300,0.326021240234375,-0.4406701326370239,-0.578842282295227,-0.89201420545578
1772709124417046300,0.33604638671875,-0.6341825723648071,-0.6003096103668213,-0.6267222166061401
1772709124427071200,0.3460712890625,-0.8163673281669617,-0.7751994132995605,-0.339743971824646
1772709124437096200,0.35609619140625,-1.0229240655899048,-1.0351793766021729,-0.07521761953830719
1772709124447121200,0.36612109375,-1.2757400274276733,-1.196506142616272,0.11112988740205765
1772709124457146000,0.37614599609375,-1.541410207748413,-1.2234899997711182,0.2295934557914734
1772709124467171000,0.386171142578125,-1.7385286092758179,-1.0851904153823853,0.31900933384895325
1772709124477196300,0.3961962890625,-1.8438388109207153,-0.7826235890388489,0.42447429895401
1772709124487221200,0.40622119140625,-1.8966072797775269,-0.4060606062412262,0.5492844581604004
1772709124497246200,0.41624609375,-1.9225043058395386,-0.38429534435272217,0.6315520405769348
1772709124507271200,0.426271240234375,-1.9270812273025513,-0.31467071175575256,0.6723200082778931
1772709124517296400,0.43629638671875,-1.9582041501998901,-0.4358501434326172,0.711627185344696
1772709124527321000,0.446321044921875,-1.9362564086914062,-0.6805174350738525,0.6937621831893921
1772709124537346000,0.456345947265625,-1.9391337633132935,-0.7560601234436035,0.6058971285820007
1772709124547371300,0.466371337890625,-1.934330701828003,-0.8073198795318604,0.5130270719528198
1772709124557396200,0.476396240234375,-1.887286901473999,-0.7507807016372681,0.4159657657146454
1772709124567421200,0.486421142578125,-1.8577839136123657,-0.5667828917503357,0.3501308262348175
1772709124577446100,0.496446044921875,-1.8272219896316528,-0.21443597972393036,0.33343756198883057
1772709124587471400,0.506471435546875,-1.777246117591858,0.24269749224185944,0.3109559714794159
1772709124597496300,0.516496337890625,-1.676540732383728,0.7332019209861755,0.24295645952224731
1772709124607521300,0.526521240234375,-1.5121699571609497,1.1934597492218018,0.17424610257148743
1772709124617546200,0.536546142578125,-1.2873220443725586,1.4290050268173218,0.13853512704372406
1772709124627571200,0.5465712890625,-1.0101977586746216,1.3659639358520508,0.14426997303962708
1772709124637596200,0.55659619140625,-0.7142010927200317,1.2460883855819702,0.17535901069641113
1772709124647621000,0.56662109375,-0.4686954915523529,1.1868776082992554,0.1925598382949829
1772709124657646000,0.57664599609375,-0.2994997501373291,1.1832919120788574,0.1288299858570099
1772709124667672000,0.586672119140625,-0.20773625373840332,1.1706591844558716,-0.03567586466670036
1772709124677697300,0.596697265625,-0.1804596483707428,1.1220446825027466,-0.2480705976486206
1772709124687722200,0.60672216796875,-0.18375264108181,1.1349577903747559,-0.4770694077014923
1772709124697747200,0.616747314453125,-0.22382096946239471,0.8210542798042297,-0.7900528907775879
1772709124707772200,0.626772216796875,-0.2779313623905182,0.6705406308174133,-1.1879571676254272
1772709124717797400,0.63679736328125,-0.24941112101078033,0.7685372829437256,-1.4818519353866577
1772709124727822300,0.646822265625,-0.04070745036005974,-0.45475009083747864,-1.8064299821853638
1772709124737847300,0.656847412109375,0.3860035538673401,-0.8671150803565979,-1.9133561849594116
1772709124747872000,0.6668720703125,0.800101101398468,-1.2255136966705322,-1.8948357105255127
1772709124757897200,0.676897216796875,1.0543867349624634,-1.4775795936584473,-1.7073718309402466
1772709124767922200,0.686922119140625,1.0571662187576294,-1.3578218221664429,-1.3612269163131714
1772709124777947100,0.696947021484375,0.8750013709068298,-1.0692698955535889,-0.9817022085189819
1772709124787972000,0.70697216796875,0.6612020134925842,-0.853763997554779,-0.5866702198982239
1772709124797997300,0.716997314453125,0.48545366525650024,-0.6580712795257568,-0.16835375130176544
1772709124808022300,0.727022216796875,0.37496256828308105,-0.42080622911453247,0.20439478754997253
1772709124818047200,0.737047119140625,0.3533637523651123,-0.11262950301170349,0.5276467800140381
1772709124828072200,0.747072265625,0.3329290449619293,0.35116398334503174,0.708548367023468
1772709124838097400,0.757097412109375,0.2636648416519165,0.859973669052124,0.75608891248703
1772709124848122000,0.7671220703125,0.1646924614906311,1.2816886901855469,0.7439433336257935
1772709124858147000,0.77714697265625,0.05456606671214104,1.6165951490402222,0.6796939373016357
1772709124868172300,0.78717236328125,0.00038458569906651974,1.7137967348098755,0.5559110045433044
1772709124878197200,0.797197265625,0.059971585869789124,1.7109651565551758,0.39832255244255066
1772709124888222200,0.80722216796875,0.20064988732337952,1.5218775272369385,0.21396468579769135
1772709124898247200,0.8172470703125,0.33152472972869873,1.119207501411438,0.10923517495393753
1772709124908272400,0.8272724609375,0.41268298029899597,0.6535601019859314,0.0901765301823616
1772709124918297300,0.83729736328125,0.40331321954727173,-0.14435814321041107,0.07477163523435593
1772709124928322300,0.847322265625,0.3231227993965149,-1.1737442016601562,0.012059523724019527
1772709124938347000,0.857346923828125,0.2491699755191803,-2.149137258529663,-0.08723293989896774
1772709124948372200,0.867372314453125,0.20619747042655945,-2.9910502433776855,-0.22091349959373474
1772709124958397200,0.877397216796875,0.16661539673805237,-3.383326292037964,-0.39289572834968567
1772709124968422100,0.887422119140625,0.11042189598083496,-2.9281246662139893,-0.4881175756454468
1772709124978447000,0.897447021484375,0.05644712969660759,-2.759845733642578,-0.6080989837646484
1772709124988472300,0.907472412109375,0.039023395627737045,-2.543442726135254,-0.6953161954879761
1772709124998497300,0.917497314453125,0.06788061559200287,-2.3273861408233643,-0.790590226650238
1772709125008522200,0.927522216796875,0.08769772946834564,-2.8111417293548584,-1.006663203239441
1772709125018547200,0.937547119140625,0.11306864023208618,-2.828239679336548,-1.1886564493179321
1772709125028572400,0.947572509765625,0.11613420397043228,-2.6262149810791016,-1.3017587661743164
1772709125038597400,0.957597412109375,0.10230887681245804,-2.3576695919036865,-1.3162730932235718
1772709125048622300,0.967622314453125,0.08981998264789581,-2.1283929347991943,-1.2156375646591187
1772709125058647300,0.977647216796875,0.08202102780342102,-1.8335039615631104,-1.0062072277069092
1772709125068672500,0.987672607421875,0.06651690602302551,-1.405940294265747,-0.7150517702102661
1772709125078697500,0.997697509765625,0.044973768293857574,-0.8353354930877686,-0.3852490186691284
1772709125088722200,1.00772216796875,0.014548751525580883,-0.20652884244918823,-0.057228799909353256
1772709125098747100,1.0177470703125,-0.008507978171110153,0.26083508133888245,0.19229461252689362
1772709125108772400,1.0277724609375,-0.02033880539238453,0.34770792722702026,0.2804015874862671
1772709125118798300,1.03779833984375,-0.018520580604672432,0.2067929357290268,0.244243323802948
1772709125128823300,1.0478232421875,-0.015969272702932358,0.03472743183374405,0.1292291134595871
1772709125138848300,1.05784814453125,-0.014825573191046715,-0.08175871521234512,-0.02306266874074936
1772709125148873200,1.067873291015625,-0.004376394208520651,-0.11612760275602341,-0.11924273520708084
1772709125158898400,1.0778984375,-0.003201905870810151,-0.1075034961104393,-0.116897352039814
1772709125168923400,1.08792333984375,-0.012919514440000057,-0.08184367418289185,-0.03858629986643791
1772709125178948400,1.0979482421875,-0.02244773879647255,-0.04310746490955353,0.052881501615047455
1772709125188973300,1.107973388671875,-0.03025639057159424,-0.013964494690299034,0.08869941532611847
1772709125198998500,1.11799853515625,-0.033493172377347946,-0.02320270985364914,0.06743904948234558
1772709125209023200,1.128023193359375,-0.02720491774380207,-0.0495791919529438,0.026705201715230942
1772709125219048200,1.138048095703125,-0.028783097863197327,-0.05770239233970642,-0.005624479614198208
1772709125229073400,1.148073486328125,-0.03218075633049011,-0.054120972752571106,-0.022536618635058403
1772709125239098400,1.158098388671875,-0.035697076469659805,-0.06375838071107864,-0.02347302809357643
1772709125249123300,1.168123291015625,-0.03570399805903435,-0.0750666931271553,-0.011282943189144135
1772709125259148300,1.178148193359375,-0.03647908940911293,-0.0765036940574646,0.009769771248102188
1772709125269173500,1.188173583984375,-0.033920321613550186,-0.06664840131998062,0.023225925862789154
1772709125279198500,1.198198486328125,-0.02461487613618374,-0.05855770409107208,0.02387392148375511
1772709125289223400,1.208223388671875,-0.02052479237318039,-0.05216718465089798,0.014621566981077194
1772709125299248400,1.218248291015625,-0.01357780396938324,-0.04718133062124252,-0.005456342361867428
1772709125309273300,1.2282734375,-0.009623808786273003,-0.02845318242907524,-0.020442482084035873
1772709125319298300,1.23829833984375,-0.0014559375122189522,-0.013123731128871441,-0.03789813816547394
1772709125329323300,1.2483232421875,0.004002211149781942,0.0016557476483285427,-0.041432686150074005
1772709125339348200,1.25834814453125,0.009449664503335953,0.021925896406173706,-0.038093581795692444
1772709125349373400,1.26837353515625,0.010295750573277473,0.029194463044404984,-0.033453021198511124
1772709125359398400,1.2783984375,0.006766755133867264,0.027651723474264145,-0.030548810958862305
1772709125369423400,1.28842333984375,0.005432244390249252,0.017120517790317535,-0.033744603395462036
1772709125379448300,1.2984482421875,0.005113969556987286,0.008927544578909874,-0.03806335851550102
1772709125389473500,1.3084736328125,0.0036899775732308626,0.011833054944872856,-0.036581043154001236
1772709125399498200,1.318498291015625,0.0022899473551660776,0.013300484046339989,-0.028588660061359406
1772709125409523200,1.328523193359375,-0.0002802696544677019,0.01234174519777298,-0.02488979697227478
1772709125419548200,1.338548095703125,-0.003277895273640752,0.004230313003063202,-0.02264484390616417
1772709125429573400,1.348573486328125,-0.0038613940123468637,-0.007210094016045332,-0.015379208140075207
1772709125439598300,1.358598388671875,-0.005653094965964556,-0.00891987793147564,-0.00899464264512062
1772709125449623300,1.368623291015625,-0.004892762750387192,-0.014069098979234695,0.002689975779503584
1772709125459648300,1.378648193359375,-0.009513108059763908,-0.01397218368947506,0.014242861419916153
1772709125469673500,1.388673583984375,-0.011623662896454334,-0.013987097889184952,0.021850978955626488
1772709125479698400,1.398698486328125,-0.01198059506714344,-0.0242511797696352,0.021596774458885193
1772709125489723400,1.408723388671875,-0.013810984790325165,-0.026909546926617622,0.01269782055169344
1772709125499748400,1.418748291015625,-0.009443135000765324,-0.01806066185235977,0.006134992931038141
1772709125509773300,1.428773193359375,-0.009287339635193348,-0.016942933201789856,0.0014973642537370324
1772709125519798300,1.43879833984375,-0.019868602976202965,-0.021876199170947075,-0.00019930675625801086
1772709125529823200,1.4488232421875,-0.02340022101998329,-0.031222030520439148,-0.00576051976531744
1772709125539848400,1.458848388671875,-0.01988252066075802,-0.032154131680727005,-0.005723908543586731
1772709125549873400,1.468873291015625,-0.013304779306054115,-0.02645203471183777,0.0008932477794587612
1772709125559898400,1.4788984375,-0.014298644848167896,-0.017395401373505592,0.009018993005156517
1772709125569923300,1.48892333984375,-0.015513045713305473,-0.015443836338818073,0.02011851593852043
1772709125579948500,1.498948486328125,-0.021870329976081848,-0.020597899332642555,0.024518508464097977
1772709125589974500,1.508974609375,-0.030703768134117126,-0.03707221522927284,0.020468905568122864
1772709125599999500,1.51899951171875,-0.04257502406835556,-0.05909917503595352,0.0030633655842393637
1772709125610024400,1.5290244140625,-0.04709174484014511,-0.07902680337429047,-0.017895178869366646
1772709125620049200,1.539049072265625,-0.049509044736623764,-0.08221720159053802,-0.032797906547784805
1772709125630074400,1.549074462890625,-0.044160619378089905,-0.06033880263566971,-0.03878069669008255
1772709125640099300,1.559099365234375,-0.04401499778032303,-0.04299716651439667,-0.0470259003341198
1772709125650124300,1.569124267578125,-0.0494888573884964,-0.050077714025974274,-0.049841392785310745
1772709125660149200,1.579149169921875,-0.05179496854543686,-0.06589923053979874,-0.04776299372315407
1772709125670174500,1.589174560546875,-0.04861142486333847,-0.0691853016614914,-0.03620167821645737
1772709125680199400,1.599199462890625,-0.038129448890686035,-0.05311821401119232,-0.0260260421782732
1772709125690224400,1.609224365234375,-0.030109606683254242,-0.03698478266596794,-0.016373949125409126
1772709125700249300,1.619249267578125,-0.019526440650224686,-0.014334576204419136,-0.023162437602877617
1772709125710274600,1.629274658203125,-0.006822098046541214,0.01368773728609085,-0.042708706110715866
1772709125720299300,1.63929931640625,-0.0024977819994091988,0.024334747344255447,-0.05309499427676201
1772709125730324200,1.64932421875,0.008772183209657669,0.020595403388142586,-0.05092238634824753
1772709125740349200,1.65934912109375,0.025449225679039955,0.03403666615486145,-0.04062303155660629
1772709125750374400,1.66937451171875,0.035007044672966,0.0517091378569603,-0.03265831246972084
1772709125760399400,1.6793994140625,0.03758471831679344,0.035378627479076385,-0.022648824378848076
1772709125770424300,1.68942431640625,0.029065266251564026,0.012889834120869637,-0.004506838973611593
1772709125780449300,1.69944921875,0.037990227341651917,0.015530846081674099,0.018178479745984077
1772709125790474500,1.709474609375,0.0377526730298996,0.043890051543712616,0.03788081184029579
1772709125800499500,1.71949951171875,0.03205423429608345,0.05333871394395828,0.044151853770017624
1772709125810524200,1.729524169921875,0.03257567808032036,0.005888373125344515,0.03396126627922058
1772709125820549400,1.73954931640625,0.03281491622328758,-0.010795858688652515,0.027340317144989967
1772709125830574300,1.74957421875,0.03218001872301102,-0.0059547643177211285,0.03745420277118683
1772709125840599300,1.759599365234375,0.027730271220207214,0.006385272368788719,0.055203624069690704
1772709125850624300,1.769624267578125,0.025041544809937477,-0.014384986832737923,0.0651894137263298
1772709125860649500,1.7796494140625,0.019921474158763885,-0.03901156783103943,0.05809595435857773
1772709125870674400,1.78967431640625,0.018250074237585068,-0.03901609405875206,0.047913625836372375
1772709125880699400,1.799699462890625,0.019659562036395073,-0.011330341920256615,0.04125744849443436
1772709125890724400,1.809724365234375,0.025045007467269897,-0.01996670663356781,0.04066542536020279
1772709125900749600,1.81974951171875,0.030480055138468742,-0.0025999736972153187,0.040285803377628326
1772709125910774300,1.829774169921875,0.03453364968299866,0.0021969121880829334,0.04752667248249054
1772709125920799200,1.83979931640625,0.03838357701897621,-0.011606764048337936,0.047356605529785156
1772709125930824200,1.84982421875,0.043099768459796906,-0.022742506116628647,0.04413311555981636
1772709125940849400,1.859849365234375,0.04941689223051071,-0.001294748391956091,0.0469185933470726
1772709125950874400,1.869874267578125,0.05005764961242676,0.009473210200667381,0.04780462756752968
1772709125960899300,1.8798994140625,0.053092386573553085,-0.00023295264691114426,0.03975589573383331
1772709125970924300,1.88992431640625,0.050799138844013214,-0.022458896040916443,0.02385788969695568
1772709125980949500,1.899949462890625,0.041120439767837524,-0.02257418818771839,0.013162275776267052
1772709125990974500,1.909974365234375,0.03573206812143326,-0.0051222266629338264,0.013936989940702915
1772709126000999400,1.91999951171875,0.031308624893426895,0.005474484525620937,0.0065298136323690414
1772709126011024100,1.930024169921875,0.026082171127200127,0.01827230304479599,-0.0037838101852685213
1772709126021049300,1.94004931640625,0.023705076426267624,0.03378252685070038,-0.021827558055520058
1772709126031074300,1.95007421875,0.0241658017039299,0.03511597216129303,-0.044748853892087936
1772709126041099300,1.960099365234375,0.0181027390062809,0.024520354345440865,-0.06001446396112442
1772709126051124200,1.970124267578125,0.013860856182873249,0.01787976175546646,-0.06410534679889679
1772709126061149200,1.980149169921875,0.015469679608941078,0.024349885061383247,-0.05465216189622879
1772709126071175400,1.990175537109375,0.011239513754844666,0.03192178159952164,-0.046246159821748734
1772709126081200000,2.0002001953125,0.004260323941707611,0.02716674841940403,-0.04355088248848915
1772709126091225000,2.01022509765625,0.007463308051228523,0.012475419789552689,-0.04654267802834511
1772709126101250000,2.02025,0.005081206560134888,0.00981280766427517,-0.04799218848347664
1772709126111275300,2.030275146484375,0.00392060074955225,0.013291696086525917,-0.043690647929906845
1772709126121300200,2.04030029296875,-0.0010466347448527813,0.01652734912931919,-0.03959048539400101
1772709126131325200,2.0503251953125,-0.006164697930216789,0.012677749618887901,-0.03564900532364845
1772709126141350100,2.06035009765625,-0.008748402819037437,0.008394338190555573,-0.03617546707391739
1772709126151375400,2.070375244140625,-0.008814714848995209,0.0026589534245431423,-0.04267783835530281
1772709126161400300,2.080400390625,-0.012333361431956291,0.001342853531241417,-0.04606661573052406
1772709126171425000,2.090425048828125,-0.01599946990609169,0.0038134679198265076,-0.042762164026498795
1772709126181450200,2.1004501953125,-0.01740407943725586,-0.0009203217923641205,-0.0345887690782547
1772709126191475200,2.11047509765625,-0.016000593081116676,-0.00849967822432518,-0.027261346578598022
1772709126201500200,2.120500244140625,-0.013281991705298424,-0.006018070504069328,-0.021438824012875557
1772709126211525000,2.130525146484375,-0.010064627043902874,0.0019043008796870708,-0.017404668033123016
1772709126221550300,2.14055029296875,-0.010588388890028,-0.0027373828925192356,-0.007956639863550663
1772709126231575300,2.1505751953125,-0.011859515681862831,-0.02748161181807518,-0.012490938417613506
1772709126241600300,2.160600341796875,-0.011754192411899567,-0.047445982694625854,-0.007425886578857899
1772709126251625200,2.170625244140625,-0.01798119582235813,-0.058401696383953094,-0.007617900148034096
1772709126261650400,2.180650390625,-0.02667725645005703,-0.05887474864721298,-0.004813910461962223
1772709126271675100,2.190675048828125,-0.02693318761885166,-0.048291612416505814,0.0005608813371509314
1772709126281700000,2.2007001953125,-0.02443617209792137,-0.04037899151444435,-0.003783509833738208
1772709126291725000,2.21072509765625,-0.022720297798514366,-0.012614740058779716,-0.01716775819659233
1772709126301750300,2.220750244140625,-0.030385972931981087,0.01451009139418602,-0.02916976436972618
1772709126311775200,2.230775146484375,-0.03047758713364601,0.006156820338219404,-0.04720815271139145
1772709126321800200,2.24080029296875,-0.016105161979794502,-0.02728213742375374,-0.05680827423930168
1772709126331825200,2.2508251953125,-0.014631101861596107,-0.021793628111481667,-0.049126118421554565
1772709126341850400,2.260850341796875,-0.010013625025749207,0.00585348904132843,-0.025887086987495422
1772709126351875300,2.270875244140625,-0.00810253992676735,0.023948337882757187,-0.0009114311542361975
1772709126361900300,2.280900390625,-0.0075867315754294395,0.02768947184085846,0.009381100535392761
1772709126371925000,2.290925048828125,-0.013324245810508728,0.022381525486707687,0.00316048925742507
1772709126381950200,2.3009501953125,-0.016318384557962418,-0.02280241623520851,-0.02099003829061985
1772709126391975200,2.31097509765625,-0.015066433697938919,-0.037332091480493546,-0.03722599893808365
1772709126402000100,2.321000244140625,-0.01566886715590954,-0.019950728863477707,-0.03610391914844513
1772709126412025000,2.331025146484375,-0.010476235300302505,-0.005230637267231941,-0.022643502801656723
1772709126422050300,2.34105029296875,-0.005236044060438871,0.005269445013254881,-0.007175703998655081
1772709126432075300,2.3510751953125,-0.00385226565413177,0.015234461054205894,0.005227701738476753
1772709126442100200,2.361100341796875,-0.002504295203834772,0.006861708592623472,0.0014668300282210112
1772709126452125200,2.371125244140625,-0.0026936458889395,-0.0039009242318570614,-0.0064299749210476875
1772709126462150400,2.381150390625,-0.0006494114641100168,-0.002014047931879759,-0.0134090855717659
1772709126472175000,2.391175048828125,-0.001642770366743207,0.0061381543055176735,-0.006343185901641846
1772709126482200000,2.401199951171875,0.0007851216942071915,0.003929793834686279,0.0019363893661648035
1772709126492225300,2.411225341796875,-0.0008924033027142286,-0.001279348973184824,0.0038227064069360495
1772709126502250200,2.421250244140625,0.0004449926782399416,0.002935666125267744,-0.0003728042356669903
1772709126512275200,2.431275146484375,0.003770747920498252,0.00624997029080987,-0.004612556658685207
1772709126522300200,2.441300048828125,0.0024405336007475853,0.005590301472693682,-0.009908581152558327
1772709126532326100,2.451326171875,0.0063702939078211784,0.001958282198756933,-0.008813755586743355
1772709126542351400,2.461351318359375,0.002913597971200943,-0.002186617348343134,-0.002087390748783946
1772709126552376300,2.471376220703125,0.000780139584094286,0.014294886961579323,0.00486345961689949
1772709126562401300,2.4814013671875,0.00938053335994482,-0.0017845304682850838,0.0064345793798565865
1772709126572426200,2.49142626953125,0.004228382371366024,0.006600431632250547,0.00335756316781044
1772709126582451200,2.501451171875,0.004408007487654686,0.015361979603767395,0.004655839875340462
1772709126592476200,2.51147607421875,0.002045784378424287,0.006144778337329626,0.005133877042680979
1772709126602501000,2.521501220703125,0.0071712275967001915,-0.0038524281699210405,0.0012185939121991396
1772709126612526000,2.531526123046875,0.0066540418192744255,0.015041900798678398,0.002576273400336504
1772709126622551300,2.54155126953125,0.003502377076074481,0.02429937571287155,0.005255482159554958
1772709126632576300,2.551576171875,0.004986557178199291,0.012365483678877354,-0.0006982809863984585
1772709126642601200,2.561601318359375,0.0031699517276138067,-0.0011639264412224293,-0.007329396903514862
1772709126652626200,2.571626220703125,0.007461102679371834,0.0008179978467524052,-0.009561392478644848
1772709126662651400,2.5816513671875,0.0054571302607655525,0.01268282812088728,-0.002951935399323702
1772709126672676400,2.59167626953125,0.0028397757560014725,0.016241077333688736,-0.002128752414137125
1772709126682701000,2.601701171875,0.008154010400176048,0.006817492190748453,-0.002910200972110033
1772709126692726000,2.61172607421875,0.0064336080104112625,0.005050485488027334,-0.003929126542061567
1772709126702751200,2.621751220703125,0.008807945996522903,0.003273372072726488,-0.0027387079317122698
1772709126712776200,2.631776123046875,0.010421022772789001,-0.0011413502506911755,-0.0014007359277456999
1772709126722801200,2.64180126953125,0.013590634800493717,0.00005207257345318794,0.010271433740854263
1772709126732826000,2.651826171875,0.011430811136960983,0.0007820450700819492,0.018647074699401855
1772709126742851300,2.661851318359375,0.010328172706067562,-0.0014172368682920933,0.024241026490926743
1772709126752876300,2.671876220703125,0.007680191658437252,-0.007104417309165001,0.021437250077724457
1772709126762901200,2.6819013671875,0.006620082072913647,-0.012273063883185387,0.017444154247641563
1772709126772926200,2.69192626953125,0.0072757527232170105,-0.017622554674744606,0.010831791907548904
1772709126782951200,2.701951171875,0.00820985995233059,-0.017472367733716965,0.011552990414202213
1772709126792976100,2.71197607421875,0.0073693664744496346,-0.012269082479178905,0.0157778300344944
1772709126803001000,2.7220009765625,0.0060393838211894035,-0.0029355017468333244,0.014649979770183563
1772709126813026300,2.7320263671875,0.003047322388738394,-0.005566971376538277,0.009536711499094963
1772709126823051300,2.74205126953125,0.002756273141130805,-0.01516820304095745,0.0041536008939146996
1772709126833076200,2.752076171875,0.0005418548826128244,-0.01798183284699917,0.005028715822845697
1772709126843101200,2.76210107421875,0.0014771227724850178,-0.014400942251086235,0.0046194507740437984
1772709126853126400,2.77212646484375,0.0010928288102149963,-0.01021605171263218,0.006375805474817753
1772709126863151400,2.7821513671875,-0.00048114010132849216,-0.011183547787368298,0.00750954682007432
1772709126873176300,2.79217626953125,-0.00011415663175284863,-0.012776650488376617,0.008052565157413483
1772709126883201000,2.802200927734375,-0.0021925601176917553,-0.021768514066934586,0.009588774293661118
1772709126893226200,2.812226318359375,-0.0017411543522030115,-0.026322785764932632,0.01831861585378647
1772709126903251200,2.822251220703125,-0.0029778587631881237,-0.016010234132409096,0.028025180101394653
1772709126913276200,2.832276123046875,-0.006188033148646355,-0.011273268610239029,0.029175665229558945
1772709126923301000,2.842301025390625,-0.00679759681224823,-0.025696687400341034,0.022712375968694687
1772709126933326300,2.852326416015625,-0.006443662568926811,-0.03693016618490219,0.013223533518612385
1772709126943351300,2.862351318359375,-0.007196110673248768,-0.029946787282824516,0.007112538442015648
1772709126953376300,2.872376220703125,-0.00641154358163476,-0.021401237696409225,0.0030235210433602333
1772709126963401200,2.882401123046875,-0.008521201089024544,-0.014780493453145027,-0.001366415061056614
1772709126973426200,2.89242626953125,-0.011809672228991985,-0.01690356619656086,-0.007325503975152969
1772709126983451100,2.902451171875,-0.008764375001192093,-0.021496346220374107,-0.013735050335526466
1772709126993476000,2.91247607421875,-0.008072752505540848,-0.02414592355489731,-0.014513758942484856
1772709127003501000,2.9225009765625,-0.006786275655031204,-0.029407547786831856,-0.009444213472306728
1772709127013526300,2.9325263671875,-0.0032109820749610662,-0.0245512742549181,0.003664397867396474
1772709127023550700,2.94255078125,-0.0019341467414051294,-0.026846449822187424,0.023517068475484848
1772709127033575700,2.95257568359375,0.0045623681508004665,-0.01978800818324089,0.03926540166139603
1772709127043601000,2.962600830078125,0.012295505963265896,-0.028599008917808533,0.04548966884613037
1772709127053625900,2.9726259765625,0.016590917482972145,-0.021949095651507378,0.04837227612733841
1772709127063650800,2.98265087890625,0.01671609841287136,-0.013446209952235222,0.05088263005018234
1772709127073675800,2.99267578125,0.016193054616451263,-0.017246540635824203,0.04649187624454498
1772709127083701800,3.00270166015625,0.014670750126242638,-0.020798634737730026,0.04040499031543732
1772709127093726000,3.012725830078125,0.012376703321933746,-0.010561443865299225,0.03026047721505165
1772709127103752000,3.022751953125,0.01465769112110138,-0.006403129547834396,0.021432839334011078
1772709127113777000,3.03277685546875,0.013779647648334503,0.0035842573270201683,0.014904366806149483
1772709127123801900,3.0428017578125,0.011257734149694443,0.009437342174351215,0.011701459996402264
1772709127133826800,3.052826904296875,0.007420652080327272,0.014208928681910038,0.004817720968276262
1772709127143851800,3.062851806640625,0.004549939185380936,0.013526849448680878,-0.0030809680465608835
1772709127153876700,3.072876708984375,0.004826641641557217,0.004906195681542158,-0.007959346286952496
1772709127163901700,3.082901611328125,0.005189303308725357,0.0058310916647315025,-0.014919096603989601
1772709127173927000,3.092927001953125,0.008687631227076054,0.014461597427725792,-0.015438146889209747
1772709127183952000,3.102951904296875,-0.005067277699708939,0.03202734887599945,-0.003951612394303083
1772709127193976800,3.112976806640625,0.0032343280036002398,0.006523854099214077,-0.016123857349157333
1772709127204001800,3.123001708984375,0.0022601482924073935,-0.009367787279188633,-0.024184685200452805
1772709127214027000,3.133027099609375,-0.0038041360676288605,0.02306099236011505,-0.01680293306708336
1772709127224052000,3.143052001953125,-0.0014046018477529287,0.018262293189764023,-0.023699576035141945
1772709127234076700,3.15307666015625,-0.0018799761310219765,0.007750796619802713,-0.024600258097052574
1772709127244102000,3.163101806640625,-0.005179686937481165,0.009241560474038124,-0.011571594513952732
1772709127254126800,3.173126953125,-0.003159945597872138,-0.0005301111377775669,-0.011309539899230003
1772709127264151800,3.18315185546875,-0.004867366515100002,0.006803974974900484,-0.016242921352386475
1772709127274176800,3.1931767578125,-0.0033323203679174185,0.005089165177196264,-0.012310763821005821
1772709127284202000,3.203201904296875,-0.0019590300507843494,0.00015806639567017555,-0.0012358187232166529
1772709127294227000,3.21322705078125,-0.0024703568778932095,0.0020180181600153446,0.006379224359989166
1772709127304252000,3.223251953125,0.0005086211021989584,-0.0010547330603003502,0.00691804476082325
1772709127314276900,3.23327685546875,0.0033715192694216967,-0.0001780204474925995,0.006694871932268143
1772709127324302000,3.243302001953125,0.004235981963574886,-0.0024094833061099052,0.0032897540368139744
1772709127334326800,3.253326904296875,0.0035166617017239332,-0.0033583673648536205,0.0006673391908407211
1772709127344351700,3.263351806640625,0.004020095802843571,-0.000962571706622839,-0.0050072758458554745
1772709127354376700,3.273376708984375,0.005070446990430355,0.0033943597227334976,-0.01107262447476387
1772709127364402000,3.28340185546875,0.003592295339331031,0.0070332870818674564,-0.01564239151775837
1772709127374427000,3.293427001953125,0.004409086890518665,0.007107855286449194,-0.01709088496863842
1772709127384451800,3.303451904296875,0.0013670509215444326,0.008392075076699257,-0.01871992088854313
1772709127394476800,3.313476806640625,-0.00006812647916376591,0.004337146412581205,-0.02119852602481842
1772709127404502000,3.323501953125,-0.0001533101312816143,0.002917117904871702,-0.021901899948716164
1772709127414527000,3.33352685546875,-0.0017972795758396387,0.0035086064599454403,-0.0238055270165205
1772709127424551700,3.3435517578125,-0.0019469100516289473,0.011333209462463856,-0.02419598028063774
1772709127434576600,3.35357666015625,-0.0014622146263718605,0.009567533619701862,-0.021190069615840912
1772709127444601900,3.363601806640625,-0.003180451923981309,0.00510673550888896,-0.02091103419661522
1772709127454626800,3.373626708984375,-0.0025815069675445557,0.008871912956237793,-0.025711648166179657
1772709127464651800,3.38365185546875,-0.0029784541111439466,0.01430237852036953,-0.025380631908774376
1772709127474676700,3.3936767578125,0.0016208251472562551,0.020050544291734695,-0.018271323293447495
1772709127484702000,3.403701904296875,-0.0007122778333723545,0.019262291491031647,-0.007034361828118563
1772709127494727000,3.413726806640625,-0.0009738004300743341,0.007863963954150677,0.0001303402241319418
1772709127504751900,3.423751953125,-0.00009612343274056911,0.006211216561496258,0.0024152551777660847
1772709127514776800,3.43377685546875,0.0035795713774859905,0.016332026571035385,0.002492753090336919
1772709127524801800,3.4438017578125,0.004765050020068884,0.023938776925206184,0.005507557187229395
1772709127534826800,3.45382666015625,0.007131268735975027,0.02517528086900711,0.009968086145818233
1772709127544851700,3.463851806640625,0.006014706566929817,0.019149072468280792,0.0103513915091753
1772709127554877000,3.473876953125,0.007904485799372196,0.016639841720461845,0.008783855475485325
1772709127564902000,3.48390185546875,0.005452276207506657,0.0182833019644022,0.00804873090237379
1772709127574926800,3.4939267578125,0.007762568071484566,0.014722388237714767,0.007554714567959309
1772709127584951800,3.503951904296875,0.006666343659162521,0.013348471373319626,0.005230700597167015
1772709127594977000,3.51397705078125,0.005102535709738731,0.0035850564017891884,0.0034045709762722254
1772709127605002000,3.524001953125,0.004426261410117149,0.0171772800385952,0.00046918587759137154
1772709127615027000,3.53402685546875,0.0028715082444250584,0.0019570481963455677,-0.0008695852011442184
1772709127625051600,3.5440517578125,0.004009312018752098,0.009900449775159359,-0.00018347753211855888
1772709127635076900,3.554076904296875,0.0034617662895470858,0.012483715079724789,-0.0031931158155202866
1772709127645101800,3.564101806640625,0.0010869873221963644,0.010269327089190483,-0.009750316850841045
1772709127655126800,3.574126708984375,-0.0009234328754246235,0.014274988323450089,-0.011341288685798645
1772709127665151700,3.58415185546875,-0.0011753339786082506,0.011597709730267525,-0.01483541913330555
1772709127675177000,3.594177001953125,-0.0028584515675902367,0.006175513379275799,-0.018704460933804512
1772709127685202000,3.604201904296875,-0.0037867282517254353,0.0035461634397506714,-0.024729251861572266
1772709127695227000,3.614226806640625,-0.00708132516592741,0.007650627754628658,-0.026605982333421707
1772709127705251800,3.624251953125,-0.0064611793495714664,0.008339358493685722,-0.025300605222582817
1772709127715277000,3.634277099609375,-0.006355451885610819,0.005099356174468994,-0.029684968292713165
1772709127725301800,3.6443017578125,-0.005534430034458637,0.007295641582459211,-0.03292541205883026
1772709127735326700,3.65432666015625,0.004479321651160717,0.018242299556732178,-0.04146457090973854
1772709127745351700,3.6643515625,-0.0008000642992556095,0.038258105516433716,-0.028939079493284225
1772709127755377000,3.674376953125,-0.009390889666974545,0.0017477651126682758,-0.0033482317812740803
1772709127765401900,3.68440185546875,-0.006179582327604294,-0.021051563322544098,-0.0020098532550036907
1772709127775426800,3.6944267578125,-0.005465855356305838,0.0021408405154943466,-0.021540679037570953
1772709127785451800,3.70445166015625,0.00041277636773884296,0.032580215483903885,-0.028854427859187126
1772709127795477000,3.71447705078125,-0.000481512863188982,0.013326626271009445,-0.023200003430247307
1772709127805502000,3.724501953125,-0.0074578700587153435,-0.002028819639235735,-0.014400862157344818
1772709127815527000,3.73452685546875,-0.005594988819211721,-0.0024027274921536446,-0.004503756761550903
1772709127825552000,3.7445517578125,-0.0025906390510499477,0.006432252004742622,-0.006269971840083599
1772709127835576800,3.754576904296875,-0.00530999293550849,0.009345217607915401,-0.010529431514441967
1772709127845601800,3.764601806640625,-0.001962797250598669,-0.00039797136560082436,-0.010190131142735481
1772709127855626800,3.774626708984375,-0.0033835936337709427,-0.0024360883980989456,-0.008637508377432823
1772709127865652000,3.78465185546875,-0.006860020104795694,-0.005456625018268824,-0.004653573501855135
1772709127875677000,3.794677001953125,-0.006512211170047522,-0.005133051425218582,-0.005702060181647539
1772709127885702000,3.804701904296875,-0.0028579893987625837,-0.001055201981216669,-0.0122456643730402
1772709127895726800,3.814726806640625,-0.0007069541607052088,0.006410171277821064,-0.0025110116694122553
1772709127905752000,3.824751953125,-0.0005096138920634985,0.01237192377448082,-0.005419716238975525
1772709127915776800,3.83477685546875,0.0016874938737601042,0.008553216233849525,-0.011901050806045532
1772709127925803000,3.844802978515625,-0.0036137918941676617,-0.0033583305776119232,-0.004817813169211149
1772709127935827700,3.85482763671875,-0.00504976836964488,0.007814428769052029,-0.00953666865825653
1772709127945852700,3.864852783203125,-0.0015309026930481195,-0.0037242253310978413,-0.02004905417561531
1772709127955878000,3.8748779296875,0.0019495824817568064,0.005293238442391157,-0.020023223012685776
1772709127965902800,3.88490283203125,0.0008358797058463097,0.014744553714990616,-0.011899607256054878
1772709127975927800,3.894927734375,0.0003546467050909996,0.018886035308241844,-0.013333187438547611
1772709127985952800,3.904952880859375,0.0047530923038721085,0.005613349843770266,-0.018131844699382782
1772709127995978000,3.91497802734375,0.002853725804015994,0.003672438208013773,-0.011597514152526855
1772709128006003000,3.9250029296875,-0.0002590375952422619,0.0047975764609873295,-0.007245991379022598
1772709128016028000,3.93502783203125,0.003713865764439106,0.00612329738214612,-0.007602589204907417
1772709128026052600,3.945052490234375,0.0003395695239305496,0.008758796378970146,-0.005560912657529116
1772709128036077800,3.955077880859375,0.0033979439176619053,0.006120136007666588,-0.00585971912369132
1772709128046102800,3.965102783203125,0.0023192318622022867,0.012803059071302414,-0.008983059786260128
1772709128056127700,3.975127685546875,-0.0005865429993718863,0.006835180800408125,-0.010846473276615143
1772709128066152700,3.985152587890625,-0.0005098057445138693,0.005793056450784206,-0.005817394703626633
1772709128076178000,3.995177978515625,0.004264975897967815,0.004072121344506741,-0.004389940295368433
1772709128086203000,4.005202880859375,0.002926094690337777,0.003231985494494438,-0.00975504145026207
1772709128096227600,4.0152275390625,-0.0011267038062214851,0.011363149620592594,-0.007126234471797943
1772709128106252500,4.02525244140625,0.0010546257253736258,0.0037414273247122765,-0.0054818447679281235
1772709128116277800,4.03527783203125,0.0008106802124530077,-0.0016131242737174034,-0.009772197343409061
1772709128126302700,4.045302734375,-0.0009557274170219898,0.006477818358689547,-0.009089488536119461
1772709128136327700,4.05532763671875,0.0028006613720208406,0.0014236713759601116,-0.0035152260679751635
1772709128146352600,4.0653525390625,0.0004306458868086338,0.006891708355396986,-0.00007858523167669773
1772709128156377900,4.0753779296875,0.0021971208043396473,0.006999566685408354,-0.0014551731292158365
1772709128166402800,4.08540283203125,0.0007068193517625332,-0.0030890749767422676,-0.0030775144696235657
1772709128176427800,4.095427734375,-0.0015368936583399773,-0.01824246160686016,0.006774583365768194
1772709128186453000,4.105452880859375,-0.00046453624963760376,-0.021482747048139572,0.016044199466705322
1772709128196477700,4.115477783203125,0.0016950212884694338,-0.010381625965237617,0.011726150289177895
1772709128206502700,4.125502685546875,0.0046726977452635765,-0.014225872233510017,0.009895997121930122
1772709128216527600,4.135527587890625,0.0006270899903029203,-0.01279921643435955,0.014460921287536621
1772709128226552800,4.145552734375,-0.0045870146714150906,-0.023252107203006744,0.011594876646995544
1772709128236577800,4.155577880859375,-0.007648584432899952,-0.032519906759262085,0.00987980142235756
1772709128246602800,4.165602783203125,-0.009680510498583317,-0.034336693584918976,0.007839133031666279
1772709128256627700,4.175627685546875,-0.012103188782930374,-0.03490874171257019,0.0028382488526403904
1772709128266653000,4.18565283203125,-0.011535169556736946,-0.027481449767947197,0.00041057425551116467
1772709128276678000,4.195677978515625,-0.011427311226725578,-0.019303414970636368,-0.0034273071214556694
1772709128286702800,4.205702880859375,-0.008625532500445843,-0.004641660489141941,-0.00046905362978577614
1772709128296727600,4.2157275390625,-0.010200791992247105,-0.0027718553319573402,0.0035605754237622023
1772709128306752800,4.225752685546875,-0.008421202190220356,-0.013381335884332657,-0.0004337877035140991
1772709128316777700,4.23577783203125,-0.009039055556058884,-0.020844046026468277,0.0002192193642258644
1772709128326802700,4.245802734375,-0.008413244970142841,-0.016249317675828934,0.003722698660567403
1772709128336827600,4.25582763671875,-0.005041949450969696,-0.01331371534615755,0.007532617077231407
1772709128346852900,4.265852783203125,-0.0005977866239845753,-0.006939001381397247,0.0036642085760831833
1772709128356877800,4.2758779296875,0.0023197061382234097,-0.0002880231477320194,0.0008849336300045252
1772709128366902800,4.28590283203125,0.0065122744999825954,-0.0023830202408134937,0.00586552731692791
1772709128376927700,4.295927734375,0.008705653250217438,0.0012705703265964985,0.012980694882571697
1772709128386953000,4.305952880859375,0.004781628958880901,-0.004417769610881805,0.018400326371192932
1772709128396977700,4.315977783203125,0.0022622786927968264,-0.011578211560845375,0.019034959375858307
1772709128407002600,4.326002685546875,0.00001725996844470501,-0.00955895148217678,0.013004375621676445
1772709128417027600,4.336027587890625,-0.0010032635182142258,-0.006228934973478317,0.00650359969586134
1772709128427052800,4.346052734375,-0.0009451727382838726,-0.0038454090245068073,0.004938397090882063
1772709128437077800,4.356077880859375,-0.00335932825691998,-0.004256068728864193,0.003697630250826478
1772709128447102700,4.366102783203125,-0.004928199108690023,-0.008256109431385994,0.003277354873716831
1772709128457128000,4.3761279296875,-0.0059995888732373714,-0.008794334717094898,0.0019393827533349395
1772709128467153000,4.38615283203125,-0.00689417589455843,-0.007031877990812063,0.0022169756703078747
1772709128477177900,4.396177734375,-0.006752229295670986,-0.009284911677241325,0.00237037381157279
1772709128487202600,4.40620263671875,-0.0057162931188941,-0.010448443703353405,0.003900955431163311
1772709128497227800,4.416227783203125,-0.005958108231425285,-0.009915545582771301,0.0061547886580228806
1772709128507252700,4.426252685546875,-0.006320334039628506,-0.006496016401797533,0.0032069706358015537
1772709128517277700,4.436277587890625,-0.0057863700203597546,-0.0042144861072301865,0.00004686368629336357
1772709128527302700,4.446302734375,-0.006151349283754826,-0.0019537964835762978,-0.0029451269656419754
1772709128537327900,4.456327880859375,-0.00605467613786459,-0.0054960669949650764,-0.004265522584319115
1772709128547352800,4.466352783203125,-0.004314474295824766,-0.001955829095095396,-0.005403526592999697
1772709128557377800,4.476377685546875,-0.0031874245032668114,-0.0012088124640285969,-0.006953753065317869
1772709128567402800,4.48640283203125,-0.0037359686102718115,0.004547043703496456,-0.006812703795731068
1772709128577428000,4.496427978515625,-0.0031117238104343414,0.0001906449906527996,-0.0058068279176950455
1772709128587452700,4.50645263671875,-0.0031221723183989525,-0.0052108257077634335,-0.005357102956622839
1772709128597477600,4.5164775390625,-0.003314719069749117,-0.00836533959954977,-0.0048140850849449635
1772709128607502600,4.526502685546875,-0.003053266555070877,-0.005951416678726673,-0.001090621342882514
1772709128617527800,4.53652783203125,-0.004959024488925934,-0.006506951991468668,-0.0007774338591843843
1772709128627552800,4.546552734375,-0.006685853004455566,-0.011918438598513603,-0.002580386819317937
1772709128637577700,4.55657763671875,-0.006116203032433987,-0.02014946937561035,-0.002321527572348714
1772709128647602700,4.566602783203125,-0.009821721352636814,-0.018816638737916946,-0.0012223566882312298
1772709128657628000,4.5766279296875,-0.008134875446557999,-0.013686325401067734,-0.0007829349488019943
1772709128667652900,4.58665283203125,-0.007896159775555134,-0.014186955988407135,-0.0017336630262434483
1772709128677677800,4.596677734375,-0.005689996760338545,-0.012993060052394867,0.000011506490409374237
1772709128687702500,4.60670263671875,-0.007546414155513048,-0.012289781123399734,-0.0006495590787380934
1772709128697727700,4.616727783203125,-0.0069464039988815784,-0.015492764301598072,-0.00028310809284448624
1772709128707752700,4.626752685546875,-0.007950047962367535,-0.021696342155337334,0.0008291047997772694
1772709128717777700,4.636777587890625,-0.007321542128920555,-0.026819732040166855,0.0035748237278312445
1772709128727803000,4.646802978515625,-0.009298878721892834,-0.02991214580833912,0.008752092719078064
1772709128737827800,4.656827880859375,-0.0076357340440154076,-0.026524072512984276,0.010371561162173748
1772709128747852800,4.666852783203125,-0.006382585037499666,-0.020708726719021797,0.009523540735244751
1772709128757877800,4.676877685546875,-0.006437445990741253,-0.01802133023738861,0.008463868871331215
1772709128767903000,4.686903076171875,-0.006599000655114651,-0.012257222086191177,0.005310524255037308
1772709128777928000,4.696927978515625,-0.003748086513951421,-0.009804184548556805,0.0018625296652317047
1772709128787952600,4.70695263671875,-0.003629076760262251,-0.004437378607690334,-0.0015332039911299944
1772709128797977600,4.7169775390625,-0.0011534022632986307,0.002619198989123106,-0.005034994333982468
1772709128808002800,4.7270029296875,-0.00045039341785013676,0.006723908241838217,-0.003925899975001812
1772709128818027800,4.73702783203125,-0.0016389621887356043,0.0039028222672641277,-0.0006683212704956532
1772709128828052700,4.747052734375,-0.0014557377435266972,-0.0039428239688277245,0.0015383459394797683
1772709128838077700,4.75707763671875,-0.003629676066339016,-0.007772982120513916,-0.000720547279343009
1772709128848103000,4.76710302734375,-0.0017442574026063085,-0.006466984283179045,-0.0011570886708796024
1772709128858128000,4.7771279296875,-0.002689146902412176,-0.0003646169789135456,0.00014679506421089172
1772709128868152800,4.78715283203125,-0.0034385896287858486,0.0015112627297639847,0.004379210062325001
1772709128878177500,4.797177490234375,-0.0045272898860275745,-0.0055833980441093445,-0.00012312992475926876
1772709128888202800,4.80720263671875,-0.003888700157403946,-0.010439908131957054,-0.0040200985968112946
1772709128898227700,4.817227783203125,-0.0007751986850053072,-0.005749282892793417,-0.007461169734597206
1772709128908252700,4.827252685546875,-0.0004499610513448715,0.008991867303848267,-0.005518281366676092
1772709128918277600,4.837277587890625,0.0009460679721087217,0.006155600305646658,-0.001470009796321392
1772709128928302800,4.847302734375,-0.00044729793444275856,-0.0001792609691619873,-0.0009506936185061932
1772709128938327800,4.857327880859375,0.0003569766413420439,0.002622916828840971,-0.0024500531144440174
1772709128948352800,4.867352783203125,0.0032965417485684156,0.006697610951960087,-0.002825551200658083
1772709128958377700,4.877377685546875,0.003749545430764556,0.010100864805281162,-0.003085475880652666
1772709128968403000,4.88740283203125,0.00798982847481966,0.010053140111267567,-0.0007791228126734495
1772709128978427600,4.897427734375,0.008391966111958027,0.009794014506042004,0.003178867045789957
1772709128988452600,4.90745263671875,0.009462923742830753,0.008458428084850311,0.00804134365171194
1772709128998477800,4.917477783203125,0.008595266379415989,0.005167027935385704,0.011471495032310486
1772709129008502800,4.927502685546875,0.01050644926726818,0.0017379592172801495,0.012314967811107635
1772709129018527700,4.93752783203125,0.009696848690509796,0.003933202940970659,0.014074784703552723
1772709129028552700,4.947552734375,0.00946894846856594,0.005499428138136864,0.013930819928646088
1772709129038578000,4.957577880859375,0.010511043481528759,0.00535481795668602,0.015971865504980087
1772709129048603000,4.967602783203125,0.008297259919345379,-0.002458428032696247,0.015320589765906334
1772709129058627800,4.9776279296875,0.010397162288427353,-0.009141365066170692,0.015458274632692337
1772709129068652800,4.98765283203125,0.008640973828732967,-0.015449502505362034,0.020060589537024498
1772709129078678000,4.997677978515625,0.008374657481908798,-0.016617830842733383,0.023486213758587837
1772709129088703000,5.007702880859375,0.004956754855811596,-0.01025823038071394,0.025304380804300308
1772709129098728000,5.01772802734375,0.006049715913832188,-0.012023106217384338,0.021271023899316788
1772709129108752600,5.027752685546875,0.004657050594687462,-0.012050848454236984,0.016071978956460953
1772709129118777900,5.03777783203125,0.0037342647556215525,-0.00721135176718235,0.01039971224963665
1772709129128802800,5.047802734375,0.0042646657675504684,-0.0004985504783689976,0.009045923128724098
1772709129138827800,5.057827880859375,0.005135254003107548,0.0036794166080653667,0.006493017077445984
1772709129148852700,5.067852783203125,0.004488405771553516,0.0032069412991404533,0.005430380813777447
1772709129158878000,5.0778779296875,0.0020646625198423862,0.004330262541770935,0.0025930488482117653
1772709129168903000,5.08790283203125,0.0017438842914998531,-0.0005401126109063625,-0.000328985508531332
1772709129178927900,5.097927978515625,0.0023928964510560036,-0.001997660845518112,0.00016396562568843365
1772709129188952800,5.107952880859375,0.002419561380520463,-0.0003347862511873245,0.0024928366765379906
1772709129198978000,5.11797802734375,0.0034296985249966383,-0.003383040428161621,0.0055323028936982155
1772709129209002800,5.128002685546875,0.0002837397623807192,-0.00485736969858408,0.006618276238441467
1772709129219027700,5.13802783203125,0.002707748906686902,-0.005598793737590313,0.005925588309764862
1772709129229052700,5.148052734375,0.00398620031774044,-0.003244839608669281,0.004674182739108801
1772709129239078000,5.158077880859375,0.0037819354329258204,-0.005575638264417648,0.007545336615294218
1772709129249102800,5.168102783203125,0.0022528183180838823,-0.0034653828479349613,0.008671224117279053
1772709129259127800,5.1781279296875,0.0037327369209378958,0.0009597255848348141,0.006344153545796871
1772709129269152800,5.18815283203125,0.0048728021793067455,-0.00009514950215816498,0.008292052894830704
1772709129279178000,5.198177978515625,0.006056044716387987,0.0003413427621126175,0.01170009933412075
1772709129289203000,5.208202880859375,0.009309763088822365,-0.004570605233311653,0.01762564666569233
1772709129299228000,5.218227783203125,0.017497120425105095,-0.03162885457277298,0.026449766010046005
1772709129309252900,5.2282529296875,-0.002686384366825223,0.004633087664842606,0.019180724397301674
1772709129319277800,5.23827783203125,0.012903760187327862,-0.017977949231863022,0.011143302544951439
1772709129329302800,5.248302734375,0.003976612351834774,-0.00870133563876152,0.002926294459030032
1772709129339327700,5.25832763671875,0.0028279905673116446,0.014152315445244312,0.003988629672676325
1772709129349353000,5.26835302734375,0.0033018344547599554,0.014877166599035263,-0.003026207210496068
1772709129359378000,5.2783779296875,0.0051716398447752,0.021072212606668472,-0.012086015194654465
1772709129369403000,5.28840283203125,0.004425225779414177,0.030669942498207092,-0.02035868912935257
1772709129379427800,5.298427734375,0.00645908247679472,0.035496123135089874,-0.0211938563734293
1772709129389453000,5.308453125,0.007632665801793337,0.034574225544929504,-0.01695006713271141
1772709129399478000,5.31847802734375,0.004551388788968325,0.016604013741016388,-0.011143045499920845
1772709129409502700,5.328502685546875,0.00443627405911684,-0.00020191166549921036,-0.0016939677298069
1772709129419527700,5.338527587890625,0.001488421345129609,-0.008817237801849842,0.005879529751837254
1772709129429553000,5.348552978515625,0.0029718719888478518,-0.016543900594115257,0.009308784268796444
1772709129439577900,5.358577880859375,0.002361208898946643,-0.023690760135650635,0.013612719252705574
1772709129449602800,5.368602783203125,0.000843769172206521,-0.024652615189552307,0.015111932530999184
1772709129459627800,5.378627685546875,0.0003912977408617735,-0.021017933264374733,0.012554232031106949
1772709129469653000,5.388653076171875,0.002016694052144885,-0.014484461396932602,0.010421501472592354
1772709129479678000,5.398677978515625,0.001215615076944232,0.0007067420519888401,0.0028125843964517117
1772709129489703000,5.408702880859375,0.001736427191644907,0.007253388408571482,-0.001370309153571725
1772709129499727600,5.4187275390625,0.001222170889377594,0.003851200919598341,0.0006731343455612659
1772709129509752800,5.4287529296875,0.002075417898595333,0.0028990423306822777,-0.000892390962690115
1772709129519777800,5.43877783203125,0.0018077702261507511,0.0019594794139266014,-0.0007991804741322994
1772709129529802800,5.448802734375,0.0015176828019320965,-0.00289862509816885,0.0014635391999036074
1772709129539827700,5.45882763671875,-0.0007638474926352501,-0.009573305025696754,0.0020536957308650017
1772709129549853000,5.46885302734375,0.00040138582699000835,-0.01417765486985445,0.0033936090767383575
1772709129559878000,5.4788779296875,-0.0013283372391015291,-0.008100587874650955,0.0023049088194966316
1772709129569902800,5.48890283203125,-0.0006979333702474833,-0.0001302831806242466,-0.0010201104450970888
1772709129579927800,5.498927734375,-0.0005786239635199308,0.0033707083202898502,-0.00283292424865067
1772709129589953000,5.508953125,-0.0006879451684653759,0.004505468066781759,-0.004879016429185867
1772709129599977700,5.518977783203125,0.0015107605140656233,0.007765709888190031,-0.0036797956563532352
1772709129610002700,5.529002685546875,0.0022710240446031094,0.011203352361917496,-0.004548687022179365
1772709129620028000,5.53902783203125,0.00015061511658132076,0.010428372770547867,-0.0042022098787128925
1772709129630052900,5.549052978515625,-0.0019161304226145148,0.004328387789428234,-0.004815788008272648
1772709129640077800,5.559077880859375,0.0004950955044478178,0.00011340342462062836,-0.0022058901377022266
1772709129650102800,5.569102783203125,-0.001327040372416377,-0.00501421932131052,0.0016032009152695537
1772709129660128000,5.5791279296875,-0.0029587591998279095,-0.006090935785323381,0.0039981817826628685
1772709129670153000,5.589153076171875,-0.0004603120032697916,-0.006691253278404474,0.003504207357764244
1772709129680178000,5.599177978515625,-0.0011535328812897205,-0.0060579534620046616,0.0044264597818255424
1772709129693334800,5.612334716796875,0.0014451490715146065,-0.00020008813589811325,0.0013559268554672599
1772709129703359700,5.62235986328125,0.0002542168367654085,0.00006409408524632454,-0.0021728246938437223
1772709129713385000,5.632385009765625,0.0010547630954533815,0.00021056830883026123,-0.0006992977578192949
1772709129723410000,5.642409912109375,0.0015059334691613913,0.002909972332417965,-0.002799824345856905
1772709129733435000,5.652434814453125,0.0014745078515261412,0.0014087483286857605,-0.0003161600325256586
1772709129743459800,5.6624599609375,0.0031938753090798855,0.0029467735439538956,-0.0021195055451244116
1772709129753484800,5.67248486328125,0.0028465990908443928,0.005260794423520565,-0.002849744400009513
1772709129763509800,5.682509765625,0.005007589235901833,0.003516919445246458,-0.001403542933985591
1772709129773534700,5.69253466796875,0.002881321357563138,-0.0016248454339802265,0.0015903827734291553
1772709129783559700,5.7025595703125,0.005432596430182457,-0.007089115679264069,0.002870893571525812
1772709129793585000,5.7125849609375,0.004119125194847584,-0.009305665269494057,0.0019571632146835327
1772709129803609900,5.72260986328125,0.006007939577102661,-0.008031885139644146,0.0026206334587186575
1772709129813634800,5.732634765625,0.0028880469035357237,-0.0012584012001752853,0.00453917495906353
1772709129823659800,5.74265966796875,0.00463821180164814,0.0017504184506833553,0.00615799892693758
1772709129833685000,5.75268505859375,0.0021545474883168936,0.001169848721474409,0.00025243894197046757
1772709129843710000,5.7627099609375,0.002848397009074688,-0.0012107067741453648,-0.0035468055866658688
1772709129853734700,5.772734619140625,0.0030342857353389263,0.003322791773825884,-0.004634440876543522
1772709129863760000,5.782759765625,0.0018701220396906137,0.008079420775175095,-0.0026725109200924635
1772709129873784800,5.792784912109375,0.000697798328474164,0.009105535224080086,-0.004848047159612179
1772709129883809800,5.802809814453125,0.0035627575125545263,0.007922859862446785,-0.006997120101004839
1772709129893834800,5.812834716796875,0.002346758032217622,0.014081951230764389,-0.007078613620251417
1772709129903860000,5.82285986328125,0.004982953891158104,0.007846967317163944,-0.004239024594426155
1772709129913885000,5.832885009765625,0.002080374862998724,0.005572094582021236,0.00017756177112460136
1772709129923910000,5.842909912109375,0.0010595538187772036,-0.000005120877176523209,0.0007773966062813997
1772709129933934800,5.852934814453125,0.0006976302247494459,0.000051870476454496384,-0.0020082700066268444
1772709129943960000,5.8629599609375,0.0013970073778182268,0.0026626186445355415,-0.0011220886372029781
1772709129953984800,5.87298486328125,0.0012185752857476473,0.0025049587711691856,0.002265451941639185
1772709129964009700,5.883009765625,0.0011984726879745722,0.004876169841736555,0.0010556483175605536
1772709129974034700,5.89303466796875,0.0021923647727817297,0.007820028811693192,-0.0010035077575594187
1772709129984060000,5.903059814453125,0.0013863907661288977,0.004696417134255171,-0.001808924600481987
1772709129994084900,5.9130849609375,0.001569350017234683,0.0032670986838638783,-0.004921360872685909
1772709130004109800,5.92310986328125,-0.00006733043119311333,0.0011381846852600574,-0.0017787825781852007
1772709130014134800,5.933134765625,0.0014930155593901873,0.0032218419946730137,-0.0025324567686766386
1772709130024160000,5.943159912109375,-0.0005981330759823322,0.004431746434420347,-0.00108605925925076
1772709130034185200,5.953185302734375,0.0012825913727283478,0.00027455203235149384,-0.00044423737563192844
1772709130053609200,5.972609130859375,0.0001675332896411419,-0.0011359397321939468,0.0012911631492897868
1772709130063634200,5.98263427734375,-0.0009230312425643206,-0.0009069079533219337,0.002857368206605315
1772709130073659100,5.9926591796875,-0.0008138145785778761,-0.004557518288493156,0.003969650715589523
1772709130083684000,6.00268408203125,-0.00009822309948503971,-0.005815595388412476,0.0034844228066504
1772709130093709300,6.012709228515625,0.001219879137352109,-0.0003191344439983368,0.0023364396765828133
1772709130103734000,6.022734130859375,0.0009506337810307741,0.006318794097751379,-0.0008934421930462122
1772709130113759000,6.032759033203125,0.001286491984501481,0.008897529914975166,-0.002430947497487068
1772709130123784200,6.0427841796875,-0.0003566781524568796,0.00744211208075285,-0.00037844921462237835
1772709130133809200,6.05280908203125,-0.00017914967611432076,0.008665340021252632,-0.00029732869006693363
1772709130143834000,6.062834228515625,0.00025095068849623203,0.005925745237618685,0.0005069458857178688
1772709130153859000,6.072859130859375,0.000774627085775137,0.0017166361212730408,-0.00032098195515573025
1772709130163884300,6.08288427734375,-0.00006240443326532841,0.0007323324680328369,-0.0008296456653624773
1772709130173909200,6.0929091796875,0.0008360883221030235,-0.003466747933998704,0.0008848423603922129
1772709130183934200,6.102934326171875,0.0006589880213141441,-0.00396049814298749,0.0028225581627339125
1772709130193959200,6.112959228515625,0.0003359729889780283,-0.010038847103714943,0.005651514045894146
1772709130203984100,6.122984130859375,0.0007144084665924311,-0.013951562345027924,0.005852849222719669
1772709130214009000,6.133009033203125,-0.00026953150518238544,-0.013349405489861965,0.006644389592111111
1772709130224034000,6.143033935546875,-0.000895374221727252,-0.011515285819768906,0.006235593929886818
1772709130234059000,6.15305908203125,-0.0006853800732642412,-0.009701713919639587,0.006155742332339287
1772709130244084200,6.163084228515625,0.0004019886255264282,-0.006811119150370359,0.005568248685449362
1772709130254109200,6.173109130859375,-0.0012973407283425331,-0.005150907672941685,0.002880523446947336
1772709130264134100,6.183134033203125,-0.0004022521898150444,-0.0023037223145365715,0.0004426657687872648
1772709130274159000,6.1931591796875,-0.0006935005076229572,0.0012561152689158916,-0.0004139957018196583
1772709130284184300,6.203184326171875,-0.00022798008285462856,-0.0002810615114867687,-0.0025626339484006166
1772709130294209300,6.213209228515625,-0.000884287292137742,0.0004135281778872013,-0.0030900458805263042
1772709130304234000,6.22323388671875,0.0011698089074343443,0.002944330219179392,-0.0030397120863199234
1772709130314259000,6.233259033203125,0.0007643068674951792,0.004940945655107498,0.003342574695125222
1772709130324284200,6.2432841796875,0.0019422227051109076,0.004961452446877956,0.002398750511929393
1772709130334309000,6.25330908203125,0.0003042207099497318,-0.0031980322673916817,-0.0011545433662831783
1772709130344334000,6.263333984375,-0.0011802250519394875,-0.0019125244580209255,0.0003655890468508005
1772709130354359000,6.273359130859375,0.0024085494223982096,0.0012217597104609013,0.0013780453009530902
1772709130364384300,6.28338427734375,0.0014977485407143831,0.00440237345173955,-0.0010952323209494352
1772709130374409200,6.2934091796875,0.0023916338104754686,0.00581575371325016,-0.004945939406752586
1772709130384434200,6.30343408203125,0.001163383712992072,0.010437402874231339,-0.006823201663792133
1772709130394459100,6.313459228515625,0.0053945197723805904,0.01678074151277542,-0.007624301128089428
1772709130404484000,6.323484130859375,0.004945244174450636,0.012323942966759205,-0.006839733570814133
1772709130414509000,6.333509033203125,0.0036307466216385365,0.004175703972578049,-0.0026149293407797813
1772709130424534000,6.343533935546875,0.002596374601125717,-0.002852111589163542,0.0017055169446393847
1772709130434559200,6.353559326171875,0.0005632056854665279,-0.004919431637972593,0.0028363987803459167
1772709130444584200,6.363584228515625,0.0025717616081237793,-0.0014128475449979305,0.0036334828473627567
1772709130454609200,6.373609130859375,-0.0006520566530525684,0.00005583837628364563,0.0030211384873837233
1772709130464634000,6.383634033203125,-0.0025176010094583035,-0.002358050551265478,0.0008141768630594015
1772709130474660000,6.39366015625,-0.0011053562629967928,-0.0017615258693695068,-0.002304825698956847
1772709130484684300,6.403684326171875,-0.002402848331257701,0.003830046858638525,-0.004519776441156864
1772709130494710300,6.413710205078125,-0.0019307376351207495,0.011487173847854137,-0.005115133244544268
1772709130504735200,6.4237353515625,-0.0007189994212239981,0.01445526722818613,-0.0067266128025949
1772709130514760000,6.433760009765625,-0.003247234970331192,0.014132475480437279,-0.007239053957164288
1772709130524785200,6.44378515625,-0.0007193624041974545,0.01318279281258583,-0.008100852370262146
1772709130534810000,6.45381005859375,-0.0017762065399438143,0.011739635840058327,-0.00786763709038496
1772709130544835000,6.4638349609375,-0.001432924997061491,0.008232519030570984,-0.007071085274219513
1772709130554860000,6.473860107421875,-0.0017359292833134532,0.00305348914116621,-0.00164504861459136
1772709130564885200,6.48388525390625,-0.0012728055007755756,0.0016119200736284256,-0.0004524851683527231
1772709130574910200,6.49391015625,-0.0007094794418662786,0.0003690160810947418,-0.0014084202703088522
1772709130584935200,6.50393505859375,-0.0017217469867318869,0.00027660420164465904,-0.0024142961483448744
1772709130594960100,6.513960205078125,-0.00214948458597064,0.0010217595845460892,-0.005074197892099619
1772709130604985300,6.5239853515625,-0.0016453482676297426,0.0011466620489954948,-0.004174848552793264
1772709130615010000,6.534010009765625,-0.0013207383453845978,0.0035789040848612785,-0.005899952724575996
1772709130625035000,6.544034912109375,-0.0016025006771087646,0.002701925113797188,-0.005072775296866894
1772709130635060000,6.55406005859375,-0.0018034385284408927,0.004809830337762833,-0.0041492050513625145
1772709130645085200,6.564085205078125,-0.0021368663292378187,0.0034484220668673515,-0.003772101365029812
1772709130655110100,6.574110107421875,-0.0016272047068923712,0.00386255094781518,-0.004464130848646164
1772709130665135000,6.584135009765625,-0.002055174671113491,0.006312125828117132,-0.007757129147648811
1772709130675160000,6.59416015625,-0.0015202471986413002,0.011306362226605415,-0.006604324094951153
1772709130685185300,6.604185302734375,-0.000912513816729188,0.007042641285806894,-0.006821105256676674
1772709130695210200,6.614210205078125,-0.0023473910987377167,0.0033805258572101593,-0.0033665159717202187
1772709130705235200,6.624235107421875,-0.0007817186415195465,-0.00017159897834062576,-0.0021124333143234253
1772709130715260000,6.634260009765625,-0.0011411732994019985,-0.0014731194823980331,-0.001927707577124238
1772709130725285000,6.64428515625,-0.0015662137884646654,0.0006076083518564701,-0.0013695091474801302
1772709130735310000,6.65431005859375,-0.0017614280804991722,-0.0025503411889076233,-0.003015371738001704
1772709130745335000,6.6643349609375,-0.0026549187023192644,-0.0014416673220694065,-0.003066237783059478
1772709130755360000,6.674360107421875,-0.0027909723576158285,-0.00010582897812128067,-0.0026766806840896606
1772709130765385200,6.68438525390625,-0.002818935550749302,-0.00006454996764659882,-0.0016942406073212624
1772709130775410200,6.69441015625,-0.0038404855877161026,0.00042384304106235504,-0.0037190760485827923
1772709130785435100,6.70443505859375,-0.003681761212646961,-0.0015966971404850483,-0.0024788416922092438
1772709130795460400,6.71446044921875,-0.0014943424612283707,0.0003676610067486763,-0.00265548680908978
1772709130805485300,6.7244853515625,-0.002500484697520733,0.0009013586677610874,-0.002111669396981597
1772709130815510000,6.734510009765625,-0.0011112866923213005,-0.001940190326422453,-0.001968637341633439
1772709130825535000,6.744534912109375,-0.001987466588616371,-0.005659295246005058,-0.002010449068620801
1772709130835560200,6.754560302734375,-0.002186531899496913,-0.007460963912308216,-0.0023760581389069557
1772709130845585200,6.764585205078125,-0.001519676297903061,-0.0032907198183238506,0.002790207974612713
1772709130855610000,6.774610107421875,-0.0036513791419565678,-0.014807229861617088,0.010254913941025734
1772709130865635000,6.784635009765625,-0.0030969090294092894,-0.019766569137573242,0.004728322383016348
1772709130875660300,6.794660400390625,-0.0011384175159037113,-0.01145513541996479,-0.004796710796654224
1772709130885685200,6.804685302734375,-0.0014630567748099566,-0.0024051815271377563,-0.002852071076631546
1772709130895710200,6.814710205078125,-0.0024823411367833614,0.0012795240618288517,0.0014377288753166795
1772709130905735000,6.82473486328125,-0.002902587875723839,-0.004120834171772003,-0.00047788280062377453
1772709130915760000,6.834760009765625,-0.0011010835878551006,-0.004188252612948418,-0.005088304169476032
1772709130925785000,6.84478515625,-0.00007097283378243446,-0.00639734510332346,0.0024881227873265743
1772709130935810000,6.85481005859375,-0.0021347645670175552,0.0012654056772589684,0.0004435081500560045
1772709130945835000,6.8648349609375,0.0005121512804180384,-0.006996518932282925,0.005456908605992794
1772709130955860200,6.874860107421875,0.001787129556760192,0.0009283167310059071,0.0038501517847180367
1772709130965885200,6.88488525390625,0.0015628912951797247,0.00006385473534464836,0.0007433081045746803
1772709130975910100,6.89491015625,0.0011799659114331007,-0.008889456279575825,0.004275158047676086
1772709130985935000,6.90493505859375,-0.0010376484133303165,-0.002426230814307928,0.0035928564611822367
1772709130995960300,6.914960205078125,0.0011538034304976463,-0.01882067136466503,0.005888922140002251
1772709131005985000,6.924985107421875,-0.005948580801486969,-0.009781901724636555,0.0035506663843989372
1772709131016010000,6.935010009765625,-0.0010261530987918377,-0.009511629119515419,0.0000354002695530653
1772709131026035000,6.945034912109375,-0.0018440097337588668,-0.002480350900441408,-0.00376493064686656
1772709131036060700,6.955060791015625,-0.0010143390391021967,0.002822551876306534,-0.0032668709754943848
1772709131046085400,6.96508544921875,-0.0006348385941237211,0.000026765745133161545,-0.0004186204168945551
1772709131056110300,6.9751103515625,-0.0010334458202123642,0.003457442857325077,-0.0009532428812235594
1772709131066135300,6.98513525390625,-0.0002270406112074852,0.007340332493185997,-0.005270759575068951
1772709131076160500,6.995160400390625,0.0014384728856384754,0.011013340204954147,-0.005505291745066643
1772709131086185500,7.005185546875,0.000756171066313982,0.016416095197200775,-0.006102372892200947
1772709131096210400,7.01521044921875,0.0013306373730301857,0.006566444877535105,-0.004652402363717556
1772709131106235400,7.0252353515625,-0.0025178969372063875,-0.00012927455827593803,-0.0014323743525892496
1772709131116260600,7.035260498046875,-0.0005301134660840034,-0.0037775388918817043,0.0017900507664307952
1772709131126285600,7.04528564453125,-0.002748792991042137,-0.0061128647066652775,0.0033727672416716814
1772709131136310500,7.055310546875,-0.0024993601255118847,-0.015188614837825298,0.0018312238389626145
1772709131146335500,7.06533544921875,-0.004106311593204737,-0.014967305585741997,0.002969725290313363
1772709131156360400,7.0753603515625,-0.021008232608437538,-0.02137426845729351,0.059682801365852356
1772709131166385400,7.085385498046875,-0.01277480460703373,-0.003975836560130119,0.058950163424015045
1772709131176410400,7.095410400390625,-0.002337465062737465,-0.0072646960616111755,0.0006720700766891241
1772709131186435600,7.105435546875,0.0003888129722326994,0.010538537055253983,-0.00085685052908957
1772709131196460500,7.11546044921875,0.00013340753503143787,0.018279867246747017,0.001755386940203607
1772709131206485500,7.125485595703125,-0.000847967341542244,0.020359262824058533,-0.0016934068407863379
1772709131216510500,7.135510498046875,0.0010036688763648272,0.023647688329219818,0.0007717981934547424
1772709131226535700,7.14553564453125,-0.002239795168861747,0.018824968487024307,-0.011342122219502926
1772709131236560600,7.155560546875,0.002147222636267543,0.0029187602922320366,-0.02941811829805374
1772709131246585300,7.16558544921875,0.005675111897289753,0.003036205656826496,-0.03537774085998535
1772709131256610300,7.1756103515625,0.010297868400812149,0.021873218938708305,-0.04232433810830116
1772709131266635500,7.185635498046875,0.0009632224682718515,0.023561131209135056,-0.051132477819919586
1772709131276660500,7.195660400390625,-0.004660177510231733,-0.026157408952713013,-0.015639210119843483
1772709131286685400,7.205685546875,-0.0049139768816530704,-0.03509045019745827,0.021159283816814423
