time,seconds_elapsed,z,y,x
1772709191535474400,0.052474365234375,-0.977630615234375,0.0592193603515625,-0.041748046875
1772709191545499600,0.062499755859375,-0.9837188720703125,0.0587615966796875,-0.0361328125
1772709191555524600,0.072524658203125,-1.0003662109375,0.0652618408203125,-0.035186767578125
1772709191565549600,0.082549560546875,-1.004364013671875,0.067962646484375,-0.03997802734375
1772709191575574500,0.092574462890625,-0.99908447265625,0.065887451171875,-0.040557861328125
1772709191585599500,0.102599609375,-0.992919921875,0.0641937255859375,-0.0395965576171875
1772709191595624400,0.11262451171875,-0.9900665283203125,0.06634521484375,-0.0359344482421875
1772709191605649400,0.1226494140625,-0.991851806640625,0.0682525634765625,-0.0349578857421875
1772709191615674400,0.13267431640625,-0.991607666015625,0.0683746337890625,-0.0352630615234375
1772709191625698600,0.142698486328125,-0.99053955078125,0.0643463134765625,-0.0356292724609375
1772709191635723500,0.1527236328125,-0.9906158447265625,0.06231689453125,-0.03564453125
1772709191645748700,0.162748779296875,-0.991851806640625,0.060272216796875,-0.03662109375
1772709191655773700,0.172773681640625,-0.9939422607421875,0.061798095703125,-0.0372161865234375
1772709191665798400,0.18279833984375,-0.9956512451171875,0.0656890869140625,-0.039825439453125
1772709191675823400,0.1928232421875,-0.99871826171875,0.0659942626953125,-0.038299560546875
1772709191685848600,0.2028486328125,-0.9949798583984375,0.06591796875,-0.035186767578125
1772709191695873500,0.21287353515625,-0.9933929443359375,0.06610107421875,-0.0343780517578125
1772709191705898500,0.2228984375,-0.99688720703125,0.065826416015625,-0.03955078125
1772709191715922700,0.232922607421875,-0.998260498046875,0.0666656494140625,-0.043670654296875
1772709191725947600,0.24294775390625,-0.997344970703125,0.0663299560546875,-0.037567138671875
1772709191735972400,0.252972412109375,-0.990692138671875,0.0635986328125,-0.034942626953125
1772709191745997300,0.262997314453125,-0.9850006103515625,0.06207275390625,-0.03369140625
1772709191756022500,0.2730224609375,-0.9865875244140625,0.0641021728515625,-0.0361480712890625
1772709191766047500,0.283047607421875,-0.99432373046875,0.0650482177734375,-0.0387725830078125
1772709191776072400,0.293072509765625,-1.003265380859375,0.0707855224609375,-0.036346435546875
1772709191786097400,0.303097412109375,-1.0168304443359375,0.0722503662109375,-0.0393524169921875
1772709191796122600,0.31312255859375,-1.00927734375,0.054840087890625,-0.0418548583984375
1772709191806146600,0.323146484375,-0.9876251220703125,0.058685302734375,-0.0353240966796875
1772709191816171500,0.333171630859375,-0.989013671875,0.0572052001953125,-0.0407257080078125
1772709191826196500,0.343196533203125,-0.9903564453125,0.0646514892578125,-0.0355377197265625
1772709191836221400,0.353221435546875,-0.9981536865234375,0.0710601806640625,-0.0339202880859375
1772709191846246400,0.363246337890625,-1.011993408203125,0.0705718994140625,-0.033966064453125
1772709191856271600,0.373271728515625,-1.0157928466796875,0.06475830078125,-0.0358123779296875
1772709191866296600,0.383296630859375,-1.00860595703125,0.06231689453125,-0.0314483642578125
1772709191876321500,0.393321533203125,-0.99774169921875,0.0695648193359375,-0.024688720703125
1772709191886345700,0.403345703125,-0.996246337890625,0.080841064453125,-0.0187530517578125
1772709191896370400,0.413370361328125,-1.00311279296875,0.0915679931640625,-0.009979248046875
1772709191906395400,0.4233955078125,-1.011505126953125,0.0886077880859375,-0.00701904296875
1772709191916420400,0.43342041015625,-1.0164947509765625,0.0797271728515625,-0.005706787109375
1772709191926445600,0.443445556640625,-1.012725830078125,0.0767974853515625,-0.002105712890625
1772709191936470500,0.453470458984375,-1.0005035400390625,0.072784423828125,0.0044708251953125
1772709191946495500,0.46349560546875,-0.98309326171875,0.0693817138671875,0.009002685546875
1772709191956520400,0.4735205078125,-0.9695587158203125,0.06134033203125,0.01202392578125
1772709191966545700,0.483545654296875,-0.9564971923828125,0.061248779296875,0.012420654296875
1772709191976569300,0.4935693359375,-0.9487457275390625,0.05963134765625,0.0130615234375
1772709191986594600,0.503594482421875,-0.9412689208984375,0.06829833984375,0.0280914306640625
1772709191996619500,0.51361962890625,-0.940277099609375,0.0843353271484375,0.0368499755859375
1772709192006644500,0.52364453125,-0.97119140625,0.0909881591796875,0.0267333984375
1772709192016669400,0.53366943359375,-1.0032501220703125,0.0906982421875,0.02130126953125
1772709192026694700,0.543694580078125,-1.0040435791015625,0.0904541015625,0.032958984375
1772709192036719600,0.5537197265625,-0.989227294921875,0.0887603759765625,0.0257415771484375
1772709192046744600,0.56374462890625,-0.972991943359375,0.0860748291015625,0.0073089599609375
1772709192056769500,0.57376953125,-0.9814300537109375,0.0767822265625,-0.0062713623046875
1772709192066793500,0.58379345703125,-1.0052032470703125,0.0650787353515625,-0.0177001953125
1772709192076818400,0.593818359375,-1.01837158203125,0.064300537109375,-0.012054443359375
1772709192086843400,0.603843505859375,-1.01580810546875,0.0741119384765625,0.0012664794921875
1772709192096868900,0.613868896484375,-1.00433349609375,0.07666015625,-0.002410888671875
1772709192106894000,0.62389404296875,-0.9988861083984375,0.0695343017578125,-0.0148468017578125
1772709192116919000,0.6339189453125,-1.0014495849609375,0.069244384765625,-0.0192413330078125
1772709192126944000,0.643944091796875,-1.0065460205078125,0.0761566162109375,-0.0176544189453125
1772709192136969200,0.65396923828125,-1.00567626953125,0.0819549560546875,-0.0146331787109375
1772709192146994200,0.663994140625,-0.9996795654296875,0.082000732421875,-0.0108184814453125
1772709192157017900,0.674017822265625,-0.9975128173828125,0.0758056640625,-0.0091094970703125
1772709192167043000,0.68404296875,-0.998748779296875,0.0724639892578125,-0.012176513671875
1772709192177068000,0.694068115234375,-1.002044677734375,0.073211669921875,-0.010223388671875
1772709192187093000,0.704093017578125,-1.0052032470703125,0.0738525390625,-0.009613037109375
1772709192197118000,0.714117919921875,-0.99908447265625,0.068511962890625,-0.0123291015625
1772709192207143200,0.72414306640625,-0.982421875,0.0592498779296875,-0.0137481689453125
1772709192217168100,0.734168212890625,-0.9757537841796875,0.0652618408203125,-0.0072021484375
1772709192227193000,0.744193115234375,-0.983001708984375,0.070770263671875,-0.0071868896484375
1772709192237217800,0.7542177734375,-0.9951019287109375,0.069671630859375,-0.0131683349609375
1772709192247242000,0.764241943359375,-0.9989776611328125,0.0706939697265625,-0.0123443603515625
1772709192257267000,0.774266845703125,-1.0003814697265625,0.0741729736328125,-0.01116943359375
1772709192267292000,0.7842919921875,-0.998748779296875,0.074493408203125,-0.015869140625
1772709192277317000,0.794317138671875,-0.9974365234375,0.0687255859375,-0.0167999267578125
1772709192287342000,0.804342041015625,-0.996826171875,0.0683135986328125,-0.0155792236328125
1772709192297367000,0.814366943359375,-0.9962615966796875,0.0686798095703125,-0.01690673828125
1772709192307392000,0.82439208984375,-0.9932861328125,0.0706787109375,-0.016998291015625
1772709192317417000,0.8344169921875,-0.9897918701171875,0.0748443603515625,-0.015289306640625
1772709192327442000,0.84444189453125,-0.98699951171875,0.0765228271484375,-0.0146484375
1772709192337467000,0.854466796875,-0.9879608154296875,0.0735015869140625,-0.0159759521484375
1772709192347491000,0.864490966796875,-0.9915924072265625,0.0724945068359375,-0.018463134765625
1772709192357516000,0.87451611328125,-0.9946136474609375,0.0717315673828125,-0.022186279296875
1772709192367541000,0.884541015625,-0.9975738525390625,0.0757598876953125,-0.018768310546875
1772709192377566200,0.894566162109375,-0.9969024658203125,0.077789306640625,-0.0189666748046875
1772709192387591200,0.904591064453125,-0.9972076416015625,0.0748291015625,-0.0207672119140625
1772709192397615900,0.914615966796875,-0.9964752197265625,0.072174072265625,-0.021392822265625
1772709192407640800,0.924640869140625,-0.99432373046875,0.0707244873046875,-0.022735595703125
1772709192417666000,0.934666015625,-0.992431640625,0.067779541015625,-0.02056884765625
1772709192427691000,0.94469091796875,-0.9876861572265625,0.0654296875,-0.018524169921875
1772709192437715000,0.95471484375,-0.9881134033203125,0.0638885498046875,-0.0232391357421875
1772709192447740200,0.964740234375,-0.990020751953125,0.0630950927734375,-0.0276031494140625
1772709192457765000,0.97476513671875,-0.993804931640625,0.0657196044921875,-0.026947021484375
1772709192467790000,0.9847900390625,-0.9956512451171875,0.07110595703125,-0.025787353515625
1772709192477815000,0.99481494140625,-0.9998016357421875,0.075897216796875,-0.023681640625
1772709192487840000,1.004840087890625,-1.000244140625,0.0780029296875,-0.0261993408203125
1772709192497865000,1.014864990234375,-0.9988250732421875,0.0765228271484375,-0.0286102294921875
1772709192507890000,1.024889892578125,-0.996429443359375,0.07470703125,-0.0279693603515625
1772709192517914000,1.0349140625,-0.9925994873046875,0.07586669921875,-0.0262603759765625
1772709192527939000,1.04493896484375,-0.99310302734375,0.07525634765625,-0.02777099609375
1772709192537964000,1.054964111328125,-0.992095947265625,0.0768890380859375,-0.027557373046875
1772709192547989200,1.0649892578125,-0.9930267333984375,0.0769195556640625,-0.0294952392578125
1772709192558014000,1.075013916015625,-0.9905242919921875,0.0753021240234375,-0.0305633544921875
1772709192568039000,1.085038818359375,-0.9882965087890625,0.0784454345703125,-0.0276031494140625
1772709192578064000,1.09506396484375,-0.9908599853515625,0.0820465087890625,-0.027435302734375
1772709192588089000,1.105089111328125,-0.995697021484375,0.07843017578125,-0.0304412841796875
1772709192598114000,1.115114013671875,-1.0014495849609375,0.0764923095703125,-0.02960205078125
1772709192608139000,1.125138916015625,-1.0006561279296875,0.070220947265625,-0.032562255859375
1772709192618163200,1.1351630859375,-0.997955322265625,0.0674285888671875,-0.033843994140625
1772709192628188200,1.145188232421875,-0.9949493408203125,0.0644683837890625,-0.0327301025390625
1772709192638212900,1.155212890625,-0.9925689697265625,0.0631103515625,-0.033050537109375
1772709192648237800,1.16523779296875,-0.9939727783203125,0.0658416748046875,-0.0337982177734375
1772709192658263000,1.175262939453125,-0.999603271484375,0.0634002685546875,-0.0343170166015625
1772709192668288000,1.1852880859375,-1.0022430419921875,0.063995361328125,-0.033294677734375
1772709192678313000,1.19531298828125,-0.9986114501953125,0.0667724609375,-0.0333709716796875
1772709192688338000,1.205337890625,-0.998504638671875,0.0667572021484375,-0.033905029296875
1772709192698363100,1.215363037109375,-0.99603271484375,0.0646209716796875,-0.0348663330078125
1772709192708387000,1.225386962890625,-0.9943084716796875,0.066680908203125,-0.0361175537109375
1772709192718412000,1.235412109375,-0.99371337890625,0.065277099609375,-0.034881591796875
1772709192728437000,1.24543701171875,-0.993194580078125,0.0662078857421875,-0.0346832275390625
1772709192738462000,1.2554619140625,-0.989410400390625,0.0673065185546875,-0.031707763671875
1772709192748487000,1.26548681640625,-0.9911651611328125,0.067657470703125,-0.0293731689453125
1772709192758512000,1.27551220703125,-0.992767333984375,0.063812255859375,-0.030029296875
1772709192768537000,1.285537109375,-0.9915771484375,0.0640411376953125,-0.0296630859375
1772709192778562000,1.29556201171875,-0.99224853515625,0.0659942626953125,-0.0323638916015625
1772709192788587000,1.3055869140625,-0.9942626953125,0.066192626953125,-0.0338897705078125
1772709192798611000,1.31561083984375,-0.9946441650390625,0.064422607421875,-0.031829833984375
1772709192808636000,1.325635986328125,-0.9935302734375,0.06915283203125,-0.03302001953125
1772709192818660900,1.335660888671875,-0.994354248046875,0.0712890625,-0.033050537109375
1772709192828686000,1.34568603515625,-0.995025634765625,0.069854736328125,-0.0347900390625
1772709192838711000,1.3557109375,-0.99810791015625,0.0666961669921875,-0.0370635986328125
1772709192848736000,1.365736083984375,-0.996368408203125,0.068756103515625,-0.0352783203125
1772709192858761000,1.375760986328125,-0.9953155517578125,0.0667877197265625,-0.037750244140625
1772709192868786200,1.3857861328125,-0.9938507080078125,0.0670623779296875,-0.0366668701171875
1772709192878811100,1.39581103515625,-0.9942474365234375,0.068359375,-0.036712646484375
1772709192888835800,1.4058359375,-0.9964141845703125,0.0664520263671875,-0.03765869140625
1772709192898860000,1.415860107421875,-0.9976654052734375,0.067108154296875,-0.038055419921875
1772709192908885000,1.425885009765625,-0.9967193603515625,0.0654449462890625,-0.0396575927734375
1772709192918910000,1.435909912109375,-0.9936676025390625,0.062835693359375,-0.0374755859375
1772709192928935200,1.44593505859375,-0.9910736083984375,0.0627899169921875,-0.03460693359375
1772709192938960100,1.455960205078125,-0.991302490234375,0.0681304931640625,-0.035430908203125
1772709192948985000,1.465985107421875,-0.9925384521484375,0.0757293701171875,-0.036651611328125
1772709192959010000,1.476010009765625,-0.9972686767578125,0.07550048828125,-0.036712646484375
1772709192969035000,1.486034912109375,-0.9966583251953125,0.0709381103515625,-0.0381927490234375
1772709192979060000,1.49606005859375,-0.9952239990234375,0.0675048828125,-0.0385894775390625
1772709192989084000,1.506083984375,-0.993408203125,0.067352294921875,-0.033935546875
1772709192999109000,1.516109130859375,-0.99481201171875,0.069122314453125,-0.031951904296875
1772709193009134000,1.526134033203125,-0.9930572509765625,0.0723114013671875,-0.0337982177734375
1772709193019159000,1.536158935546875,-0.992584228515625,0.07379150390625,-0.03802490234375
1772709193029184000,1.54618408203125,-0.9945068359375,0.074737548828125,-0.0382843017578125
1772709193039209200,1.556209228515625,-0.9957122802734375,0.072174072265625,-0.03668212890625
1772709193049234000,1.56623388671875,-0.9946136474609375,0.0696868896484375,-0.0381011962890625
1772709193059259000,1.5762587890625,-0.993743896484375,0.0667724609375,-0.039398193359375
1772709193069283800,1.586283935546875,-0.994140625,0.0675201416015625,-0.040985107421875
1772709193079308000,1.59630810546875,-0.9969024658203125,0.0649566650390625,-0.04351806640625
1772709193089333000,1.6063330078125,-0.9957122802734375,0.0652313232421875,-0.040374755859375
1772709193099357400,1.616357421875,-0.994903564453125,0.06292724609375,-0.0406951904296875
1772709193109382400,1.62638232421875,-0.994873046875,0.06329345703125,-0.0379180908203125
1772709193119407400,1.636407470703125,-0.9932861328125,0.0654296875,-0.03533935546875
1772709193129432300,1.646432373046875,-0.9904022216796875,0.06201171875,-0.0357818603515625
1772709193139457500,1.65645751953125,-0.990631103515625,0.05865478515625,-0.0366973876953125
1772709193149482500,1.666482421875,-0.9926910400390625,0.05877685546875,-0.037353515625
1772709193159507500,1.676507568359375,-0.9945068359375,0.0600433349609375,-0.0360565185546875
1772709193169531400,1.686531494140625,-0.9937896728515625,0.0634613037109375,-0.0363311767578125
1772709193179556400,1.696556396484375,-0.9940338134765625,0.06488037109375,-0.0401763916015625
1772709193189581300,1.706581298828125,-0.9933013916015625,0.0655670166015625,-0.0394134521484375
1772709193199606500,1.7166064453125,-0.99176025390625,0.0709228515625,-0.0353240966796875
1772709193209631500,1.726631591796875,-0.9933013916015625,0.0731964111328125,-0.0350494384765625
1772709193219656400,1.736656494140625,-0.995147705078125,0.0754547119140625,-0.034515380859375
1772709193229681400,1.746681396484375,-0.9933929443359375,0.0735015869140625,-0.03851318359375
1772709193239706600,1.75670654296875,-0.99346923828125,0.068511962890625,-0.0367584228515625
1772709193249731600,1.766731689453125,-0.9911346435546875,0.0676422119140625,-0.0365142822265625
1772709193259755300,1.77675537109375,-0.989898681640625,0.0716400146484375,-0.03558349609375
1772709193269780500,1.786780517578125,-0.994384765625,0.072479248046875,-0.034423828125
1772709193279805400,1.796805419921875,-0.9962158203125,0.0723419189453125,-0.0389556884765625
1772709193289830400,1.806830322265625,-0.99859619140625,0.0722198486328125,-0.0408477783203125
1772709193299855400,1.81685546875,-0.9991302490234375,0.0718841552734375,-0.0410003662109375
1772709193309880600,1.826880615234375,-0.9977569580078125,0.073089599609375,-0.038421630859375
1772709193319905500,1.836905517578125,-0.997161865234375,0.0712432861328125,-0.0379638671875
1772709193329930500,1.846930419921875,-0.9967041015625,0.0724334716796875,-0.04095458984375
1772709193339955500,1.85695556640625,-0.996673583984375,0.073516845703125,-0.03753662109375
1772709193349979400,1.8669794921875,-0.99713134765625,0.07293701171875,-0.0401153564453125
1772709193360004400,1.87700439453125,-0.9940032958984375,0.0733795166015625,-0.041168212890625
1772709193370029600,1.887029541015625,-0.99127197265625,0.0760040283203125,-0.039764404296875
1772709193380054500,1.897054443359375,-0.99371337890625,0.0783538818359375,-0.03997802734375
1772709193390079500,1.90707958984375,-0.9941864013671875,0.0762786865234375,-0.036102294921875
1772709193400104400,1.9171044921875,-0.9935760498046875,0.072296142578125,-0.037506103515625
1772709193410129700,1.927129638671875,-0.9891357421875,0.0740203857421875,-0.043060302734375
1772709193420154400,1.937154296875,-0.9883880615234375,0.0759429931640625,-0.040863037109375
1772709193430179300,1.947179443359375,-0.992950439453125,0.0727691650390625,-0.0394287109375
1772709193440203500,1.95720361328125,-0.9928436279296875,0.0779876708984375,-0.038177490234375
1772709193450228500,1.967228515625,-0.9930419921875,0.089508056640625,-0.0323944091796875
1772709193460253400,1.97725341796875,-0.9986114501953125,0.0994873046875,-0.033203125
1772709193470278400,1.9872783203125,-1.0022125244140625,0.0976715087890625,-0.0428924560546875
1772709193480303600,1.9973037109375,-0.9983673095703125,0.0837249755859375,-0.0494232177734375
1772709193490328600,2.00732861328125,-0.985870361328125,0.0758514404296875,-0.048004150390625
1772709193500353300,2.017353271484375,-0.9785003662109375,0.073883056640625,-0.0431976318359375
1772709193510378200,2.027378173828125,-0.9921722412109375,0.0743865966796875,-0.0398406982421875
1772709193520403500,2.037403564453125,-1.00177001953125,0.0814056396484375,-0.0426788330078125
1772709193530427400,2.047427490234375,-1.0030059814453125,0.0865325927734375,-0.049072265625
1772709193540452600,2.05745263671875,-0.9950103759765625,0.089263916015625,-0.045989990234375
1772709193550477600,2.0674775390625,-0.9870452880859375,0.087158203125,-0.0394439697265625
1772709193560502500,2.07750244140625,-0.990936279296875,0.0755462646484375,-0.0428466796875
1772709193570527500,2.087527587890625,-0.9969940185546875,0.067718505859375,-0.042388916015625
1772709193580552400,2.097552490234375,-0.9962005615234375,0.0760955810546875,-0.040252685546875
1772709193590577400,2.107577392578125,-0.995452880859375,0.080810546875,-0.04376220703125
1772709193600602400,2.117602294921875,-0.9964447021484375,0.0745849609375,-0.0407562255859375
1772709193610627300,2.12762744140625,-0.9914398193359375,0.072845458984375,-0.0400848388671875
1772709193620651500,2.137651611328125,-0.986663818359375,0.073974609375,-0.0416259765625
1772709193630676500,2.147676513671875,-0.989013671875,0.073577880859375,-0.0445098876953125
1772709193640701400,2.157701416015625,-0.992340087890625,0.0719451904296875,-0.044830322265625
1772709193650726700,2.1677265625,-0.994415283203125,0.070220947265625,-0.0411834716796875
1772709193660751400,2.17775146484375,-0.9944915771484375,0.067718505859375,-0.0369110107421875
1772709193670776300,2.1877763671875,-0.994232177734375,0.0698394775390625,-0.0359039306640625
1772709193680801300,2.19780126953125,-0.99249267578125,0.0750732421875,-0.0381927490234375
1772709193690826500,2.207826416015625,-0.9962005615234375,0.072845458984375,-0.039794921875
1772709193700850400,2.217850341796875,-0.9932708740234375,0.0692291259765625,-0.0381927490234375
1772709193710875400,2.22787548828125,-0.992034912109375,0.072509765625,-0.02978515625
1772709193720900600,2.237900634765625,-0.99365234375,0.0760345458984375,-0.0319976806640625
1772709193730925300,2.24792529296875,-0.9974365234375,0.071990966796875,-0.0361785888671875
1772709193740950300,2.2579501953125,-0.9945526123046875,0.0715179443359375,-0.03729248046875
1772709193750975500,2.2679755859375,-0.991973876953125,0.074951171875,-0.0352020263671875
1772709193761000400,2.27800048828125,-0.9931488037109375,0.076904296875,-0.03253173828125
1772709193771025400,2.288025390625,-0.9971771240234375,0.077911376953125,-0.033172607421875
1772709193781049600,2.298049560546875,-0.9980316162109375,0.079132080078125,-0.035675048828125
1772709193791074600,2.308074462890625,-0.998046875,0.0781097412109375,-0.03985595703125
1772709193801099500,2.318099609375,-0.99853515625,0.0743255615234375,-0.038116455078125
1772709193811124200,2.328124267578125,-0.992156982421875,0.074249267578125,-0.0390777587890625
1772709193821149400,2.3381494140625,-0.9890594482421875,0.0735626220703125,-0.040740966796875
1772709193831174400,2.34817431640625,-0.9907379150390625,0.0751800537109375,-0.043121337890625
1772709193841199400,2.358199462890625,-0.99127197265625,0.0938873291015625,-0.0399322509765625
1772709193851224300,2.368224365234375,-0.9972991943359375,0.1046142578125,-0.038604736328125
1772709193861249500,2.37824951171875,-0.999969482421875,0.0931854248046875,-0.0445709228515625
1772709193871273500,2.3882734375,-0.989837646484375,0.075286865234375,-0.0493316650390625
1772709193881298400,2.39829833984375,-0.9790191650390625,0.0593719482421875,-0.0478668212890625
1772709193891323400,2.408323486328125,-0.981231689453125,0.0448150634765625,-0.0466461181640625
1772709193901348400,2.418348388671875,-0.9860992431640625,0.0365142822265625,-0.0517730712890625
1772709193911373300,2.428373291015625,-0.994140625,0.044342041015625,-0.0571441650390625
1772709193921398500,2.4383984375,-1.004058837890625,0.0682525634765625,-0.0559234619140625
1772709193931423500,2.448423583984375,-1.0122833251953125,0.08770751953125,-0.0558624267578125
1772709193941448400,2.458448486328125,-1.0176849365234375,0.0769195556640625,-0.05810546875
1772709193951473400,2.468473388671875,-1.003692626953125,0.0600128173828125,-0.0536651611328125
1772709193961497600,2.47849755859375,-0.983001708984375,0.064727783203125,-0.049224853515625
1772709193971522300,2.488522216796875,-0.9851837158203125,0.0718536376953125,-0.0452880859375
1772709193981547300,2.49854736328125,-1.001678466796875,0.0704193115234375,-0.0478668212890625
1772709193991572500,2.508572509765625,-1.0052032470703125,0.0725860595703125,-0.0419158935546875
1772709194001597400,2.518597412109375,-1.0009613037109375,0.0749969482421875,-0.0304412841796875
1772709194011622400,2.528622314453125,-0.994659423828125,0.075927734375,-0.0283203125
1772709194021647400,2.5386474609375,-0.9873046875,0.077178955078125,-0.03570556640625
1772709194031672600,2.548672607421875,-0.9813690185546875,0.08331298828125,-0.0369720458984375
1772709194041696500,2.558696533203125,-0.9855804443359375,0.085296630859375,-0.0347137451171875
1772709194051721200,2.56872119140625,-0.99224853515625,0.0820465087890625,-0.0358123779296875
1772709194061746400,2.578746337890625,-0.995880126953125,0.0827178955078125,-0.0367584228515625
1772709194071771400,2.588771484375,-0.9945068359375,0.0874786376953125,-0.039398193359375
1772709194081796400,2.59879638671875,-0.9921417236328125,0.083831787109375,-0.04351806640625
1772709194091821300,2.6088212890625,-0.9937286376953125,0.0774688720703125,-0.043426513671875
1772709194101846800,2.6188466796875,-0.9929046630859375,0.0687103271484375,-0.0431060791015625
1772709194111871700,2.628871826171875,-0.9887847900390625,0.067718505859375,-0.0435943603515625
1772709194121895400,2.6388955078125,-0.9899749755859375,0.068511962890625,-0.04083251953125
1772709194131920600,2.648920654296875,-0.9969024658203125,0.0663604736328125,-0.04254150390625
1772709194141945600,2.658945556640625,-1.00262451171875,0.058685302734375,-0.0403594970703125
1772709194151970600,2.668970458984375,-0.9983367919921875,0.0578765869140625,-0.036041259765625
1772709194161995800,2.678995849609375,-0.9918365478515625,0.066131591796875,-0.031402587890625
1772709194172020700,2.689020751953125,-0.9864044189453125,0.0789031982421875,-0.031402587890625
1772709194182045700,2.699045654296875,-0.986419677734375,0.08624267578125,-0.0369720458984375
1772709194192070700,2.709070556640625,-0.989532470703125,0.0756988525390625,-0.0428314208984375
1772709194202095900,2.719095947265625,-0.9906158447265625,0.0535736083984375,-0.0417327880859375
1772709194212119600,2.72911962890625,-0.9894256591796875,0.042999267578125,-0.034912109375
1772709194222144500,2.73914453125,-0.9887542724609375,0.05816650390625,-0.0345001220703125
1772709194232169700,2.749169677734375,-0.9951324462890625,0.07659912109375,-0.044525146484375
1772709194242194700,2.759194580078125,-1.002349853515625,0.08544921875,-0.0572357177734375
1772709194252219600,2.7692197265625,-0.9987335205078125,0.0741119384765625,-0.05926513671875
1772709194262244600,2.77924462890625,-0.991485595703125,0.055938720703125,-0.0537872314453125
1772709194272269800,2.789269775390625,-0.98724365234375,0.0435028076171875,-0.0419921875
1772709194282294800,2.799294677734375,-0.98779296875,0.0431671142578125,-0.0351409912109375
1772709194292318500,2.809318359375,-0.994842529296875,0.0534210205078125,-0.0363616943359375
1772709194302343700,2.81934375,-1.001617431640625,0.0600433349609375,-0.0418548583984375
1772709194312368600,2.82936865234375,-1.0041656494140625,0.06365966796875,-0.0473480224609375
1772709194322393600,2.8393935546875,-1.0017852783203125,0.062103271484375,-0.049224853515625
1772709194332418600,2.84941845703125,-0.9944305419921875,0.0666656494140625,-0.0443572998046875
1772709194342443800,2.85944384765625,-0.9939422607421875,0.0806732177734375,-0.039276123046875
1772709194352468700,2.86946875,-0.9999847412109375,0.0927886962890625,-0.041412353515625
1772709194362493700,2.87949365234375,-1.004913330078125,0.0902099609375,-0.0421142578125
1772709194372518700,2.8895185546875,-1.001739501953125,0.08056640625,-0.037841796875
1772709194382542600,2.89954248046875,-0.9885711669921875,0.082794189453125,-0.0373382568359375
1772709194392567600,2.909567626953125,-0.9869384765625,0.079376220703125,-0.0369110107421875
1772709194402592800,2.9195927734375,-0.9924774169921875,0.0738525390625,-0.0419769287109375
1772709194412617700,2.92961767578125,-0.9923095703125,0.0738677978515625,-0.043304443359375
1772709194422642700,2.939642578125,-0.989013671875,0.0721893310546875,-0.044403076171875
1772709194432667600,2.949667724609375,-0.9935760498046875,0.06512451171875,-0.04498291015625
1772709194442692900,2.95969287109375,-0.9969024658203125,0.0607452392578125,-0.0440673828125
1772709194452717600,2.969717529296875,-0.994964599609375,0.0557403564453125,-0.0437469482421875
1772709194462741500,2.979741455078125,-0.9913177490234375,0.049957275390625,-0.0430450439453125
1772709194472766700,2.9897666015625,-0.9899749755859375,0.048004150390625,-0.042388916015625
1772709194482791700,2.999791748046875,-0.989959716796875,0.04730224609375,-0.04327392578125
1772709194492816600,3.009816650390625,-0.9929351806640625,0.053253173828125,-0.041900634765625
1772709194502841600,3.019841552734375,-0.9953155517578125,0.058258056640625,-0.0413360595703125
1772709194512866800,3.02986669921875,-0.9993438720703125,0.05877685546875,-0.04510498046875
1772709194522891800,3.039891845703125,-0.996612548828125,0.058685302734375,-0.0406951904296875
1772709194532916500,3.04991650390625,-0.99493408203125,0.0586395263671875,-0.038604736328125
1772709194542940700,3.059940673828125,-0.9963226318359375,0.0567169189453125,-0.03717041015625
1772709194552965600,3.069965576171875,-0.9947967529296875,0.05902099609375,-0.037811279296875
1772709194562990600,3.079990478515625,-0.99652099609375,0.062286376953125,-0.0384979248046875
1772709194573015800,3.090015869140625,-0.99749755859375,0.062286376953125,-0.0385589599609375
1772709194583040800,3.100040771484375,-1.0013275146484375,0.059722900390625,-0.0393829345703125
1772709194593065700,3.110065673828125,-0.9954986572265625,0.0604705810546875,-0.0405731201171875
1772709194603090700,3.120090576171875,-0.9901275634765625,0.0646820068359375,-0.042022705078125
1772709194613115600,3.13011572265625,-0.9903564453125,0.0651092529296875,-0.042694091796875
1772709194623139600,3.1401396484375,-0.9959259033203125,0.063140869140625,-0.04693603515625
1772709194633164500,3.15016455078125,-0.996307373046875,0.0620269775390625,-0.0461273193359375
1772709194643189800,3.160189697265625,-0.9931488037109375,0.0657958984375,-0.0438690185546875
1772709194653214700,3.170214599609375,-0.993927001953125,0.0628509521484375,-0.04412841796875
1772709194663239700,3.18023974609375,-0.996002197265625,0.0623626708984375,-0.0465240478515625
1772709194673264600,3.1902646484375,-0.992523193359375,0.06243896484375,-0.0474700927734375
1772709194683289900,3.200289794921875,-0.991180419921875,0.0597991943359375,-0.047271728515625
1772709194693314600,3.210314453125,-0.988983154296875,0.059478759765625,-0.046722412109375
1772709194703338500,3.22033837890625,-0.9929656982421875,0.0631866455078125,-0.0491790771484375
1772709194713363700,3.23036376953125,-0.997314453125,0.061553955078125,-0.0466156005859375
1772709194723388700,3.240388671875,-0.997161865234375,0.058197021484375,-0.046722412109375
1772709194733413600,3.25041357421875,-0.9936676025390625,0.05902099609375,-0.04718017578125
1772709194743438800,3.26043896484375,-0.9961700439453125,0.0592803955078125,-0.0451202392578125
1772709194753463800,3.2704638671875,-0.99530029296875,0.0617523193359375,-0.04351806640625
1772709194763488500,3.280488525390625,-0.9937896728515625,0.06219482421875,-0.046722412109375
1772709194773513500,3.290513427734375,-0.995330810546875,0.0571746826171875,-0.043853759765625
1772709194783538700,3.30053857421875,-0.992340087890625,0.0558319091796875,-0.044525146484375
1772709194793562600,3.310562744140625,-0.99169921875,0.0574188232421875,-0.0408782958984375
1772709194803587600,3.320587646484375,-0.9963836669921875,0.0604095458984375,-0.0446014404296875
1772709194813612800,3.33061279296875,-0.9942474365234375,0.06500244140625,-0.050506591796875
1772709194823637800,3.3406376953125,-0.995849609375,0.0614013671875,-0.04876708984375
1772709194833662700,3.350662841796875,-0.993743896484375,0.056396484375,-0.0488128662109375
1772709194843687400,3.3606875,-0.9931488037109375,0.0570831298828125,-0.0455322265625
1772709194853712600,3.370712646484375,-0.993499755859375,0.0612945556640625,-0.0377044677734375
1772709194863736600,3.380736572265625,-0.994232177734375,0.0655975341796875,-0.0394134521484375
1772709194873761500,3.390761474609375,-0.9976654052734375,0.06793212890625,-0.0419158935546875
1772709194883786800,3.400786865234375,-0.996734619140625,0.0684967041015625,-0.0438690185546875
1772709194893811700,3.410811767578125,-0.996795654296875,0.0654449462890625,-0.0451202392578125
1772709194903836700,3.420836669921875,-0.9952239990234375,0.058746337890625,-0.043426513671875
1772709194913861600,3.430861572265625,-0.9933013916015625,0.0622711181640625,-0.03753662109375
1772709194923886600,3.440886474609375,-0.994476318359375,0.064544677734375,-0.0373687744140625
1772709194933911600,3.45091162109375,-0.9969024658203125,0.0595855712890625,-0.0456085205078125
1772709194943936500,3.4609365234375,-0.99603271484375,0.059600830078125,-0.045745849609375
1772709194953960700,3.470960693359375,-0.993499755859375,0.0614776611328125,-0.04156494140625
1772709194963985700,3.480985595703125,-0.9911651611328125,0.0637359619140625,-0.0435028076171875
1772709194974010600,3.4910107421875,-0.9944610595703125,0.060150146484375,-0.0452728271484375
1772709194984035800,3.501035888671875,-0.994171142578125,0.05914306640625,-0.045318603515625
1772709194994060800,3.511060791015625,-0.994598388671875,0.0625152587890625,-0.0473480224609375
1772709195004085500,3.52108544921875,-0.995513916015625,0.06170654296875,-0.0430908203125
1772709195014110500,3.5311103515625,-0.993316650390625,0.0611724853515625,-0.0431976318359375
1772709195024135700,3.5411357421875,-0.9947509765625,0.0603179931640625,-0.046142578125
1772709195034159600,3.55115966796875,-0.9965667724609375,0.050506591796875,-0.0491943359375
1772709195044184600,3.5611845703125,-0.994293212890625,0.048614501953125,-0.046783447265625
1772709195054209800,3.571209716796875,-0.99151611328125,0.0541534423828125,-0.0456390380859375
1772709195064234800,3.58123486328125,-0.99517822265625,0.059234619140625,-0.04547119140625
1772709195074259700,3.591259765625,-0.9978790283203125,0.0602569580078125,-0.0431060791015625
1772709195084284400,3.601284423828125,-0.9964599609375,0.05963134765625,-0.044158935546875
1772709195094310100,3.61131005859375,-0.9944610595703125,0.0543365478515625,-0.0498046875
1772709195104334000,3.621333984375,-0.9928436279296875,0.0514373779296875,-0.047454833984375
1772709195114359000,3.631359130859375,-0.9938507080078125,0.0504302978515625,-0.0446624755859375
1772709195124384000,3.641384033203125,-0.9942626953125,0.050201416015625,-0.0498046875
1772709195134409000,3.651408935546875,-0.9973907470703125,0.0513916015625,-0.0484771728515625
1772709195144434000,3.661433837890625,-0.998291015625,0.051300048828125,-0.0458831787109375
1772709195154459000,3.671458984375,-0.9926910400390625,0.052490234375,-0.0435333251953125
1772709195164484000,3.681484130859375,-0.990753173828125,0.0571441650390625,-0.043365478515625
1772709195174509000,3.691509033203125,-0.9962921142578125,0.0549774169921875,-0.0428619384765625
1772709195184533000,3.701532958984375,-0.9940643310546875,0.0572357177734375,-0.045318603515625
1772709195194558000,3.711557861328125,-0.9950408935546875,0.0521240234375,-0.0438385009765625
1772709195204583000,3.7215830078125,-0.9936065673828125,0.05047607421875,-0.0449066162109375
1772709195214608000,3.73160791015625,-0.9934844970703125,0.0567169189453125,-0.0442657470703125
1772709195224633000,3.741633056640625,-0.9969482421875,0.06134033203125,-0.0440826416015625
1772709195234658000,3.751657958984375,-0.9970703125,0.0622100830078125,-0.0447540283203125
1772709195244683000,3.76168310546875,-0.9960784912109375,0.0593719482421875,-0.0419158935546875
1772709195254708000,3.7717080078125,-0.9959564208984375,0.0548858642578125,-0.0406951904296875
1772709195264733200,3.781733154296875,-0.9942474365234375,0.0501708984375,-0.04156494140625
1772709195274756900,3.7917568359375,-0.9906768798828125,0.0514373779296875,-0.0424041748046875
1772709195284781800,3.80178173828125,-0.9903564453125,0.0552825927734375,-0.0438690185546875
1772709195294807000,3.81180712890625,-0.9930419921875,0.0598602294921875,-0.04351806640625
1772709195304832000,3.82183203125,-0.9978790283203125,0.06011962890625,-0.0444488525390625
1772709195314857000,3.83185693359375,-0.9971923828125,0.0587310791015625,-0.048126220703125
1772709195324882000,3.8418818359375,-0.995361328125,0.0559234619140625,-0.0509185791015625
1772709195334907100,3.8519072265625,-0.9958343505859375,0.048248291015625,-0.05487060546875
1772709195344931000,3.86193115234375,-0.992950439453125,0.0392913818359375,-0.05084228515625
1772709195354956000,3.8719560546875,-0.987030029296875,0.045196533203125,-0.04656982421875
1772709195364981000,3.88198095703125,-0.989044189453125,0.050872802734375,-0.04510498046875
1772709195375006000,3.892005859375,-0.99639892578125,0.05084228515625,-0.0488128662109375
1772709195385031000,3.902031005859375,-0.999603271484375,0.046478271484375,-0.0570526123046875
1772709195395056000,3.91205615234375,-0.9994354248046875,0.042999267578125,-0.059783935546875
1772709195405081000,3.9220810546875,-0.9963531494140625,0.0430908203125,-0.0577545166015625
1772709195415106000,3.93210595703125,-0.99017333984375,0.0497589111328125,-0.05474853515625
1772709195425130200,3.942130126953125,-0.991485595703125,0.0549774169921875,-0.0514068603515625
1772709195435155000,3.952155029296875,-0.995025634765625,0.058868408203125,-0.0491790771484375
1772709195445180000,3.962179931640625,-0.999267578125,0.0572967529296875,-0.0455780029296875
1772709195455204900,3.972204833984375,-0.9994659423828125,0.0521697998046875,-0.0458984375
1772709195465230000,3.98222998046875,-0.9978179931640625,0.0501708984375,-0.045562744140625
1772709195475255000,3.992255126953125,-1.003082275390625,0.05096435546875,-0.0521697998046875
1772709195485280000,4.002280029296875,-1.0057373046875,0.0562286376953125,-0.0607147216796875
1772709195495305000,4.012304931640625,-1.0061798095703125,0.0618438720703125,-0.0595855712890625
1772709195505329200,4.0223291015625,-0.9994049072265625,0.0598602294921875,-0.0547637939453125
1772709195515353900,4.032353759765625,-0.988616943359375,0.0543060302734375,-0.0509490966796875
1772709195525378800,4.04237890625,-0.9806671142578125,0.0536651611328125,-0.047332763671875
1772709195535404000,4.052404052734375,-0.9839630126953125,0.0599212646484375,-0.050323486328125
1772709195545429000,4.062428955078125,-0.9939117431640625,0.0674285888671875,-0.055816650390625
1772709195555454000,4.072453857421875,-1.00152587890625,0.066986083984375,-0.0564727783203125
1772709195565479200,4.082479248046875,-0.9974365234375,0.058380126953125,-0.0549163818359375
1772709195575504100,4.092504150390625,-0.9887237548828125,0.0544891357421875,-0.053192138671875
1772709195585528000,4.102528076171875,-0.98712158203125,0.061065673828125,-0.054412841796875
1772709195595553000,4.112552978515625,-0.9935302734375,0.062347412109375,-0.05712890625
1772709195605578000,4.122577880859375,-0.9978179931640625,0.06134033203125,-0.0545654296875
1772709195615603000,4.13260302734375,-0.9971160888671875,0.0561981201171875,-0.05059814453125
1772709195625628000,4.1426279296875,-0.9962005615234375,0.0520782470703125,-0.04986572265625
1772709195635653000,4.152653076171875,-0.9933319091796875,0.05047607421875,-0.0522308349609375
1772709195645678000,4.162677978515625,-0.9901275634765625,0.050506591796875,-0.0531005859375
1772709195655703000,4.172703125,-0.9929351806640625,0.0491485595703125,-0.0520477294921875
1772709195665727200,4.182727294921875,-0.9936065673828125,0.0503997802734375,-0.048980712890625
1772709195675752000,4.192751953125,-0.99383544921875,0.0566253662109375,-0.0487213134765625
1772709195685777000,4.20277685546875,-0.9958953857421875,0.0605926513671875,-0.0502166748046875
1772709195695801900,4.2128017578125,-0.9967041015625,0.0623626708984375,-0.0518035888671875
1772709195705827000,4.2228271484375,-0.9943389892578125,0.0597381591796875,-0.0508270263671875
1772709195715852000,4.23285205078125,-0.9938201904296875,0.0593719482421875,-0.047454833984375
1772709195725877000,4.242876953125,-0.9976806640625,0.05841064453125,-0.0451202392578125
1772709195735902000,4.25290185546875,-1.0006103515625,0.0581512451171875,-0.0469818115234375
1772709195745926000,4.26292578125,-1.0003204345703125,0.0564727783203125,-0.046661376953125
1772709195755950800,4.272950927734375,-0.9956817626953125,0.0555267333984375,-0.0454864501953125
1772709195765976000,4.28297607421875,-0.99163818359375,0.055755615234375,-0.046722412109375
1772709195776001000,4.2930009765625,-0.9904022216796875,0.055389404296875,-0.0496978759765625
1772709195786026000,4.30302587890625,-0.9896240234375,0.0606842041015625,-0.0516510009765625
1772709195796051000,4.313051025390625,-0.9930267333984375,0.0605926513671875,-0.04998779296875
1772709195806076200,4.323076171875,-0.9928741455078125,0.0568695068359375,-0.0482635498046875
1772709195816101000,4.33310107421875,-0.9922943115234375,0.05810546875,-0.04595947265625
1772709195826124800,4.343124755859375,-0.9915771484375,0.05889892578125,-0.0476226806640625
1772709195836150000,4.35314990234375,-0.9938201904296875,0.057037353515625,-0.051483154296875
1772709195846175000,4.363175048828125,-0.9909820556640625,0.0615234375,-0.0488433837890625
1772709195856200000,4.373199951171875,-0.9895172119140625,0.065673828125,-0.0460662841796875
1772709195866225000,4.383224853515625,-0.993865966796875,0.06866455078125,-0.0470733642578125
1772709195876250000,4.39325,-0.9954071044921875,0.0719451904296875,-0.0464935302734375
1772709195886275000,4.403275146484375,-0.9958038330078125,0.07037353515625,-0.0479278564453125
1772709195896300000,4.413300048828125,-0.9949188232421875,0.0658721923828125,-0.0479736328125
1772709195906324000,4.423323974609375,-0.9907684326171875,0.062744140625,-0.0505218505859375
1772709195916349000,4.433348876953125,-0.992767333984375,0.06280517578125,-0.0506439208984375
1772709195926374000,4.443373779296875,-0.9982147216796875,0.05859375,-0.054168701171875
1772709195936399000,4.453399169921875,-0.996063232421875,0.0607452392578125,-0.05499267578125
1772709195946424000,4.463424072265625,-0.9962005615234375,0.0622100830078125,-0.0533447265625
1772709195956449000,4.473448974609375,-0.9937591552734375,0.0618896484375,-0.056060791015625
1772709195966474000,4.483473876953125,-0.9937896728515625,0.0581207275390625,-0.0567169189453125
1772709195976499200,4.493499267578125,-0.9955902099609375,0.056915283203125,-0.058319091796875
1772709195986523000,4.50352294921875,-0.9962005615234375,0.0582122802734375,-0.0572509765625
1772709195996547800,4.5135478515625,-0.99871826171875,0.056243896484375,-0.055572509765625
1772709196006573000,4.523572998046875,-1.0004119873046875,0.053466796875,-0.0541229248046875
1772709196016598000,4.533597900390625,-0.9969329833984375,0.0562896728515625,-0.0568389892578125
1772709196026623000,4.543623046875,-0.9949798583984375,0.065521240234375,-0.055450439453125
1772709196036648000,4.55364794921875,-0.996551513671875,0.0645294189453125,-0.05303955078125
1772709196046673200,4.563673095703125,-0.998748779296875,0.05120849609375,-0.051971435546875
1772709196056698000,4.573697998046875,-0.9954681396484375,0.0474700927734375,-0.05157470703125
1772709196066721800,4.5837216796875,-0.989654541015625,0.055908203125,-0.0499725341796875
1772709196076747000,4.5937470703125,-0.9904632568359375,0.0589752197265625,-0.0511627197265625
1772709196086772000,4.60377197265625,-0.9923248291015625,0.0584259033203125,-0.0494842529296875
1772709196096796200,4.613796142578125,-0.9952392578125,0.05706787109375,-0.0473175048828125
1772709196106821000,4.623821044921875,-0.9985809326171875,0.0545654296875,-0.046630859375
1772709196116846000,4.63384619140625,-0.9969940185546875,0.05316162109375,-0.045166015625
1772709196126871000,4.64387109375,-0.9917755126953125,0.0512542724609375,-0.047760009765625
1772709196136896300,4.653896240234375,-0.9886627197265625,0.0456390380859375,-0.0476837158203125
1772709196146920200,4.663920166015625,-0.9886474609375,0.04620361328125,-0.0476837158203125
1772709196156945200,4.673945068359375,-0.9913177490234375,0.047821044921875,-0.0487060546875
1772709196166970400,4.683970458984375,-0.9973297119140625,0.050537109375,-0.048614501953125
1772709196176995000,4.6939951171875,-0.998382568359375,0.05706787109375,-0.050018310546875
1772709196187020000,4.70402001953125,-0.9981689453125,0.0610504150390625,-0.049224853515625
1772709196197045000,4.714044921875,-0.9974517822265625,0.062225341796875,-0.0508880615234375
1772709196207070200,4.7240703125,-0.9941558837890625,0.0626068115234375,-0.0503387451171875
1772709196217095200,4.73409521484375,-0.992584228515625,0.0612640380859375,-0.05126953125
1772709196227120000,4.7441201171875,-0.9950103759765625,0.0600433349609375,-0.0504302978515625
1772709196237144300,4.754144287109375,-0.9984588623046875,0.0586090087890625,-0.0496978759765625
1772709196247169300,4.764169189453125,-0.99908447265625,0.0579833984375,-0.0478363037109375
1772709196257194000,4.774194091796875,-0.99755859375,0.0560150146484375,-0.0476837158203125
1772709196267219000,4.784218994140625,-0.995330810546875,0.0532989501953125,-0.0473785400390625
1772709196277244200,4.794244140625,-0.992767333984375,0.0559234619140625,-0.0471038818359375
1772709196287269000,4.80426904296875,-0.99578857421875,0.0553131103515625,-0.04864501953125
1772709196297294000,4.814294189453125,-0.996551513671875,0.052490234375,-0.053466796875
1772709196307319000,4.824319091796875,-0.9960479736328125,0.0496826171875,-0.057098388671875
1772709196317343200,4.83434326171875,-0.99395751953125,0.0486297607421875,-0.05938720703125
1772709196327368200,4.8443681640625,-0.9937591552734375,0.052398681640625,-0.055633544921875
1772709196337393200,4.85439306640625,-0.9923248291015625,0.0577545166015625,-0.0510406494140625
1772709196347418000,4.864418212890625,-0.990631103515625,0.0631561279296875,-0.0491943359375
1772709196357443000,4.874443115234375,-0.991180419921875,0.0656585693359375,-0.0497283935546875
1772709196367468000,4.884468017578125,-0.993743896484375,0.0611572265625,-0.04925537109375
1772709196377493200,4.8944931640625,-0.99456787109375,0.0547332763671875,-0.0483856201171875
1772709196387518200,4.904518310546875,-0.99285888671875,0.0521392822265625,-0.0468597412109375
1772709196397542100,4.914542236328125,-0.9938201904296875,0.055328369140625,-0.044769287109375
1772709196407567400,4.9245673828125,-0.9938507080078125,0.053802490234375,-0.044891357421875
1772709196417592000,4.934592041015625,-0.9956512451171875,0.05267333984375,-0.04437255859375
1772709196427617000,4.944616943359375,-0.996490478515625,0.054229736328125,-0.0438232421875
1772709196437642000,4.95464208984375,-0.9993743896484375,0.0528564453125,-0.044097900390625
1772709196447667200,4.964667236328125,-0.9963836669921875,0.0539093017578125,-0.0461273193359375
1772709196457692200,4.974692138671875,-0.9934844970703125,0.0567626953125,-0.0475616455078125
1772709196467717000,4.984717041015625,-0.9931488037109375,0.0553741455078125,-0.0505828857421875
1772709196477741300,4.9947412109375,-0.9932708740234375,0.0582122802734375,-0.0526123046875
1772709196487766300,5.004766357421875,-0.99346923828125,0.0570068359375,-0.0526123046875
1772709196497791000,5.014791015625,-0.9889984130859375,0.057861328125,-0.05242919921875
1772709196507816200,5.024816162109375,-0.9858551025390625,0.068450927734375,-0.0504608154296875
1772709196517841200,5.034841064453125,-0.99261474609375,0.067352294921875,-0.0493927001953125
1772709196527866000,5.0448662109375,-1.0006103515625,0.0550384521484375,-0.05157470703125
1772709196537891000,5.05489111328125,-0.998443603515625,0.0453033447265625,-0.053558349609375
1772709196547916300,5.064916259765625,-0.992523193359375,0.0420989990234375,-0.0592193603515625
1772709196557940200,5.074940185546875,-0.991790771484375,0.042266845703125,-0.0629119873046875
1772709196567965000,5.08496484375,-0.9929962158203125,0.0475921630859375,-0.06219482421875
1772709196577990100,5.094990234375,-0.9940948486328125,0.059234619140625,-0.05828857421875
1772709196588015000,5.10501513671875,-0.99786376953125,0.0727996826171875,-0.0532379150390625
1772709196598040000,5.1150400390625,-0.9981689453125,0.0753936767578125,-0.0503387451171875
1772709196608065000,5.12506494140625,-0.9922027587890625,0.0724639892578125,-0.044281005859375
1772709196618090200,5.13509033203125,-0.9897918701171875,0.06671142578125,-0.0432891845703125
1772709196628115200,5.145115234375,-0.9967041015625,0.05621337890625,-0.0483245849609375
1772709196638140200,5.15514013671875,-1.000885009765625,0.0535888671875,-0.05108642578125
1772709196648164000,5.1651640625,-0.9983062744140625,0.056549072265625,-0.050567626953125
1772709196658189000,5.17518896484375,-0.9936981201171875,0.059783935546875,-0.0513916015625
1772709196668214000,5.185214111328125,-0.991668701171875,0.0673065185546875,-0.0481719970703125
1772709196678239200,5.1952392578125,-0.9936981201171875,0.0749969482421875,-0.0455169677734375
1772709196688264200,5.20526416015625,-1.0008544921875,0.07171630859375,-0.048828125
1772709196698289200,5.2152890625,-1.0009307861328125,0.057830810546875,-0.0495452880859375
1772709196708314000,5.225314208984375,-0.994842529296875,0.046051025390625,-0.0479888916015625
1772709196718339300,5.23533935546875,-0.9877166748046875,0.0455474853515625,-0.0475921630859375
1772709196728363000,5.245363037109375,-0.9892120361328125,0.052978515625,-0.05224609375
1772709196738388000,5.255387939453125,-0.9920501708984375,0.062469482421875,-0.0552215576171875
1772709196748413200,5.2654130859375,-0.99609375,0.0726470947265625,-0.0543365478515625
1772709196758438100,5.275438232421875,-0.996307373046875,0.0780181884765625,-0.049713134765625
1772709196768463000,5.285463134765625,-0.9968109130859375,0.0764007568359375,-0.0494537353515625
1772709196778488000,5.295488037109375,-0.996826171875,0.0660400390625,-0.0526123046875
1772709196788513300,5.30551318359375,-0.9915618896484375,0.0577392578125,-0.0573272705078125
1772709196798538200,5.315538330078125,-0.9867095947265625,0.0495452880859375,-0.0582122802734375
1772709196808562000,5.32556201171875,-0.985137939453125,0.0526123046875,-0.0571746826171875
1772709196819213000,5.336213134765625,-0.9862518310546875,0.0649566650390625,-0.0503387451171875
1772709196829238300,5.34623828125,-0.9967041015625,0.0643463134765625,-0.0472564697265625
1772709196839263200,5.35626318359375,-1.00311279296875,0.0579071044921875,-0.0453033447265625
1772709196849288200,5.3662880859375,-0.99945068359375,0.05548095703125,-0.0443878173828125
1772709196859312000,5.37631201171875,-0.9928436279296875,0.052886962890625,-0.041473388671875
1772709196869337000,5.386337158203125,-0.9879913330078125,0.0516357421875,-0.040069580078125
1772709196879362000,5.396362060546875,-0.9892120361328125,0.0587310791015625,-0.0410919189453125
1772709196889387000,5.406386962890625,-0.9960174560546875,0.0644989013671875,-0.0440826416015625
1772709196899412200,5.416412109375,-0.9984130859375,0.0646209716796875,-0.04638671875
1772709196909437200,5.426437255859375,-0.9983062744140625,0.0682373046875,-0.0464935302734375
1772709196919462100,5.436462158203125,-0.9957122802734375,0.0720977783203125,-0.04742431640625
1772709196929487000,5.446487060546875,-0.9929962158203125,0.07366943359375,-0.04833984375
1772709196939512300,5.45651220703125,-0.992156982421875,0.0742034912109375,-0.0474395751953125
1772709196949536000,5.466535888671875,-0.9910430908203125,0.0734100341796875,-0.0462646484375
1772709196959561200,5.476561279296875,-0.991973876953125,0.071044921875,-0.048797607421875
1772709196969586200,5.486586181640625,-0.9927978515625,0.0704193115234375,-0.0481719970703125
1772709196979611100,5.496611083984375,-0.9893798828125,0.0768280029296875,-0.045074462890625
1772709196989636000,5.506635986328125,-0.990509033203125,0.081329345703125,-0.0500640869140625
1772709196999661300,5.516661376953125,-0.99298095703125,0.0786285400390625,-0.05413818359375
1772709197009686300,5.526686279296875,-0.9917449951171875,0.0757904052734375,-0.05206298828125
1772709197019710000,5.5367099609375,-0.990203857421875,0.0728912353515625,-0.0493316650390625
1772709197029735200,5.546735107421875,-0.991851806640625,0.0684051513671875,-0.0503387451171875
1772709197039760100,5.556760009765625,-0.994598388671875,0.06512451171875,-0.0510406494140625
1772709197049785000,5.56678515625,-0.9939117431640625,0.0674591064453125,-0.05242919921875
1772709197059810000,5.57681005859375,-0.9929962158203125,0.0685272216796875,-0.052947998046875
1772709197069835300,5.586835205078125,-0.993438720703125,0.0681304931640625,-0.050384521484375
1772709197079860200,5.596860107421875,-0.9925689697265625,0.067474365234375,-0.0480499267578125
1772709197089885200,5.60688525390625,-0.9908294677734375,0.062164306640625,-0.0489349365234375
1772709197099910100,5.61691015625,-0.992706298828125,0.0577392578125,-0.04913330078125
1772709197109934300,5.626934326171875,-0.994720458984375,0.056182861328125,-0.0491180419921875
1772709197119959300,5.636959228515625,-0.995758056640625,0.0607452392578125,-0.0476531982421875
1772709197129984300,5.646984375,-0.9969329833984375,0.070465087890625,-0.049163818359375
1772709197140009500,5.657009521484375,-0.997772216796875,0.0758209228515625,-0.0540924072265625
1772709197150034400,5.667034423828125,-0.99835205078125,0.0700531005859375,-0.0539703369140625
1772709197160059100,5.67705908203125,-0.9952392578125,0.0582733154296875,-0.0540924072265625
1772709197170711300,5.687711181640625,-0.991455078125,0.04974365234375,-0.051361083984375
1772709197180736300,5.697736328125,-0.9888153076171875,0.0513458251953125,-0.049102783203125
1772709197190760400,5.707760498046875,-0.9930877685546875,0.0541229248046875,-0.05126953125
1772709197200785400,5.717785400390625,-0.9948883056640625,0.058074951171875,-0.0559844970703125
1772709197210810400,5.727810302734375,-0.997039794921875,0.0614776611328125,-0.056854248046875
1772709197220835300,5.73783544921875,-0.9976959228515625,0.06451416015625,-0.0540924072265625
1772709197230860300,5.7478603515625,-0.998504638671875,0.0628204345703125,-0.05218505859375
1772709197240885200,5.75788525390625,-0.99951171875,0.060882568359375,-0.0503082275390625
1772709197250910200,5.76791015625,-0.997528076171875,0.05889892578125,-0.0516510009765625
1772709197260935400,5.777935302734375,-0.9954986572265625,0.0555572509765625,-0.052825927734375
1772709197270960400,5.78796044921875,-0.9928436279296875,0.053192138671875,-0.051788330078125
1772709197280984300,5.797984375,-0.9935302734375,0.057769775390625,-0.049835205078125
1772709197291009500,5.808009521484375,-0.9945831298828125,0.0647735595703125,-0.0509033203125
1772709197301034200,5.8180341796875,-0.997467041015625,0.0675048828125,-0.0503387451171875
1772709197311059200,5.82805908203125,-1.00018310546875,0.064239501953125,-0.0539398193359375
1772709197321084200,5.838084228515625,-0.996917724609375,0.061859130859375,-0.0529022216796875
1772709197331109400,5.848109375,-0.9919586181640625,0.06365966796875,-0.0517730712890625
1772709197341134300,5.85813427734375,-0.9930419921875,0.0694732666015625,-0.0505523681640625
1772709197351159300,5.8681591796875,-0.99298095703125,0.0682220458984375,-0.0511627197265625
1772709197361183500,5.87818359375,-0.9909820556640625,0.06201171875,-0.0531005859375
1772709197371208400,5.88820849609375,-0.9889984130859375,0.06109619140625,-0.053680419921875
1772709197381233200,5.898233154296875,-0.99078369140625,0.0642242431640625,-0.0530242919921875
1772709197391258000,5.908258056640625,-0.9962615966796875,0.06146240234375,-0.051910400390625
1772709197401283300,5.918283447265625,-0.9966888427734375,0.0536041259765625,-0.05438232421875
1772709197411308300,5.928308349609375,-0.9919586181640625,0.0521392822265625,-0.0541534423828125
1772709197421333200,5.938333251953125,-0.9913787841796875,0.0525970458984375,-0.0536956787109375
1772709197431358500,5.9483583984375,-0.998046875,0.056304931640625,-0.0521240234375
1772709197441382400,5.95838232421875,-1.0000457763671875,0.0584869384765625,-0.0523223876953125
1772709197451407400,5.968407470703125,-1.000030517578125,0.06097412109375,-0.050994873046875
1772709197461432300,5.978432373046875,-0.9973602294921875,0.0565338134765625,-0.048736572265625
1772709197471457300,5.988457275390625,-0.9912567138671875,0.0602264404296875,-0.0473785400390625
1772709197481482200,5.998482177734375,-0.992645263671875,0.0668792724609375,-0.048828125
1772709197491507200,6.008507080078125,-1.00030517578125,0.066619873046875,-0.0501861572265625
1772709197501532400,6.018532470703125,-1.0016937255859375,0.0623016357421875,-0.050384521484375
1772709197511557400,6.028557373046875,-0.99462890625,0.06500244140625,-0.0482025146484375
1772709197521581300,6.038581298828125,-0.9888458251953125,0.06488037109375,-0.0498199462890625
1772709197531606300,6.048606201171875,-0.9909210205078125,0.0659332275390625,-0.0535736083984375
1772709197541631200,6.05863134765625,-0.9923858642578125,0.06549072265625,-0.0555877685546875
1772709197551656200,6.06865625,-0.9953155517578125,0.0625152587890625,-0.0564422607421875
1772709197561681200,6.07868115234375,-0.99346923828125,0.061248779296875,-0.0547332763671875
1772709197571706400,6.088706298828125,-0.990814208984375,0.0633392333984375,-0.0521240234375
1772709197581731300,6.0987314453125,-0.99041748046875,0.061981201171875,-0.04852294921875
1772709197591756300,6.10875634765625,-0.99078369140625,0.0596466064453125,-0.0483551025390625
1772709197601781200,6.11878125,-0.99261474609375,0.0607147216796875,-0.0489959716796875
1772709197611805200,6.12880517578125,-0.9930419921875,0.0647735595703125,-0.0499420166015625
1772709197621830100,6.138830078125,-0.993621826171875,0.0648956298828125,-0.0510101318359375
1772709197631855400,6.14885546875,-0.996368408203125,0.06304931640625,-0.050628662109375
1772709197641880300,6.15888037109375,-0.9931182861328125,0.0606536865234375,-0.0513153076171875
1772709197651905300,6.1689052734375,-0.99127197265625,0.0615234375,-0.0514373779296875
1772709197661930200,6.17893017578125,-0.99237060546875,0.06512451171875,-0.051849365234375
1772709197671955500,6.18895556640625,-0.9949951171875,0.06707763671875,-0.0530242919921875
1772709197681980400,6.19898046875,-0.9963836669921875,0.0702362060546875,-0.054046630859375
1772709197692004000,6.209004150390625,-0.996307373046875,0.069610595703125,-0.0563812255859375
1772709197702029300,6.219029296875,-0.9951019287109375,0.06732177734375,-0.0558929443359375
1772709197712054300,6.22905419921875,-0.992919921875,0.0673675537109375,-0.054412841796875
1772709197722079200,6.239079345703125,-0.9963226318359375,0.062347412109375,-0.052337646484375
1772709197732104200,6.249104248046875,-0.997314453125,0.060150146484375,-0.050750732421875
1772709197742129400,6.25912939453125,-0.9926300048828125,0.0615692138671875,-0.049835205078125
1772709197752154400,6.269154296875,-0.988861083984375,0.0626373291015625,-0.0482330322265625
1772709197762179300,6.279179443359375,-0.9909820556640625,0.06317138671875,-0.04852294921875
1772709197772203300,6.289203369140625,-0.99468994140625,0.0641937255859375,-0.0499420166015625
1772709197782228200,6.299228271484375,-0.9954986572265625,0.0641021728515625,-0.0508270263671875
1772709197792253200,6.309253173828125,-0.997283935546875,0.0641326904296875,-0.0506439208984375
1772709197802278400,6.3192783203125,-0.99578857421875,0.0624847412109375,-0.050445556640625
1772709197812303400,6.329303466796875,-0.9914703369140625,0.067047119140625,-0.049224853515625
1772709197822328300,6.339328369140625,-0.9906463623046875,0.0697021484375,-0.051300048828125
1772709197832353300,6.349353271484375,-0.9938812255859375,0.06927490234375,-0.0521392822265625
1772709197842378500,6.35937841796875,-0.9941864013671875,0.070159912109375,-0.050811767578125
1772709197852403500,6.369403564453125,-0.996734619140625,0.0685882568359375,-0.0485687255859375
1772709197862427100,6.37942724609375,-0.99700927734375,0.064849853515625,-0.0499725341796875
1772709197872452400,6.389452392578125,-0.993255615234375,0.0617523193359375,-0.051177978515625
1772709197882477300,6.399477294921875,-0.993011474609375,0.0597991943359375,-0.0508880615234375
1772709197892502300,6.409502197265625,-0.9924163818359375,0.056915283203125,-0.0487518310546875
1772709197902527200,6.41952734375,-0.9928131103515625,0.0554962158203125,-0.0485687255859375
1772709197912552400,6.429552490234375,-0.992950439453125,0.057403564453125,-0.0525970458984375
1772709197922577400,6.439577392578125,-0.995697021484375,0.0603485107421875,-0.0486602783203125
1772709197932602400,6.449602294921875,-0.99383544921875,0.0629730224609375,-0.0475921630859375
1772709197942626300,6.459626220703125,-0.9948272705078125,0.0622406005859375,-0.04632568359375
1772709197952651300,6.4696513671875,-0.993804931640625,0.0573577880859375,-0.0492706298828125
1772709197962676200,6.47967626953125,-0.9907379150390625,0.0573577880859375,-0.0508270263671875
1772709197972701200,6.489701171875,-0.99285888671875,0.0596466064453125,-0.05316162109375
1772709197982726400,6.499726318359375,-1.0016632080078125,0.056060791015625,-0.0551300048828125
1772709197992751400,6.50975146484375,-1.00274658203125,0.0480194091796875,-0.051483154296875
1772709198002776300,6.5197763671875,-0.997344970703125,0.051239013671875,-0.053955078125
1772709198012801500,6.529801513671875,-0.9933929443359375,0.05535888671875,-0.054962158203125
1772709198022825200,6.5398251953125,-0.9923248291015625,0.05731201171875,-0.0549163818359375
1772709198032850200,6.54985009765625,-0.992523193359375,0.0579376220703125,-0.056243896484375
1772709198042875400,6.55987548828125,-0.9953155517578125,0.0593719482421875,-0.054473876953125
1772709198052900400,6.569900390625,-0.997711181640625,0.0669403076171875,-0.0563812255859375
1772709198062925300,6.57992529296875,-0.9968414306640625,0.07269287109375,-0.0544586181640625
1772709198072950300,6.5899501953125,-0.9969482421875,0.0760498046875,-0.052886962890625
1772709198082975500,6.5999755859375,-0.9941253662109375,0.0745697021484375,-0.0500640869140625
1772709198093000400,6.61000048828125,-0.9901580810546875,0.0715789794921875,-0.048065185546875
1772709198103025000,6.62002490234375,-0.9916534423828125,0.06744384765625,-0.047088623046875
1772709198113049900,6.6300498046875,-0.9933929443359375,0.06634521484375,-0.0476226806640625
1772709198123075000,6.640074951171875,-0.9931793212890625,0.0690460205078125,-0.046478271484375
1772709198133100000,6.65010009765625,-0.993194580078125,0.0712890625,-0.047088623046875
1772709198143125000,6.660125,-0.9930267333984375,0.0723114013671875,-0.0471343994140625
1772709198153150200,6.670150146484375,-0.9951171875,0.068511962890625,-0.046600341796875
1772709198163175200,6.680175048828125,-0.99249267578125,0.0653533935546875,-0.0467071533203125
1772709198173200100,6.6902001953125,-0.991729736328125,0.067352294921875,-0.048126220703125
1772709198183224000,6.70022412109375,-0.9908447265625,0.0697784423828125,-0.050018310546875
1772709198193249000,6.7102490234375,-0.9946746826171875,0.0708160400390625,-0.05133056640625
1772709198203274000,6.72027392578125,-0.994659423828125,0.071319580078125,-0.052093505859375
1772709198213299000,6.730298828125,-0.9927215576171875,0.0728302001953125,-0.05413818359375
1772709198223324200,6.74032421875,-0.990875244140625,0.0732421875,-0.0534820556640625
1772709198233349000,6.75034912109375,-0.984344482421875,0.070068359375,-0.0460205078125
1772709198243374000,6.7603740234375,-0.9828033447265625,0.061859130859375,-0.041778564453125
1772709198253399000,6.77039892578125,-0.991485595703125,0.0530853271484375,-0.045806884765625
1772709198263424000,6.780424072265625,-0.9969635009765625,0.0488433837890625,-0.050262451171875
1772709198273448000,6.790447998046875,-0.99285888671875,0.046783447265625,-0.047393798828125
1772709198283473000,6.800472900390625,-0.985260009765625,0.0411224365234375,-0.04803466796875
1772709198293498000,6.810498046875,-0.9826507568359375,0.0409698486328125,-0.048431396484375
1772709198303523000,6.820523193359375,-0.9857635498046875,0.0552215576171875,-0.04205322265625
1772709198313548000,6.830548095703125,-0.995147705078125,0.0789794921875,-0.035369873046875
1772709198323573000,6.840572998046875,-1.006927490234375,0.09649658203125,-0.0338897705078125
1772709198333598200,6.85059814453125,-1.011444091796875,0.092742919921875,-0.04241943359375
1772709198343623000,6.860622802734375,-1.0023345947265625,0.0681915283203125,-0.0576629638671875
1772709198353647000,6.870647216796875,-0.9904937744140625,0.0503997802734375,-0.058868408203125
1772709198363672000,6.880672119140625,-0.992919921875,0.05780029296875,-0.05230712890625
1772709198373697000,6.890697021484375,-1.01666259765625,0.06634521484375,-0.043182373046875
1772709198383722000,6.900721923828125,-1.0268402099609375,0.066009521484375,-0.049407958984375
1772709198393747200,6.910747314453125,-1.001922607421875,0.064361572265625,-0.05572509765625
1772709198403772200,6.920772216796875,-0.974395751953125,0.0605010986328125,-0.0545654296875
1772709198413797000,6.930797119140625,-0.9754791259765625,0.0589752197265625,-0.0514678955078125
1772709198423821800,6.94082177734375,-0.988067626953125,0.0670318603515625,-0.0507659912109375
1772709198433847000,6.950846923828125,-0.9964752197265625,0.076751708984375,-0.0546112060546875
1772709198443871000,6.96087109375,-0.9998321533203125,0.0751953125,-0.056549072265625
1772709198453896000,6.97089599609375,-0.9950408935546875,0.0649261474609375,-0.0564422607421875
1772709198463921200,6.980921142578125,-0.98870849609375,0.0652618408203125,-0.0523223876953125
1772709198473946000,6.990946044921875,-0.985565185546875,0.06463623046875,-0.048492431640625
1772709198483971000,7.00097119140625,-0.9885406494140625,0.0572967529296875,-0.0457916259765625
1772709198493996000,7.01099609375,-0.9914093017578125,0.0508270263671875,-0.0465850830078125
1772709198504021000,7.02102099609375,-0.9937591552734375,0.053680419921875,-0.0454559326171875
1772709198514046000,7.0310458984375,-0.9940185546875,0.0556488037109375,-0.0491790771484375
1772709198524070100,7.041070068359375,-0.9959716796875,0.0580902099609375,-0.0515594482421875
1772709198534095000,7.05109521484375,-0.9966888427734375,0.0589141845703125,-0.052734375
1772709198544120000,7.0611201171875,-0.9972686767578125,0.057891845703125,-0.052703857421875
1772709198554145000,7.07114501953125,-1.001068115234375,0.0574798583984375,-0.05413818359375
1772709198564170200,7.081170166015625,-0.9970703125,0.0578155517578125,-0.05450439453125
1772709198574195000,7.09119482421875,-0.9915618896484375,0.0599517822265625,-0.052703857421875
1772709198584220000,7.101219970703125,-0.9894256591796875,0.0624542236328125,-0.0529937744140625
1772709198594244900,7.111244873046875,-0.99163818359375,0.0642852783203125,-0.0536041259765625
1772709198604270000,7.12127001953125,-0.994964599609375,0.0673370361328125,-0.0532684326171875
1772709198614294000,7.1312939453125,-0.99371337890625,0.0687713623046875,-0.05364990234375
1772709198624319000,7.141319091796875,-0.9949798583984375,0.0684661865234375,-0.0511474609375
1772709198634344200,7.15134423828125,-0.9936981201171875,0.0679473876953125,-0.0507659912109375
1772709198644369200,7.161369140625,-0.9925537109375,0.066314697265625,-0.0509185791015625
1772709198654393900,7.171393798828125,-0.9923858642578125,0.066009521484375,-0.049285888671875
1772709198664418800,7.181418701171875,-0.9924774169921875,0.065216064453125,-0.0482635498046875
1772709198674444000,7.191444091796875,-0.9929351806640625,0.063629150390625,-0.0487518310546875
1772709198684469000,7.201468994140625,-0.9950408935546875,0.063446044921875,-0.0483245849609375
1772709198694493000,7.211492919921875,-0.99322509765625,0.062103271484375,-0.0476531982421875
1772709198704518100,7.22151806640625,-0.99139404296875,0.0613861083984375,-0.0500640869140625
1772709198714543000,7.231543212890625,-0.99151611328125,0.0610504150390625,-0.0485992431640625
1772709198724568000,7.241568115234375,-0.9935455322265625,0.059356689453125,-0.0474700927734375
1772709198734593000,7.251593017578125,-0.9945831298828125,0.0612945556640625,-0.0485992431640625
1772709198744618000,7.261617919921875,-0.994659423828125,0.066253662109375,-0.049713134765625
1772709198754643000,7.271642822265625,-0.99627685546875,0.0660400390625,-0.0530242919921875
1772709198764668000,7.28166796875,-0.9969329833984375,0.0651092529296875,-0.05157470703125
1772709198774692000,7.291692138671875,-0.9948883056640625,0.0639495849609375,-0.0505828857421875
1772709198784717000,7.301717041015625,-0.993316650390625,0.0639495849609375,-0.05224609375
1772709198794742000,7.311741943359375,-0.9940032958984375,0.0669403076171875,-0.054534912109375
1772709198804767200,7.321767333984375,-0.994720458984375,0.0693511962890625,-0.053619384765625
1772709198814792000,7.3317919921875,-0.9964447021484375,0.0672454833984375,-0.0534515380859375
1772709198824817000,7.34181689453125,-0.996795654296875,0.0642852783203125,-0.052093505859375
1772709198834841900,7.351841796875,-0.993988037109375,0.062225341796875,-0.0515289306640625
1772709198844867000,7.3618671875,-0.993621826171875,0.0621490478515625,-0.0527496337890625
1772709198854892000,7.37189208984375,-0.99310302734375,0.0604705810546875,-0.05303955078125
1772709198864916000,7.381916015625,-0.993621826171875,0.060760498046875,-0.0521087646484375
1772709198874941200,7.391941162109375,-0.9958343505859375,0.0601348876953125,-0.050811767578125
1772709198884966100,7.401966064453125,-0.9936370849609375,0.0592041015625,-0.052093505859375
1772709198894990800,7.411990966796875,-0.9912567138671875,0.06072998046875,-0.0521240234375
1772709198905016000,7.42201611328125,-0.992645263671875,0.0640106201171875,-0.0531005859375
1772709198915041000,7.432041015625,-0.9954376220703125,0.0636749267578125,-0.05377197265625
1772709198925066000,7.44206591796875,-0.9952545166015625,0.0622406005859375,-0.0516815185546875
1772709198935091000,7.452091064453125,-0.99462890625,0.0603179931640625,-0.050872802734375
1772709198945115100,7.462115234375,-0.991180419921875,0.0590057373046875,-0.051239013671875
1772709198955140000,7.47214013671875,-0.988189697265625,0.0638580322265625,-0.052886962890625
1772709198965165000,7.4821650390625,-0.9936981201171875,0.0707550048828125,-0.0538787841796875
1772709198975190000,7.49218994140625,-1.0025177001953125,0.067657470703125,-0.048797607421875
1772709198985215000,7.502215087890625,-0.998077392578125,0.062164306640625,-0.0500335693359375
1772709198995240000,7.512239990234375,-0.990692138671875,0.062164306640625,-0.0509490966796875
1772709199005265000,7.522264892578125,-0.9907379150390625,0.0634613037109375,-0.0539093017578125
1772709199015290000,7.5322900390625,-0.992034912109375,0.0649261474609375,-0.05340576171875
1772709199025314000,7.54231396484375,-0.995941162109375,0.0654296875,-0.0517578125
1772709199035339000,7.552339111328125,-0.997314453125,0.066619873046875,-0.05181884765625
1772709199045364000,7.562364013671875,-0.9962005615234375,0.064697265625,-0.0518951416015625
1772709199055389000,7.572388916015625,-0.993072509765625,0.0647735595703125,-0.0500946044921875
1772709199065414000,7.582413818359375,-0.9898834228515625,0.063812255859375,-0.049652099609375
1772709199075439000,7.592439208984375,-0.9925537109375,0.064666748046875,-0.051605224609375
1772709199085464000,7.602464111328125,-0.9948883056640625,0.065338134765625,-0.052825927734375
1772709199095489000,7.612489013671875,-0.9948272705078125,0.0634765625,-0.0525970458984375
1772709199105513700,7.622513671875,-0.9938201904296875,0.06304931640625,-0.0532989501953125
1772709199115538000,7.632537841796875,-0.9939117431640625,0.0635833740234375,-0.0516815185546875
1772709199125562600,7.642562744140625,-0.9933013916015625,0.0645751953125,-0.0523681640625
1772709199135587600,7.652587646484375,-0.9946746826171875,0.0632781982421875,-0.0521087646484375
1772709199145612800,7.66261279296875,-1.0011749267578125,0.06207275390625,-0.0635986328125
1772709199155637800,7.6726376953125,-0.951263427734375,0.068634033203125,-0.082550048828125
1772709199165662700,7.682662841796875,-0.9459686279296875,0.06378173828125,-0.0177154541015625
1772709199175687700,7.692687744140625,-1.0254974365234375,0.0460662841796875,-0.015960693359375
1772709199185713000,7.702712890625,-1.074859619140625,0.0567626953125,-0.0485992431640625
1772709199195736800,7.71273681640625,-1.04266357421875,0.0776214599609375,-0.0616912841796875
1772709199205761800,7.72276171875,-0.9726104736328125,0.0619354248046875,-0.0576171875
1772709199215786800,7.732786865234375,-0.939666748046875,0.0404052734375,-0.04058837890625
1772709199225811700,7.742811767578125,-0.9589385986328125,0.048248291015625,-0.0464630126953125
1772709199235836700,7.752836669921875,-1.0092010498046875,0.062347412109375,-0.0575714111328125
1772709199245862000,7.76286181640625,-1.0390777587890625,0.075164794921875,-0.0579986572265625
1772709199255886800,7.772886962890625,-1.014617919921875,0.080047607421875,-0.0597991943359375
