time,seconds_elapsed,z,y,x
1772709191545499600,0.062499755859375,0.16363865658342838,-0.09587693360820412,0.021529585164971648
1772709191555524600,0.072524658203125,-0.0050192894667387,-0.044874183862656354,0.030282142875902352
1772709191565549600,0.082549560546875,-0.07833060939311981,0.002749664034321904,-0.003006415274366736
1772709191575574500,0.092574462890625,-0.04146422928869724,-0.01466974586546421,-0.029883572012372312
1772709191585599500,0.102599609375,0.02656009014546871,-0.03400704515054822,-0.02252224946413189
1772709191595624400,0.11262451171875,0.07646715360879898,-0.033629297879338264,0.0006067337214946747
1772709191605649400,0.1226494140625,0.05002279879748821,0.0009356003496795892,0.026119908629916606
1772709191615674400,0.13267431640625,0.04962064773738384,0.006028831835463643,0.022500256828032434
1772709191625698600,0.142698486328125,0.06731763246953487,-0.02955459578633308,0.02205360903907567
1772709191635723500,0.1527236328125,0.05715513489544391,-0.06323540465719997,0.012258958396688103
1772709191645748700,0.162748779296875,0.058629883623123165,-0.0740167647819966,0.003577931552007794
1772709191655773700,0.172773681640625,0.03883095817565918,-0.07453918122090399,0.00861358763165772
1772709191665798400,0.18279833984375,0.01666179646551609,-0.028252646342292426,-0.015191833510808645
1772709191675823400,0.1928232421875,-0.01698503707051277,-0.02715849443003535,-0.016715572479367256
1772709191685848600,0.2028486328125,0.004551671954989433,-0.02729877968356013,0.015475765018723903
1772709191695873500,0.21287353515625,0.030835867768526076,-0.01944309774711728,0.025640564147755503
1772709191705898500,0.2228984375,0.005521393769979476,-0.03837941501587629,-0.003807831317745149
1772709191715922700,0.232922607421875,-0.011370119798183441,-0.019050152906775475,-0.06800744136460125
1772709191725947600,0.24294775390625,-0.009251812469959259,-0.024111016492918132,-0.0189814715847373
1772709191735972400,0.252972412109375,0.030991935113072393,-0.042089521580189464,0.009538885783031583
1772709191745997300,0.262997314453125,0.112319972756505,-0.06583981500193477,0.036704394475743175
1772709191756022500,0.2730224609375,0.10771335574388503,-0.04622435636259615,0.024932160150073466
1772709191766047500,0.283047607421875,0.05567220286130905,-0.04352751849405467,-0.023975407414510846
1772709191776072400,0.293072509765625,-0.037171500530838966,-0.005401201456412673,0.002671630362048745
1772709191786097400,0.303097412109375,-0.1548673211067915,0.051689562965929504,-0.01078293102737516
1772709191796122600,0.31312255859375,-0.1776794568955898,-0.11118234702870249,-0.07017302190065383
1772709191806146600,0.323146484375,0.056634910413622855,-0.1281595661189407,-0.0050476387783885
1772709191816171500,0.333171630859375,0.08418868777155876,-0.12207681213915347,-0.05936196075733751
1772709191826196500,0.343196533203125,0.07211305005252361,-0.08918656912408769,-0.042107678291387854
1772709191836221400,0.353221435546875,0.01515256094634533,-0.01253558338098228,-0.016825937518663705
1772709191846246400,0.363246337890625,-0.11911036354899406,-0.000986015362665057,-0.035262488571740684
1772709191856271600,0.373271728515625,-0.1804343085616827,-0.060554495010152455,-0.09068217797670512
1772709191866296600,0.383296630859375,-0.13672785330414772,-0.11257277847379446,-0.07758426627153531
1772709191876321500,0.393321533203125,-0.03164367702007294,-0.07544402110613882,-0.051436720716021955
1772709191886345700,0.403345703125,0.01448328338265419,0.015192966021969914,-0.028386702784430232
1772709191896370400,0.413370361328125,-0.03680266721844673,0.11743066683374345,0.0161896306428127
1772709191906395400,0.4233955078125,-0.1344803666383028,0.11775493035204708,0.017668069164920596
1772709191916420400,0.43342041015625,-0.1805430296331644,0.02458579439781606,-0.039496587044117036
1772709191926445600,0.443445556640625,-0.17767010454535484,-0.028328122731298207,-0.05176673812167719
1772709191936470500,0.453470458984375,-0.06730185037851333,-0.07956964966878294,-0.039807543556275776
1772709191946495500,0.46349560546875,0.07898410486578941,-0.09902020006999372,-0.02776018665023148
1772709191956520400,0.4735205078125,0.23923545709848404,-0.18899222048334777,-0.04457277149697766
1772709191966545700,0.483545654296875,0.36429449991881846,-0.20017368584163486,-0.05109895839532837
1772709191976569300,0.4935693359375,0.4574900854885578,-0.2242192358829081,-0.07225841333996504
1772709191986594600,0.503594482421875,0.5105003756642341,-0.17049217574000358,0.044865452566929157
1772709191996619500,0.51361962890625,0.5755547393769025,-0.004664338549226522,0.17275708846468477
1772709192006644500,0.52364453125,0.3406751394003629,0.08940956422500312,0.13727768747294322
1772709192016669400,0.53366943359375,-0.011564181065559386,0.10585201885141432,0.04843225080356933
1772709192026694700,0.543694580078125,-0.08935819936394691,0.11521730163320898,0.16730196486394852
1772709192036719600,0.5537197265625,0.0344686713129282,0.11370733546167612,0.2028369319678284
1772709192046744600,0.56374462890625,0.2102571998953819,0.09592128420658409,0.06088717473035212
1772709192056769500,0.57376953125,0.20405250003635883,0.026913287497311828,-0.05288024318837561
1772709192066793500,0.58379345703125,-0.028310148683190345,-0.08665376271083951,-0.15511216271333395
1772709192076818400,0.593818359375,-0.1888701284736395,-0.11814195690825581,-0.11983117037052288
1772709192086843400,0.603843505859375,-0.20074059900939464,-0.03188822636567056,0.04557496167630888
1772709192096868900,0.613868896484375,-0.10132803862094879,0.027413711300119756,0.06799815751302521
1772709192106894000,0.62389404296875,-0.01717149955332279,-0.025937209006771444,-0.04360055633080192
1772709192116919000,0.6339189453125,-0.03251519915759563,-0.062035965739563104,-0.09887985088438726
1772709192126944000,0.643944091796875,-0.08832184205353259,-0.0022621727783232928,-0.08530496931723318
1772709192136969200,0.65396923828125,-0.09352993209064006,0.0683905223980546,-0.043002654369734224
1772709192146994200,0.663994140625,-0.03910217633247375,0.08744944313317536,-0.0058960905675776295
1772709192157017900,0.674017822265625,0.0010737667113542555,0.03226144359223544,0.018935979342041536
1772709192167043000,0.68404296875,-0.004894201782345771,-0.01246120297051966,-0.0010874390436802059
1772709192177068000,0.694068115234375,-0.03915770591199398,-0.00984327555708587,0.009124240567535162
1772709192187093000,0.704093017578125,-0.07625380311906338,0.009020853258296846,0.02600954359062016
1772709192197118000,0.714117919921875,-0.05095394216775894,-0.026075959890335797,0.006810273669892922
1772709192207143200,0.72414306640625,0.10009645099937915,-0.12773447257466614,-0.01577290306808427
1772709192217168100,0.734168212890625,0.20534955410957334,-0.11341310175545513,0.04807799400580115
1772709192227193000,0.744193115234375,0.1674544154793024,-0.03746127725765109,0.07743095713965595
1772709192237217800,0.7542177734375,0.03963116864264011,-0.048483752661943436,0.01705250368299894
1772709192247242000,0.764241943359375,-0.01002513493001461,-0.04284479692690074,0.011643822173029183
1772709192257267000,0.774266845703125,-0.028378537744283675,-0.019878274293988942,0.04456574810114689
1772709192267292000,0.7842919921875,-0.020094693523645398,-0.008853972258791327,0.014083269480708985
1772709192277317000,0.794317138671875,-0.0047667760103940965,-0.06271196530498564,-0.0025375008546747266
1772709192287342000,0.804342041015625,-0.0010597381860017775,-0.07921002257615327,0.008937157030217349
1772709192297367000,0.814366943359375,0.004777881926298141,-0.07825389089509845,0.004700907699950039
1772709192307392000,0.82439208984375,0.028575521621108053,-0.06182721835970878,-0.008184731227718293
1772709192317417000,0.8344169921875,0.05775543887615203,-0.030283786843717096,0.008721121393050998
1772709192327442000,0.84444189453125,0.09441606727540493,0.006121697750687599,0.03269335046978667
1772709192337467000,0.854466796875,0.0993541081994772,-0.021611308631673452,0.023103392086643724
1772709192347491000,0.864490966796875,0.07049041728675365,-0.0314577990591526,0.0094188395999372
1772709192357516000,0.87451611328125,0.021741876208782193,-0.04788870937824249,-0.028105018032528458
1772709192367541000,0.884541015625,-0.001699205133318901,-0.021188626240193843,0.005142714917007833
1772709192377566200,0.894566162109375,0.0018050035953521728,0.0038888241320848465,0.010373601307813077
1772709192387591200,0.904591064453125,-0.010512626186013221,0.00011083996333181857,0.006945325625874102
1772709192397615900,0.914615966796875,0.0047404725253582,-0.04137903522327542,-0.008518182699475437
1772709192407640800,0.924640869140625,0.022092004820704458,-0.05052358792647719,-0.011870306138973682
1772709192417666000,0.934666015625,0.040029812571406365,-0.07618219918757677,0.012191336520574986
1772709192427691000,0.94469091796875,0.07676935142576694,-0.09437610059119761,0.04032179952161386
1772709192437715000,0.95471484375,0.09037935910522937,-0.10712481526620686,0.01864803837928921
1772709192447740200,0.964740234375,0.07295183896422386,-0.13254830259718,-0.025062106672674417
1772709192457765000,0.97476513671875,0.03513268817961216,-0.11027794553488492,-0.02314962411485612
1772709192467790000,0.9847900390625,0.02154430781006813,-0.07124101645834743,0.000976279419939965
1772709192477815000,0.99481494140625,-0.020149054059386252,-0.009869579042121768,0.02921677866671234
1772709192487840000,1.004840087890625,-0.03768763335943222,0.008324687687680125,0.017361030776053665
1772709192497865000,1.014864990234375,-0.01952303111553192,0.0019072218608111142,-0.005363353664055466
1772709192507890000,1.024889892578125,-0.015080080232024192,-0.006390650885179638,0.006420059642754495
1772709192517914000,1.0349140625,0.03159048552811146,-0.004127820519730449,0.015969612950272858
1772709192527939000,1.04493896484375,0.03995616281330585,-0.00735043582804501,0.008724701589625329
1772709192537964000,1.054964111328125,0.03698503804802895,-0.0019677929416298864,0.006532141715101897
1772709192547989200,1.0649892578125,0.03687631697654724,0.012422186134383081,0.008389021628163754
1772709192558014000,1.075013916015625,0.05101531696617603,0.006122793729230761,-0.013756740940082817
1772709192568039000,1.085038818359375,0.07865209643244743,0.02336757771447301,0.018786058610491454
1772709192578064000,1.09506396484375,0.07594400651752949,0.07123612108752131,0.032312607523892076
1772709192588089000,1.105089111328125,0.02552665544450283,0.058548342819511885,0.007521664209105074
1772709192598114000,1.115114013671875,-0.03667407240271568,0.026613135506957767,0.021456045004725456
1772709192608139000,1.125138916015625,-0.04660042313337326,-0.012393106170371175,0.010781433190032838
1772709192618163200,1.1351630859375,-0.015522563302516936,-0.05168225644230842,-0.00898117883503437
1772709192628188200,1.145188232421875,0.009688450321555138,-0.0633894992403686,0.0004801481997594237
1772709192638212900,1.155212890625,0.03351122445762157,-0.08675510419346391,0.0044136882564052935
1772709192648237800,1.16523779296875,0.02990121726691723,-0.05697912074141204,0.009493000814691186
1772709192658263000,1.175262939453125,-0.007416413736343383,-0.07478847980685531,-0.008512501877360046
1772709192668288000,1.1852880859375,-0.05179331560134887,-0.072647595320642,0.013431582372635602
1772709192678313000,1.19531298828125,-0.030976153022050857,-0.048405865120142694,0.006690949006006122
1772709192688338000,1.205337890625,-0.013912790018320083,-0.04185863543376327,0.012925569079257546
1772709192698363100,1.215363037109375,0.00210837045609951,-0.06545549185946584,-0.0002797302568331361
1772709192708387000,1.225386962890625,0.019902385821938512,-0.055227381703257555,-0.026030440248176454
1772709192718412000,1.235412109375,0.03515022383630276,-0.050728389783576126,-0.010651413602195679
1772709192728437000,1.24543701171875,0.03140226947963238,-0.05360774461217224,-0.006657192866876721
1772709192738462000,1.2554619140625,0.07149521041512488,-0.041721345854923125,0.010638955979421735
1772709192748487000,1.26548681640625,0.06040332303643226,-0.029585283185541628,0.04877703652009368
1772709192758512000,1.27551220703125,0.03704524380266666,-0.05864252390898764,0.03135627491343766
1772709192768537000,1.285537109375,0.05168576357364654,-0.07291486795470119,0.04361600049510598
1772709192778562000,1.29556201171875,0.051641339910030365,-0.05224018258601427,0.02162741951625794
1772709192788587000,1.3055869140625,0.02779576942026615,-0.04657477723546326,0.013110131865926087
1772709192798611000,1.31561083984375,0.023714053064584732,-0.0656003802228719,0.02354337267279625
1772709192808636000,1.325635986328125,0.03712941495478153,-0.028072467469796535,0.023641828078590332
1772709192818660900,1.335660888671875,0.0237590612500906,0.00004800386019051075,0.02990859685577452
1772709192828686000,1.34568603515625,0.027317045992612837,-0.008367065524682402,0.0131358873616904
1772709192838711000,1.3557109375,-0.004406126004457473,-0.039411169216409324,-0.01649674209691584
1772709192848736000,1.365736083984375,-0.006642506754398345,-0.029496143597364424,-0.0006396861430257558
1772709192858761000,1.375760986328125,0.014749825364351273,-0.022277152129262685,-0.0047393034815788266
1772709192868786200,1.3857861328125,0.020420856738090513,-0.045586496850475666,-0.012048932375200092
1772709192878811100,1.39581103515625,0.027435119414329526,-0.02613660403639078,-0.0050919528441503645
1772709192888835800,1.4058359375,0.005701426512002944,-0.052255014828965066,-0.016061529017426072
1772709192898860000,1.415860107421875,-0.007357377025485039,-0.0346766149751842,-0.017347513707354663
1772709192908885000,1.425885009765625,-0.0036392332851886747,-0.039960619792714716,-0.033101913004368544
1772709192918910000,1.435909912109375,0.019987726017832753,-0.07149959432929753,-0.020910722614265978
1772709192928935200,1.44593505859375,0.05749240402579307,-0.08695873700678348,0.007452325299941003
1772709192938960100,1.455960205078125,0.05586100343167782,-0.04754683713801205,0.008047953105531632
1772709192948985000,1.465985107421875,0.04805646716058254,0.029983634853363035,-0.002359349542483687
1772709192959010000,1.476010009765625,0.0055956280499696726,0.04220774113237857,-0.00093655019775033
1772709192969035000,1.486034912109375,-0.01106733745932579,0.0066594578891992565,-0.011159545787423848
1772709192979060000,1.49606005859375,0.013573182800412177,-0.033242490518838166,-0.017612375188618898
1772709192989084000,1.506083984375,0.029643443113565444,-0.04913695587366819,0.011172843660414218
1772709192999109000,1.516109130859375,0.025026304706931114,-0.03570383913107216,0.03815009977202862
1772709193009134000,1.526134033203125,0.0293751475661993,-0.0049660249095410105,0.04199281974006444
1772709193019159000,1.536158935546875,0.03716156365871429,0.016321239399537443,-0.00574318329449743
1772709193029184000,1.54618408203125,0.021194179198145865,0.023786168452724812,-0.011869520687684416
1772709193039209200,1.556209228515625,0.01350771634876728,0.012775018160045146,0.0018507059006020426
1772709193049234000,1.56623388671875,0.01675531996786594,-0.01352284085266292,0.004323343091830611
1772709193059259000,1.5762587890625,0.02879647089540958,-0.04161620498001575,-0.014422346975654362
1772709193069283800,1.586283935546875,0.02525660633146763,-0.03850537948310375,-0.02785747301224619
1772709193079308000,1.59630810546875,0.007547346639633178,-0.06852773891165852,-0.057037463332526385
1772709193089333000,1.6063330078125,0.0015296937853097915,-0.07524206879325211,-0.0414457072513178
1772709193099357400,1.616357421875,0.021987959924340248,-0.09045403177663683,-0.01926967740897089
1772709193109382400,1.62638232421875,0.012379589101672172,-0.08561718620471656,-0.012050101418979465
1772709193119407400,1.636407470703125,0.03618482758104801,-0.07308350251987576,0.023261560056731103
1772709193129432300,1.646432373046875,0.05387245996296405,-0.0797374805163592,0.01851418286655098
1772709193139457500,1.65645751953125,0.06268003579676151,-0.12581694851554928,0.019819639441929757
1772709193149482500,1.666482421875,0.0497398902028799,-0.12993746251165866,0.007494922332651912
1772709193159507500,1.676507568359375,0.025541268491744994,-0.12104184306822717,0.015745375740341842
1772709193169531400,1.686531494140625,0.022252163818478582,-0.09163746940754354,0.02315736902989447
1772709193179556400,1.696556396484375,0.024327801048755645,-0.07988222274929285,0.0009735577398911118
1772709193189581300,1.706581298828125,0.026221651971340177,-0.06960260160155594,-0.009532273379154502
1772709193199606500,1.7166064453125,0.03825695767998695,-0.0359559141959995,0.02567479521092027
1772709193209631500,1.726631591796875,0.03860533272624016,-0.0027346125956624746,0.04588975411336869
1772709193219656400,1.736656494140625,0.013531097224354744,0.01944375533424318,0.04475117853749543
1772709193229681400,1.746681396484375,0.02528524790406227,0.001580254928767681,0.01792184299658984
1772709193239706600,1.75670654296875,0.028248189362883567,-0.043200040105357766,0.013636493827588855
1772709193249731600,1.766731689453125,0.03747895904481411,-0.06649864423684776,0.03258596283886581
1772709193259755300,1.77675537109375,0.06773615014255047,-0.04095730267986655,0.021550299159437417
1772709193269780500,1.786780517578125,0.03058686144351959,-0.02008336841203272,0.0613088935740292
1772709193279805400,1.796805419921875,-0.0004249474138021469,-0.02555778123512864,0.02416380612608045
1772709193289830400,1.806830322265625,-0.0173234752446413,-0.030599720925092694,-0.008880421874299644
1772709193299855400,1.81685546875,-0.027601708152890203,-0.03743753105588257,-0.019667334957048296
1772709193309880600,1.826880615234375,-0.011542553755640983,-0.030396745698899028,0.011321969807520508
1772709193319905500,1.836905517578125,-0.015852818170189856,-0.04653919446542859,0.02829122478701174
1772709193329930500,1.846930419921875,-0.004608955100178718,-0.04650353863015771,-0.011839417810365557
1772709193339955500,1.85695556640625,-0.008460954353213309,-0.03430756246708333,0.016032449053414166
1772709193349979400,1.8669794921875,-0.013821020081639289,-0.04089665853381157,0.006299282807298004
1772709193360004400,1.87700439453125,0.00623100334405899,-0.04146861320286989,-0.007256620064750314
1772709193370029600,1.887029541015625,0.04166238220930099,-0.035595556451007725,-0.011309512184746563
1772709193380054500,1.897054443359375,0.025477555605769156,-0.010565379286557436,-0.008925247396714985
1772709193390079500,1.90707958984375,0.013380290576815605,-0.027360227547213435,0.01988013745751232
1772709193400104400,1.9171044921875,0.025074820023775098,-0.06347023632638156,0.021561222412250936
1772709193410129700,1.927129638671875,0.05510580115020275,-0.07563194489367306,-0.02965031124576926
1772709193420154400,1.937154296875,0.08855331272184848,-0.04286160193122923,-0.03290007028933614
1772709193430179300,1.947179443359375,0.034354689544439314,-0.08720752413608134,-0.00758968794401735
1772709193440203500,1.95720361328125,0.02743453489243984,-0.05545680654495954,0.00300941094905138
1772709193450228500,1.967228515625,0.03661269760429859,0.036568785397335886,0.04441025614533573
1772709193460253400,1.97725341796875,-0.008056465205550194,0.14122501859292388,0.07619670263696461
1772709193470278400,1.9872783203125,-0.056870472735166544,0.1683353630322963,-0.018575776860676706
1772709193480303600,1.9973037109375,-0.04073708405792713,0.049116716803237793,-0.08047204186860471
1772709193490328600,2.00732861328125,0.06412731199562549,-0.04524696269780397,-0.09566394844464957
1772709193500353300,2.017353271484375,0.1704214485913515,-0.07836348874941468,-0.03958634312022477
1772709193510378200,2.027378173828125,0.07816402065455913,-0.07851634122356772,-0.012528422987833618
1772709193520403500,2.037403564453125,-0.04824643677473068,-0.018856749226525426,-0.0056126887826249
1772709193530427400,2.047427490234375,-0.07297346627414227,0.03696048812866211,-0.08044201205652207
1772709193540452600,2.05745263671875,-0.00914016878902912,0.06978270740881562,-0.07956632520053535
1772709193550477600,2.0674775390625,0.07640577881038188,0.08097323285639285,-0.006542042054608464
1772709193560502500,2.07750244140625,0.06238952841758728,-0.011640607302635907,-0.015919709393940867
1772709193570527500,2.087527587890625,-0.007306523621082306,-0.12393325366079806,-0.03332286227867007
1772709193580552400,2.097552490234375,-0.0032458500534296034,-0.07348324242718518,-0.003382810838706791
1772709193590577400,2.107577392578125,0.0067787003546953195,-0.0007595131304115057,-0.02936743918377906
1772709193600602400,2.117602294921875,-0.005724222865700721,-0.03424260747209191,-0.021069639503024516
1772709193610627300,2.12762744140625,0.022642039918899536,-0.06882694105394184,0.002373779926635325
1772709193620651500,2.137651611328125,0.09029401890933512,-0.04471453632153571,-0.0056266077101230615
1772709193630676500,2.147676513671875,0.0784703101247549,-0.05668291427381336,-0.045258945396542544
1772709193640701400,2.157701416015625,0.051420975157618516,-0.06708857295401394,-0.05547967596389353
1772709193650726700,2.1677265625,0.019757424393296242,-0.07575812855660916,-0.014979359803907572
1772709193660751400,2.17775146484375,0.01139583876132965,-0.098414489261806,0.017449183983542026
1772709193670776300,2.1877763671875,0.011328618744015693,-0.08954181230254471,0.04503470818661153
1772709193680801300,2.19780126953125,0.030952772146463393,-0.040503421432524916,0.031747685383819044
1772709193690826500,2.207826416015625,0.003026654344797134,-0.035222193093970414,0.00909399155974388
1772709193700850400,2.217850341796875,0.02764671633839607,-0.08030242092274129,0.01457293442748487
1772709193710875400,2.22787548828125,0.03962941507697105,-0.05936886542215943,0.08722184492237865
1772709193720900600,2.237900634765625,0.03297229527533054,-0.016911095051467418,0.10519428559504448
1772709193730925300,2.24792529296875,0.00030161329507827757,-0.039627076989412306,0.06478033254425972
1772709193740950300,2.2579501953125,0.005970306581258774,-0.06606120266765356,0.039658714236691595
1772709193750975500,2.2679755859375,0.04092763819396496,-0.038191491228342055,0.05072802445739508
1772709193761000400,2.27800048828125,0.03661795830130577,-0.004879223408922553,0.08353979540877043
1772709193771025400,2.288025390625,-0.003778349494934082,0.006275646203383803,0.08414751551095395
1772709193781049600,2.298049560546875,-0.01918926911652088,0.01741115352809429,0.06880995338652282
1772709193791074600,2.308074462890625,-0.01944938135743141,0.012674480395019054,0.024251594007387755
1772709193801099500,2.318099609375,-0.029829905596375463,-0.030959201887249946,0.029826946454308924
1772709193811124200,2.328124267578125,0.025032734447717666,-0.03547638705074787,0.029328641543351113
1772709193821149400,2.3381494140625,0.06684416973888874,-0.03555325167924166,0.02203125107679516
1772709193831174400,2.34817431640625,0.06240297242105007,-0.04223769787922501,-0.006788308433257043
1772709193841199400,2.358199462890625,0.046296471750736236,0.10112199465483426,0.013627324140444397
1772709193851224300,2.368224365234375,0.008899345770478248,0.2603549636252224,0.04061374993920326
1772709193861249500,2.37824951171875,-0.04204641309082508,0.19762794688157737,0.005248641243204474
1772709193871273500,2.3882734375,0.02731996860206127,0.035017975758761165,-0.0559885022688657
1772709193881298400,2.39829833984375,0.15546762508749962,-0.13250672847777603,-0.050531990428641434
1772709193891323400,2.408323486328125,0.15273556977510452,-0.2715066183671355,-0.025020130694471298
1772709193901348400,2.418348388671875,0.11318097350001334,-0.36063882695548233,-0.053772214458882805
1772709193911373300,2.428373291015625,0.037414661636948586,-0.3402897933445871,-0.10673599861171096
1772709193921398500,2.4383984375,-0.04484159676730633,-0.1284510233461857,-0.11760945746675133
1772709193931423500,2.448423583984375,-0.1403057117909193,0.09293328137174248,-0.10119001838974655
1772709193941448400,2.458448486328125,-0.21508768879175186,0.07656798363476991,-0.12261347629912196
1772709193951473400,2.468473388671875,-0.1296785193145275,-0.12276735168658197,-0.1060267543638125
1772709193961497600,2.47849755859375,0.09743395379185676,-0.12453414216339588,-0.05437072834130376
1772709193971522300,2.488522216796875,0.13797230040729044,-0.04088526035696268,-0.022275033237412572
1772709193981547300,2.49854736328125,-0.019731120908260343,-0.04508285817727446,-0.02850103161279112
1772709193991572500,2.508572509765625,-0.08778466643691063,-0.04445676216818392,-0.011356748859956859
1772709194001597400,2.518597412109375,-0.056423898011446,-0.011257599334418772,0.10409728413857519
1772709194011622400,2.528622314453125,-0.009892448461055754,-0.0016697598431259393,0.13839962244126944
1772709194021647400,2.5386474609375,0.06567103430628776,0.004900193131715059,0.08755304963812231
1772709194031672600,2.548672607421875,0.1378869602113962,0.04580737305954098,0.04638648812174797
1772709194041696500,2.558696533203125,0.11827683533430099,0.0870419583108276,0.06437503967899828
1772709194051721200,2.56872119140625,0.06039806233942508,0.05268120435178279,0.05111486835051328
1772709194061746400,2.578746337890625,0.000006429740786552429,0.042974633851647376,0.046018348929099735
1772709194071771400,2.588771484375,0.011486439654231071,0.10537906757742166,0.02843216762766242
1772709194081796400,2.59879638671875,0.03292962517738342,0.08201287810243665,-0.019012451244890687
1772709194091821600,2.608821533203125,0.03189735952019691,0.02775244173519313,-0.028057050704956052
1772709194101846800,2.6188466796875,0.028371523481607437,-0.050609366513788695,-0.024107253633253275
1772709194111871700,2.628871826171875,0.059818216624855994,-0.07341032332144677,-0.02251859620232135
1772709194121895400,2.6388955078125,0.07415770762264728,-0.07163534953817725,-0.007055508002080023
1772709194131920600,2.648920654296875,0.016816694766283034,-0.0621743512969464,-0.006267937820963561
1772709194141945600,2.658945556640625,-0.04876958386600017,-0.1377262166917324,-0.0163850984159857
1772709194151970600,2.668970458984375,-0.04187690174281597,-0.16376001794077455,0.033306239937432106
1772709194161995800,2.678995849609375,0.02936170356273651,-0.11137494699135422,0.07688282173760234
1772709194172020700,2.689020751953125,0.07991933988928794,0.01730265165232122,0.1023840139472857
1772709194182045700,2.699045654296875,0.10425240163505077,0.10738441605046391,0.054824865316972136
1772709194192070700,2.709070556640625,0.07217910102605819,0.06641103901863098,-0.0036297348044812675
1772709194202095900,2.719095947265625,0.06501403170228004,-0.1339456021744758,-0.021594832420907914
1772709194212119600,2.72911962890625,0.06537351266443729,-0.29376280077360567,0.034461693582870066
1772709194222144500,2.73914453125,0.07732230913341046,-0.1892584702041,0.08418331747669726
1772709194232169700,2.749169677734375,0.04163081802725792,-0.00041596038974821563,0.004805062194168567
1772709194242194700,2.759194580078125,-0.04592705391645431,0.1320649760596454,-0.11899572419337928
1772709194252219600,2.7692197265625,-0.039838089391589164,0.06573460106179117,-0.18100790719855575
1772709194262244600,2.77924462890625,0.035925299862027166,-0.10083024516664445,-0.12512209811918437
1772709194272269800,2.789269775390625,0.08870119675993919,-0.24562822687551378,-0.01973203422371298
1772709194282294800,2.799294677734375,0.09040741615593433,-0.2718022403128445,0.0628183482889086
1772709194292318500,2.809318359375,0.03764554778337478,-0.18537490676902232,0.06991926633529365
1772709194302343700,2.81934375,-0.042293665850162504,-0.10052424795739352,0.030013993459008632
1772709194312368600,2.82936865234375,-0.06567103430628776,-0.05962649344503879,-0.03128624188452959
1772709194322393600,2.8393935546875,-0.07063070254027844,-0.07694310055747627,-0.0654113969894126
1772709194332418600,2.84941845703125,0.008290273961424828,-0.04774645136334002,-0.03256371447443962
1772709194342443800,2.85944384765625,0.02994038023352623,0.06512815960124134,0.024205416778102517
1772709194352468700,2.86946875,-0.009041969111561774,0.1980117585673928,0.02599018130302429
1772709194362493700,2.87949365234375,-0.07465805836021899,0.20615122588127852,-0.014140351696498691
1772709194372518700,2.8895185546875,-0.07276128482818603,0.10525193406641482,0.03425641680173576
1772709194382542600,2.89954248046875,0.047207741376757616,0.1075591880954802,0.03303078399691731
1772709194392567600,2.909567626953125,0.10430734669268131,0.09084836485646665,0.05105597777012735
1772709194402592800,2.9195927734375,0.06285831497311592,0.036430253709480165,0.0038466654907912015
1772709194412617700,2.92961767578125,0.033623452660441394,0.029233693268895147,-0.016454985314421355
1772709194422642700,2.939642578125,0.0772936675608158,0.033819267493486405,-0.02214095852896571
1772709194432667600,2.949667724609375,0.04363339002132415,-0.027678207455202934,-0.03417549705263227
1772709194442692900,2.95969287109375,0.0010188216537237167,-0.06833974205888807,-0.023165369673259554
1772709194452717600,2.969717529296875,0.016181903994083403,-0.10506393721364438,-0.011663257525861262
1772709194462741500,2.979741455078125,0.04792845686674118,-0.1673132534429431,-0.017078012583591044
1772709194472766700,2.9897666015625,0.06121405489742755,-0.17595614023432135,0.0015261866539716719
1772709194482791700,2.999791748046875,0.07382920632064342,-0.18443857576698064,-0.00016289894413203001
1772709194492816600,3.009816650390625,0.04479308145046234,-0.14022767811864614,0.006649484484456479
1772709194502841600,3.019841552734375,0.025460604470968245,-0.08228380399830638,0.02330602025296539
1772709194512866800,3.02986669921875,-0.020655250015854835,-0.06385916257873177,-0.009458440957963466
1772709194522891800,3.039891845703125,-0.011384732845425604,-0.06353358388617635,0.02020805423762649
1772709194532916500,3.04991650390625,0.021349662020802497,-0.053676791260391474,0.048506439417786894
1772709194542940700,3.059940673828125,0.010471125131845473,-0.069161433705315,0.056854763709381216
1772709194552965600,3.069965576171875,0.012529226705431938,-0.0662640317633748,0.07496339798234403
1772709194562990600,3.079990478515625,0.004202712386846542,-0.03496456507109105,0.05523538234662264
1772709194573015800,3.090015869140625,-0.004893617260456085,-0.022915742293745277,0.05658467806372791
1772709194583040800,3.100040771484375,-0.035083588340878484,-0.05128134749121964,0.044259449497796595
1772709194593065700,3.110065673828125,-0.0005050269126892089,-0.04998363583087921,0.03671075115129351
1772709194603090700,3.120090576171875,0.0626326895236969,-0.016298954502493142,0.01980042328480631
1772709194613115600,3.13011572265625,0.07146364623308181,-0.0008021832283586263,0.009662767891027033
1772709194623139600,3.1401396484375,0.019893617993593214,-0.02497194417119026,-0.02174677157960832
1772709194633164500,3.15016455078125,0.0006838906109333038,-0.041693507999926806,-0.03238569102641195
1772709194643189800,3.160189697265625,0.026203531792759895,-0.016066241725161672,-0.002493095457367599
1772709194653214700,3.170214599609375,0.0420019894272089,-0.0174544081479311,-0.002104534531198442
1772709194663239700,3.18023974609375,0.011710311537981032,-0.037271161513030525,-0.015327369523979723
1772709194673264600,3.1902646484375,0.029179332733154296,-0.04159538138769567,-0.041356750326231116
1772709194683289900,3.200289794921875,0.05044073194861412,-0.050210722585022446,-0.03601626608110964
1772709194693314600,3.210314453125,0.06930909854769707,-0.07854571344852447,-0.02407473960313946
1772709194703338500,3.22033837890625,0.06078676939606666,-0.030669936617091297,-0.037721572161652145
1772709194713363700,3.23036376953125,-0.00005319149196147918,-0.041784839545190335,-0.04278013419285416
1772709194723388700,3.240388671875,-0.015104630151391029,-0.07229498249068855,-0.008704407720267772
1772709194733413600,3.25041357421875,0.033843232890963554,-0.07788206190802156,-0.028986403976939617
1772709194743438800,3.26043896484375,0.019976035580039023,-0.0604845715790987,-0.003931055838614702
1772709194753463800,3.2704638671875,0.019427754047513006,-0.0489979857943952,0.0031835254069417715
1772709194763488500,3.280488525390625,0.025595629027485845,-0.02097892901226878,-0.011831599830091
1772709194773513500,3.290513427734375,0.021961071917414664,-0.06262362943440675,-0.0028793182959780095
1772709194783538700,3.30053857421875,0.03564414483308792,-0.09076222094297408,0.0040504444345831865
1772709194793562600,3.310562744140625,0.05869768816232681,-0.08211436571553349,0.02973145019058138
1772709194803587600,3.320587646484375,0.00798690710067749,-0.0557454872932285,0.018220606747455893
1772709194813612800,3.33061279296875,0.021796821266412733,0.0007497954539954662,-0.042998014727234836
1772709194823637800,3.3406376953125,0.013383797708153724,-0.014323270515352487,-0.0479583405483514
1772709194833662700,3.350662841796875,0.028787118545174597,-0.07254420801140368,-0.01731452475320548
1772709194843687400,3.3606875,0.04340133483111858,-0.08071209770217537,-0.037830183635279534
1772709194853712600,3.370712646484375,0.028193828827142713,-0.047383171008899806,0.06917849443797022
1772709194863736600,3.380736572265625,0.023562661895155906,0.008201426634192465,0.05291914129350334
1772709194873761500,3.390761474609375,-0.0012590601503849029,0.026704247856512663,0.04155030013695359
1772709194883786800,3.400786865234375,0.0026858780831098554,0.04281644761525094,0.01858034343793988
1772709194893811700,3.410811767578125,0.006188917768001556,0.019596534743160008,-0.006445559410192072
1772709194903836700,3.420836669921875,0.014346505260467528,-0.03878054316267371,0.013850063513033091
1772709194913861600,3.430861572265625,0.029492636466026304,-0.027994945254176853,0.05449570642784238
1772709194923886600,3.440886474609375,0.032494156369566915,0.011829554003477096,0.07707717526592314
1772709194933911600,3.45091162109375,0.002435702714323997,-0.03785721777267754,-0.0009438567213714122
1772709194943936500,3.4609365234375,0.0035410336077213284,-0.05446852615997195,-0.01701115789245814
1772709194953960700,3.470960693359375,0.03055412821769714,-0.0266842279817909,0.01891118282750249
1772709194963985700,3.480985595703125,0.05529752433001995,-0.005886793016269803,0.0183097463356331
1772709194974010600,3.4910107421875,0.030119243931770324,-0.011574921655282377,-0.018263897899910807
1772709194984035800,3.501035888671875,0.021736615511775016,-0.03910392989814281,-0.002332059676758945
1772709194994060800,3.511060791015625,0.02547171038687229,-0.018400091500207782,-0.02915660944469273
1772709195004085500,3.52108544921875,0.015034487524628638,-0.008429170975461602,0.010248203096166253
1772709195014110500,3.5311103515625,0.03631985213756561,-0.015025390902720391,0.01652001337464899
1772709195024135700,3.5411357421875,0.03706920920014381,-0.005245097579248249,-0.0007588555432856082
1772709195034159600,3.55115966796875,0.010908347505331038,-0.08706683702375739,-0.0401238840630278
1772709195044184600,3.5611845703125,0.020216858598589897,-0.13435717865005134,-0.018496318416297435
1772709195054209800,3.571209716796875,0.050524903100728984,-0.08009279676005243,-0.007578107104077934
1772709195064234800,3.58123486328125,0.043079263269901275,-0.025211561613343654,-0.0054489130556583405
1772709195074259700,3.591259765625,-0.005042670342326164,-0.003626666064560413,0.01632204311713576
1772709195084284400,3.601284423828125,0.0004319616764783859,-0.003982384167052805,0.0233580792337656
1772709195094310100,3.61131005859375,0.027454993158578873,-0.0471474990895018,-0.03708046124652028
1772709195104334000,3.621333984375,0.03144669314324856,-0.08734744406342505,-0.03081519030667841
1772709195114359000,3.631359130859375,0.04260112436413765,-0.09857212750893085,0.018162008428014815
1772709195124384000,3.641384033203125,0.02853986578583717,-0.09591138386707752,-0.022812172321416437
1772709195134409000,3.651408935546875,0.009230769681930541,-0.08646291631385683,-0.04013283455446362
1772709195144434000,3.661433837890625,-0.020211597901582716,-0.0790886612188071,0.00021937837172299621
1772709195154459000,3.671458984375,0.023957798692584038,-0.0769587730506435,0.022708602349087594
1772709195164484000,3.681484130859375,0.06569733779132365,-0.03174140177350491,0.028262071757763622
1772709195174509000,3.691509033203125,0.021548399463295936,-0.03686747608296573,0.03312693784777075
1772709195184533000,3.701532958984375,0.021259061127901074,-0.024374708930402993,0.010312244775705038
1772709195194558000,3.711557861328125,0.030248423269391058,-0.05152790613081306,0.02797656934726983
1772709195204583000,3.7215830078125,0.024525953969359398,-0.09174235455412418,0.01938464555814862
1772709195214608000,3.73160791015625,0.045997196543216705,-0.04405504949949682,0.026621282280795276
1772709195224633000,3.741633056640625,0.008239420557022094,0.01038834221921861,0.027817688991129397
1772709195234658000,3.751657958984375,0.0070458268582820885,0.042415977055579424,0.021028503775037823
1772709195244683000,3.76168310546875,0.0027589433193206787,0.007029569843225181,0.04477101574912667
1772709195254708000,3.7717080078125,0.015978490376472473,-0.0239163707036525,0.06420976611468941
1772709195264733200,3.781733154296875,0.02333937453329563,-0.07167791003827005,0.06136953772008419
1772709195274756900,3.7917568359375,0.05893617309331894,-0.07165723257642238,0.06185443516019731
1772709195284781800,3.80178173828125,0.06739654292464256,-0.03829571878779679,0.038423875212110575
1772709195294807000,3.81180712890625,0.0545896683216095,0.015075330991670488,0.049243192727118724
1772709195304832000,3.82183203125,-0.0009767360776662827,0.020180252915248272,0.04867032474260777
1772709195314857000,3.83185693359375,-0.010285831692814827,0.02409877806585282,0.013681721208803356
1772709195324882000,3.8418818359375,0.010054945546388626,-0.006642908613197505,-0.007424852771125734
1772709195334907100,3.8519072265625,0.016360183170437814,-0.0631005262311548,-0.035410336077213285
1772709195344931000,3.86193115234375,0.03509527877867222,-0.15959763756431639,-0.022894589907862244
1772709195354956000,3.8719560546875,0.08697568814158439,-0.13683748769108206,0.024603549250215292
1772709195364981000,3.88198095703125,0.09507190083563327,-0.066598195621185,0.05018102156650275
1772709195375006000,3.892005859375,0.032499417066574096,-0.04577087697405368,0.043534130897931754
1772709195385031000,3.902031005859375,-0.021686346629261968,-0.08945084608346224,-0.03570044159758836
1772709195395056000,3.91205615234375,-0.027218261793255805,-0.11490308458488434,-0.06365395886283368
1772709195405081000,3.9220810546875,-0.0038560909062623975,-0.13142401127498596,-0.05413925767298788
1772709195415106000,3.93210595703125,0.053586628758907316,-0.07573734149690717,-0.026896993949636815
1772709195425130200,3.942130126953125,0.05950725097954273,-0.030855156990885733,0.010548026292957365
1772709195435155000,3.952155029296875,0.03266249867379665,0.022322050716914236,0.027408194874785838
1772709195445180000,3.962179931640625,-0.015370003089308738,0.01671378238108009,0.06826357155013829
1772709195455204900,3.972204833984375,-0.029729952353239057,-0.03521704199481755,0.06926105815488845
1772709195465230000,3.98222998046875,-0.004675006073713303,-0.06647687079645694,0.0758860292525962
1772709195475255000,3.992255126953125,-0.04450491215884685,-0.07548274568133055,0.03338705008868128
1772709195485280000,4.002280029296875,-0.0839034410893917,-0.04601900651622563,-0.06136325410977005
1772709195495305000,4.012304931640625,-0.09656418522000312,0.010520772959850728,-0.08812478511147201
1772709195505329200,4.0223291015625,-0.04506780673861503,0.014515030227787792,-0.035722507298924025
1772709195515353900,4.032353759765625,0.05477905341386795,-0.05191065837070345,-0.008392419161647558
1772709195525378800,4.04237890625,0.14932956072390077,-0.07832772331628948,0.03465118827298284
1772709195535404000,4.052404052734375,0.14686112478375435,-0.03521229275446385,0.020057320655323563
1772709195545429000,4.062428955078125,0.057526306295394895,0.03766969584394246,-0.03538439791835844
1772709195555454000,4.072453857421875,-0.03674129242002964,0.05990008622203022,-0.04878774057719856
1772709195565479200,4.082479248046875,-0.031899113085865974,-0.01319832160603255,-0.04363828539215028
1772709195575504100,4.092504150390625,0.05682838715910911,-0.07826729836594314,-0.02838964366018772
1772709195585528000,4.102528076171875,0.10587328083515167,-0.02823383204396814,-0.03366440572533756
1772709195595553000,4.112552978515625,0.049480947005748746,0.005136449573002755,-0.05557783910874277
1772709195605578000,4.122577880859375,-0.004449965146183967,-0.007190203765034675,-0.04764342938028276
1772709195615603000,4.13260302734375,-0.004825812721252441,-0.036985111113265155,-0.007932327369228005
1772709195625628000,4.1426279296875,0.010006430229544639,-0.08496968208141624,0.014163476843759416
1772709195635653000,4.152653076171875,0.024956162080168723,-0.1099726059127599,-0.004396517925895751
1772709195645678000,4.162677978515625,0.06326105055510997,-0.11938030306417494,-0.021052724900841712
1772709195655703000,4.172703125,0.04814999066293239,-0.12376184261664748,-0.018279278132133186
1772709195665727200,4.182727294921875,0.03135200059711933,-0.12004516018107533,0.011121442266739905
1772709195675752000,4.192751953125,0.030659342157840726,-0.07251947542894631,0.0202087848899886
1772709195685777000,4.20277685546875,0.010816577568650246,-0.025571517499536275,0.014317242633365094
1772709195695801900,4.2128017578125,-0.0026876316487789154,0.005765614322014153,-0.004284033994749188
1772709195705827000,4.2228271484375,0.010786182430386542,-0.023409590225294232,-0.006898015885427594
1772709195715852000,4.23285205078125,0.029919921967387197,-0.03031966187469661,0.025518326007574796
1772709195725877000,4.242876953125,0.0032002573460340497,-0.0335086671743542,0.0540165811413899
1772709195735902000,4.25290185546875,-0.03266600580513477,-0.04726999295800924,0.03128806851543486
1772709195745926000,4.26292578125,-0.036219898894429205,-0.058189665574952955,0.034492052188515664
1772709195755950800,4.272950927734375,-0.007616904744505882,-0.0750806676864624,0.049286191618628794
1772709195765976000,4.28297607421875,0.04922434189617633,-0.07022986665442585,0.03434873472768813
1772709195776001000,4.2930009765625,0.057256257182359695,-0.08831972316168248,0.006545439588092267
1772709195786026000,4.30302587890625,0.07084463755190372,-0.05199110319577157,-0.009932670873589813
1772709195796051000,4.313051025390625,0.03809329155087471,-0.03324022549651563,0.0005152925783768296
1772709195806076200,4.323076171875,0.0360544791996479,-0.06856069133318961,0.0011455533059313893
1772709195816101000,4.33310107421875,0.03639116380810738,-0.08436857438310981,0.028501689199917017
1772709195826124800,4.343124755859375,0.05092705416083335,-0.05931421262547373,0.030591829879581926
1772709195836150000,4.35314990234375,0.038571430456638335,-0.08442388476692139,-0.01427077314313501
1772709195846175000,4.363175048828125,0.04361176271140575,-0.05242839863449335,-0.0037254137312993404
1772709195856200000,4.373199951171875,0.07543722603917122,-0.005234393522143364,0.03964720646198839
1772709195866225000,4.383224853515625,0.03756079210937023,0.01805310469344258,0.02517181412484497
1772709195876250000,4.39325,0.00407996279001236,0.0597116144452244,0.041873285013623536
1772709195886275000,4.403275146484375,0.009421908339858055,0.0502400948099792,0.021561843466758726
1772709195896300000,4.413300048828125,0.009271101692318916,0.015690174954384566,0.028042766451276836
1772709195906324000,4.423323974609375,0.04592062417566776,-0.02087773366011679,0.0014370470657944679
1772709195916349000,4.433348876953125,0.05874795704483986,-0.008601020411029458,0.006842340175434947
1772709195926374000,4.443373779296875,-0.008193243327736854,-0.04504720234200358,-0.026529037420079112
1772709195936399000,4.453399169921875,0.0023906945288181304,-0.0332947321627289,-0.03471157669071108
1772709195946424000,4.463424072265625,0.00745966835618019,-0.012679521896317601,-0.021863310631364583
1772709195956449000,4.473448974609375,0.013728081101179122,-0.001761602845042944,-0.03555189997237176
1772709195966474000,4.483473876953125,0.03030629093647003,-0.0375727382754907,-0.04476082314867526
1772709195976499200,4.493499267578125,0.004682604858279228,-0.04880644527766853,-0.061033547231368716
1772709195986523000,4.50352294921875,0.007165653845667839,-0.0404364936761558,-0.056355253222025926
1772709195996547800,4.5135478515625,-0.01642214249074459,-0.046310134949907655,-0.0401664445631206
1772709196006573000,4.523572998046875,-0.028209610918164253,-0.07827277825865894,-0.023881153259798883
1772709196016598000,4.533597900390625,-0.007529226461052894,-0.06524360267445445,-0.04234839171208441
1772709196026623000,4.543623046875,0.017533903124928474,0.022305647571384906,-0.0501550468750298
1772709196036648000,4.55364794921875,0.005696165814995766,0.04555420201607048,-0.014411789049021899
1772709196046673200,4.563673095703125,-0.021238602861762046,-0.0716269105033949,0.0015565817922353743
1772709196056698000,4.573697998046875,-0.007352116328477859,-0.14197667721044271,0.003697758539393544
1772709196066721800,4.5837216796875,0.06171148302555084,-0.07164663811717183,0.015257519158162175
1772709196076747000,4.5937470703125,0.07395078687369823,-0.020721556717716156,0.003511770980618894
1772709196086772000,4.60377197265625,0.0494306781232357,-0.0355022156117484,0.0034028307134285566
1772709196096796200,4.613796142578125,0.020399813950061796,-0.03534680585432797,0.025938889507204292
1772709196106821000,4.623821044921875,-0.015257190364599226,-0.05799596963375806,0.041676593397743995
1772709196116846000,4.63384619140625,-0.015310966378450393,-0.07458744080942124,0.049627114010788495
1772709196126871000,4.64387109375,0.03939794440865516,-0.07466328252460808,0.03948182329982519
1772709196136896300,4.653896240234375,0.07315583710372447,-0.13602186045926062,0.026722806426510214
1772709196146920200,4.663920166015625,0.0917547391116619,-0.1458206392874941,0.03070365622360259
1772709196156945200,4.673945068359375,0.06839665987789631,-0.11862966735996305,0.023220132067799566
1772709196166970400,4.683970458984375,0.012844284003973007,-0.1073317360151559,0.018943769922852516
1772709196176995000,4.6939951171875,-0.012644962039589881,-0.04821673575621098,0.007674224422313272
1772709196187020000,4.70402001953125,-0.011629647517204285,0.0040720352118834855,0.020857567654922603
1772709196197045000,4.714044921875,-0.007125906357169151,0.01681369909159839,-0.00019175971243530512
1772709196207070200,4.7240703125,0.024940964511036872,0.026301366144046184,0.009674312198348342
1772709196217095200,4.73409521484375,0.036974516654014584,0.01373907741922885,0.0031122502690181133
1772709196227120000,4.7441201171875,0.03269406285583973,-0.0009955503759905696,-0.0015878171807155012
1772709196237144300,4.754144287109375,-0.005117489144206047,-0.01742613190151751,0.014049568140506744
1772709196247169300,4.764169189453125,-0.01825461861491203,-0.016688209548406302,0.02135609176158905
1772709196257194000,4.774194091796875,-0.015990180814266203,-0.03259140619896352,0.027751674550212917
1772709196267219000,4.784218994140625,0.003610591712594032,-0.0687341482039541,0.036413850563950835
1772709196277244200,4.794244140625,0.037827918612957,-0.049613816137798125,0.03880852714814245
1772709196287269000,4.80426904296875,0.024726444977521893,-0.04309117290340364,0.023532814746163783
1772709196297294000,4.814294189453125,-0.0030588030487298965,-0.07873330844249576,-0.00831445855461061
1772709196307319000,4.824319091796875,0.009841595056653022,-0.09677855862304567,-0.05346727669555693
1772709196317343200,4.83434326171875,0.018560323563218115,-0.11674670315757393,-0.0832425294952467
1772709196327368200,4.8443681640625,0.024911153894662856,-0.09071703009437769,-0.06293748115655035
1772709196337393200,4.85439306640625,0.04160334549844265,-0.04366046069134027,-0.01336575059480965
1772709196347418000,4.864418212890625,0.059040802511572836,0.004720014259219169,0.013007548274286091
1772709196357443000,4.874443115234375,0.053607087025046345,0.04580463311318308,0.008305946454592048
1772709196367468000,4.884468017578125,0.03401625137031078,0.015708879654854534,0.012129304135031998
1772709196377493200,4.8944931640625,0.024175825357437133,-0.0469247597169131,0.01773099659960717
1772709196387518200,4.904518310546875,0.0334796602755785,-0.0931346126301214,0.02751636795699596
1772709196397542100,4.914542236328125,0.03197510093152523,-0.067853127585724,0.06574081160686909
1772709196407567400,4.9245673828125,0.031183073770999905,-0.06885452318061143,0.05466364687327295
1772709196417592000,4.934592041015625,0.008513561323285103,-0.08477039664965122,0.05993661884013563
1772709196427617000,4.944616943359375,0.017511106771230696,-0.06966291695404797,0.06169507988002151
1772709196437642000,4.95464208984375,-0.022289573219418525,-0.08397080723717808,0.07675941455364227
1772709196447667200,4.964667236328125,-0.008240005078911782,-0.0806616461565718,0.04569978449922055
1772709196457692200,4.974692138671875,0.01849427258968353,-0.05755461907442659,0.04098689410053193
1772709196467717000,4.984717041015625,0.036252632120251656,-0.06779452926628292,0.007368556006625294
1772709196477741300,4.9947412109375,0.03280336844921112,-0.04915814479216933,-0.017096534620970487
1772709196487766300,5.004766357421875,0.031637247279286386,-0.051471170974895356,-0.016375526870042085
1772709196497791000,5.014791015625,0.06253507436811924,-0.06339198345839978,-0.013592727751098573
1772709196507816200,5.024816162109375,0.10826572892963886,0.028993893163651228,0.004940853935666382
1772709196517841200,5.034841064453125,0.06276771408021449,0.05984751578457653,0.02004555715229362
1772709196527866000,5.0448662109375,-0.037463761475682256,-0.042989758355543015,-0.0028872458741068838
1772709196537891000,5.05489111328125,-0.024618308427929878,-0.15124262780360875,-0.010517375426366925
1772709196547916300,5.064916259765625,0.027968203377723693,-0.1988549313932657,-0.06293068608958274
1772709196557940200,5.074940185546875,0.047608723393082614,-0.21147855838388202,-0.1050438808063045
1772709196567965000,5.08496484375,0.043298458978533745,-0.17217311456426976,-0.11003306739572435
1772709196577990100,5.094990234375,0.0256412217348814,-0.08042977362945676,-0.08360946311149746
1772709196588015000,5.10501513671875,-0.006644844841957092,0.07299779699780047,-0.028430304464139043
1772709196598040000,5.1150400390625,-0.020417934128642082,0.11475224140472709,-0.0038730420410633083
1772709196608065000,5.12506494140625,0.02991583031415939,0.1040278721641749,0.059819312603399157
1772709196618090200,5.13509033203125,0.06943009457886219,0.04654569727145135,0.08578282509520649
1772709196628115200,5.145115234375,0.014313187512755393,-0.0467161584675312,0.04416939659416675
1772709196638140200,5.15514013671875,-0.03407528808116913,-0.09905161812156438,0.0057588192550465465
1772709196648164000,5.1651640625,-0.03729308108389377,-0.07790463906601071,0.008457118428312241
1772709196658189000,5.17518896484375,0.016147417202591895,-0.05475450349450111,0.006514496460556984
1772709196668214000,5.185214111328125,0.04171031300425529,-0.001128492573276162,0.02807878761272877
1772709196678239200,5.1952392578125,0.04138356526792049,0.08328530919104814,0.0638053134996444
1772709196688264200,5.20526416015625,-0.026952304333448408,0.08780994700863957,0.029686442005075513
1772709196698289200,5.2152890625,-0.051665305307507514,-0.03301547682993114,0.01620517527181655
1772709196708314000,5.225314208984375,0.003057634004950523,-0.16309921594448387,0.022277152129262685
1772709196718339300,5.23533935546875,0.07367664610743523,-0.2050515940763056,0.03203114196769893
1772709196728363000,5.245363037109375,0.07956336605846881,-0.15602562429644168,-0.002527984107658267
1772709196738388000,5.255387939453125,0.05431728112101555,-0.06664148677363992,-0.04899429599996656
1772709196748413200,5.2654130859375,0.007432195827364921,0.03113360860608518,-0.0418804819393903
1772709196758438100,5.275438232421875,0.004902385088801383,0.09995748092010617,-0.007406184603273868
1772709196768463000,5.285463134765625,-0.007907412123680114,0.0981768080484122,0.010193513766862452
1772709196778488000,5.295488037109375,-0.012139350605010986,0.01219305355362594,-0.011067958513833583
1772709196788513300,5.30551318359375,0.032439795833826064,-0.08395582886375487,-0.05851597491987049
1772709196798538200,5.315538330078125,0.08300210833549498,-0.17136837405264377,-0.08289769811294972
1772709196808562000,5.32556201171875,0.09928513461649417,-0.16950177646316586,-0.08522150141801685
1772709196827985200,5.344985107421875,0.016419804403185842,-0.025697628097236153,0.031182123922929166
1772709196838010000,5.355010009765625,-0.05981061784029006,-0.0903998173713684,0.033569420918263496
1772709196848035000,5.36503515625,-0.04074818997383117,-0.12920527577959,0.040213936966657635
1772709196858059300,5.375059326171875,0.02523088736832142,-0.15426614034324884,0.0761803725566715
1772709196868084200,5.385084228515625,0.07990297327637672,-0.18220343712605536,0.08673124839384108
1772709196878109200,5.395109130859375,0.08059796980321407,-0.1250203182451427,0.08084145970288664
1772709196888134100,5.405134033203125,0.007455576702952385,-0.0636939620796591,0.053606904361955816
1772709196898159400,5.415159423828125,-0.015858078867197034,-0.07293744511269032,0.026673816185630857
1772709196908184000,5.42518408203125,-0.02403378653824329,-0.040753377605602145,0.024511633183062074
1772709196918209000,5.435208984375,-0.0011935936987400055,-0.012401289476826786,0.004411752027645707
1772709196928233200,5.445233154296875,0.03542787173390388,-0.007335530519858002,-0.011588840582780539
1772709196938258200,5.455258056640625,0.042324645510315895,0.0037885055627673862,0.00016381225958466528
1772709196948283100,5.465283203125,0.05632862094342708,-0.009877397022396326,0.006234473942779004
1772709196958308000,5.47530810546875,0.04644727839827537,-0.029757351816818118,-0.004057677892968058
1772709196968333300,5.485333251953125,0.034653964751958845,-0.06030556175038218,-0.018518384117633103
1772709196978358000,5.49535791015625,0.06297288126349448,0.004160042288899422,0.015395210595801472
1772709196988383000,5.505383056640625,0.0630640666782856,0.04880933135449886,-0.011946312250941992
1772709196998408200,5.515408203125,0.02721884631514549,0.03230075268931687,-0.06221530436184257
1772709197008432000,5.52543212890625,0.04478782075345516,0.009902458398416638,-0.05267817214448005
1772709197018457000,5.53545703125,0.05805471408367156,-0.00854709826670587,-0.020176015131548045
1772709197028482300,5.545482421875,0.043027825343608855,-0.045245647523552174,-0.018464206244982777
1772709197038507300,5.55550732421875,0.010634206739068031,-0.07626578581780195,-0.03316701412983238
1772709197048532200,5.5655322265625,0.02791910353899002,-0.06451200046427548,-0.04231295507252216
1772709197058557000,5.575556884765625,0.02803893052637577,-0.04035232252404093,-0.0457791333457455
1772709197068582100,5.58558203125,0.035223873594403265,-0.03639971244074404,-0.022901129246503112
1772709197078607000,5.595607177734375,0.03088847473859787,-0.03430098659582436,0.0018390885280445217
1772709197088632000,5.605632080078125,0.053470308902859684,-0.08028539672270417,0.0060192968221381305
1772709197098656500,5.615656494140625,0.040862171742320055,-0.11135273515954613,0.006844057208485901
1772709197108681200,5.62568115234375,0.01593406671285629,-0.12988354036733507,0.012596190994419157
1772709197118706200,5.6357060546875,0.009314356312155722,-0.09916654973812401,0.03044562634192407
1772709197128731100,5.645731201171875,0.002023614782094955,0.014697218394279479,0.018788579361140728
1772709197138756400,5.65575634765625,-0.01569967343509197,0.07858538787178694,-0.02337440931405872
1772709197148781300,5.66578125,-0.025219196930527685,0.038453210904449225,-0.024952545350976286
1772709197158806300,5.67580615234375,0.006497545325756073,-0.06927344271242618,-0.023848346968740223
1772709197178230300,5.695230224609375,0.0756207659125328,-0.1440458481673151,0.023967370238527654
1772709197188254500,5.70525439453125,0.0414484471976757,-0.106381814879179,0.015210720874369144
1772709197198279400,5.715279541015625,0.011115852776169777,-0.07258578213080763,-0.02811393199134618
1772709197208304400,5.725304443359375,-0.0033434652090072628,-0.03593107201568782,-0.030365473777800796
1772709197218329300,5.735329345703125,-0.015528408521413802,0.00297835822366178,-0.007616101026907563
1772709197228354300,5.745354248046875,-0.02443126142323017,-0.010351736535876989,0.01989986507128924
1772709197238379300,5.755379150390625,-0.025876784056425094,-0.028476883552223442,0.03696538349948823
1772709197248404200,5.765404296875,-0.005054360780119896,-0.043865152950584886,0.01978599290065467
1772709197258429200,5.77542919921875,0.007802782705426216,-0.08178959074057639,0.009151713096350432
1772709197268454400,5.785454345703125,0.034094577303528786,-0.10202266982160509,0.01137760898489505
1772709197278478300,5.795478271484375,0.03159691526889801,-0.08003054517880082,0.04129497366901487
1772709197288503300,5.80550341796875,0.020358897417783735,-0.011381371844559908,0.032191191367618735
1772709197298528500,5.815528564453125,-0.007349778240919112,0.02393397942557931,0.027164887638203798
1772709197308553200,5.82555322265625,-0.039510757133364674,-0.0033675767369568347,-0.004888246965594589
1772709197318578200,5.835578125,-0.013553309056162833,-0.03723134095929563,0.003068338062055409
1772709197328603400,5.845603271484375,0.04190963496863842,-0.023594591403380036,0.01033588137961924
1772709197338628400,5.85562841796875,0.0357189636349678,0.03319368294104934,0.02424863486532122
1772709197348653300,5.8656533203125,0.03254033359885215,0.030370807540044186,0.020694449515081943
1772709197358677500,5.875677490234375,0.04827274025976658,-0.03275521845854819,0.0033364874789491294
1772709197368702500,5.885702392578125,0.07016776120364665,-0.05058554724678397,-0.008049852801673113
1772709197378727200,5.89572705078125,0.06033551849722862,-0.010929390293359756,0.010000438880175351
1772709197388752100,5.905752197265625,0.008762567648291588,-0.030960224800556897,0.010493665757216513
1772709197398777300,5.91577734375,-0.004769698619842529,-0.10327150083892046,-0.00018302841670811174
1772709197408802300,5.92580224609375,0.04244914867281913,-0.12464125579968094,-0.007300824532657861
1772709197418827300,5.9358271484375,0.053395490100979805,-0.12737214206829667,0.010010412284918129
1772709197428852200,5.945852294921875,-0.001264320847392082,-0.09308028862699866,0.013546769717521964
1772709197438876400,5.95587646484375,-0.03828326116502285,-0.06546930118910968,0.017580080354213712
1772709197448901400,5.9659013671875,-0.031166122636198997,-0.04779029050506651,0.02712053703982383
1772709197458926000,5.975926025390625,-0.01315349608361721,-0.08424787061288952,0.041991687228903174
1772709197468951300,5.985951416015625,0.041622050198912616,-0.06346599854268133,0.06316460444331169
1772709197478976300,5.995976318359375,0.04201835604012012,-0.0005577800132334232,0.04293503249362111
1772709197489001200,6.006001220703125,-0.03569090658426285,0.007823094841092825,0.02224160589184612
1772709197499026200,6.016026123046875,-0.062763037905097,-0.04717405830286443,0.02133307621218264
1772709197509051400,6.026051513671875,0.011612696382403373,-0.033046967946738004,0.04326218208875507
1772709197519075300,6.036075439453125,0.06440729798078537,-0.03372362509928643,0.035081177188083526
1772709197529100500,6.0461005859375,0.0533259319961071,-0.019101883094012735,-0.004952507840842008
1772709197539125200,6.056125244140625,0.04110299476087093,-0.025061960542201993,-0.037939891087450085
1772709197549150200,6.066150146484375,0.015921207231283187,-0.06055968264192342,-0.04509823840949684
1772709197559175200,6.076175048828125,0.020258359652757643,-0.08100172829851508,-0.037610038078576324
1772709197569200400,6.086200439453125,0.0507815082103014,-0.06438450162708759,-0.014769516445510089
1772709197579225300,6.096225341796875,0.05723346082866192,-0.07578377445451914,0.01890895433779806
1772709197589250300,6.106250244140625,0.052605801028013224,-0.09669555651471018,0.03434588518347591
1772709197599275300,6.116275146484375,0.04195931932926178,-0.08171528339534997,0.023831943823210893
1772709197609299500,6.126299560546875,0.031899697607755656,-0.041841026711836454,0.012714300948753952
1772709197619324200,6.13632421875,0.020055530557036398,-0.038445539054647086,0.007013860817439854
1772709197629349000,6.14634912109375,0.00672901599407196,-0.06524981321953237,-0.0001657484883442521
1772709197639374300,6.156374267578125,0.019881927555799483,-0.08447875675931572,0.007066431254893541
1772709197649399300,6.1663994140625,0.04558218600153923,-0.07960771665684878,-0.005256532288715243
1772709197659424300,6.17642431640625,0.04195172054469585,-0.040538931137323375,-0.003888422273285687
1772709197669449200,6.18644921875,0.010505611923336981,-0.024406857634335755,-0.009629961599968373
1772709197679474400,6.196474365234375,0.0031558336824178694,0.000979439491406083,-0.031352037129737435
1772709197689498400,6.206498291015625,0.0035959786653518675,0.009217544874176382,-0.04539422568138689
1772709197699523300,6.2165234375,0.004984218153357506,-0.009988383116200567,-0.04272471421118825
1772709197709548300,6.22654833984375,0.030780922710895536,-0.013710472379252313,-0.03180935244318098
1772709197719573200,6.2365732421875,0.007215922728180885,-0.0626549744207412,-0.009140862908773124
1772709197729598200,6.24659814453125,-0.01319441261589527,-0.08773900066427887,0.002351714225299656
1772709197739623400,6.25662353515625,0.02118307328224182,-0.07698986230865121,0.00581770983543247
1772709197749648400,6.2666484375,0.07483750658035278,-0.06639942164607346,0.03147544431369752
1772709197759673300,6.27667333984375,0.059791913139820095,-0.06356207932829856,0.024473091270960867
1772709197769697500,6.286697509765625,0.0245300456225872,-0.04885090547390282,0.016743118073418734
1772709197779722200,6.29672216796875,0.0018365677773952483,-0.04418554401136934,0.008860803858377038
1772709197789747200,6.306747314453125,-0.01083294418156147,-0.03942673211172223,0.0010681772207841278
1772709197799772200,6.316772216796875,-0.001188333001732826,-0.05354125524722039,0.0028336890559643507
1772709197809797400,6.32679736328125,0.038228900629282,-0.02066102216951549,0.020626096986606716
1772709197819822300,6.336822265625,0.06446925730109214,0.01965600984543562,-0.005810768637992441
1772709197829847300,6.346847412109375,0.029412556967139243,0.017438114600256086,-0.004740399460121989
1772709197839872300,6.356872314453125,0.02192541608214378,0.02914068122319877,0.00550791323389858
1772709197849897500,6.3668974609375,0.003680734339356422,0.01380333829447627,0.027099603849649427
1772709197859921200,6.376921142578125,-0.010515548795461654,-0.0200636407982558,0.019013656821288166
1772709197869946400,6.3869462890625,0.030203999605774877,-0.04423573982864618,0.0027102088067680595
1772709197879971300,6.396971435546875,0.04069382943809032,-0.06609035569690168,0.009345737831108272
1772709197889996300,6.406996337890625,0.03439268346726894,-0.0912247238881886,0.015106566380150616
1772709197900021200,6.417021240234375,0.037029461711645124,-0.11161628146655857,0.03153115655630827
1772709197910046500,6.42704638671875,0.03139583973884583,-0.08698949747122824,-0.010064736288040875
1772709197920071400,6.437071533203125,0.0075397478550672525,-0.05566657683812082,0.02217025768868625
1772709197930096400,6.447096435546875,0.02245265482664108,-0.030667087072879073,0.03655621817670762
1772709197940120300,6.457120361328125,0.015490414598584175,-0.03267857302576303,0.05347659251317381
1772709197950145300,6.467145263671875,0.02526303607225418,-0.07624883468300103,0.030653789199888704
1772709197960170200,6.477170166015625,0.05056523511111736,-0.08258680553287268,0.01803670154791325
1772709197970195200,6.4871953125,0.03931318873465061,-0.05467632369175553,-0.009513093754649161
1772709197980220400,6.497220458984375,-0.04525836087465286,-0.08923062746152281,-0.036314627973176535
1772709197990245400,6.507245361328125,-0.06909516353607177,-0.16796638358943164,0.0033107319831848143
1772709198000270300,6.517270263671875,-0.011617957079410553,-0.1501174231659621,-0.01051909245941788
1772709198010295300,6.52729541015625,0.030671617117524145,-0.11127024450786412,-0.03655713149216026
1772709198020319200,6.5373193359375,0.045127427971363064,-0.08708002529889344,-0.03405848307684064
1772709198030344200,6.54734423828125,0.03667173431515693,-0.08520648651197552,-0.045965157437138256
1772709198040369200,6.557369140625,0.016358429604768753,-0.09216295458637178,-0.04045644048564136
1772709198050394400,6.567394287109375,-0.015515549039840697,-0.02973470159359276,-0.049096623863279815
1772709198060419300,6.57741943359375,-0.003991115462779998,0.027518121522665022,-0.04062810725811869
1772709198070444300,6.5874443359375,-0.004667991811037064,0.058553676581755275,-0.02310728281047195
1772709198080469200,6.59746923828125,0.007884615769982338,0.05316555380262434,-0.00008577858731150626
1772709198090494500,6.607494384765625,0.0572732083171606,0.011937909748777746,0.012630896981619297
1772709198100519000,6.617518798828125,0.04005202440321445,-0.031248759418353436,0.028471220996417104
1772709198110544000,6.6275439453125,0.03733750474750996,-0.04476765474826097,0.012457915034890174
1772709198120569000,6.637569091796875,0.032976386928558345,-0.02991831453219056,0.024529095774516462
1772709198130594000,6.647593994140625,0.024725275933742522,-0.017924875203892587,0.014967742431350052
1772709198140619000,6.657618896484375,0.027851298999786375,-0.0032057372387498616,0.008619177122227846
1772709198150644000,6.66764404296875,0.011857026532292366,-0.03077741557955742,0.011151216350495815
1772709198160669200,6.677669189453125,0.030742928788065907,-0.06922397754751146,0.011037344179861247
1772709198170694100,6.687694091796875,0.045428456744551655,-0.06347754285000265,0.009330832522921264
1772709198180717800,6.6977177734375,0.05364566546976566,-0.044850510726124046,-0.012608539019338786
1772709198190743000,6.707742919921875,0.019090484917163846,-0.025181129942461848,-0.021960268199816346
1772709198200768000,6.71776806640625,0.008261047866940497,-0.027526962416246532,-0.04088160709515214
1772709198210793000,6.72779296875,0.023404256463050842,-0.007105594221502542,-0.049229054603911936
1772709198220818000,6.73781787109375,0.0508422984868288,-0.001390723706036806,-0.05266176899895072
1772709198230843100,6.747843017578125,0.10390811824202537,-0.021257965149357915,0.016474128406308592
1772709198240868000,6.7578681640625,0.1395820736914873,-0.09099632195979357,0.06660188541561365
1772709198250893000,6.76789306640625,0.052177931004762645,-0.17255181168355047,0.02966116143334657
1772709198260918000,6.77791796875,-0.008100888869166373,-0.21953538891561328,-0.008653444718010724
1772709198270942000,6.78794189453125,0.029396774876117703,-0.22765125615820286,0.00900960121192038
1772709198280967000,6.797966796875,0.09862462488114833,-0.2751642640918493,0.011641411020234227
1772709198290992000,6.8079921875,0.13323650405704973,-0.28559768756181,0.0043575741549953815
1772709198301017000,6.81801708984375,0.1132914481371641,-0.16031835305429995,0.06766242731921375
1772709198311042000,6.8280419921875,0.028328268861770627,0.08507095049880445,0.14076368469148873
1772709198321067000,6.83806689453125,-0.09599310733377933,0.28403431070260704,0.1693769810397178
1772709198331092200,6.84809228515625,-0.1477957752853632,0.2795570191580802,0.11212762852218001
1772709198341117000,6.858116943359375,-0.06876666223406791,0.06291917831487953,-0.03344502735361456
1772709198351140900,6.868140869140625,0.042344519254565234,-0.1330613666858524,-0.073546261193417
1772709198361166000,6.878166015625,0.05637713626027107,-0.08645809400826691,-0.012778050367347896
1772709198371191000,6.88819091796875,-0.16960370246767997,0.005206409536674618,0.0759164974560961
1772709198381216000,6.898216064453125,-0.3019739450842142,-0.0034678222410380838,0.03243924784455448
1772709198391241000,6.908240966796875,-0.09425298566818237,-0.019764877047389745,-0.0311681684628129
1772709198401266200,6.91826611328125,0.19702303979098795,-0.061140989661216734,-0.035898009996302424
1772709198411291100,6.928291015625,0.21890812386274336,-0.08401698446646333,-0.011122757440991698
1772709198421315800,6.93831591796875,0.09398878177404403,-0.02894866578243673,0.006426270187832415
1772709198431341000,6.948341064453125,0.0004155950635671615,0.07068301724940539,-0.03458433358184993
1772709198441365000,6.958364990234375,-0.03617605975270271,0.06253799697756766,-0.05054897809606045
1772709198451390000,6.968389892578125,0.0026040450185537338,-0.03147942636907101,-0.05851918979026377
1772709198461415200,6.978415283203125,0.07107493917644024,-0.03774097098186612,-0.02176006945259869
1772709198471440100,6.988440185546875,0.10263093791306019,-0.0426568731393665,0.019660101498663426
1772709198481465000,6.998465087890625,0.0825964501440525,-0.0975402637105435,0.03852236715052277
1772709198491490000,7.008489990234375,0.05417056612670421,-0.16419088363870976,0.03758537856135517
1772709198501515000,7.018514892578125,0.027492402559518812,-0.1423012695223093,0.05461567954570055
1772709198511540000,7.0285400390625,0.02379120995402336,-0.11670366773344576,0.02945230445563793
1772709198521564000,7.03856396484375,0.005254851788282394,-0.10131612898744642,-0.0017762158922851085
1772709198531589000,7.048589111328125,-0.009267594560980797,-0.0938845907472074,-0.008978365823440254
1772709198541614000,7.058614013671875,-0.010684475621581077,-0.09552578208297491,-0.01798146422933787
1772709198551639000,7.06863916015625,-0.04044306954741478,-0.09975231373682618,-0.028590207733586427
1772709198561664000,7.0786640625,-0.021430910563468932,-0.10286759621314703,-0.03606763094216585
1772709198571689200,7.088689208984375,0.0423199693351984,-0.07956402364559471,-0.011008446878939867
1772709198581714000,7.0987138671875,0.0687935502409935,-0.06042100482359528,-0.0169069303330034
1772709198591739000,7.10873876953125,0.05472703096568584,-0.05113339038789272,-0.021765220551751552
1772709198601763800,7.118763916015625,0.02185235084593296,-0.017279124646261333,-0.024750410374999046
1772709198611788000,7.1287880859375,0.016852935123443602,-0.00040441608242690563,-0.024655754361487925
1772709198621813000,7.13881298828125,0.012339841613173485,-0.013671747804060578,-0.010562018285691737
1772709198631838200,7.148838134765625,0.0217635035187006,-0.011431786857545374,0.0017133797891438006
1772709198641863200,7.15886328125,0.036305239090323446,-0.02428213527612388,-0.00047276861090213057
1772709198651888000,7.16888818359375,0.03830664204061031,-0.03344247007034719,0.01944518010634929
1772709198661912800,7.178912841796875,0.04300093733668327,-0.028193755761906504,0.031416188407130535
1772709198671938000,7.18893798828125,0.03512158226370811,-0.045795974882692096,0.0266565727898851
1772709198681963000,7.198962890625,0.014075287103652953,-0.05416968934386968,0.02654861890338361
1772709198691987000,7.208987060546875,0.030731822872161862,-0.05807897174209356,0.03958769482709467
1772709198702012200,7.21901220703125,0.052335167393088335,-0.06810607943348586,0.016612440898455677
1772709198712037000,7.229037109375,0.05027122060060501,-0.06817907160446048,0.02820898986365646
1772709198722062000,7.23906201171875,0.03232522954344749,-0.07833937722146511,0.03997545203566551
1772709198732087000,7.249087158203125,0.01958966661095619,-0.06706884534023702,0.03814151460677385
1772709198742112000,7.259112060546875,0.013113748595118522,-0.020014029502868652,0.03141816116850823
1772709198752137000,7.269136962890625,0.001404021579027176,-0.016663842292129992,-0.004309533762186765
1772709198762162000,7.279161865234375,-0.001152092644572258,-0.021142595141381025,0.006699168845079839
1772709198772186000,7.28918603515625,0.005737082347273826,-0.03351166284903884,0.016463095555640756
1772709198782211000,7.299211181640625,0.02636544435620308,-0.034740839317813514,0.0014672960735857485
1772709198792236000,7.309236083984375,0.02365267826616764,-0.016820494158565995,-0.020656199863925574
1772709198802261000,7.319260986328125,0.022001988449692724,0.014752017321437596,-0.01538081674426794
1772709198812286200,7.3292861328125,-0.0023579613029956815,0.0016786007367074489,-0.010946451026014983
1772709198822311000,7.339310791015625,-0.0003828618377447128,-0.03151420542150735,-5.479892715811729e-7
1772709198832336000,7.3493359375,0.01817453911602497,-0.04792736088819802,0.01234170477669686
1772709198842361000,7.359361083984375,0.028193244305253027,-0.05726480581499636,-0.006995119584351777
1772709198852386000,7.369385986328125,0.02698912921249866,-0.07593450803682207,-0.006687953331321477
1772709198862410000,7.379409912109375,0.02951251021027565,-0.07705839750021695,0.000004858838208019733
1772709198872435200,7.389435302734375,0.004781973579525947,-0.07805420360453426,0.018867562881484626
1772709198882460200,7.399460205078125,0.02612520585954189,-0.08597769008018076,-0.00004946516491472721
1772709198892484900,7.40948486328125,0.040727147185802455,-0.07649908311702311,0.0016910948920994995
1772709198902509800,7.419509765625,0.03618132044970989,-0.04265804218314588,-0.005104556597396731
1772709198912535000,7.42953515625,0.005903671085834503,-0.04047098046764731,-0.009531798455119133
1772709198922560000,7.43956005859375,0.009304419440031051,-0.0608875994220376,-0.0012355696769431232
1772709198932585000,7.4495849609375,0.017355623948574064,-0.08320113803893327,0.012175189103372395
1772709198942609200,7.459609130859375,0.04605097255706787,-0.09793138191998005,0.011171565018780529
1772709198952634000,7.469634033203125,0.07740764932930469,-0.0586173164024949,-0.0012609963791444898
1772709198962659000,7.4796591796875,0.045319735673069954,0.015869915435463188,-0.018993271620385346
1772709198972684000,7.48968408203125,-0.05148761065304279,-0.005557122670486569,0.02431373599078506
1772709198982709000,7.499708984375,-0.02258124964237213,-0.053686801197752355,0.02801218864992261
1772709198992734000,7.50973388671875,0.051604515030980104,-0.06390234413333237,0.016298333447985352
1772709199002759000,7.519759033203125,0.05035130009949207,-0.06123027537986636,-0.009478606963157653
1772709199012784000,7.5297841796875,0.04404489343166351,-0.04091024866774678,-0.009553023906238377
1772709199022808000,7.53980810546875,0.0007779986351728439,-0.0256662100456655,0.007757007334940135
1772709199032833000,7.5498330078125,-0.01316869365274906,-0.02972922170087695,0.005020202782191336
1772709199042858200,7.559858154296875,-0.002568389183282852,-0.03743497377261519,0.007782470569759607
1772709199052883000,7.569883056640625,0.032440380355715746,-0.031150486675649878,0.025764373190514743
1772709199062908000,7.579907958984375,0.054575639796257014,-0.05412168548367917,0.021235570654459298
1772709199072932900,7.589932861328125,0.038547465059161186,-0.043305034849792715,0.015783406195789575
1772709199082958000,7.5999580078125,0.014153613036870955,-0.04019062915630638,-0.006096892102994024
1772709199092983000,7.609983154296875,0.014919921234250068,-0.04511829481683671,-0.005397767390310764
1772709199103007700,7.6200078125,0.02003273420333862,-0.0533165065806359,-0.009733860365860164
1772709199113032000,7.630031982421875,0.02365267826616764,-0.05083469970226288,0.0069979691285639994
1772709199123057000,7.640056884765625,0.034758009648323054,-0.04130845420509577,0.00046531595680862663
1772709199133081600,7.65008154296875,0.018200842601060866,-0.054835532841458916,0.0014816899251192807
1772709199143106800,7.66010693359375,-0.04668810141682624,-0.0583749590139836,-0.07920490800961852
1772709199153131800,7.6701318359375,0.3601134148418903,0.013326222302019596,-0.35421003601700063
1772709199163156700,7.68015673828125,0.5565232911705971,0.0014602087456732987,0.2124450287958607
1772709199173181700,7.690181640625,-0.18537585661709308,-0.1854827510576695,0.36411676873173565
1772709199183207000,7.70020703125,-0.7488952902853488,-0.11795052598938345,0.021697854403965173
1772709199193230800,7.71023095703125,-0.5262240144968032,0.11068586874864995,-0.09961286873351782
1772709199203255600,7.720255615234375,0.15961773050427436,-0.006492649954929947,-0.10004048302844167
1772709199213280800,7.73028076171875,0.5472428371280431,-0.24224516030848026,0.09212974643651395
1772709199223305700,7.7403056640625,0.41401685446500774,-0.18998298508636652,0.06288206117488443
1772709199233330700,7.75033056640625,-0.06862988411188126,-0.06668561817631125,-0.05303849335685372
1772709199243355600,7.760355712890625,-0.4077010954469442,0.05761325392648577,-0.06724032944962383
1772709199253380900,7.770380859375,-0.24133447520434856,0.1194920563429594,-0.08364055236950516
