time,seconds_elapsed,z,y,x
1772709191535474400,0.052474365234375,0.007538610137999058,0.04140949249267578,-0.014546718448400497
1772709191545499600,0.062499755859375,0.004260258749127388,0.0297232735902071,-0.01781974360346794
1772709191555524600,0.072524658203125,0.003937750123441219,0.02052711322903633,-0.011237740516662598
1772709191565549600,0.082549560546875,0.0029531794134527445,0.02413063682615757,-0.007729558739811182
1772709191575574500,0.092574462890625,0.0032112395856529474,0.039739422500133514,-0.008664860390126705
1772709191585599500,0.102599609375,0.003995007835328579,0.04984558746218681,-0.011607120744884014
1772709191595624400,0.11262451171875,0.006777478381991386,0.04116528108716011,-0.012771455571055412
1772709191605649400,0.1226494140625,0.006709568202495575,0.024500548839569092,-0.007078149355947971
1772709191615674400,0.13267431640625,0.005000085104256868,0.016199210658669472,-0.001062334980815649
1772709191625698600,0.142698486328125,0.004006193019449711,0.013814881443977356,-0.0012130698887631297
1772709191635723500,0.1527236328125,0.0037523938808590174,0.009007609449326992,-0.004186489153653383
1772709191645748700,0.162748779296875,0.002433863002806902,0.0013004215434193611,-0.005172391422092915
1772709191655773700,0.172773681640625,0.003959055058658123,0.0008844357798807323,-0.005109274294227362
1772709191665798400,0.18279833984375,0.0025331987999379635,0.01092588435858488,-0.004026965703815222
1772709191675823400,0.1928232421875,0.0024048343766480684,0.012018047273159027,-0.002843723399564624
1772709191685848600,0.2028486328125,-0.0005299690528772771,0.003221892286092043,-0.006631004624068737
1772709191695873500,0.21287353515625,0.0014586133183911443,0.0052142031490802765,-0.009063269942998886
1772709191705898500,0.2228984375,0.001291100517846644,0.021147362887859344,-0.010869692079722881
1772709191715922700,0.232922607421875,0.0028394623659551144,0.028733111917972565,-0.010816162452101707
1772709191725947600,0.24294775390625,0.0017632789677008986,0.018495120108127594,-0.008355667814612389
1772709191735972400,0.252972412109375,0.0015994944842532277,0.003524960018694401,-0.006624612957239151
1772709191745997300,0.262997314453125,0.0002378202771069482,-0.003100185887888074,-0.012136823497712612
1772709191756022500,0.2730224609375,0.0014064153656363487,-0.005505020264536142,-0.015479090623557568
1772709191766047500,0.283047607421875,0.0033577135764062405,0.0015041533624753356,-0.015451127663254738
1772709191776072400,0.293072509765625,0.006610764656215906,0.03466184064745903,-0.018986474722623825
1772709191786097400,0.303097412109375,-0.00461552431806922,0.08599133789539337,-0.022891733795404434
1772709191796122600,0.31312255859375,-0.0015968313673511147,0.06114191561937332,-0.02985217049717903
1772709191806146600,0.323146484375,-0.006178800016641617,0.07942025363445282,-0.04061267524957657
1772709191816171500,0.333171630859375,-0.014762434177100658,0.1085730791091919,-0.04693315550684929
1772709191826196500,0.343196533203125,-0.017359815537929535,0.12278877198696136,-0.051544949412345886
1772709191836221400,0.353221435546875,-0.01564660482108593,0.16314871609210968,-0.06267350167036057
1772709191846246400,0.363246337890625,-0.021704763174057007,0.22506959736347198,-0.07203690707683563
1772709191856271600,0.373271728515625,-0.03586665540933609,0.2960604131221771,-0.08460995554924011
1772709191866296600,0.383296630859375,-0.041781533509492874,0.34093016386032104,-0.09831831604242325
1772709191876321500,0.393321533203125,-0.03475957736372948,0.36722061038017273,-0.11022371053695679
1772709191886345700,0.403345703125,-0.033912960439920425,0.41471970081329346,-0.12029179185628891
1772709191896370400,0.413370361328125,-0.03868507593870163,0.477297842502594,-0.1271752566099167
1772709191906395400,0.4233955078125,-0.041735462844371796,0.5012345910072327,-0.11817537248134613
1772709191916420400,0.43342041015625,-0.038843803107738495,0.5317869186401367,-0.1099880188703537
1772709191926445600,0.443445556640625,-0.03274809196591377,0.5139237642288208,-0.08705207705497742
1772709191936470500,0.453470458984375,-0.021541777998209,0.489284485578537,-0.06911782175302505
1772709191946495500,0.46349560546875,-0.017314542084932327,0.40672221779823303,-0.04061693325638771
1772709191956520400,0.4735205078125,-0.013915815390646458,0.34192803502082825,-0.03549274802207947
1772709191966545700,0.483545654296875,-0.008729841560125351,0.2229662388563156,-0.017721205949783325
1772709191976569300,0.4935693359375,0.005104747135192156,0.09187186509370804,-0.002784334821626544
1772709191986594600,0.503594482421875,0.032579779624938965,-0.05278225615620613,0.012954946607351303
1772709191996619500,0.51361962890625,0.047331828624010086,-0.1427057534456253,0.03341201692819595
1772709192006644500,0.52364453125,0.03825497627258301,-0.14862196147441864,0.05932830274105072
1772709192016669400,0.53366943359375,0.016823455691337585,-0.18664471805095673,0.09582053869962692
1772709192026694700,0.543694580078125,0.009383381344377995,-0.2721710801124573,0.1204470545053482
1772709192036719600,0.5537197265625,0.022058431059122086,-0.34902429580688477,0.10784310847520828
1772709192046744600,0.56374462890625,0.04989645257592201,-0.36761635541915894,0.07943330705165863
1772709192056769500,0.57376953125,0.05775650590658188,-0.30624088644981384,0.060081444680690765
1772709192066793500,0.58379345703125,0.043422307819128036,-0.23316268622875214,0.05853148549795151
1772709192076818400,0.593818359375,0.03951731696724892,-0.20986880362033844,0.06460322439670563
1772709192086843400,0.603843505859375,0.027105120941996574,-0.20730552077293396,0.05841510742902756
1772709192096868900,0.613868896484375,0.008863000199198723,-0.17792099714279175,0.019577961415052414
1772709192106894000,0.62389404296875,0.0006508765509352088,-0.12138022482395172,-0.016443954780697823
1772709192116919000,0.6339189453125,0.005793706979602575,-0.08168900012969971,-0.020772656425833702
1772709192126944000,0.643944091796875,0.004793956410139799,-0.046835415065288544,-0.003846936160698533
1772709192136969200,0.65396923828125,0.00854342058300972,-0.0408150739967823,0.01846609264612198
1772709192146994200,0.663994140625,0.012108594179153442,-0.03688238561153412,0.017852500081062317
1772709192157017900,0.674017822265625,0.016169115900993347,-0.023302925750613213,0.006313822232186794
1772709192167043000,0.68404296875,0.017075123265385628,-0.013099290430545807,0.0012639362830668688
1772709192177068000,0.694068115234375,0.01563914678990841,0.002171008847653866,-0.0007637945818714797
1772709192187093000,0.704093017578125,0.015106515027582645,0.013219399377703667,-0.0008122641011141241
1772709192197118000,0.714117919921875,0.01047367975115776,-0.013825002126395702,-0.0020852552261203527
1772709192207143200,0.72414306640625,0.007292001508176327,-0.047396011650562286,-0.01648470014333725
1772709192217168100,0.734168212890625,0.008165517821907997,-0.04944797605276108,-0.03467781841754913
1772709192227193000,0.744193115234375,0.0033832797780632973,-0.05227652192115784,-0.04068058356642723
1772709192237217800,0.7542177734375,-0.0008870989549905062,-0.06445808708667755,-0.030103307217359543
1772709192247242000,0.764241943359375,-0.0017395768081769347,-0.06196190416812897,-0.023906132206320763
1772709192257267000,0.774266845703125,0.0012839100090786815,-0.051474910229444504,-0.02454955130815506
1772709192267292000,0.7842919921875,0.0021196098532527685,-0.04037565365433693,-0.026639599353075027
1772709192277317000,0.794317138671875,0.0008990831556729972,-0.026332804933190346,-0.023989489302039146
1772709192287342000,0.804342041015625,0.0032434638123959303,-0.011869709007441998,-0.02081926167011261
1772709192297367000,0.814366943359375,0.00270710326731205,-0.008407599292695522,-0.01853133924305439
1772709192307392000,0.82439208984375,0.004601676017045975,-0.014361628331243992,-0.017163541167974472
1772709192317417000,0.8344169921875,0.006101834587752819,-0.023741548880934715,-0.014740330167114735
1772709192327442000,0.84444189453125,0.0020871192682534456,-0.04560024291276932,-0.010455037467181683
1772709192337467000,0.854466796875,0.0008801747462712228,-0.0502338744699955,-0.00860573910176754
1772709192347491000,0.864490966796875,0.001820803270675242,-0.04632408916950226,-0.006800648290663958
1772709192357516000,0.87451611328125,-0.0005230448441579938,-0.03930133208632469,-0.0046906257048249245
1772709192367541000,0.884541015625,0.0020485036075115204,-0.042875029146671295,-0.0020511667244136333
1772709192377566200,0.894566162109375,0.004691957030445337,-0.0458628311753273,0.0014144048327580094
1772709192387591200,0.904591064453125,0.0008311725687235594,-0.039075229316949844,0.007141532842069864
1772709192397615900,0.914615966796875,0.0009843043517321348,-0.03304130584001541,0.007694405037909746
1772709192407640800,0.924640869140625,0.0008287757518701255,-0.03416542708873749,0.00800306536257267
1772709192417666000,0.934666015625,-0.00045593318645842373,-0.04933159798383713,0.007836883887648582
1772709192427691000,0.94469091796875,-0.002831739140674472,-0.0667119175195694,0.00512685114517808
1772709192437715000,0.95471484375,-0.0024351945612579584,-0.07966287434101105,-0.0006151901907287538
1772709192447740200,0.964740234375,-0.0023640880826860666,-0.07124382257461548,-0.010025203227996826
1772709192457765000,0.97476513671875,0.001882854849100113,-0.06812499463558197,-0.01423273142427206
1772709192467790000,0.9847900390625,-0.00042504051816649735,-0.06422772258520126,-0.012777314521372318
1772709192477815000,0.99481494140625,-0.000577107013668865,-0.055215585976839066,-0.011008442379534245
1772709192487840000,1.004840087890625,-0.0018466358305886388,-0.042521361261606216,-0.0025217472575604916
1772709192497865000,1.014864990234375,0.0005845638806931674,-0.02839808538556099,0.0017630126094445586
1772709192507890000,1.024889892578125,-0.00014700648898724467,-0.020060259848833084,0.003352653468027711
1772709192517914000,1.0349140625,-0.0010048106778413057,-0.021314343437552452,0.006367351859807968
1772709192527939000,1.04493896484375,0.00014807176194153726,-0.024888571351766586,0.009354885667562485
1772709192537964000,1.054964111328125,0.00039468047907575965,-0.02461533062160015,0.014484134502708912
1772709192547989200,1.0649892578125,-0.00025220136740244925,-0.0289395060390234,0.018493257462978363
1772709192558014000,1.075013916015625,0.0005715143634006381,-0.036553751677274704,0.025797775015234947
1772709192568039000,1.085038818359375,0.0008471515611745417,-0.03964195027947426,0.031564850360155106
1772709192578064000,1.09506396484375,0.005287440028041601,-0.04826926067471504,0.04144198074936867
1772709192588089000,1.105089111328125,0.006542587652802467,-0.05195241421461105,0.04686923697590828
1772709192598114000,1.115114013671875,0.007607585750520229,-0.045221541076898575,0.050636012107133865
1772709192608139000,1.125138916015625,0.010486995801329613,-0.036917004734277725,0.05347307771444321
1772709192618163200,1.1351630859375,0.013140036724507809,-0.03389937803149223,0.050156645476818085
1772709192628188200,1.145188232421875,0.013518205843865871,-0.03309856355190277,0.04429236426949501
1772709192638212900,1.155212890625,0.013089437037706375,-0.025725070387125015,0.034824028611183167
1772709192648237800,1.16523779296875,0.01245427317917347,-0.02327815815806389,0.026145050302147865
1772709192658263000,1.175262939453125,0.012569321319460869,-0.010190851986408234,0.018557971343398094
1772709192668288000,1.1852880859375,0.012036423198878765,-0.0037731665652245283,0.007501858286559582
1772709192678313000,1.19531298828125,0.011168498545885086,-0.0018423747969791293,0.0020538298413157463
1772709192688338000,1.205337890625,0.014142184518277645,0.009868876077234745,-0.0010373012628406286
1772709192698363100,1.215363037109375,0.01329769566655159,0.012880112044513226,-0.0062309978529810905
1772709192708387000,1.225386962890625,0.012211658991873264,0.015411713160574436,-0.010660633444786072
1772709192718412000,1.235412109375,0.012296879664063454,0.013795707374811172,-0.007709052413702011
1772709192728437000,1.24543701171875,0.007711182814091444,0.0108297448605299,-0.004591023549437523
1772709192738462000,1.2554619140625,0.0076123797334730625,0.008009989745914936,-0.005942311137914658
1772709192748487000,1.26548681640625,0.003230947069823742,0.0010010822443291545,-0.0029406624380499125
1772709192758512000,1.27551220703125,0.002746251644566655,-0.0005968143814243376,-0.0002892192860599607
1772709192768537000,1.285537109375,0.0014623417519032955,-0.0073204971849918365,-0.0002860235108528286
1772709192778562000,1.29556201171875,-0.00008069378236541525,-0.010389789938926697,-0.0026820695493370295
1772709192788587000,1.3055869140625,-0.001933721243403852,-0.0102592958137393,-0.0010466222884133458
1772709192798611000,1.31561083984375,-0.0030533140525221825,-0.010722419247031212,-0.000639424950350076
1772709192808636000,1.325635986328125,-0.0017904432024806738,-0.013185043819248676,-0.000618918624240905
1772709192818660900,1.335660888671875,-0.0014540859265252948,-0.01998116448521614,0.002625077962875366
1772709192828686000,1.34568603515625,-0.00293320557102561,-0.009040366858243942,0.0012181298807263374
1772709192838711000,1.3557109375,-0.0014269216917455196,-0.0022658174857497215,0.0010993528412654996
1772709192848736000,1.365736083984375,0.000467118457891047,-0.0057076867669820786,0.001383778522722423
1772709192858761000,1.375760986328125,-0.0008125304593704641,-0.003397927153855562,-0.000251402409048751
1772709192868786200,1.3857861328125,-0.0012218583142384887,-0.0004058657505083829,-0.0032754219137132168
1772709192878811100,1.39581103515625,0.000624777574557811,0.002491120947524905,-0.004594219382852316
1772709192888835800,1.4058359375,0.0025931198615580797,0.0018991001415997744,-0.007231547497212887
1772709192898860000,1.415860107421875,0.0034077810123562813,0.0036586506757885218,-0.006103698629885912
1772709192908885000,1.425885009765625,0.0022943131625652313,0.004846953321248293,-0.004740693140774965
1772709192918910000,1.435909912109375,0.003040797309949994,0.009792443364858627,-0.00791384931653738
1772709192928935200,1.44593505859375,0.0006833671359345317,0.004976915195584297,-0.015019696205854416
1772709192938960100,1.455960205078125,0.0019390475936233997,-0.007807855494320393,-0.019583022221922874
1772709192948985000,1.465985107421875,-0.000016245283404714428,-0.007503722794353962,-0.018393388018012047
1772709192959010000,1.476010009765625,0.002213619416579604,-0.0015004249289631844,-0.007192132994532585
1772709192969035000,1.486034912109375,0.0009808422764763236,0.00449807895347476,-0.007192132994532585
1772709192979060000,1.49606005859375,0.0016729978378862143,0.006429137196391821,-0.011667574755847454
1772709192989084000,1.506083984375,0.0041151163168251514,0.002216815249994397,-0.016512930393218994
1772709192999109000,1.516109130859375,0.0009028115891851485,-0.0021664814557880163,-0.01689882203936577
1772709193009134000,1.526134033203125,0.00023409185814671218,-0.01019884180277586,-0.01437973789870739
1772709193019159000,1.536158935546875,-0.00016192019393201917,-0.012324577197432518,-0.010696319863200188
1772709193029184000,1.54618408203125,0.0026016421616077423,-0.006009423173964024,-0.0072898706421256065
1772709193039209200,1.556209228515625,0.004525243304669857,-0.0016165387351065874,-0.0036362800747156143
1772709193049234000,1.56623388671875,0.002284459536895156,-0.00583658367395401,-0.0038986015133559704
1772709193059259000,1.5762587890625,0.004710599314421415,-0.01564021222293377,-0.005281314719468355
1772709193069283800,1.586283935546875,0.005616340320557356,-0.007896006107330322,-0.006439789664000273
1772709193079308000,1.59630810546875,0.0030162963084876537,0.0018793927738443017,-0.005784385837614536
1772709193089333000,1.6063330078125,0.005672799423336983,0.002796585438773036,-0.004606735892593861
1772709193099357400,1.616357421875,0.004444282967597246,-0.00033342777169309556,-0.0046091326512396336
1772709193109382400,1.62638232421875,0.004816326778382063,0.0027361316606402397,-0.0018381137633696198
1772709193119407400,1.636407470703125,0.005534847732633352,0.004219246096909046,0.003988882526755333
1772709193129432300,1.646432373046875,0.004598480183631182,0.0002759034978225827,0.002972354181110859
1772709193139457500,1.65645751953125,0.002320678671821952,-0.0028298748657107353,-0.004739094991236925
1772709193149482500,1.666482421875,0.0000476705827168189,-0.0054640076123178005,-0.008883239701390266
1772709193159507500,1.676507568359375,-0.003114300547167659,-0.003297259798273444,-0.01449665054678917
1772709193169531400,1.686531494140625,-0.005391303449869156,-0.003022687742486596,-0.019877567887306213
1772709193179556400,1.696556396484375,-0.006934072356671095,-0.005254150368273258,-0.022418223321437836
1772709193189581300,1.706581298828125,-0.006898385938256979,-0.002799514913931489,-0.029472405090928078
1772709193199606500,1.7166064453125,-0.010085657238960266,-0.0007091998122632504,-0.03303864225745201
1772709193209631500,1.726631591796875,-0.01257864199578762,-0.005432049743831158,-0.031556326895952225
1772709193219656400,1.736656494140625,-0.014675615355372429,-0.007305583450943232,-0.0244882982224226
1772709193229681400,1.746681396484375,-0.0137802604585886,-0.007841144688427448,-0.02394075319170952
1772709193239706600,1.75670654296875,-0.013978400267660618,0.0024802018888294697,-0.024480309337377548
1772709193249731600,1.766731689453125,-0.01570785604417324,0.003486610483378172,-0.03262478858232498
1772709193259755300,1.77675537109375,-0.020305804908275604,-0.0014895059866830707,-0.039198268204927444
1772709193269780500,1.786780517578125,-0.02214391715824604,-0.009853163734078407,-0.04090775176882744
1772709193279805400,1.796805419921875,-0.022724753245711327,-0.0062584285624325275,-0.037327397614717484
1772709193289830400,1.806830322265625,-0.024353010579943657,0.002171008847653866,-0.03599262237548828
1772709193299855400,1.81685546875,-0.023267505690455437,0.006375607568770647,-0.036246687173843384
1772709193309880600,1.826880615234375,-0.0232965350151062,0.011548797599971294,-0.03948269411921501
1772709193319905500,1.836905517578125,-0.024651017040014267,0.008870190940797329,-0.040769267827272415
1772709193329930500,1.846930419921875,-0.025438779965043068,0.014260695315897465,-0.044071320444345474
1772709193339955500,1.85695556640625,-0.026280872523784637,0.02394341677427292,-0.04791373014450073
1772709193349979400,1.8669794921875,-0.026010295376181602,0.024719195440411568,-0.04980617016553879
1772709193360004400,1.87700439453125,-0.026879284530878067,0.022005699574947357,-0.053133524954319
1772709193370029600,1.887029541015625,-0.028438832610845566,0.02594185248017311,-0.05616127327084541
1772709193380054500,1.897054443359375,-0.02954084798693657,0.0314178429543972,-0.05415191873908043
1772709193390079500,1.90707958984375,-0.03092995285987854,0.030461236834526062,-0.050095126032829285
1772709193400104400,1.9171044921875,-0.03293025121092796,0.014009824953973293,-0.04544125124812126
1772709193410129700,1.927129638671875,-0.03407008573412895,0.00001997370782191865,-0.04706231877207756
1772709193420154400,1.937154296875,-0.031921979039907455,0.006608101539313793,-0.04677363112568855
1772709193430179300,1.947179443359375,-0.03797374665737152,0.02340519055724144,-0.048656217753887177
1772709193440203500,1.95720361328125,-0.045227132737636566,0.018495386466383934,-0.053291983902454376
1772709193450228500,1.967228515625,-0.041790056973695755,-0.0030743530951440334,-0.04785194620490074
1772709193460253400,1.97725341796875,-0.030847128480672836,-0.02322223223745823,-0.027282487601041794
1772709193470278400,1.9872783203125,-0.02822897396981716,-0.01563861407339573,0.006929012481123209
1772709193480303600,1.9973037109375,-0.01949194259941578,0.001240766723640263,0.028617529198527336
1772709193490328600,2.00732861328125,-0.011083809658885002,0.016322514042258263,0.026545323431491852
1772709193500353300,2.017353271484375,-0.007837150245904922,0.010388459078967571,0.011317902244627476
1772709193510378200,2.027378173828125,-0.006080795545130968,-0.0026205505710095167,0.005029646214097738
1772709193520403500,2.037403564453125,-0.00042876892257481813,-0.010397513397037983,0.012169580906629562
1772709193530427400,2.047427490234375,0.004487160127609968,-0.00034434671397320926,0.02455647476017475
1772709193540452600,2.05745263671875,0.00993332453072071,0.01708098314702511,0.0275645162910223
1772709193550477600,2.0674775390625,0.015418371185660362,0.008187889121472836,0.024892034009099007
1772709193560502500,2.07750244140625,0.01576032117009163,0.004285558592528105,0.024116255342960358
1772709193570527500,2.087527587890625,0.018483668565750122,0.007484015077352524,0.02148558385670185
1772709193580552400,2.097552490234375,0.022581741213798523,0.005434979218989611,0.018820825964212418
1772709193590577400,2.107577392578125,0.023022495210170746,0.005939381662756205,0.01817980222404003
1772709193600602400,2.117602294921875,0.02160516008734703,0.016459399834275246,0.025469940155744553
1772709193610627300,2.12762744140625,0.022546853870153427,0.006479737348854542,0.024566063657402992
1772709193620651500,2.137651611328125,0.024959944188594818,-0.004643221385776997,0.021739384159445763
1772709193630676500,2.147676513671875,0.024057133123278618,-0.00523737259209156,0.02430720441043377
1772709193640701400,2.157701416015625,0.02340439148247242,0.0015744607662782073,0.02725399099290371
1772709193650726700,2.1677265625,0.022458171471953392,0.006685066968202591,0.023239541798830032
1772709193660751400,2.17775146484375,0.02268081158399582,0.0013377057621255517,0.017368603497743607
1772709193670776300,2.1877763671875,0.019595006480813026,-0.014148842543363571,0.014288924634456635
1772709193680801300,2.19780126953125,0.016166985034942627,-0.016461797058582306,0.012489426881074905
1772709193690826500,2.207826416015625,0.014888135716319084,-0.0012245214311406016,0.012996758334338665
1772709193700850400,2.217850341796875,0.01327106449753046,0.0019489012192934752,0.008153799921274185
1772709193710875400,2.22787548828125,0.014141385443508625,-0.012606339529156685,0.0006708502769470215
1772709193720900600,2.237900634765625,0.007970042526721954,-0.022372683510184288,0.0036272252909839153
1772709193730925300,2.24792529296875,0.003914047963917255,-0.011685684323310852,0.00440966198220849
1772709193740950300,2.2579501953125,0.003195793367922306,-0.003756921272724867,-0.000966993800830096
1772709193750975500,2.2679755859375,0.002493784064427018,-0.001797101111151278,-0.010905911214649677
1772709193761000400,2.27800048828125,-0.001070857048034668,-0.005742574110627174,-0.014062022790312767
1772709193771025400,2.288025390625,-0.0027808728627860546,-0.006274939980357885,-0.013453224673867226
1772709193781049600,2.298049560546875,-0.0036171053070575,-0.004995557479560375,-0.015924638137221336
1772709193791074600,2.308074462890625,-0.0032812808640301228,0.00276089902035892,-0.011200190521776676
1772709193801099500,2.318099609375,-0.003858387703076005,0.006918360013514757,-0.008890963159501553
1772709193811124200,2.328124267578125,-0.00555242458358407,-0.0017773937433958054,-0.008356999605894089
1772709193821149400,2.3381494140625,-0.004072239622473717,-0.0043923514895141125,-0.010269149206578732
1772709193831174400,2.34817431640625,-0.005536711774766445,-0.0046845003962516785,-0.0104150902479887
1772709193841199400,2.358199462890625,-0.0029401297215372324,-0.01804211735725403,0.0009659285424277186
1772709193851224300,2.368224365234375,0.0002146507758880034,-0.028075842186808586,0.030838873237371445
1772709193861249500,2.37824951171875,0.0015137407463043928,-0.027652133256196976,0.06174938380718231
1772709193871273500,2.3882734375,0.002778742229565978,-0.026155970990657806,0.06865309923887253
1772709193881298400,2.39829833984375,-0.000493750034365803,-0.027762921527028084,0.05864546820521355
1772709193891323400,2.408323486328125,-0.002183525823056698,-0.03326394781470299,0.04652808606624603
1772709193901348400,2.418348388671875,-0.00145222176797688,-0.04036766290664673,0.02682735212147236
1772709193911373300,2.428373291015625,-0.0024429175537079573,-0.03098481334745884,0.007190002128481865
1772709193921398500,2.4383984375,0.0037942056078463793,-0.008259527385234833,-0.003495665267109871
1772709193931423500,2.448423583984375,0.01110405009239912,0.01709536276757717,0.0046727824956178665
1772709193941448400,2.458448486328125,0.012455337680876255,0.03591565787792206,0.018436264246702194
1772709193951473400,2.468473388671875,0.016393886879086494,0.03971625491976738,0.007707454264163971
1772709193961497600,2.47849755859375,0.02039901539683342,0.03472336009144783,-0.017197096720337868
1772709193971522300,2.488522216796875,0.023606525734066963,0.04349634423851967,-0.02798209898173809
1772709193981547300,2.49854736328125,0.02221369370818138,0.06067879498004913,-0.026932282373309135
1772709193991572500,2.508572509765625,0.022902386263012886,0.06511455774307251,-0.037509024143218994
1772709194001597400,2.518597412109375,0.020785706117749214,0.052147090435028076,-0.04380393773317337
1772709194011622400,2.528622314453125,0.020720990374684334,0.034080471843481064,-0.04075834900140762
1772709194021647400,2.5386474609375,0.01836036518216133,0.03295555338263512,-0.031441014260053635
1772709194031672600,2.548672607421875,0.018151840195059776,0.0431986041367054,-0.02605050802230835
1772709194041696500,2.558696533203125,0.01636139675974846,0.03431669622659683,-0.016049006953835487
1772709194051721200,2.56872119140625,0.01799258217215538,0.02003389596939087,-0.003875698195770383
1772709194061746400,2.578746337890625,0.01552143506705761,0.011932825669646263,0.005614476278424263
1772709194071771400,2.588771484375,0.016109460964798927,0.005062935408204794,0.017544638365507126
1772709194081796400,2.59879638671875,0.02161181904375553,0.009208145551383495,0.02905881591141224
1772709194091821300,2.6088212890625,0.023558322340250015,0.022117553278803825,0.037091709673404694
1772709194101846800,2.6188466796875,0.02690272033214569,0.012485431507229805,0.040957819670438766
1772709194111871700,2.628871826171875,0.027702733874320984,0.0046360306441783905,0.03957430645823479
1772709194121895400,2.6388955078125,0.028558673337101936,0.010802313685417175,0.03044818714261055
1772709194131920600,2.648920654296875,0.028071049600839615,0.025071265175938606,0.02461852692067623
1772709194141945600,2.658945556640625,0.02418496459722519,0.03910878673195839,0.01281379908323288
1772709194151970600,2.668970458984375,0.016385365277528763,0.02292742021381855,-0.0004013383586425334
1772709194161995800,2.678995849609375,0.012601811438798904,-0.0027601001784205437,-0.0008008125587366521
1772709194172020700,2.689020751953125,0.011438809335231781,-0.01908128336071968,0.013947507366538048
1772709194182045700,2.699045654296875,0.008945025503635406,-0.01564367488026619,0.03476810082793236
1772709194192070700,2.709070556640625,0.005102616734802723,-0.006172408349812031,0.04764022305607796
1772709194202095900,2.719095947265625,0.0015246596885845065,0.0011544802691787481,0.04255411773920059
1772709194212119600,2.72911962890625,-0.0003968109958805144,-0.01661359705030918,0.02401372417807579
1772709194222144500,2.73914453125,-0.0026325348298996687,-0.047868188470602036,0.013493970967829227
1772709194232169700,2.749169677734375,-0.002223206916823983,-0.05010924115777016,0.028665466234087944
1772709194242194700,2.759194580078125,0.003768372815102339,-0.02353222295641899,0.05547710880637169
1772709194252219600,2.7692197265625,0.012430837377905846,0.0022501046769320965,0.07190801203250885
1772709194262244600,2.77924462890625,0.016096677631139755,0.008057127706706524,0.06566343456506729
1772709194272269800,2.789269775390625,0.016806676983833313,0.0017867147689685225,0.04646923020482063
1772709194282294800,2.799294677734375,0.018335331231355667,-0.006597182713449001,0.023850204423069954
1772709194292318500,2.809318359375,0.017291905358433723,-0.008825715631246567,0.00643845833837986
1772709194302343700,2.81934375,0.018065020442008972,-0.0019632822368294,-0.0044197821989655495
1772709194312368600,2.82936865234375,0.02040833607316017,0.018808575347065926,-0.010742925107479095
1772709194322393600,2.8393935546875,0.020169982686638832,0.03675375506281853,-0.0261855311691761
1772709194332418600,2.84941845703125,0.02310425415635109,0.03748292848467827,-0.04013064131140709
1772709194342443800,2.85944384765625,0.024995364248752594,0.026695793494582176,-0.049434393644332886
1772709194352468700,2.86946875,0.022000906988978386,0.02292528934776783,-0.03959880769252777
1772709194362493700,2.87949365234375,0.0200424175709486,0.0412030965089798,-0.017784856259822845
1772709194372518700,2.8895185546875,0.02159237675368786,0.03913115710020065,-0.0029438582714647055
1772709194382542600,2.89954248046875,0.01776301860809326,0.020066119730472565,0.0037939392495900393
1772709194392567600,2.909567626953125,0.016573917120695114,0.0004791026876773685,0.014485199004411697
1772709194402592800,2.9195927734375,0.013996508903801441,-0.003157443832606077,0.03363785520195961
1772709194412617700,2.92961767578125,0.019292738288640976,-0.008058459497988224,0.04525349661707878
1772709194422642700,2.939642578125,0.024893365800380707,-0.012951218523085117,0.051526572555303574
1772709194432667600,2.949667724609375,0.02815227583050728,-0.013991715386509895,0.05817169323563576
1772709194442692900,2.95969287109375,0.02937226928770542,-0.015527027659118176,0.06267590075731277
1772709194452717600,2.969717529296875,0.028314461931586266,-0.015365640632808208,0.06302423775196075
1772709194462741500,2.979741455078125,0.029943251982331276,-0.017655692994594574,0.05795064941048622
1772709194472766700,2.9897666015625,0.026703249663114548,-0.01852414943277836,0.049073271453380585
1772709194482791700,2.999791748046875,0.0246086735278368,-0.021385183557868004,0.040760479867458344
1772709194492816600,3.009816650390625,0.024217987433075905,-0.022718628868460655,0.03726774454116821
1772709194502841600,3.019841552734375,0.02388695627450943,-0.02159184403717518,0.03310788422822952
1772709194512866800,3.02986669921875,0.025828400626778603,-0.015294800512492657,0.03441869467496872
1772709194522891800,3.039891845703125,0.026518693193793297,-0.006119677796959877,0.029095035046339035
1772709194532916500,3.04991650390625,0.027281954884529114,-0.0031649006996303797,0.014969628304243088
1772709194542940700,3.059940673828125,0.02630031295120716,-0.0019430422689765692,0.005800897255539894
1772709194552965600,3.069965576171875,0.025232385843992233,-0.00207699928432703,-0.008019310422241688
1772709194562990600,3.079990478515625,0.02334686741232872,0.004671450704336166,-0.02014814503490925
1772709194573015800,3.090015869140625,0.018395785242319107,0.014542990364134312,-0.024750620126724243
1772709194583040800,3.100040771484375,0.01685328222811222,0.010742126032710075,-0.022667495533823967
1772709194593065700,3.110065673828125,0.011710984632372856,0.004411792848259211,-0.024762604385614395
1772709194603090700,3.120090576171875,0.00887738075107336,0.005036303773522377,-0.026521887630224228
1772709194613115600,3.13011572265625,0.008982310071587563,0.011151454411447048,-0.02347336709499359
1772709194623139600,3.1401396484375,0.009008408524096012,0.011353322304785252,-0.017181117087602615
1772709194633164500,3.15016455078125,0.007219563238322735,0.009050220251083374,-0.013705958612263203
1772709194643189800,3.160189697265625,0.006588660646229982,0.007835818454623222,-0.01557949185371399
1772709194653214700,3.170214599609375,0.0016908409306779504,0.006015548016875982,-0.01272618118673563
1772709194663239700,3.18023974609375,0.0032439965289086103,-0.005864813458174467,-0.0038088529836386442
1772709194673264600,3.1902646484375,0.0038277613930404186,0.001580319833010435,-0.001868473831564188
1772709194683289900,3.200289794921875,0.0030391993932425976,0.005397162400186062,0.0031193606555461884
1772709194693314600,3.210314453125,0.00424161646515131,-0.004706870764493942,0.004507666453719139
1772709194703338500,3.22033837890625,0.0056831855326890945,-0.001609614584594965,0.007801996544003487
1772709194713363700,3.23036376953125,0.005608883686363697,0.00902705080807209,0.010066215880215168
1772709194723388700,3.240388671875,0.009793242439627647,-0.0028818065766245127,0.007476025726646185
1772709194733413600,3.25041357421875,0.009720271453261375,0.006727145053446293,0.0016847157385200262
1772709194743438800,3.26043896484375,0.0059873186983168125,0.013605024665594101,0.0024975123815238476
1772709194753463800,3.2704638671875,0.009265136905014515,0.0007970841252245009,0.008467254228889942
1772709194763488500,3.280488525390625,0.00863343570381403,-0.00011291803093627095,0.012464392930269241
1772709194773513500,3.290513427734375,0.005029379855841398,0.01507162768393755,0.010205766186118126
1772709194783538700,3.30053857421875,0.0074030552059412,0.002957440447062254,0.005738845560699701
1772709194793562600,3.310562744140625,0.007321562618017197,-0.0033388049341738224,0.004779575392603874
1772709194803587600,3.320587646484375,0.007317834068089724,-0.006626211106777191,0.009195894934237003
1772709194813612800,3.33061279296875,0.009272327646613121,-0.0017145430902019143,0.014593856409192085
1772709194823637800,3.3406376953125,0.013598899357020855,0.010263023898005486,0.018088988959789276
1772709194833662700,3.350662841796875,0.015173093415796757,0.010120544582605362,0.01329742930829525
1772709194843687400,3.3606875,0.016747022047638893,0.015156848356127739,0.005764412228018045
1772709194853712600,3.370712646484375,0.019089804962277412,0.005390238016843796,0.0010788465151563287
1772709194863736600,3.380736572265625,0.017046362161636353,0.0007566040731035173,0.0017363809747621417
1772709194873761500,3.390761474609375,0.01996838115155697,0.0002569950302131474,0.007231281138956547
1772709194883786800,3.400786865234375,0.02178758755326271,0.007166299968957901,0.007207312621176243
1772709194893811700,3.410811767578125,0.02046825736761093,0.017947575077414513,0.004507133737206459
1772709194903836700,3.420836669921875,0.01696193963289261,0.017125723883509636,-0.0003802994033321738
1772709194913861600,3.430861572265625,0.019993415102362633,0.00987207144498825,-0.0016743293963372707
1772709194923886600,3.440886474609375,0.015966182574629784,0.007890679873526096,-0.0020333235152065754
1772709194933911600,3.45091162109375,0.009678193368017673,0.011306184343993664,0.0013571468880400062
1772709194943936500,3.4609365234375,0.009551160968840122,0.015989618375897408,0.0035843485966324806
1772709194953960700,3.470960693359375,0.0064986455254256725,0.007987086661159992,0.008040616288781166
1772709194963985700,3.480985595703125,0.005583050660789013,0.0035201662685722113,0.00996208656579256
1772709194974010600,3.4910107421875,0.006081061903387308,0.010316819883883,0.019121762365102768
1772709194984035800,3.501035888671875,0.006683735176920891,0.003176884725689888,0.021092236042022705
1772709194994060800,3.511060791015625,0.008475510403513908,0.0054299188777804375,0.023610787466168404
1772709195004085500,3.52108544921875,0.009321862831711769,0.00950988195836544,0.028729116544127464
1772709195014110500,3.5311103515625,0.010971158742904663,-0.004604871850460768,0.03225008025765419
1772709195024135700,3.5411357421875,0.015237010084092617,-0.011599664576351643,0.035286884754896164
1772709195034159600,3.55115966796875,0.015104384161531925,0.005972937680780888,0.03087109699845314
1772709195044184600,3.5611845703125,0.018553709611296654,0.001071123406291008,0.02522439695894718
1772709195054209800,3.571209716796875,0.02045360952615738,-0.008438758552074432,0.016150208190083504
1772709195064234800,3.58123486328125,0.019593408331274986,-0.005533249583095312,0.014305436052381992
1772709195074259700,3.591259765625,0.021278124302625656,-0.004776645917445421,0.020126307383179665
1772709195084284400,3.601284423828125,0.020987574011087418,-0.008371380157768726,0.024025175720453262
1772709195094310100,3.61131005859375,0.019942283630371094,-0.0057529606856405735,0.022606242448091507
1772709195104334000,3.621333984375,0.017711352556943893,0.009490973316133022,0.014839665964245796
1772709195114359000,3.631359130859375,0.01607643812894821,-0.0019627497531473637,0.011140269227325916
1772709195124384000,3.641384033203125,0.013909157365560532,-0.0062214103527367115,0.005134840961545706
1772709195134409000,3.651408935546875,0.01429478358477354,0.0030546458438038826,0.004893292207270861
1772709195144434000,3.661433837890625,0.012605007737874985,0.0032522522378712893,0.007268565706908703
1772709195154459000,3.671458984375,0.01190885715186596,-0.0024921861477196217,0.005528189707547426
1772709195164484000,3.681484130859375,0.010546917095780373,-0.008460063487291336,0.006269347388297319
1772709195174509000,3.691509033203125,0.01387240644544363,-0.0076275598257780075,0.009765278548002243
1772709195184533000,3.701532958984375,0.013644971884787083,-0.004914064891636372,0.009660083800554276
1772709195194558000,3.711557861328125,0.012073973193764687,-0.0057526943273842335,0.007190002128481865
1772709195204583000,3.7215830078125,0.012130964547395706,-0.013770673424005508,0.0003502056933939457
1772709195214608000,3.73160791015625,0.013106481172144413,-0.013746172189712524,0.0011880361707881093
1772709195224633000,3.741633056640625,0.011845740489661694,-0.012108327820897102,0.007799599785357714
1772709195234658000,3.751657958984375,0.01088753528892994,-0.0034471957478672266,0.011452658101916313
1772709195244683000,3.76168310546875,0.0105903260409832,-0.0014895059866830707,0.014393853023648262
1772709195254708000,3.7717080078125,0.006847786251455545,-0.008638229221105576,0.01697498932480812
1772709195264733200,3.781733154296875,0.0038157771341502666,-0.016632772982120514,0.01894626021385193
1772709195274756900,3.7917568359375,0.002501773415133357,-0.02135748602449894,0.013243633322417736
1772709195284781800,3.80178173828125,0.002269545802846551,-0.026819895952939987,0.008026767522096634
1772709195294807000,3.81180712890625,-0.0003576625313144177,-0.02274499274790287,0.009997506625950336
1772709195304832000,3.82183203125,-0.00017896443023346364,-0.024833178147673607,0.0183438528329134
1772709195314857000,3.83185693359375,0.0010604707058519125,-0.02773682214319706,0.023627564311027527
1772709195324882000,3.8418818359375,0.001924666459672153,-0.027056384831666946,0.026803385466337204
1772709195334907100,3.8519072265625,0.0020985708106309175,-0.018931346014142036,0.026930684223771095
1772709195344931000,3.86193115234375,0.0007592672482132912,-0.01751587726175785,0.020323913544416428
1772709195354956000,3.8719560546875,-0.0002247707889182493,-0.027842815965414047,0.011070494540035725
1772709195364981000,3.88198095703125,-0.0033041839487850666,-0.03442668169736862,0.005643238313496113
1772709195375006000,3.892005859375,-0.011071027256548405,-0.0394134521484375,0.008098939433693886
1772709195385031000,3.902031005859375,-0.013256416656076908,-0.03663124889135361,0.010673416778445244
1772709195395056000,3.91205615234375,-0.011438542976975441,-0.028479844331741333,0.006737264804542065
1772709195405081000,3.9220810546875,-0.007815046235918999,-0.01786128804087639,-0.002576342085376382
1772709195415106000,3.93210595703125,-0.005287173669785261,-0.014994129538536072,-0.017831195145845413
1772709195425130200,3.942130126953125,-0.003936151973903179,-0.010466755367815495,-0.028847893700003624
1772709195435155000,3.952155029296875,-0.006188387516885996,0.00016484966909047216,-0.029415147379040718
1772709195445180000,3.962179931640625,-0.009336243383586407,0.01091842819005251,-0.02882765419781208
1772709195455204900,3.972204833984375,-0.015517440624535084,0.009816145524382591,-0.03780543431639671
1772709195465230000,3.98222998046875,-0.015155251137912273,0.010686466470360756,-0.05674929916858673
1772709195475255000,3.992255126953125,-0.01194161456078291,0.01907089725136757,-0.07613684237003326
1772709195485280000,4.002280029296875,-0.008636098355054855,0.034871697425842285,-0.08219553530216217
1772709195495305000,4.012304931640625,-0.006449643522500992,0.0525931715965271,-0.06993833929300308
1772709195505329200,4.0223291015625,-0.007471498567610979,0.05019126459956169,-0.05690642446279526
1772709195515353900,4.032353759765625,-0.009315471164882183,0.04105529189109802,-0.05361023172736168
1772709195525378800,4.04237890625,-0.009394832886755466,0.0226786807179451,-0.05000990256667137
1772709195535404000,4.052404052734375,-0.00464588450267911,0.012044412083923817,-0.043110452592372894
1772709195545429000,4.062428955078125,-0.0032831449061632156,0.01980326510965824,-0.02311384119093418
1772709195555454000,4.072453857421875,0.00020160128769930452,0.023795610293745995,-0.0065196845680475235
1772709195565479200,4.082479248046875,0.0027395938523113728,0.015373097732663155,-0.0026351979468017817
1772709195575504100,4.092504150390625,0.007110639940947294,0.0044346959330141544,-0.0056951697915792465
1772709195585528000,4.102528076171875,0.00857537891715765,0.005395830608904362,-0.004814994987100363
1772709195595553000,4.112552978515625,0.009034241549670696,0.013167999684810638,0.003084206720814109
1772709195605578000,4.122577880859375,0.010720554739236832,0.01678270846605301,0.005022455472499132
1772709195615603000,4.13260302734375,0.009887252002954483,0.008140218444168568,0.004010987002402544
1772709195625628000,4.1426279296875,0.008873652666807175,0.003051982494071126,0.0007001450285315514
1772709195635653000,4.152653076171875,0.01007766742259264,0.003151052165776491,-0.0012538161827251315
1772709195645678000,4.162677978515625,0.008796687237918377,0.005901564843952656,-0.0007829693495295942
1772709195655703000,4.172703125,0.007640875410288572,0.007024087477475405,-0.0023044333793222904
1772709195665727200,4.182727294921875,0.009349026717245579,0.0003616572648752481,-0.009459015913307667
1772709195675752000,4.192751953125,0.008468053303658962,-0.0031462584156543016,-0.011032677255570889
1772709195685777000,4.20277685546875,0.01239222101867199,-0.001326786819845438,-0.007197725586593151
1772709195695801900,4.2128017578125,0.013701431453227997,0.00905847642570734,-0.0049510826356709
1772709195705827000,4.2228271484375,0.012856676243245602,0.01865304633975029,-0.01038393098860979
1772709195715852000,4.23285205078125,0.013261742889881134,0.016863401979207993,-0.02057851105928421
1772709195725877000,4.242876953125,0.009727994911372662,0.01986398547887802,-0.028248416259884834
1772709195735902000,4.25290185546875,0.007199589628726244,0.024624919518828392,-0.03568529337644577
1772709195745926000,4.26292578125,0.007309045642614365,0.028363730758428574,-0.03819692134857178
1772709195755950800,4.272950927734375,0.005593969952315092,0.025612952187657356,-0.040698692202568054
1772709195765976000,4.28297607421875,0.0029148298781365156,0.019665580242872238,-0.042944006621837616
1772709195776001000,4.2930009765625,0.0014498248929157853,0.0163643267005682,-0.040767136961221695
1772709195786026000,4.30302587890625,0.00044794369023293257,0.01744982972741127,-0.03605840355157852
1772709195796051000,4.313051025390625,-0.0008772452711127698,0.022117819637060165,-0.030602917075157166
1772709195806076200,4.323076171875,0.00021917815320193768,0.020554542541503906,-0.028187429532408714
1772709195816101000,4.33310107421875,-0.001982190879061818,0.0065071675926446915,-0.024116788059473038
1772709195826124800,4.343124755859375,-0.002427737694233656,0.00379021093249321,-0.019884224981069565
1772709195836150000,4.35314990234375,-0.0014096111990511417,0.006596916355192661,-0.014577877707779408
1772709195846175000,4.363175048828125,-0.0011496866354718804,0.008619853295385838,-0.01079911831766367
1772709195856200000,4.373199951171875,-0.0016815199051052332,-0.0008783105295151472,-0.0037015276029706
1772709195866225000,4.383224853515625,-0.00213585514575243,-0.0043321643024683,0.0075756278820335865
1772709195876250000,4.39325,-0.0029265477787703276,-0.005517270881682634,0.01900511607527733
1772709195886275000,4.403275146484375,-0.0022330605424940586,-0.006607835181057453,0.02954351156949997
1772709195896300000,4.413300048828125,-0.003614974906668067,-0.008869658224284649,0.03310469165444374
1772709195906324000,4.423323974609375,-0.006381200160831213,-0.012430837377905846,0.031262047588825226
1772709195916349000,4.433348876953125,-0.007212106604129076,-0.016157398000359535,0.031556326895952225
1772709195926374000,4.443373779296875,-0.00723500968888402,-0.017480723559856415,0.032346222549676895
1772709195936399000,4.453399169921875,-0.0038245655596256256,-0.015809323638677597,0.03641819581389427
1772709195946424000,4.463424072265625,-0.001680454588495195,-0.014878015965223312,0.036684777587652206
1772709195956449000,4.473448974609375,-0.001275920425541699,-0.01546364463865757,0.036123115569353104
1772709195966474000,4.483473876953125,0.0029827402904629707,-0.009825732558965683,0.03099972754716873
1772709195976499200,4.493499267578125,0.006371612660586834,-0.004318581894040108,0.02394235134124756
1772709195986523000,4.50352294921875,0.008901881985366344,0.0019060244085267186,0.014373612590134144
1772709195996547800,4.5135478515625,0.009948770515620708,0.00544456671923399,0.005605155136436224
1772709196006573000,4.523572998046875,0.013848970644176006,0.005857622716575861,0.0020010992884635925
1772709196016598000,4.533597900390625,0.020487431436777115,0.013157879933714867,0.000011717908819264267
1772709196026623000,4.543623046875,0.019114039838314056,0.026157833635807037,-0.0001395496365148574
1772709196036648000,4.55364794921875,0.02034149132668972,0.026490462943911552,0.006340720225125551
1772709196046673200,4.563673095703125,0.02136334590613842,0.02436126582324505,0.00836791843175888
1772709196056698000,4.573697998046875,0.021570805460214615,0.019767578691244125,0.0023521038237959146
1772709196066721800,4.5837216796875,0.022777484729886055,0.013760020956397057,0.0072869411669671535
1772709196076747000,4.5937470703125,0.02370133437216282,0.017361147329211235,0.013875601813197136
1772709196086772000,4.60377197265625,0.023847542703151703,0.020709805190563202,0.015230085700750351
1772709196096796200,4.613796142578125,0.02269572578370571,0.017406953498721123,0.011621235869824886
1772709196106821000,4.623821044921875,0.02256123535335064,0.01173575222492218,0.009738913737237453
1772709196116846000,4.63384619140625,0.021585719659924507,0.009934656322002411,0.012051070109009743
1772709196126871000,4.64387109375,0.021854165941476822,0.009404420852661133,0.011100055649876595
1772709196136896300,4.653896240234375,0.020594757050275803,0.009828928858041763,0.007784686051309109
1772709196146920200,4.663920166015625,0.018922558054327965,0.0036762275267392397,0.0016466324450448155
1772709196156945200,4.673945068359375,0.016018381342291832,-0.0014253237750381231,0.00001651159800530877
1772709196166970400,4.683970458984375,0.01227504201233387,-0.0021813951898366213,-0.0032112395856529474
1772709196176995000,4.6939951171875,0.012193815782666206,-0.004274373408406973,-0.0011640676530078053
1772709196187020000,4.70402001953125,0.012383964844048023,-0.004485561978071928,0.00475587323307991
1772709196197045000,4.714044921875,0.011473430320620537,0.0003616572648752481,0.008260859176516533
1772709196207070200,4.7240703125,0.012293950654566288,0.005514874123036861,0.010262757539749146
1772709196217095200,4.73409521484375,0.010972223244607449,0.008953813463449478,0.0062914518639445305
1772709196227120000,4.7441201171875,0.010055297054350376,0.011317369528114796,0.002653573639690876
1772709196237144300,4.754144287109375,0.010333064943552017,0.013697702437639236,-0.0016919062472879887
1772709196247169300,4.764169189453125,0.008521582931280136,0.014769624918699265,-0.005935387220233679
1772709196257194000,4.774194091796875,0.006690126843750477,0.016024772077798843,-0.008530370891094208
1772709196267219000,4.784218994140625,0.0032288164366036654,0.014131797477602959,-0.011177552863955498
1772709196277244200,4.794244140625,-0.0015600797487422824,0.008110124617815018,-0.01575952209532261
1772709196287269000,4.80426904296875,-0.004463990684598684,0.007241401355713606,-0.01762852817773819
1772709196297294000,4.814294189453125,-0.002724680118262768,0.00860520638525486,-0.02208293229341507
1772709196307319000,4.824319091796875,-0.002094842493534088,0.011274492368102074,-0.025427328422665596
1772709196317343200,4.83434326171875,-0.0027691549621522427,0.017476195469498634,-0.028201811015605927
1772709196327368200,4.8443681640625,-0.001317998394370079,0.02201874926686287,-0.026850257068872452
1772709196337393200,4.85439306640625,0.003765976056456566,0.018137192353606224,-0.022820893675088882
1772709196347418000,4.864418212890625,0.0031824775505810976,0.008057660423219204,-0.014909440651535988
1772709196357443000,4.874443115234375,0.004828044679015875,0.00755059439688921,-0.005620867945253849
1772709196367468000,4.884468017578125,0.0037939392495900393,0.008221977390348911,0.0021049624774605036
1772709196377493200,4.8944931640625,0.005396629683673382,0.00899562519043684,0.002118544653058052
1772709196387518200,4.904518310546875,0.0030487868934869766,0.006369748618453741,0.0019462381023913622
1772709196397542100,4.914542236328125,0.0019707391038537025,0.00032730249222368,-0.002019208623096347
1772709196407567400,4.9245673828125,0.0021371867042034864,0.0029859361238777637,-0.006842992268502712
1772709196417592000,4.934592041015625,0.001332645770162344,0.0022327941842377186,-0.016622919589281082
1772709196427617000,4.944616943359375,0.002338521648198366,0.0022538332268595695,-0.02225896716117859
1772709196437642000,4.95464208984375,-0.0009137305896729231,0.004284227266907692,-0.025345036759972572
1772709196447667200,4.964667236328125,-0.0029640982393175364,0.003936684690415859,-0.029471872374415398
1772709196457692200,4.974692138671875,-0.002073803450912237,0.0012186624808236957,-0.03176805004477501
1772709196467717000,4.984717041015625,-0.0025070998817682266,0.005284510552883148,-0.030346186831593513
1772709196477741300,4.9947412109375,-0.0036764938849955797,0.002716158051043749,-0.023546870797872543
1772709196487766300,5.004766357421875,-0.0025917883031070232,-0.000025300030756625347,-0.012484898790717125
1772709196497791000,5.014791015625,-0.0021544971968978643,-0.004306597635149956,-0.007532751187682152
1772709196507816200,5.024816162109375,-0.002055694116279483,-0.001904160133562982,-0.0034048515371978283
1772709196517841200,5.034841064453125,-0.003084473079070449,0.00007217166421469301,0.005124454386532307
1772709196527866000,5.0448662109375,-0.004467186518013477,0.0014301175251603127,0.004463724326342344
1772709196537891000,5.05489111328125,-0.005335643421858549,-0.0006745787104591727,-0.005983323790132999
1772709196547916300,5.064916259765625,-0.00589543953537941,0.0032929987646639347,-0.01782400533556938
1772709196557940200,5.074940185546875,-0.005915413144975901,0.01149819791316986,-0.023010244593024254
1772709196567965000,5.08496484375,-0.005902097560465336,0.013469469733536243,-0.029193570837378502
1772709196577990100,5.094990234375,-0.003820304526016116,0.005268797744065523,-0.026815634220838547
1772709196588015000,5.10501513671875,-0.006672017276287079,0.0025656893849372864,-0.008265119977295399
1772709196598040000,5.1150400390625,-0.010237457230687141,0.007188138086348772,0.003507383167743683
1772709196608065000,5.12506494140625,-0.00896766223013401,0.006252569612115622,0.004929511342197657
1772709196618090200,5.13509033203125,-0.008386027999222279,-0.0004828310920856893,-0.0025513083674013615
1772709196628115200,5.145115234375,-0.01082867942750454,0.0043563987128436565,-0.00893703568726778
1772709196638140200,5.15514013671875,-0.010334929451346397,0.009563145227730274,-0.014425278641283512
1772709196648164000,5.1651640625,-0.012250274419784546,0.010415622964501381,-0.02057025581598282
1772709196658189000,5.17518896484375,-0.015027152374386787,0.010425742715597153,-0.029823143035173416
1772709196668214000,5.185214111328125,-0.011022024787962437,0.012463061138987541,-0.03434572368860245
1772709196678239200,5.1952392578125,-0.008729043416678905,0.015681225806474686,-0.03297898918390274
1772709196688264200,5.20526416015625,-0.006595584563910961,0.024349547922611237,-0.024656610563397408
1772709196698289200,5.2152890625,-0.007729026023298502,0.03370949253439903,-0.02430959977209568
1772709196708314000,5.225314208984375,-0.0038890140131115913,0.030488399788737297,-0.035301532596349716
1772709196718339300,5.23533935546875,-0.003823766717687249,0.022239524871110916,-0.04826793074607849
1772709196728363000,5.245363037109375,-0.0032437301706522703,0.01606924831867218,-0.05049300193786621
1772709196738388000,5.255387939453125,-0.00407516909763217,0.020922059193253517,-0.048766739666461945
1772709196748413200,5.2654130859375,-0.000922252656891942,0.025774605572223663,-0.04044835641980171
1772709196758438100,5.275438232421875,-0.0009126652730628848,0.023999875411391258,-0.0326884388923645
1772709196768463000,5.285463134765625,-0.0006585997180081904,0.01908288151025772,-0.02082352340221405
1772709196778488000,5.295488037109375,-0.00187992537394166,0.01534460112452507,-0.012106464244425297
1772709196788513300,5.30551318359375,0.00016351809608750045,0.010370083153247833,-0.006731139495968819
1772709196798538200,5.315538330078125,0.004220843780785799,0.00980362854897976,-0.00777509855106473
1772709196808562000,5.32556201171875,0.00811997801065445,0.012473180890083313,-0.012089951895177364
1772709196819213000,5.336213134765625,0.006645385641604662,0.01420370303094387,-0.018852250650525093
1772709196829238300,5.34623828125,0.004959338344633579,0.018000837415456772,-0.02016439102590084
1772709196839263200,5.35626318359375,0.0018154769204556942,0.02004747837781906,-0.02033696323633194
1772709196849288200,5.3662880859375,0.001076715998351574,0.019161444157361984,-0.03176937997341156
1772709196859312000,5.37631201171875,0.0013142699608579278,0.02557140588760376,-0.045213550329208374
1772709196869337000,5.386337158203125,-0.002767290687188506,0.02503504604101181,-0.061525147408246994
1772709196879362000,5.396362060546875,-0.0038807583041489124,0.02503105066716671,-0.07509182393550873
1772709196889387000,5.406386962890625,-0.008844357915222645,0.029380792751908302,-0.07925460487604141
1772709196899412200,5.416412109375,-0.01224335003644228,0.03079812601208687,-0.07517171651124954
1772709196909437200,5.426437255859375,-0.01260793674737215,0.03493880853056908,-0.07293013483285904
1772709196919462100,5.436462158203125,-0.01404817495495081,0.03754577785730362,-0.07000518590211868
1772709196929487000,5.446487060546875,-0.014333132654428482,0.03737879544496536,-0.06708742678165436
1772709196939512300,5.45651220703125,-0.014683871529996395,0.03524720296263695,-0.052974533289670944
1772709196949536000,5.466535888671875,-0.014476411044597626,0.029271868988871574,-0.041978608816862106
1772709196959561200,5.476561279296875,-0.016755010932683945,0.02594318427145481,-0.03159680962562561
1772709196969586200,5.486586181640625,-0.016686301678419113,0.014272146858274937,-0.02369813807308674
1772709196979611100,5.496611083984375,-0.01327159721404314,0.0014570154016837478,-0.010092048905789852
1772709196989636000,5.506635986328125,-0.011196461506187916,-0.005240834783762693,0.00774793466553092
1772709196999661300,5.516661376953125,-0.008934905752539635,-0.0017861821688711643,0.025129321962594986
1772709197009686300,5.526686279296875,-0.008696552366018295,0.0006865629111416638,0.0361151285469532
1772709197019710000,5.5367099609375,-0.002719087526202202,-0.009533317759633064,0.04017538204789162
1772709197029735200,5.546735107421875,-0.0014423680258914828,-0.014755244366824627,0.04465987905859947
1772709197039760100,5.556760009765625,0.002263953210785985,-0.018498316407203674,0.04440182074904442
1772709197049785000,5.56678515625,0.006777212489396334,-0.015996543690562248,0.04747244343161583
1772709197059810000,5.57681005859375,0.011294466443359852,-0.015985624864697456,0.05414898693561554
1772709197069835300,5.586835205078125,0.011980762705206871,-0.01908128336071968,0.06117813661694527
1772709197079860200,5.596860107421875,0.014109693467617035,-0.030100909993052483,0.0645422413945198
1772709197089885200,5.60688525390625,0.012628443539142609,-0.03531085327267647,0.06646930426359177
1772709197099910100,5.61691015625,0.011729094199836254,-0.027821244671940804,0.058156248182058334
1772709197109934300,5.626934326171875,0.012042813934385777,-0.027216972783207893,0.044687043875455856
1772709197119959300,5.636959228515625,0.011449461802840233,-0.03772607445716858,0.03946778178215027
1772709197129984300,5.646984375,0.011083011515438557,-0.04150589928030968,0.04130056872963905
1772709197140009500,5.657009521484375,0.01284549105912447,-0.029028188437223434,0.04773662984371185
1772709197150034400,5.667034423828125,0.014464959502220154,-0.01756221614778042,0.05916611850261688
1772709197160059100,5.67705908203125,0.014692925848066807,-0.012722453102469444,0.05992405489087105
1772709197179483400,5.6964833984375,0.008478173054754734,-0.03358752280473709,0.04809002950787544
1772709197189507300,5.70650732421875,0.004284493625164032,-0.03477848693728447,0.041799645870923996
1772709197199532300,5.7165322265625,0.004447212442755699,-0.02947586588561535,0.03567730262875557
1772709197209557200,5.72655712890625,0.003899400355294347,-0.015618374571204185,0.027664650231599808
1772709197219582200,5.736582275390625,0.002889796160161495,-0.0008362325606867671,0.019592342898249626
1772709197229607400,5.746607421875,0.004997155629098415,0.0013068130938336253,0.012402340769767761
1772709197239632400,5.75663232421875,0.0037563887890428305,0.003634948516264558,0.004131628200411797
1772709197249657300,5.7666572265625,0.0022240057587623596,0.004592088516801596,0.0005352954030968249
1772709197259682300,5.776682373046875,0.0001155811914941296,0.008160191588103771,-0.009417204186320305
1772709197269707300,5.786707275390625,0.00039068571641109884,0.015173626132309437,-0.021143367514014244
1772709197279731200,5.796731201171875,0.0018767296569421887,0.014917430467903614,-0.03154114633798599
1772709197289756400,5.80675634765625,0.00509808911010623,0.013038570061326027,-0.03473507612943649
1772709197299781400,5.816781494140625,0.0070400661788880825,0.014474812895059586,-0.03267485648393631
1772709197309806300,5.826806396484375,0.008009989745914936,0.01805649884045124,-0.026861175894737244
1772709197319831300,5.836831298828125,0.011574364267289639,0.023849673569202423,-0.02526807226240635
1772709197329856500,5.8468564453125,0.011290471069514751,0.019583821296691895,-0.022647788748145103
1772709197339881500,5.856881591796875,0.009615609422326088,0.008687764406204224,-0.01176531333476305
1772709197349906200,5.86690625,0.009463276714086533,-0.000886566296685487,0.002372077666223049
1772709197359930400,5.876930419921875,0.009610549546778202,-0.0004058657505083829,0.009733587503433228
1772709197369955300,5.886955322265625,0.011259046383202076,-0.0010133327450603247,0.011426825076341629
1772709197379980300,5.896980224609375,0.011293933726847172,-0.0033422671258449554,0.01333098579198122
1772709197390005200,5.907005126953125,0.012426575645804405,-0.008622250519692898,0.01888474076986313
1772709197400030500,5.917030517578125,0.012011655606329441,-0.0022213426418602467,0.02111114375293255
1772709197410055400,5.927055419921875,0.01264096051454544,0.003338538808748126,0.008311991579830647
1772709197420080400,5.937080322265625,0.01540798507630825,0.005440039094537497,-0.004128965083509684
1772709197430105000,5.94710498046875,0.011655856855213642,0.009112006053328514,-0.012803945690393448
1772709197440129300,5.95712939453125,0.0100185452029109,0.013488911092281342,-0.019210979342460632
1772709197450154200,5.967154296875,0.010579939931631088,0.020421652123332024,-0.025068601593375206
1772709197460179500,5.977179443359375,0.007480553351342678,0.020835241302847862,-0.031512919813394547
1772709197470204400,5.987204345703125,0.00615136930719018,0.02279852330684662,-0.043297141790390015
1772709197480229400,5.9972294921875,0.005079713650047779,0.027306722477078438,-0.052020058035850525
1772709197490254300,6.00725439453125,0.0022242721170186996,0.037043772637844086,-0.04976782202720642
1772709197500279600,6.017279541015625,-0.0006141249323263764,0.038359105587005615,-0.04755553603172302
1772709197510304300,6.02730419921875,-0.0002668487431947142,0.0325922966003418,-0.04629239812493324
1772709197520328200,6.037328125,-0.002478870330378413,0.031923044472932816,-0.048347823321819305
1772709197530353400,6.047353515625,-0.002287122653797269,0.030954986810684204,-0.03973143547773361
1772709197540378400,6.05737841796875,-0.000360059377271682,0.028231903910636902,-0.027827901765704155
1772709197550403300,6.0674033203125,0.0010572749888524413,0.029634324833750725,-0.021095432341098785
1772709197560428300,6.07742822265625,0.007248059380799532,0.025052888318896294,-0.017164073884487152
1772709197570453500,6.08745361328125,0.005077849142253399,0.019806994125247,-0.011261442676186562
1772709197580478500,6.097478515625,0.0037702370900660753,0.015667909756302834,-0.0067870658822357655
1772709197590503200,6.107503173828125,0.0037534593138843775,0.00743234995752573,-0.0044054011814296246
1772709197600528100,6.117528076171875,0.0027118970174342394,0.0019414444686844945,-0.004806206561625004
1772709197610552300,6.12755224609375,0.002831206424161792,0.002674346324056387,-0.003394731320440769
1772709197620577300,6.137577392578125,0.0019116170005872846,0.0027164241764694452,-0.000474575295811519
1772709197630602200,6.147602294921875,0.0012298477813601494,-0.0001661812566453591,0.002101234160363674
1772709197640627500,6.15762744140625,-0.0006474144756793976,0.0004239752306602895,-0.001976331928744912
1772709197650652400,6.16765234375,0.00014194648247212172,-0.003194727934896946,-0.0036882117856293917
1772709197660677400,6.177677490234375,-0.0012205267557874322,-0.00003941478280466981,-0.00535614974796772
1772709197670702300,6.187702392578125,-0.0021859225817024708,0.0036844832357019186,-0.005970274563878775
1772709197680727300,6.197727294921875,-0.0014021543320268393,0.0044440170750021935,-0.0046605318784713745
1772709197690751200,6.207751220703125,0.0009302421822212636,0.01119113527238369,-0.0016215987270697951
1772709197700776400,6.2177763671875,0.0029936593491584063,0.015682024881243706,-0.000910268456209451
1772709197710801400,6.227801513671875,0.006864297669380903,0.01835636980831623,-0.0021694109309464693
1772709197720826400,6.237826416015625,0.006205165293067694,0.017285779118537903,0.0005020058597438037
1772709197730851300,6.247851318359375,0.009047291241586208,0.019287677481770515,0.0041579934768378735
1772709197740876300,6.257876220703125,0.008709868416190147,0.016393886879086494,0.004877845756709576
1772709197750901200,6.2679013671875,0.009534383192658424,0.011781558394432068,0.00691915862262249
1772709197760926200,6.27792626953125,0.009080314077436924,0.008465389721095562,0.0051992894150316715
1772709197770950400,6.287950439453125,0.0090542146936059,0.007821437902748585,0.005783320404589176
1772709197780975400,6.297975341796875,0.009119195863604546,0.008466987870633602,0.005173456855118275
1772709197791000300,6.308000244140625,0.010124272666871548,0.009437177330255508,0.004345479886978865
1772709197801025300,6.318025390625,0.009757822379469872,0.008128234185278416,0.0059843892231583595
1772709197811050500,6.328050537109375,0.00950801745057106,0.0015923039754852653,0.006015814375132322
1772709197821075200,6.3380751953125,0.009606554172933102,0.0006849650526419282,0.0133877107873559
1772709197831100200,6.34810009765625,0.0089404983446002,0.004191282670944929,0.019095396623015404
1772709197841125400,6.35812548828125,0.009496565908193588,0.0044996771030128,0.02321930229663849
1772709197851150300,6.368150390625,0.007468036375939846,0.0005960154230706394,0.026628946885466576
1772709197861174300,6.37817431640625,0.0065740132704377174,0.0003507383225951344,0.028613535687327385
1772709197871199500,6.388199462890625,0.006515157409012318,0.000022903184799361043,0.027296070009469986
1772709197881224400,6.398224365234375,0.004443750716745853,0.0023177489638328552,0.022972427308559418
1772709197891249400,6.40824951171875,0.005709018558263779,-0.0011893677292391658,0.02002723701298237
1772709197901274000,6.418274169921875,0.004397411365061998,-0.004137753508985043,0.015085475519299507
1772709197911299300,6.42829931640625,0.004352936986833811,-0.0022024342324584723,0.014197311364114285
1772709197921324300,6.43832421875,0.005276254843920469,0.00777536490932107,0.013332583010196686
1772709197931349200,6.448349365234375,0.004563060123473406,0.005022721830755472,0.013069196604192257
1772709197941373400,6.45837353515625,0.0020692760590463877,-0.0006410228670574725,0.011864116415381432
1772709197951398400,6.4683984375,0.0008210525847971439,-0.004490622319281101,0.01130991242825985
1772709197961423400,6.47842333984375,0.002540922025218606,0.002494050422683358,-0.0005986785981804132
1772709197971448300,6.4884482421875,0.003890878288075328,0.009659551084041595,-0.011385546065866947
1772709197981473300,6.498473388671875,0.0011624698527157307,0.018847724422812462,-0.015353656373918056
1772709197991498200,6.508498291015625,0.001996039180085063,0.016588032245635986,-0.025713086128234863
1772709198001523200,6.518523193359375,0.0016200009267777205,0.01630893163383007,-0.03915299475193024
1772709198011548200,6.528548095703125,-0.00006711165769957006,0.022289060056209564,-0.04754967615008354
1772709198021572400,6.538572265625,-0.0018908443162217736,0.029773075133562088,-0.05391143634915352
1772709198031597300,6.548597412109375,-0.003090598387643695,0.03117070160806179,-0.058152783662080765
1772709198041622500,6.55862255859375,-0.008950085379183292,0.029030585661530495,-0.06252755969762802
1772709198051647500,6.5686474609375,-0.008407865650951862,0.02887692116200924,-0.06347671151161194
1772709198061672200,6.578672119140625,-0.0067689563147723675,0.03501710668206215,-0.0611291341483593
1772709198071697200,6.588697265625,-0.005543902516365051,0.0406627394258976,-0.05314524471759796
1772709198081722400,6.598722412109375,-0.004532699938863516,0.0399056039750576,-0.04736858233809471
1772709198091747300,6.608747314453125,-0.0023073628544807434,0.03531138598918915,-0.04398370161652565
1772709198101772000,6.61877197265625,-0.003925233148038387,0.03074379824101925,-0.043345075100660324
1772709198111797000,6.628796875,-0.001284975209273398,0.03127696365118027,-0.04264892637729645
1772709198121822200,6.638822265625,0.0022021678742021322,0.029171200469136238,-0.041254229843616486
1772709198131847000,6.648846923828125,0.0012540825409814715,0.02406778559088707,-0.037151362746953964
1772709198141871900,6.658871826171875,0.0009265137487091124,0.02183552458882332,-0.03291134536266327
1772709198151896800,6.668896728515625,0.0036506610922515392,0.019901802763342857,-0.027594609186053276
1772709198161922000,6.678922119140625,0.004433097783476114,0.017255419865250587,-0.02448270656168461
1772709198171947000,6.688947021484375,0.006249906495213509,0.009367402642965317,-0.02564224600791931
1772709198181971200,6.69897119140625,0.007781490217894316,0.0054514906369149685,-0.023200394585728645
1772709198191996200,6.70899609375,0.010449444875121117,0.004993427079170942,-0.014607971534132957
1772709198202021000,6.719021240234375,0.016459399834275246,0.004742290824651718,-0.003409911412745714
1772709198212045800,6.7290458984375,0.02213566191494465,0.004883704707026482,0.014051636680960655
1772709198222071000,6.739071044921875,0.020538831129670143,0.016332633793354034,0.03997298330068588
1772709198232096000,6.749095947265625,0.017208281904459,0.010644654743373394,0.05143469572067261
1772709198242121000,6.759120849609375,0.01872388646006584,-0.0126982182264328,0.04962241277098656
1772709198252146000,6.76914599609375,0.018456505611538887,-0.014128069393336773,0.05202991142868996
1772709198262171100,6.779171142578125,0.017128121107816696,-0.014828747138381004,0.06522427499294281
1772709198272195000,6.789195068359375,0.016749951988458633,-0.019818978384137154,0.07515466958284378
1772709198282220000,6.799219970703125,0.01612810418009758,-0.02305764891207218,0.07503988593816757
1772709198292245000,6.809244873046875,0.012040417641401291,-0.027957331389188766,0.06644213944673538
1772709198302270000,6.81927001953125,0.004238953348249197,-0.031630631536245346,0.055091746151447296
1772709198312295000,6.829294921875,-0.005140433553606272,-0.04140602797269821,0.05673705041408539
1772709198322320000,6.83931982421875,-0.007406783755868673,-0.05350423604249954,0.07656801491975784
1772709198332345000,6.849344970703125,-0.007743140682578087,-0.05379026010632515,0.0950642004609108
1772709198342370000,6.8593701171875,-0.009971939958631992,-0.02448403835296631,0.0673590674996376
1772709198352394000,6.86939404296875,-0.0027598338201642036,0.018213357776403427,0.0034149715211242437
1772709198362419200,6.879419189453125,-0.004821653012186289,0.039746079593896866,-0.06699421256780624
1772709198372444000,6.88944384765625,-0.00866139866411686,0.014399711973965168,-0.07292427122592926
1772709198382468900,6.89946875,-0.016440492123365402,0.0026972496416419744,-0.04893851280212402
1772709198392494000,6.909494140625,-0.010743457823991776,0.03248843550682068,-0.05353406444191933
1772709198402519000,6.91951904296875,-0.003439206164330244,0.0465129055082798,-0.07008428126573563
1772709198412544000,6.9295439453125,-0.0000013315805063029984,0.02961248718202114,-0.06139571592211723
1772709198422569000,6.93956884765625,0.002680471632629633,0.01101696491241455,-0.04186835512518883
1772709198432594200,6.94959423828125,0.003926032222807407,0.010529073886573315,-0.02389574609696865
1772709198442618000,6.9596181640625,0.010213488712906837,0.0181137565523386,-0.010364490561187267
1772709198452642800,6.969642822265625,0.015341139398515224,0.015548599883913994,0.001204814063385129
1772709198462668000,6.97966796875,0.016833575442433357,0.010703776963055134,0.012374377809464931
1772709198472693000,6.98969287109375,0.014313425868749619,0.009342102333903313,0.021266140043735504
1772709198482718000,6.999718017578125,0.011097924783825874,0.0013454289874061942,0.02442118711769581
1772709198492743000,7.009742919921875,0.006974286399781704,-0.002432797569781542,0.02564118057489395
1772709198502768000,7.01976806640625,0.004030694253742695,-0.00817803479731083,0.018337462097406387
1772709198512793000,7.02979296875,0.002267415402457118,-0.007906392216682434,0.013652162626385689
1772709198522817000,7.039817138671875,-0.0019883159548044205,-0.002548911375924945,0.007435545790940523
1772709198532842000,7.049842041015625,-0.002275671111419797,0.0018306568963453174,-0.004803809802979231
1772709198542867000,7.059866943359375,-0.0024738102219998837,0.0031103058718144894,-0.01684369519352913
1772709198552892000,7.069891845703125,-0.004049070179462433,0.00666456064209342,-0.025169534608721733
1772709198562917000,7.079917236328125,-0.00256409146822989,0.009033442474901676,-0.025357553735375404
1772709198572942000,7.089942138671875,-0.0012956279097124934,0.009141034446656704,-0.029227128252387047
1772709198582967000,7.099967041015625,0.0006000102148391306,0.006235791835933924,-0.02755998820066452
1772709198592992000,7.109991943359375,0.00227939966134727,0.01014051865786314,-0.02280491404235363
1772709198603017200,7.120017333984375,0.003148122690618038,0.008463259786367416,-0.015630625188350677
1772709198613041000,7.130041015625,0.006448311731219292,0.010057427920401096,-0.010060623288154602
1772709198623065900,7.14006591796875,0.0057590859942138195,0.010463293641805649,-0.006117281038314104
1772709198633091000,7.150091064453125,0.008587096817791462,0.007762582041323185,-0.0008287757518701255
1772709198643116000,7.160115966796875,0.008317052386701107,0.007838215678930283,0.0033342777751386166
1772709198653141000,7.17014111328125,0.0068331388756632805,0.006458165589720011,0.006111688446253538
1772709198663166000,7.180166015625,0.008882706984877586,0.0051505533047020435,0.006323409732431173
1772709198673191200,7.190191162109375,0.006641391199082136,0.002055960241705179,0.009457950480282307
1772709198683216100,7.200216064453125,0.0036019254475831985,-0.0018583538476377726,0.013706224970519543
1772709198693239800,7.21023974609375,0.005050684791058302,-0.004007791168987751,0.013046559877693653
1772709198703265000,7.22026513671875,0.002865028567612171,-0.0055215316824615,0.012675315141677856
1772709198713290000,7.2302900390625,0.0007022755453363061,-0.0070587084628641605,0.012173841707408428
1772709198723315000,7.24031494140625,-0.000782436749432236,-0.01091736275702715,0.008498147130012512
1772709198733340000,7.25033984375,-0.0032019184436649084,-0.011225223541259766,0.005512476898729801
1772709198743365000,7.260365234375,-0.0026913906913250685,-0.008977515622973442,0.0004111920716241002
1772709198753390000,7.27039013671875,-0.0024463797453790903,-0.0038434739690274,0.0006788397440686822
1772709198763415000,7.2804150390625,-0.003038134193047881,0.00035686357296071947,-0.00011824435205198824
1772709198773439000,7.29043896484375,0.0009100021561607718,0.0012692625168710947,-0.0027507790364325047
1772709198783464000,7.3004638671875,-0.00017337177996523678,-0.0012538161827251315,-0.005632852204144001
1772709198793489000,7.310489013671875,0.0019771307706832886,0.002832271857187152,-0.007348460145294666
1772709198803514000,7.32051416015625,0.001603755634278059,0.010400176979601383,-0.005625661462545395
1772709198813539000,7.3305390625,0.004613127559423447,0.013702495954930782,-0.00398595305159688
1772709198823564000,7.34056396484375,0.005366535857319832,0.013052418828010559,-0.00612420542165637
1772709198833589000,7.350589111328125,0.006381732877343893,0.010279535315930843,-0.006418484263122082
1772709198843614200,7.3606142578125,0.006207295693457127,0.01227211207151413,-0.007507450878620148
1772709198853639200,7.37063916015625,0.0046392264775931835,0.01267025526612997,-0.010813765227794647
1772709198863662800,7.380662841796875,0.00282002124004066,0.010223343037068844,-0.009928531013429165
1772709198873688000,7.39068798828125,0.002989398315548897,0.008534632623195648,-0.010151970200240612
1772709198883713000,7.400713134765625,0.003937750123441219,0.005116465035825968,-0.01056289579719305
1772709198893738000,7.410738037109375,0.005375590641051531,0.007931426167488098,-0.01210060529410839
1772709198903763000,7.420762939453125,0.0038922098465263844,0.008758870884776115,-0.011158378794789314
1772709198913788200,7.4307880859375,0.003236539661884308,0.008401473984122276,-0.01098500657826662
1772709198923813000,7.440813232421875,0.0030836742371320724,0.009754359722137451,-0.009554356336593628
1772709198933838000,7.450838134765625,0.0025571673177182674,0.008522382006049156,-0.007150054909288883
1772709198943862000,7.460862060546875,0.0016112125013023615,0.00350445369258523,-0.0067777447402477264
1772709198953887000,7.470886962890625,0.002915895078331232,0.0016974988393485546,-0.011431085877120495
1772709198963912000,7.480911865234375,0.0034820830915123224,0.011447065509855747,-0.008963135071098804
1772709198973937200,7.490937255859375,0.0029734193813055754,0.010754376649856567,0.00008921589324017987
1772709198983962000,7.500962158203125,0.0017427726415917277,0.004320446401834488,-0.0023635553661733866
1772709198993987000,7.510987060546875,0.0008000136003829539,0.003341201925650239,-0.01004810631275177
1772709199004012000,7.521011962890625,0.0021222729701548815,0.008439024910330772,-0.0107107013463974
1772709199014037200,7.531037353515625,0.003912183456122875,0.01016555167734623,-0.008954346179962158
1772709199024061000,7.54106103515625,0.005389438942074776,0.007177751511335373,-0.008851282298564911
1772709199034086000,7.5510859375,0.004652542527765036,0.007838482037186623,-0.008717857301235199
1772709199044111000,7.561111083984375,0.003549194661900401,0.009365538135170937,-0.005833920557051897
1772709199054136000,7.571135986328125,0.004263454582542181,0.00686136819422245,-0.005197957623749971
1772709199064161000,7.5811611328125,0.005143363028764725,0.0049558766186237335,-0.004281297791749239
1772709199074186000,7.59118603515625,0.003296460723504424,0.004022704903036356,-0.0020540961995720863
1772709199084211200,7.601211181640625,0.0034298852551728487,0.004939631093293428,0.001359277404844761
1772709199094236200,7.611236083984375,0.004464789759367704,0.005539108533412218,0.003436276689171791
1772709199104260600,7.621260498046875,0.004367318004369736,0.0075841499492526054,0.001844771672040224
1772709199114284800,7.631284912109375,0.005570800509303808,0.008390022441744804,-0.0005515406373888254
1772709199124309800,7.641309814453125,0.003858387703076005,0.008955411612987518,-0.0007795072160661221
1772709199134334700,7.651334716796875,0.0034975295420736074,0.015116901136934757,0.006168147549033165
1772709199144360000,7.66135986328125,0.0029084382113069296,0.18513257801532745,0.16041071712970734
1772709199154385000,7.671385009765625,-0.019756393507122993,0.21755921840667725,0.11666829138994217
1772709199164409900,7.681409912109375,0.008980445563793182,0.0739692971110344,0.014388526789844036
1772709199174434600,7.6914345703125,0.0021377194207161665,-0.0772513747215271,-0.029797576367855072
1772709199184459800,7.701459716796875,-0.0026647590566426516,-0.07979442924261093,-0.009265403263270855
1772709199194483700,7.711483642578125,-0.004846953321248293,-0.030774956569075584,0.013345099985599518
1772709199204508700,7.7215087890625,-0.0001651159836910665,-0.01607670448720455,-0.0015044197207316756
1772709199214534000,7.731533935546875,0.0020101540721952915,-0.041914958506822586,-0.04321591183543205
1772709199224558800,7.741558837890625,0.012674782425165176,-0.06060049682855606,-0.0729125589132309
1772709199234583800,7.751583740234375,0.01058926060795784,-0.05718366056680679,-0.07749345898628235
1772709199244608800,7.76160888671875,0.004898884799331427,-0.004566788673400879,-0.012330702506005764
1772709199254633700,7.7716337890625,-0.0038490667939186096,0.02568618766963482,0.044381845742464066
