time,seconds_elapsed,z,y,x
1772729599167776500,0.079776611328125,-0.2315177470445633,0.030543239787220955,0.17837251722812653
1772729599177294800,0.089294921875,-0.22968515753746033,0.03848448023200035,0.1698204129934311
1772729599196331000,0.1083310546875,-0.21685700118541718,0.07024945318698883,0.13439024984836578
1772729599205849300,0.117849365234375,-0.2003636509180069,0.1026252806186676,0.1178968995809555
1772729599215367400,0.127367431640625,-0.1802051067352295,0.13988803327083588,0.10751219838857651
1772729599224885500,0.136885498046875,-0.15760311484336853,0.1893680840730667,0.10140355676412582
1772729599234403800,0.14640380859375,-0.1331685185432434,0.2315177470445633,0.10079269111156464
1772729599243922000,0.155921875,-0.11117739230394363,0.2412915825843811,0.10140355676412582
1772729599253440000,0.16543994140625,-0.09407317638397217,0.19792018830776215,0.09651663154363632
1772729599262958300,0.174958251953125,-0.07880155742168427,0.12095122784376144,0.0873536616563797
1772729599272476400,0.184476318359375,-0.07086031138896942,0.020158538594841957,0.06597339361906052
1772729599281994800,0.193994873046875,-0.08124501258134842,-0.12583814561367035,0.018325943499803543
1772729599291512800,0.203512939453125,-0.10079269111156464,-0.28588470816612244,-0.053756099194288254
1772729599301031000,0.213031005859375,-0.11667517572641373,-0.4007273018360138,-0.13072505593299866
1772729599310549200,0.22254931640625,-0.13133592903614044,-0.4257727563381195,-0.19120067358016968
1772729599320067300,0.2320673828125,-0.14049890637397766,-0.34086254239082336,-0.21746785938739777
1772729599329585400,0.24158544921875,-0.14233149588108063,-0.17653992772102356,-0.21380266547203064
1772729599339103500,0.251103515625,-0.12767073512077332,0.0030543238390237093,-0.17653992772102356
1772729599348621800,0.260621826171875,-0.10384701192378998,0.16737695038318634,-0.11423171311616898
1772729599358140000,0.270139892578125,-0.0818558782339096,0.3194822669029236,-0.029932374134659767
1772729599367658200,0.279658203125,-0.06719512492418289,0.43371400237083435,0.06536252796649933
1772729599377176300,0.28917626953125,-0.05925388261675835,0.49418962001800537,0.15821397304534912
1772729599386694400,0.2986943359375,-0.050090912729501724,0.5015199780464172,0.23884813487529755
1772729599396212700,0.308212646484375,-0.033597562462091446,0.4838049113750458,0.30543237924575806
1772729599405730800,0.317730712890625,-0.006108647678047419,0.46486809849739075,0.35613417625427246
1772729599415249200,0.327249267578125,0.018325943499803543,0.44470956921577454,0.3854556679725647
1772729599424767200,0.336767333984375,0.02932151034474373,0.4068359434604645,0.3903425931930542
1772729599434285300,0.346285400390625,0.02626718580722809,0.34697118401527405,0.37201663851737976
1772729599443803400,0.355803466796875,0.01282816007733345,0.30543237924575806,0.33719736337661743
1772729599453321700,0.36532177734375,-0.008552107028663158,0.27977606654167175,0.29138249158859253
1772729599462839800,0.37483984375,-0.031154103577136993,0.24862197041511536,0.23762640357017517
1772729599472358000,0.38435791015625,-0.04520399495959282,0.21319180727005005,0.17776164412498474
1772729599481876200,0.393876220703125,-0.053145237267017365,0.1802051067352295,0.12034036219120026
1772729599491394300,0.403394287109375,-0.05925388261675835,0.14294235408306122,0.07086031138896942
1772729599500912400,0.412912353515625,-0.06780599057674408,0.11178825795650482,0.036651886999607086
1772729599510430700,0.4224306640625,-0.07147117704153061,0.0977383628487587,0.023823726922273636
1772729599519948800,0.43194873046875,-0.06719512492418289,0.11728604137897491,0.03176496922969818
1772729599529467100,0.441467041015625,-0.056810423731803894,0.15088360011577606,0.050090912729501724
1772729599538985200,0.450985107421875,-0.043982263654470444,0.18814635276794434,0.07086031138896942
1772729599548503300,0.46050341796875,-0.0256563201546669,0.20463970303535461,0.08002328872680664
1772729599558021600,0.470021728515625,-0.010384701192378998,0.21197007596492767,0.07819069176912308
1772729599567539700,0.479539794921875,0.003665188793092966,0.19669845700263977,0.07269290834665298
1772729599577057800,0.489057861328125,0.02626718580722809,0.18264856934547424,0.07086031138896942
1772729599586576100,0.498576171875,0.04886918142437935,0.1893680840730667,0.0720820426940918
1772729599596094200,0.50809423828125,0.06841685622930527,0.21685700118541718,0.07391463965177536
1772729599605612300,0.5176123046875,0.0769689604640007,0.2467893660068512,0.06719512492418289
1772729599615130600,0.527130615234375,0.08002328872680664,0.27550002932548523,0.05497783049941063
1772729599624648700,0.536648681640625,0.07635809481143951,0.3029889166355133,0.043982263654470444
1772729599634167000,0.5461669921875,0.07391463965177536,0.3078758418560028,0.0409279391169548
1772729599643685000,0.55568505859375,0.06780599057674408,0.3090975880622864,0.04825831577181816
1772729599653203200,0.565203125,0.04825831577181816,0.31459537148475647,0.06475166976451874
1772729599662721500,0.574721435546875,0.024434590712189674,0.30543237924575806,0.08063415437936783
1772729599672239600,0.584239501953125,-0.004276053514331579,0.27000224590301514,0.09101885557174683
1772729599681757700,0.5937578125,-0.028099779039621353,0.2052505612373352,0.09285144507884979
1772729599691275800,0.60327587890625,-0.04886918142437935,0.12705987691879272,0.09101885557174683
1772729599700794000,0.612794189453125,-0.06597339361906052,0.07024945318698883,0.08918625861406326
1772729599710312200,0.622312255859375,-0.07635809481143951,0.043982263654470444,0.08796452730894089
1772729599719830300,0.631830322265625,-0.07757982611656189,0.011606430634856224,0.08796452730894089
1772729599729348600,0.6413486328125,-0.07147117704153061,-0.034208428114652634,0.08857539296150208
1772729599738866700,0.65086669921875,-0.06414080411195755,-0.05864302068948746,0.08368847519159317
1772729599748385000,0.660385009765625,-0.0616973415017128,-0.05742128938436508,0.0720820426940918
1772729599757903000,0.669903076171875,-0.05742128938436508,-0.04276053607463837,0.053145237267017365
1772729599767421200,0.679421142578125,-0.05253437161445618,0.001832594396546483,0.030543239787220955
1772729599776939500,0.688939453125,-0.04520399495959282,0.050090912729501724,0.004886918235570192
1772729599786457600,0.69845751953125,-0.03848448023200035,0.08063415437936783,-0.01954767294228077
1772729599795975700,0.7079755859375,-0.030543239787220955,0.09529490768909454,-0.03848448023200035
1772729599805494000,0.717493896484375,-0.02626718580722809,0.10323614627122879,-0.05070177838206291
1772729599815012000,0.72701220703125,-0.023823726922273636,0.09834922850131989,-0.05253437161445618
1772729599824530200,0.7365302734375,-0.021380268037319183,0.10751219838857651,-0.04520399495959282
1772729599834048500,0.746048583984375,-0.021991131827235222,0.12217295914888382,-0.03543015569448471
1772729599843566600,0.755566650390625,-0.021991131827235222,0.13255766034126282,-0.028099779039621353
1772729599853084700,0.765084716796875,-0.01649334840476513,0.13622283935546875,-0.023212861269712448
1772729599862602800,0.774602783203125,-0.008552107028663158,0.1386663019657135,-0.017104214057326317
1772729599872121000,0.78412109375,-0.007941242307424545,0.14477495849132538,-0.01282816007733345
1772729599881639400,0.793639404296875,-0.020158538594841957,0.1233946830034256,-0.014660755172371864
1772729599891157500,0.803157470703125,-0.03848448023200035,0.07086031138896942,-0.023823726922273636
1772729599900675600,0.812675537109375,-0.050090912729501724,0.021380268037319183,-0.034208428114652634
1772729599910194000,0.82219384765625,-0.04886918142437935,-0.004276053514331579,-0.04459312930703163
1772729599919712000,0.8317119140625,-0.04276053607463837,-0.009162971749901772,-0.04886918142437935
1772729599929230000,0.84122998046875,-0.03787361457943916,0.004886918235570192,-0.050090912729501724
1772729599938748400,0.85074853515625,-0.033597562462091446,0.011606430634856224,-0.05070177838206291
1772729599948266500,0.8602666015625,-0.028099779039621353,-0.007941242307424545,-0.04764745384454727
1772729599957784600,0.86978466796875,-0.01588248461484909,-0.0256563201546669,-0.033597562462091446
1772729599967302700,0.879302734375,-0.007330377586185932,-0.025045456364750862,-0.006108647678047419
1772729599976821000,0.888821044921875,-0.004276053514331579,-0.015271619893610477,0.03237583488225937
1772729599986339000,0.898339111328125,-0.000610864779446274,0.001832594396546483,0.07330377399921417
1772729599995857400,0.907857421875,-0.002443459117785096,0.02871064469218254,0.10629047453403473
1772729600005375500,0.91737548828125,-0.011606430634856224,0.059864748269319534,0.11972949653863907
1772729600014893800,0.926893798828125,-0.017715077847242355,0.07330377399921417,0.11362084746360779
1772729600024412000,0.936411865234375,-0.0256563201546669,0.0616973415017128,0.09590577334165573
1772729600033930000,0.945929931640625,-0.03787361457943916,0.024434590712189674,0.07330377399921417
1772729600043448000,0.955447998046875,-0.05497783049941063,-0.01954767294228077,0.05925388261675835
1772729600052966400,0.96496630859375,-0.07574722915887833,-0.027488915249705315,0.056810423731803894
1772729600062484500,0.974484375,-0.09407317638397217,-0.020158538594841957,0.056199558079242706
1772729600072002600,0.98400244140625,-0.11178825795650482,-0.026878049597144127,0.043371398001909256
1772729600081521000,0.99352099609375,-0.1233946830034256,-0.04459312930703163,0.017104214057326317
1772729600091039000,1.0030390625,-0.13439024984836578,-0.0873536616563797,-0.018325943499803543
1772729600100557000,1.01255712890625,-0.14660754799842834,-0.1588248461484909,-0.05803215503692627
1772729600110075400,1.022075439453125,-0.15760311484336853,-0.205861434340477,-0.09529490768909454
1772729600119593500,1.031593505859375,-0.17776164412498474,-0.21502439677715302,-0.12705987691879272
1772729600129111800,1.04111181640625,-0.2101374864578247,-0.2101374864578247,-0.16004657745361328
1772729600138630000,1.0506298828125,-0.24373504519462585,-0.18570289015769958,-0.1905898153781891
1772729600148148000,1.06014794921875,-0.26878049969673157,-0.14172062277793884,-0.21685700118541718
1772729600157666300,1.069666259765625,-0.2779434621334076,-0.09834922850131989,-0.23335035145282745
1772729600167184400,1.079184326171875,-0.2663370370864868,-0.06902772188186646,-0.2364046722650528
1772729600176702500,1.088702392578125,-0.24556763470172882,-0.03543015569448471,-0.2254091054201126
1772729600186220800,1.098220703125,-0.22663083672523499,-0.008552107028663158,-0.20402882993221283
1772729600195739000,1.10773876953125,-0.20708316564559937,0.013439024798572063,-0.17653992772102356
1772729600205257000,1.117257080078125,-0.18753549456596375,0.046425722539424896,-0.14294235408306122
1772729600214775300,1.126775390625,-0.1740964651107788,0.07024945318698883,-0.1081230640411377
1772729600224293400,1.13629345703125,-0.16615521907806396,0.0720820426940918,-0.07269290834665298
1772729600233811500,1.1458115234375,-0.16187916696071625,0.053756099194288254,-0.0360410213470459
1772729600243329800,1.155329833984375,-0.16310089826583862,0.0360410213470459,0.001221729558892548
1772729600252847900,1.164847900390625,-0.17776164412498474,0.05436696484684944,0.030543239787220955
1772729600262366200,1.1743662109375,-0.1997527778148651,0.11423171311616898,0.04520399495959282
1772729600271884300,1.18388427734375,-0.21746785938739777,0.1337793916463852,0.04276053607463837
1772729600281402400,1.19340234375,-0.21380266547203064,0.12278381735086441,0.029932374134659767
1772729600290920700,1.202920654296875,-0.19669845700263977,0.15271618962287903,0.01282816007733345
1772729600300438800,1.212438720703125,-0.18875721096992493,-0.0824667438864708,-0.037262752652168274
1772729600309956900,1.221956787109375,-0.17653992772102356,-0.462424635887146,-0.11545344442129135
1772729600319475000,1.231474853515625,-0.1588248461484909,-0.6792816519737244,-0.1740964651107788
1772729600328993300,1.2409931640625,-0.17837251722812653,-0.7006618976593018,-0.20341797173023224
1772729600338511400,1.250511474609375,-0.23884813487529755,-0.6175842881202698,-0.2162461280822754
1772729600348029700,1.26002978515625,-0.31459537148475647,-0.4734202027320862,-0.22357651591300964
1772729600357547800,1.2695478515625,-0.37751442193984985,-0.3274235129356384,-0.2260199636220932
1772729600367065900,1.27906591796875,-0.42088583111763,-0.18203771114349365,-0.22235478460788727
1772729600376584200,1.288584228515625,-0.4477638900279999,-0.07635809481143951,-0.20830489695072174
1772729600386102300,1.298102294921875,-0.4557051360607147,-0.05497783049941063,-0.18325942754745483
1772729600395620600,1.30762060546875,-0.43432486057281494,-0.10445787757635117,-0.14660754799842834
1772729600405138700,1.317138671875,-0.3860665261745453,-0.22296564280986786,-0.09712749719619751
1772729600414656800,1.32665673828125,-0.32559093832969666,-0.3341430425643921,-0.036651886999607086
1772729600424174800,1.3361748046875,-0.27550002932548523,-0.3451386094093323,0.030543239787220955
1772729600433693200,1.345693115234375,-0.25411975383758545,-0.287106454372406,0.10079269111156464
1772729600443211300,1.355211181640625,-0.25473061203956604,-0.23212862014770508,0.16737695038318634
1772729600452729300,1.364729248046875,-0.25900667905807495,-0.16554436087608337,0.22724169492721558
1772729600462247700,1.37424755859375,-0.2632827162742615,-0.09590577334165573,0.2724456787109375
1772729600471765800,1.383765869140625,-0.2718348205089569,-0.07086031138896942,0.30482152104377747
1772729600481284000,1.3932841796875,-0.27977606654167175,-0.09285144507884979,0.3243691921234131
1772729600490802200,1.40280224609375,-0.28527384996414185,-0.1490510106086731,0.328645259141922
1772729600500320300,1.4123203125,-0.2883281707763672,-0.21319180727005005,0.3194822669029236
1772729600509838600,1.421838623046875,-0.2932150959968567,-0.2864955961704254,0.2968802750110626
1772729600519356700,1.431356689453125,-0.30482152104377747,-0.35674503445625305,0.2718348205089569
1772729600528874800,1.440874755859375,-0.31581708788871765,-0.4013381600379944,0.25534147024154663
1772729600538393000,1.45039306640625,-0.3243691921234131,-0.4269944727420807,0.2608392536640167
1772729600547911200,1.4599111328125,-0.32620179653167725,-0.41783151030540466,0.28954991698265076
1772729600557429200,1.46942919921875,-0.32559093832969666,-0.37812530994415283,0.34086254239082336
1772729600566947600,1.478947509765625,-0.3280344009399414,-0.3194822669029236,0.4001164436340332
1772729600576465700,1.488465576171875,-0.33597561717033386,-0.2663370370864868,0.4428769648075104
1772729600585983700,1.497983642578125,-0.3445277214050293,-0.24434591829776764,0.44959646463394165
1772729600595502000,1.507502197265625,-0.3555232882499695,-0.28954991698265076,0.411722868680954
1772729600605020200,1.517020263671875,-0.3750709891319275,-0.44348782300949097,0.32559093832969666
1772729600614538500,1.52653857421875,-0.4196641147136688,-0.7043271064758301,0.19730933010578156
1772729600624056600,1.536056640625,-0.4978547990322113,-0.9639446139335632,0.04764745384454727
1772729600633574700,1.54557470703125,-0.5888736248016357,-1.109330415725708,-0.09590577334165573
1772729600643093000,1.555093017578125,-0.6695078015327454,-1.1459823846817017,-0.21685700118541718
1772729600652611000,1.564611083984375,-0.7189878225326538,-1.100778341293335,-0.2974911332130432
1772729600662129200,1.574129150390625,-0.7122683525085449,-0.9395100474357605,-0.3066541254520416
1772729600671647200,1.583647216796875,-0.656679630279541,-0.6798924803733826,-0.21807873249053955
1772729600681165600,1.59316552734375,-0.5790998339653015,-0.3597993552684784,-0.04459312930703163
1772729600690683600,1.60268359375,-0.5039634704589844,-0.046425722539424896,0.18631376326084137
1772729600700202000,1.612201904296875,-0.4465421438217163,0.1948658674955368,0.4361574649810791
1772729600709720000,1.621719970703125,-0.3970620930194855,0.30970844626426697,0.6792816519737244
1772729600719238100,1.631238037109375,-0.3500255048274994,0.2987128794193268,0.8924734592437744
1772729600728756500,1.640756591796875,-0.30970844626426697,0.19669845700263977,1.0567960739135742
1772729600738274600,1.650274658203125,-0.2828303873538971,0.043371398001909256,1.156977891921997
1772729600747793000,1.65979296875,-0.28038692474365234,-0.1130099818110466,1.1820234060287476
1772729600757311000,1.66931103515625,-0.32009315490722656,-0.25473061203956604,1.120326042175293
1772729600766829000,1.6788291015625,-0.3958403766155243,-0.3964512348175049,0.9792162179946899
1772729600776347100,1.68834716796875,-0.48930269479751587,-0.5088503360748291,0.7806851863861084
1772729600785865500,1.697865478515625,-0.5876519083976746,-0.555276095867157,0.5473348498344421
1772729600795383600,1.707383544921875,-0.6841685771942139,-0.5442805290222168,0.2974911332130432
1772729600804901600,1.716901611328125,-0.7690787315368652,-0.4874700903892517,0.053145237267017365
1772729600814420000,1.726419921875,-0.8271108865737915,-0.39278605580329895,-0.15760311484336853
1772729600823938000,1.73593798828125,-0.8527672290802002,-0.2877173125743866,-0.3127627670764923
1772729600833456400,1.745456298828125,-0.8436042666435242,-0.20830489695072174,-0.4007273018360138
1772729600842974500,1.754974365234375,-0.8014546036720276,-0.17043127119541168,-0.4105011224746704
1772729600852492500,1.764492431640625,-0.7391464114189148,-0.16676609218120575,-0.34574946761131287
1772729600862011000,1.774010986328125,-0.6713404059410095,-0.18142683804035187,-0.22235478460788727
1772729600871529000,1.783529052734375,-0.6053670048713684,-0.17104214429855347,-0.06047561392188072
1772729600881047000,1.793047119140625,-0.5510000586509705,-0.14172062277793884,0.10934479534626007
1772729600890565400,1.8025654296875,-0.5070177912712097,-0.1331685185432434,0.26450446248054504
1772729600900083500,1.81208349609375,-0.47097674012184143,-0.12461641430854797,0.38850998878479004
1772729600909601500,1.8216015625,-0.43921178579330444,-0.10323614627122879,0.47036588191986084
1772729600919120000,1.831119873046875,-0.4251618981361389,-0.08368847519159317,0.500298261642456
1772729600928638000,1.840637939453125,-0.4257727563381195,-0.09529490768909454,0.47952884435653687
1772729600938156000,1.850156005859375,-0.42455101013183594,-0.11972949653863907,0.4166097939014435
1772729600947674400,1.85967431640625,-0.4214966893196106,-0.12217295914888382,0.32559093832969666
1772729600957192400,1.8691923828125,-0.4221075773239136,-0.12644900381565094,0.21258094906806946
1772729600966710800,1.878710693359375,-0.4269944727420807,-0.17653992772102356,0.08613193035125732
1772729600976228900,1.888228759765625,-0.4251618981361389,-0.277332603931427,-0.039706211537122726
1772729600985747000,1.897746826171875,-0.41233372688293457,-0.37690356373786926,-0.15088360011577606
1772729600995265300,1.907265380859375,-0.39889469742774963,-0.4428769648075104,-0.23762640357017517
1772729601004783400,1.916783447265625,-0.38789913058280945,-0.4874700903892517,-0.2974911332130432
1772729601014301400,1.926301513671875,-0.3738492429256439,-0.5015199780464172,-0.3274235129356384
1772729601023819800,1.93581982421875,-0.3494146466255188,-0.4740310609340668,-0.3225366175174713
1772729601033337900,1.945337890625,-0.31581708788871765,-0.40805765986442566,-0.28405213356018066
1772729601042856000,1.95485595703125,-0.2828303873538971,-0.328645259141922,-0.22296564280986786
1772729601052374300,1.964374267578125,-0.2565632164478302,-0.2571740746498108,-0.15027274191379547
1772729601061892400,1.973892333984375,-0.2364046722650528,-0.19853104650974274,-0.07513637095689774
1772729601071410400,1.983410400390625,-0.21685700118541718,-0.12461641430854797,-0.006108647678047419
1772729601080928800,1.9929287109375,-0.19730933010578156,-0.04459312930703163,0.04764745384454727
1772729601090446800,2.00244677734375,-0.18387030065059662,-0.001832594396546483,0.08491020649671555
1772729601099965200,2.011965087890625,-0.16859868168830872,-0.012217295356094837,0.10873392969369888
1772729601109483300,2.021483154296875,-0.14660754799842834,-0.0256563201546669,0.12217295914888382
1772729601119001300,2.03100146484375,-0.1233946830034256,-0.02932151034474373,0.1233946830034256
1772729601128519400,2.04051953125,-0.1026252806186676,-0.04520399495959282,0.11056652665138245
1772729601138037800,2.050037841796875,-0.07574722915887833,-0.07819069176912308,0.08124501258134842
1772729601147555800,2.059555908203125,-0.04214967042207718,-0.12034036219120026,0.04459312930703163
1772729601157074000,2.069073974609375,-0.0030543238390237093,-0.1545487940311432,0.004886918235570192
1772729601166592300,2.07859228515625,0.037262752652168274,-0.1441640853881836,-0.020769402384757996
1772729601176110300,2.0881103515625,0.06963858753442764,-0.09040798991918564,-0.02626718580722809
1772729601185628700,2.097628662109375,0.09285144507884979,-0.04520399495959282,-0.004276053514331579
1772729601195146800,2.107146728515625,0.11911863088607788,-0.006719512399286032,0.04520399495959282
1772729601204665000,2.1166650390625,0.1533270627260208,0.030543239787220955,0.1178968995809555
1772729601214183200,2.12618310546875,0.18814635276794434,0.07330377399921417,0.20463970303535461
1772729601223701200,2.135701171875,0.22663083672523499,0.11484257876873016,0.2938259541988373
1772729601233219300,2.14521923828125,0.2620609998703003,0.14049890637397766,0.37812530994415283
1772729601242737700,2.154737548828125,0.2864955961704254,0.15088360011577606,0.44898560643196106
1772729601252255700,2.164255859375,0.2938259541988373,0.14660754799842834,0.49541133642196655
1772729601261773800,2.17377392578125,0.2864955961704254,0.13072505593299866,0.5119046568870544
1772729601271292200,2.183292236328125,0.26939135789871216,0.09285144507884979,0.4978547990322113
1772729601280810200,2.192810302734375,0.24495677649974823,0.04276053607463837,0.4612029194831848
1772729601290328300,2.202328369140625,0.20830489695072174,-0.020769402384757996,0.4068359434604645
1772729601299846700,2.2118466796875,0.16004657745361328,-0.09040798991918564,0.33597561717033386
1772729601309364700,2.22136474609375,0.11362084746360779,-0.13194678723812103,0.2528980076313019
1772729601318883000,2.230883056640625,0.0824667438864708,-0.1380554437637329,0.17348559200763702
1772729601328401200,2.240401123046875,0.07147117704153061,-0.10629047453403473,0.1282816082239151
1772729601337919200,2.249919189453125,0.08552107214927673,-0.013439024798572063,0.13988803327083588
1772729601347437600,2.2594375,0.11911863088607788,0.15577052533626556,0.20158538222312927
1772729601356955600,2.26895556640625,0.1533270627260208,0.3439168632030487,0.3066541254520416
1772729601366473700,2.2784736328125,0.18264856934547424,0.5229002237319946,0.43371400237083435
1772729601375992000,2.287991943359375,0.21258094906806946,0.6768381595611572,0.5632173418998718
1772729601385510100,2.29751025390625,0.24801109731197357,0.7947350740432739,0.676227331161499
1772729601395028200,2.3070283203125,0.28038692474365234,0.8491020202636719,0.7629700899124146
1772729601404546600,2.316546630859375,0.30543237924575806,0.841160774230957,0.8148936033248901
1772729601414064600,2.326064697265625,0.32070401310920715,0.7751874327659607,0.8197805285453796
1772729601423583000,2.3355830078125,0.32681265473365784,0.6743947267532349,0.7690787315368652
1772729601433101000,2.34510107421875,0.3280344009399414,0.5436696410179138,0.6676751971244812
1772729601442619100,2.354619140625,0.3280344009399414,0.3995055556297302,0.5271763205528259
1772729601452137500,2.364137451171875,0.31459537148475647,0.2706131041049957,0.3634645342826843
1772729601461655600,2.373655517578125,0.27977606654167175,0.16737695038318634,0.17531819641590118
1772729601471173600,2.383173583984375,0.2254091054201126,0.07024945318698883,-0.021380268037319183
1772729601480691700,2.392691650390625,0.16249002516269684,-0.03176496922969818,-0.2156352698802948
1772729601490210000,2.4022099609375,0.09346231073141098,-0.19425499439239502,-0.39828383922576904
1772729601499728100,2.41172802734375,0.025045456364750862,-0.40744680166244507,-0.5534434914588928
1772729601509246500,2.42124658203125,-0.0409279391169548,-0.6053670048713684,-0.6780598759651184
1772729601518764500,2.4307646484375,-0.10567960888147354,-0.767857015132904,-0.7660244107246399
1772729601528282600,2.44028271484375,-0.16187916696071625,-0.8301652073860168,-0.8032872080802917
1772729601537801000,2.449801025390625,-0.205861434340477,-0.7342594861984253,-0.7800742983818054
1772729601547319000,2.459319091796875,-0.23518294095993042,-0.4874700903892517,-0.7000510096549988
1772729601556837400,2.46883740234375,-0.2522871494293213,-0.1185077652335167,-0.5754346251487732
1772729601566355500,2.47835546875,-0.25900667905807495,0.2889390289783478,-0.42394015192985535
1772729601575873500,2.48787353515625,-0.25473061203956604,0.6249146461486816,-0.2565632164478302
1772729601585391600,2.4973916015625,-0.2419024556875229,0.8258891701698303,-0.09346231073141098
1772729601594910000,2.506909912109375,-0.23762640357017517,0.8991929292678833,0.047036588191986084
1772729601604428000,2.516427978515625,-0.24251331388950348,0.8845322132110596,0.15515965223312378
1772729601613946000,2.525946044921875,-0.2528980076313019,0.8093958497047424,0.22968515753746033
1772729601623464400,2.53546435546875,-0.26939135789871216,0.6982184648513794,0.2761108875274658
1772729601632982500,2.544982421875,-0.28954991698265076,0.5894845128059387,0.29565855860710144
1772729601642500600,2.55450048828125,-0.3066541254520416,0.5143481492996216,0.29077163338661194
1772729601652019000,2.56401904296875,-0.3182605504989624,0.4630354940891266,0.26450446248054504
1772729601661537000,2.573537109375,-0.3176496922969818,0.4001164436340332,0.2205221801996231
1772729601671055400,2.583055419921875,-0.3042106628417969,0.3280344009399414,0.17531819641590118
1772729601680573400,2.592573486328125,-0.2932150959968567,0.2608392536640167,0.13622283935546875
1772729601690091500,2.602091552734375,-0.29077163338661194,0.22174391150474548,0.11239911615848541
1772729601699609900,2.61160986328125,-0.30482152104377747,0.19181154668331146,0.10140355676412582
1772729601709128000,2.6211279296875,-0.34147340059280396,0.14538581669330597,0.09957095980644226
1772729601718646000,2.63064599609375,-0.3903425931930542,0.07819069176912308,0.10506874322891235
1772729601728164400,2.640164306640625,-0.4416552484035492,0.0030543238390237093,0.1130099818110466
1772729601737682400,2.649682373046875,-0.4935787320137024,-0.07757982611656189,0.11667517572641373
1772729601747200800,2.65920068359375,-0.5467239618301392,-0.1539379209280014,0.1185077652335167
1772729601756718800,2.66871875,-0.5888736248016357,-0.2003636509180069,0.11484257876873016
1772729601766237000,2.67823681640625,-0.618806004524231,-0.22724169492721558,0.10873392969369888
1772729601775755000,2.687755126953125,-0.6414080262184143,-0.24373504519462585,0.10445787757635117
1772729601785273300,2.6972734375,-0.6499601006507874,-0.24801109731197357,0.10629047453403473
1772729601794791400,2.70679150390625,-0.6389645338058472,-0.2626718580722809,0.11606431007385254
1772729601804309800,2.716309814453125,-0.6029235124588013,-0.2779434621334076,0.1331685185432434
1772729601813827800,2.725827880859375,-0.5424479246139526,-0.2730565667152405,0.15210533142089844
1772729601823346000,2.735345947265625,-0.47525280714035034,-0.29077163338661194,0.16676609218120575
1772729601832864300,2.7448642578125,-0.41783151030540466,-0.36163195967674255,0.18325942754745483
1772729601842382300,2.75438232421875,-0.37629270553588867,-0.40927940607070923,0.20891575515270233
1772729601851900400,2.763900390625,-0.36224281787872314,-0.41783151030540466,0.23762640357017517
1772729601861418500,2.77341845703125,-0.37690356373786926,-0.42271843552589417,0.25534147024154663
1772729601870936800,2.782936767578125,-0.4068359434604645,-0.40927940607070923,0.25411975383758545
1772729601880455200,2.792455078125,-0.4459312856197357,-0.3958403766155243,0.2315177470445633
1772729601889973200,2.80197314453125,-0.4776962697505951,-0.401949018239975,0.19730933010578156
1772729601899491300,2.8114912109375,-0.5015199780464172,-0.41294458508491516,0.17165300250053406
1772729601909009700,2.821009765625,-0.5247328281402588,-0.42088583111763,0.1649334877729416
1772729601918527700,2.83052783203125,-0.5436696410179138,-0.42882707715034485,0.18631376326084137
1772729601928045800,2.8400458984375,-0.5479456782341003,-0.4153880476951599,0.2309068888425827
1772729601937564000,2.84956396484375,-0.5393936038017273,-0.37629270553588867,0.2864955961704254
1772729601947082200,2.859082275390625,-0.5235111117362976,-0.35185810923576355,0.3396408259868622
1772729601956600300,2.868600341796875,-0.49968740344047546,-0.3536907136440277,0.3836230933666229
1772729601966118700,2.87811865234375,-0.4764745235443115,-0.379347026348114,0.4172206521034241
1772729601975636700,2.88763671875,-0.46059203147888184,-0.4147771894931793,0.4410443603992462
1772729601985155000,2.897155029296875,-0.45875945687294006,-0.4508182108402252,0.45326167345046997
1772729601994673200,2.906673095703125,-0.4740310609340668,-0.4557051360607147,0.44898560643196106
1772729602004191200,2.916191162109375,-0.5088503360748291,-0.44959646463394165,0.42821621894836426
1772729602013709600,2.92570947265625,-0.5558869242668152,-0.481361448764801,0.38789913058280945
1772729602023227600,2.9352275390625,-0.6133082509040833,-0.5778780579566956,0.3274235129356384
1772729602032745700,2.944745849609375,-0.6719512343406677,-0.7281508445739746,0.25900667905807495
1772729602042263800,2.954263916015625,-0.7238747477531433,-0.8680388331413269,0.19730933010578156
1772729602051782100,2.9637822265625,-0.7727439403533936,-0.952949047088623,0.15699224174022675
1772729602061300200,2.97330029296875,-0.8197805285453796,-0.9706641435623169,0.14721840620040894
1772729602070818600,2.982818603515625,-0.8527672290802002,-0.9132428169250488,0.1893680840730667
1772729602080336600,2.992336669921875,-0.860708475112915,-0.7360920310020447,0.2932150959968567
1772729602089854700,3.001854736328125,-0.8619301915168762,-0.45937031507492065,0.43921178579330444
1772729602099373000,3.011373046875,-0.8765909671783447,-0.19425499439239502,0.5894845128059387
1772729602108891100,3.02089111328125,-0.9004147052764893,-0.029932374134659767,0.7092140316963196
1772729602118409200,3.0304091796875,-0.9279035925865173,0.004276053514331579,0.7898481488227844
1772729602127927600,3.039927490234375,-0.9492838382720947,-0.056810423731803894,0.8289434909820557
1772729602137445600,3.049445556640625,-0.9669989347457886,-0.17715078592300415,0.8216131329536438
1772729602146963700,3.058963623046875,-0.9902117848396301,-0.3249800503253937,0.768467903137207
1772729602156482000,3.06848193359375,-1.0250310897827148,-0.47525280714035034,0.6682860851287842
1772729602166000000,3.078000244140625,-1.0665699243545532,-0.5949822664260864,0.526565432548523
1772729602175518200,3.087518310546875,-1.1026109457015991,-0.6768381595611572,0.3530798554420471
1772729602185036500,3.09703662109375,-1.130099892616272,-0.7354812026023865,0.16249002516269684
1772729602194554600,3.1065546875,-1.1447606086730957,-0.7721330523490906,-0.021380268037319183
1772729602204073000,3.116072998046875,-1.1496474742889404,-0.7880155444145203,-0.1740964651107788
1772729602213591000,3.125591064453125,-1.1447606086730957,-0.7831286191940308,-0.27855435013771057
1772729602223109000,3.135109130859375,-1.135597586631775,-0.7464767694473267,-0.3280344009399414
1772729602232627500,3.14462744140625,-1.1233803033828735,-0.6817250847816467,-0.3249800503253937
1772729602242145500,3.1541455078125,-1.1013891696929932,-0.6059778332710266,-0.277332603931427
1772729602251663600,3.16366357421875,-1.0769546031951904,-0.535728394985199,-0.20219624042510986
1772729602261182000,3.173181884765625,-1.0494656562805176,-0.49663305282592773,-0.11484257876873016
1772729602270700000,3.182699951171875,-1.0177006721496582,-0.4764745235443115,-0.026878049597144127
1772729602280218000,3.192218017578125,-0.9841031432151794,-0.43371400237083435,0.05497783049941063
1772729602289736400,3.201736328125,-0.9560033679008484,-0.38850998878479004,0.12278381735086441
1772729602299254500,3.211254638671875,-0.934012234210968,-0.37751442193984985,0.16676609218120575
1772729602308772900,3.22077294921875,-0.9138537049293518,-0.4043924808502197,0.18814635276794434
1772729602318291000,3.230291015625,-0.8973603844642639,-0.4428769648075104,0.19303326308727264
1772729602327809000,3.23980908203125,-0.8900299668312073,-0.4685332775115967,0.18570289015769958
1772729602337327400,3.249327392578125,-0.8930842876434326,-0.5045742988586426,0.15821397304534912
1772729602346845400,3.258845458984375,-0.8985821008682251,-0.5607738494873047,0.11362084746360779
1772729602356363500,3.268363525390625,-0.9028581380844116,-0.6200277805328369,0.053756099194288254
1772729602365881900,3.2778818359375,-0.9114102721214294,-0.6817250847816467,-0.011606430634856224
1772729602375400000,3.28739990234375,-0.9327905178070068,-0.7336485981941223,-0.07635809481143951
1772729602384918000,3.29691796875,-0.963333785533905,-0.7727439403533936,-0.1380554437637329
1772729602394436400,3.306436279296875,-0.9853248596191406,-0.8185588121414185,-0.1893680840730667
1772729602403954400,3.315954345703125,-0.9859357476234436,-0.8466585874557495,-0.21502439677715302
1772729602413472800,3.32547265625,-0.9712749719619751,-0.8246674537658691,-0.21197007596492767
1772729602422990800,3.334990966796875,-0.9590576887130737,-0.7672461867332458,-0.18692462146282196
1772729602432509000,3.344509033203125,-0.952949047088623,-0.6976075768470764,-0.14477495849132538
1772729602442027300,3.35402734375,-0.9511164426803589,-0.6047561168670654,-0.08613193035125732
1772729602451545300,3.36354541015625,-0.9450078010559082,-0.49113526940345764,-0.01649334840476513
1772729602461063400,3.3730634765625,-0.9382883310317993,-0.4001164436340332,0.056810423731803894
1772729602470581500,3.38258154296875,-0.9236275553703308,-0.3695732057094574,0.12461641430854797
1772729602480099800,3.392099853515625,-0.9022472500801086,-0.4007273018360138,0.1893680840730667
1772729602489618000,3.401617919921875,-0.8668171167373657,-0.4471530318260193,0.25473061203956604
1772729602499136300,3.41113623046875,-0.8289434909820557,-0.4734202027320862,0.32009315490722656
1772729602508654300,3.420654296875,-0.7996219992637634,-0.49113526940345764,0.37812530994415283
1772729602518172400,3.43017236328125,-0.7819069027900696,-0.500298261642456,0.42332929372787476
1772729602527690800,3.439690673828125,-0.7709113359451294,-0.49663305282592773,0.45387253165245056
1772729602537208800,3.449208740234375,-0.7660244107246399,-0.5064069032669067,0.4667007029056549
1772729602546727200,3.45872705078125,-0.7654135823249817,-0.5528326034545898,0.45998117327690125
1772729602556245200,3.468245361328125,-0.7648026943206787,-0.6212494969367981,0.44409868121147156
1772729602565763300,3.477763427734375,-0.7629700899124146,-0.676227331161499,0.4202749729156494
1772729602575281400,3.487281494140625,-0.7605266571044922,-0.7055488228797913,0.4001164436340332
1772729602584799700,3.4967998046875,-0.7574723362922668,-0.7018836140632629,0.3903425931930542
1772729602594317800,3.50631787109375,-0.7538071274757385,-0.6652317643165588,0.39828383922576904
1772729602603836000,3.5158359375,-0.7519745230674744,-0.5900954008102417,0.42882707715034485
1772729602613354200,3.525354248046875,-0.7531962990760803,-0.47586366534233093,0.4770853817462921
1772729602622872300,3.534872314453125,-0.7538071274757385,-0.32131487131118774,0.535728394985199
1772729602632390700,3.544390625,-0.7538071274757385,-0.15760311484336853,0.5943714380264282
1772729602641908700,3.55390869140625,-0.750141978263855,-0.020158538594841957,0.6450732350349426
1772729602651426800,3.5634267578125,-0.7434224486351013,0.07941242307424545,0.6805033683776855
1772729602660945200,3.572945068359375,-0.7373138070106506,0.13744457066059113,0.6939423680305481
1772729602670463200,3.582463134765625,-0.7275399565696716,0.1594357043504715,0.6792816519737244
1772729602679981300,3.591981201171875,-0.7195987105369568,0.12644900381565094,0.6224712133407593
1772729602689499600,3.601499755859375,-0.7269290685653687,0.031154103577136993,0.5296197533607483
1772729602699017700,3.611017822265625,-0.7385355234146118,-0.12522727251052856,0.40805765986442566
1772729602708535800,3.620535888671875,-0.7611374855041504,-0.3274235129356384,0.26389357447624207
1772729602718054100,3.63005419921875,-0.7953459620475769,-0.5485565662384033,0.10873392969369888
1772729602727572200,3.639572265625,-0.8203914165496826,-0.7159335017204285,-0.03909534588456154
1772729602737090600,3.649090576171875,-0.8210022449493408,-0.7519745230674744,-0.15088360011577606
1772729602746608600,3.658608642578125,-0.7922916412353516,-0.667064368724823,-0.19364413619041443
1772729602756126700,3.668126708984375,-0.7281508445739746,-0.47464191913604736,-0.14660754799842834
1772729602765645000,3.67764501953125,-0.6267472505569458,-0.18325942754745483,-0.015271619893610477
1772729602775163100,3.6871630859375,-0.5100721120834351,0.1533270627260208,0.17348559200763702
1772729602784681200,3.69668115234375,-0.401949018239975,0.4667007029056549,0.39400777220726013
1772729602794199600,3.706199462890625,-0.30604326725006104,0.6817250847816467,0.6212494969367981
1772729602803717600,3.715717529296875,-0.21991132199764252,0.7788525819778442,0.8313869833946228
1772729602813235700,3.725235595703125,-0.1533270627260208,0.7635809779167175,0.9999856352806091
1772729602822754000,3.734754150390625,-0.12400554865598679,0.6517927050590515,1.100778341293335
1772729602832272100,3.744272216796875,-0.13439024984836578,0.4868592321872711,1.1239912509918213
1772729602841790200,3.753790283203125,-0.17287473380565643,0.3225366175174713,1.073289394378662
1772729602851308500,3.76330859375,-0.22846342623233795,0.1698204129934311,0.9541707634925842
1772729602860826600,3.77282666015625,-0.2926042377948761,0.007330377586185932,0.7861829996109009
1772729602870344700,3.7823447265625,-0.3659079968929291,-0.1637117564678192,0.583375871181488
1772729602879863000,3.791863037109375,-0.45326167345046997,-0.31154105067253113,0.36712974309921265
1772729602889381000,3.801381103515625,-0.5479456782341003,-0.42088583111763,0.15577052533626556
1772729602898899500,3.8108994140625,-0.6456840634346008,-0.5021308660507202,-0.04276053607463837
1772729602908417500,3.82041748046875,-0.7385355234146118,-0.5803215503692627,-0.2254091054201126
1772729602917935600,3.829935546875,-0.8222240209579468,-0.6774490475654602,-0.3903425931930542
1772729602927454000,3.839453857421875,-0.8857539296150208,-0.7696896195411682,-0.526565432548523
1772729602936972000,3.848971923828125,-0.924238383769989,-0.8399390578269958,-0.6194168925285339
1772729602946490000,3.858489990234375,-0.9382883310317993,-0.8894191384315491,-0.6560688018798828
1772729602956008400,3.868008544921875,-0.925460159778595,-0.8778126835823059,-0.6267472505569458
1772729602965526500,3.877526611328125,-0.8863648176193237,-0.7452550530433655,-0.5375609993934631
1772729602975044900,3.887044921875,-0.8350521326065063,-0.5051851868629456,-0.3995055556297302
1772729602984563000,3.89656298828125,-0.7990111112594604,-0.27366742491722107,-0.23335035145282745
1772729602994081000,3.9060810546875,-0.7898481488227844,-0.1545487940311432,-0.06108647957444191
1772729603003599400,3.915599365234375,-0.7874047160148621,-0.1539379209280014,0.10445787757635117
1772729603013117400,3.925117431640625,-0.7739656567573547,-0.2211330533027649,0.2528980076313019
1772729603022635500,3.934635498046875,-0.758694052696228,-0.3084867000579834,0.37140578031539917
1772729603032153600,3.944153564453125,-0.7464767694473267,-0.4050033390522003,0.44837474822998047
1772729603041672000,3.953671875,-0.7452550530433655,-0.5094612240791321,0.4776962697505951
1772729603051190000,3.96318994140625,-0.7556397318840027,-0.6090322136878967,0.45998117327690125
1772729603060708400,3.972708251953125,-0.778241753578186,-0.711046576499939,0.4098902642726898
1772729603070226400,3.982226318359375,-0.8057306408882141,-0.8057306408882141,0.337808221578598
1772729603079744800,3.991744873046875,-0.8368847370147705,-0.870482325553894,0.25534147024154663
1772729603089262800,4.001262939453125,-0.8765909671783447,-0.905912458896637,0.1740964651107788
1772729603098781000,4.010781005859375,-0.9217949509620667,-0.916297197341919,0.10567960888147354
1772729603108299000,4.020299072265625,-0.9712749719619751,-0.8955277800559998,0.05803215503692627
1772729603117817300,4.0298173828125,-1.0244202613830566,-0.8368847370147705,0.026878049597144127
1772729603127335400,4.03933544921875,-1.0793980360031128,-0.7458658814430237,0.011606430634856224
1772729603136853500,4.048853515625,-1.1362085342407227,-0.6340776681900024,0.01282816007733345
1772729603146371800,4.058371826171875,-1.1979057788848877,-0.5381718873977661,0.02260199747979641
1772729603155890000,4.067889892578125,-1.2553271055221558,-0.4825831651687622,0.037262752652168274
1772729603165408300,4.077408203125,-1.3005311489105225,-0.4685332775115967,0.053145237267017365
1772729603174926300,4.08692626953125,-1.3292417526245117,-0.4874700903892517,0.0665842592716217
1772729603184444400,4.0964443359375,-1.3377938270568848,-0.4838049113750458,0.07635809481143951
1772729603193962800,4.105962646484375,-1.3322961330413818,-0.4526508152484894,0.07635809481143951
1772729603203480800,4.115480712890625,-1.320078730583191,-0.43310311436653137,0.06536252796649933
1772729603212999000,4.1249990234375,-1.2974767684936523,-0.45326167345046997,0.05192350596189499
1772729603222517200,4.134517333984375,-1.2638791799545288,-0.5021308660507202,0.043371398001909256
1772729603232035300,4.144035400390625,-1.2156208753585815,-0.5485565662384033,0.046425722539424896
1772729603241553400,4.153553466796875,-1.1624757051467896,-0.5778780579566956,0.05253437161445618
1772729603251071700,4.16307177734375,-1.1099413633346558,-0.6041452884674072,0.059864748269319534
1772729603260589800,4.17258984375,-1.0604612827301025,-0.657290518283844,0.06291907280683517
1772729603270108200,4.182108154296875,-1.0158681869506836,-0.729983389377594,0.06475166976451874
1772729603279626200,4.191626220703125,-0.9828814268112183,-0.8087849617004395,0.07024945318698883
1772729603289144300,4.201144287109375,-0.9608902931213379,-0.8857539296150208,0.09040798991918564
1772729603298662700,4.21066259765625,-0.9498947262763977,-0.9169080257415771,0.12461641430854797
1772729603308180700,4.2201806640625,-0.9492838382720947,-0.8912517428398132,0.16737695038318634
1772729603317698800,4.22969873046875,-0.9560033679008484,-0.8393282294273376,0.21258094906806946
1772729603327217200,4.239217041015625,-0.9639446139335632,-0.7947350740432739,0.25534147024154663
1772729603336735200,4.2487353515625,-0.9718858599662781,-0.739757239818573,0.3023780584335327
1772729603346253300,4.25825341796875,-0.9749401807785034,-0.6517927050590515,0.35246896743774414
1772729603355771600,4.267771728515625,-0.9798271059989929,-0.5522217750549316,0.39889469742774963
1772729603365289700,4.277289794921875,-0.9908226728439331,-0.4935787320137024,0.4312705397605896
1772729603374807800,4.286807861328125,-1.0060943365097046,-0.5021308660507202,0.4422661066055298
1772729603384326100,4.296326171875,-1.0195332765579224,-0.5626064538955688,0.4276053309440613
1772729603393844200,4.30584423828125,-1.0445787906646729,-0.6676751971244812,0.3842339515686035
1772729603403362300,4.3153623046875,-1.1056652069091797,-0.8460476994514465,0.3139844834804535
1772729603412880600,4.324880615234375,-1.1869102716445923,-1.0806198120117188,0.23212862014770508
1772729603422398700,4.334398681640625,-1.2370011806488037,-1.320078730583191,0.1441640853881836
1772729603431917000,4.3439169921875,-1.2651009559631348,-1.5968005657196045,0.05070177838206291
1772729603441435100,4.35343505859375,-1.3090832233428955,-1.8558071851730347,-0.04276053607463837
1772729603450953200,4.362953125,-1.3720022439956665,-1.9639302492141724,-0.09529490768909454
1772729603460471300,4.37247119140625,-1.4135410785675049,-1.886350393295288,-0.07269290834665298
1772729603469989600,4.38198974609375,-1.4159845113754272,-1.6615521907806396,0.039706211537122726
1772729603479507700,4.3915078125,-1.3878847360610962,-1.3347395658493042,0.22479823231697083
1772729603489026000,4.401026123046875,-1.362228512763977,-0.9902117848396301,0.44348782300949097
1772729603498544000,4.410544189453125,-1.3536763191223145,-0.7147117853164673,0.6554579138755798
1772729603508062500,4.4200625,-1.3640609979629517,-0.5619956254959106,0.8271108865737915
1772729603517580500,4.42958056640625,-1.3793326616287231,-0.5406153202056885,0.9334014058113098
1772729603527098600,4.4390986328125,-1.3952151536941528,-0.6328558921813965,0.9639446139335632
1772729603536617000,4.448616943359375,-1.4208714962005615,-0.8002328872680664,0.9144645929336548
1772729603546135000,4.458135009765625,-1.461188554763794,-1.0060943365097046,0.7953459620475769
1772729603555653000,4.467653076171875,-1.5192207098007202,-1.2076796293258667,0.6236929297447205
1772729603565171200,4.477171142578125,-1.590080976486206,-1.3634501695632935,0.42271843552589417
1772729603574689500,4.486689453125,-1.6505566835403442,-1.441640853881836,0.2260199636220932
1772729603584207600,4.49620751953125,-1.682321548461914,-1.4202606678009033,0.06352993845939636
1772729603593726000,4.505725830078125,-1.6951497793197632,-1.3249657154083252,-0.04886918142437935
1772729603603244000,4.515244140625,-1.7061452865600586,-1.2119556665420532,-0.11362084746360779
1772729603612762000,4.52476220703125,-1.7110322713851929,-1.1136064529418945,-0.1337793916463852
1772729603622280400,4.534280517578125,-1.711643099784851,-1.0378592014312744,-0.11545344442129135
1772729603631798500,4.543798583984375,-1.6988149881362915,-0.9615011811256409,-0.06841685622930527
1772729603641316600,4.553316650390625,-1.6694934368133545,-0.8973603844642639,-0.001221729558892548
1772729603650835000,4.5628349609375,-1.6212351322174072,-0.8491020202636719,0.07819069176912308
1772729603660353000,4.57235302734375,-1.5491530895233154,-0.7929024696350098,0.16249002516269684
1772729603669871000,4.58187109375,-1.470962405204773,-0.7391464114189148,0.23945899307727814
1772729603679389400,4.591389404296875,-1.4007129669189453,-0.7147117853164673,0.29504770040512085
1772729603688907500,4.600907470703125,-1.3481786251068115,-0.7220421433448792,0.3225366175174713
1772729603698425600,4.610425537109375,-1.3084723949432373,-0.7464767694473267,0.32620179653167725
1772729603707944000,4.61994384765625,-1.286481261253357,-0.7776308655738831,0.3121519088745117
1772729603717462000,4.6294619140625,-1.2773182392120361,-0.8179479241371155,0.2864955961704254
1772729603726980400,4.63898046875,-1.275485634803772,-0.8662062287330627,0.24923282861709595
1772729603736498400,4.64849853515625,-1.2773182392120361,-0.9120211005210876,0.1997527778148651
1772729603746016500,4.6580166015625,-1.2748748064041138,-0.9303470849990845,0.14660754799842834
1772729603755534800,4.667534912109375,-1.2773182392120361,-0.9285144805908203,0.08613193035125732
1772729603765053000,4.677052978515625,-1.293811559677124,-0.9395100474357605,0.020769402384757996
1772729603774571000,4.686571044921875,-1.3267983198165894,-0.9755510687828064,-0.04825831577181816
1772729603784089300,4.69608935546875,-1.362228512763977,-1.0305289030075073,-0.11667517572641373
1772729603793607400,4.705607421875,-1.3799434900283813,-1.0873392820358276,-0.17776164412498474
1772729603803125500,4.71512548828125,-1.3756674528121948,-1.1215476989746094,-0.22235478460788727
1772729603812643800,4.724643798828125,-1.3585633039474487,-1.1154390573501587,-0.24740023910999298
1772729603822162000,4.734161865234375,-1.3267983198165894,-1.0708459615707397,-0.24862197041511536
1772729603831680300,4.74368017578125,-1.2877029180526733,-0.9944878816604614,-0.22846342623233795
1772729603841198300,4.7531982421875,-1.237612009048462,-0.8900299668312073,-0.18264856934547424
1772729603850716400,4.76271630859375,-1.1893537044525146,-0.7476984858512878,-0.11117739230394363
1772729603860234800,4.77223486328125,-1.1496474742889404,-0.5943714380264282,-0.01954767294228077
1772729603869752800,4.7817529296875,-1.1184934377670288,-0.4776962697505951,0.08124501258134842
1772729603879271000,4.79127099609375,-1.0879502296447754,-0.4269944727420807,0.18325942754745483
1772729603888789200,4.800789306640625,-1.0458004474639893,-0.43982264399528503,0.27000224590301514
1772729603898307300,4.810307373046875,-0.9963204264640808,-0.4917461574077606,0.3347539007663727
1772729603907825400,4.819825439453125,-0.9517273306846619,-0.5613847374916077,0.3689623177051544
1772729603917343700,4.82934375,-0.9169080257415771,-0.627968966960907,0.3695732057094574
1772729603926861800,4.83886181640625,-0.8839213252067566,-0.6548470258712769,0.34574946761131287
1772729603936380000,4.8483798828125,-0.8429933786392212,-0.6444623470306396,0.30543237924575806
1772729603945898200,4.857898193359375,-0.7996219992637634,-0.6059778332710266,0.25900667905807495
1772729603955416300,4.867416259765625,-0.7476984858512878,-0.5558869242668152,0.21930044889450073
1772729603964934700,4.8769345703125,-0.6927206516265869,-0.4874700903892517,0.19303326308727264
1772729603974452700,4.88645263671875,-0.6389645338058472,-0.40866854786872864,0.18753549456596375
1772729603983970800,4.895970703125,-0.5858193039894104,-0.33719736337661743,0.20647229254245758
1772729603993489200,4.9054892578125,-0.5290089249610901,-0.2626718580722809,0.24984370172023773
1772729604003007200,4.91500732421875,-0.471587598323822,-0.1795942485332489,0.3139844834804535
1772729604012525300,4.924525390625,-0.42332929372787476,-0.12278381735086441,0.389120876789093
1772729604022043400,4.93404345703125,-0.3848448097705841,-0.07269290834665298,0.45448338985443115
1772729604031561700,4.943561767578125,-0.35246896743774414,-0.013439024798572063,0.49480047821998596
1772729604041079800,4.953079833984375,-0.33231043815612793,0.03298669680953026,0.4935787320137024
1772729604050598100,4.96259814453125,-0.3231474757194519,0.023823726922273636,0.4453204274177551
1772729604060116200,4.9721162109375,-0.32559093832969666,-0.10018182545900345,0.3555232882499695
1772729604069634600,4.981634521484375,-0.33597561717033386,-0.31459537148475647,0.23396120965480804
1772729604079152600,4.991152587890625,-0.3530798554420471,-0.5308414697647095,0.09651663154363632
1772729604088670700,5.000670654296875,-0.37262752652168274,-0.6823359727859497,-0.0360410213470459
1772729604098188800,5.010188720703125,-0.3805687427520752,-0.7128791809082031,-0.13683371245861053
1772729604107707100,5.01970703125,-0.36835145950317383,-0.5858193039894104,-0.18081597983837128
1772729604117225200,5.02922509765625,-0.3249800503253937,-0.2974911332130432,-0.1496618688106537
1772729604126743300,5.038743408203125,-0.26022839546203613,0.10506874322891235,-0.049480047076940536
1772729604136261600,5.04826171875,-0.1997527778148651,0.5345066785812378,0.08857539296150208
1772729604145779700,5.05777978515625,-0.15515965223312378,0.8784235715866089,0.2419024556875229
1772729604155298000,5.067298095703125,-0.10934479534626007,1.0488548278808594,0.3903425931930542
1772729604164816100,5.076816162109375,-0.05497783049941063,1.0500766038894653,0.5149590373039246
1772729604174334200,5.086334228515625,0.0030543238390237093,0.9309579133987427,0.6029235124588013
1772729604183852500,5.0958525390625,0.05497783049941063,0.7360920310020447,0.647516667842865
1772729604193370600,5.10537060546875,0.09651663154363632,0.5064069032669067,0.648127555847168
1772729604202888700,5.114888671875,0.12767073512077332,0.26939135789871216,0.6065887212753296
1772729604212407000,5.124406982421875,0.14233149588108063,0.07269290834665298,0.5204567909240723
1772729604221925000,5.133925048828125,0.13194678723812103,-0.10445787757635117,0.38667741417884827
1772729604231443200,5.143443115234375,0.10629047453403473,-0.2620609998703003,0.21441353857517242
1772729604240961500,5.15296142578125,0.07452550530433655,-0.3744601011276245,0.02626718580722809
1772729604250479600,5.162479736328125,0.03176496922969818,-0.4569268524646759,-0.1533270627260208
1772729604259997700,5.171997802734375,-0.027488915249705315,-0.5424479246139526,-0.31031930446624756
1772729604269516000,5.18151611328125,-0.10018182545900345,-0.6151408553123474,-0.4324922561645508
1772729604279034000,5.1910341796875,-0.1698204129934311,-0.6304124593734741,-0.5088503360748291
1772729604288552400,5.200552490234375,-0.21746785938739777,-0.555276095867157,-0.5320632457733154
1772729604298070500,5.210070556640625,-0.2510654330253601,-0.4172206521034241,-0.4990765154361725
1772729604307588600,5.219588623046875,-0.27550002932548523,-0.2663370370864868,-0.41844236850738525
1772729604317107000,5.22910693359375,-0.2822195291519165,-0.10629047453403473,-0.29993459582328796
1772729604326625000,5.238625,-0.2712239623069763,0.06475166976451874,-0.1594357043504715
1772729604336143000,5.24814306640625,-0.24862197041511536,0.205861434340477,-0.020769402384757996
1772729604345661400,5.257661376953125,-0.21868959069252014,0.277332603931427,0.09468404203653336
1772729604355179500,5.267179443359375,-0.17287473380565643,0.2822195291519165,0.17653992772102356
1772729604364697600,5.276697509765625,-0.11911863088607788,0.24801109731197357,0.2254091054201126
1772729604374215700,5.286215576171875,-0.06902772188186646,0.20341797173023224,0.23945899307727814
1772729604383734000,5.295734130859375,-0.04276053607463837,0.1496618688106537,0.21807873249053955
1772729604393252000,5.305252197265625,-0.0360410213470459,0.0818558782339096,0.17043127119541168
1772729604402770400,5.3147705078125,-0.03543015569448471,0.012217295356094837,0.10934479534626007
1772729604412288500,5.32428857421875,-0.03237583488225937,-0.056199558079242706,0.046425722539424896
1772729604421806800,5.333806884765625,-0.027488915249705315,-0.12644900381565094,-0.008552107028663158
1772729604431325000,5.343324951171875,-0.020158538594841957,-0.19120067358016968,-0.05070177838206291
1772729604440843000,5.352843017578125,-0.015271619893610477,-0.24006985127925873,-0.08063415437936783
1772729604450361000,5.362361083984375,-0.01954767294228077,-0.2767217457294464,-0.10445787757635117
1772729604459879400,5.37187939453125,-0.031154103577136993,-0.31031930446624756,-0.12950333952903748
1772729604469397500,5.3813974609375,-0.039706211537122726,-0.3652971386909485,-0.15210533142089844
1772729604478915600,5.39091552734375,-0.039706211537122726,-0.4318813979625702,-0.16126830875873566
1772729604488434000,5.400433837890625,-0.03848448023200035,-0.47525280714035034,-0.15577052533626556
1772729604497952000,5.409951904296875,-0.0409279391169548,-0.48075059056282043,-0.13561198115348816
1772729604507470000,5.419469970703125,-0.050090912729501724,-0.45387253165245056,-0.0977383628487587
1772729604516988400,5.428988525390625,-0.06536252796649933,-0.39767298102378845,-0.0513126403093338
1772729604526506500,5.438506591796875,-0.08491020649671555,-0.3090975880622864,-0.004886918235570192
1772729604536024800,5.44802490234375,-0.10201441496610641,-0.205861434340477,0.037262752652168274
1772729604545543000,5.45754296875,-0.1130099818110466,-0.09957095980644226,0.07391463965177536
1772729604555061000,5.46706103515625,-0.11239911615848541,-0.017104214057326317,0.10323614627122879
1772729604564579300,5.476579345703125,-0.10567960888147354,0.03909534588456154,0.12278381735086441
1772729604574097400,5.486097412109375,-0.09285144507884979,0.06536252796649933,0.12583814561367035
1772729604583615500,5.495615478515625,-0.07635809481143951,0.050090912729501724,0.1130099818110466
1772729604593133800,5.5051337890625,-0.050090912729501724,0.004276053514331579,0.08918625861406326
1772729604602652000,5.51465185546875,-0.017715077847242355,-0.05864302068948746,0.06536252796649933
1772729604612170000,5.524169921875,0.011606430634856224,-0.13255766034126282,0.04520399495959282
1772729604621688300,5.533688232421875,0.03481929376721382,-0.21258094906806946,0.02871064469218254
1772729604631206400,5.543206298828125,0.06047561392188072,-0.29443681240081787,0.021991131827235222
1772729604640724500,5.552724365234375,0.09162971377372742,-0.3689623177051544,0.02626718580722809
1772729604650242800,5.562242919921875,0.11728604137897491,-0.4257727563381195,0.03787361457943916
1772729604659761000,5.571760986328125,0.13988803327083588,-0.4679224193096161,0.05864302068948746
1772729604669279200,5.581279296875,0.16615521907806396,-0.4770853817462921,0.08491020649671555
1772729604678797300,5.59079736328125,0.1954767256975174,-0.43493571877479553,0.11484257876873016
1772729604688315400,5.6003154296875,0.2156352698802948,-0.3488037884235382,0.1380554437637329
1772729604697833700,5.609833740234375,0.21991132199764252,-0.27488914132118225,0.1496618688106537
1772729604707351800,5.619351806640625,0.21380266547203064,-0.235793799161911,0.14599667489528656
1772729604716870000,5.628869873046875,0.205861434340477,-0.21685700118541718,0.12767073512077332
1772729604726388000,5.638387939453125,0.1948658674955368,-0.20647229254245758,0.09834922850131989
1772729604735906300,5.64790625,0.1692095398902893,-0.21197007596492767,0.06047561392188072
1772729604745424400,5.65742431640625,0.12461641430854797,-0.2419024556875229,0.011606430634856224
1772729604754942700,5.666942626953125,0.05070177838206291,-0.33536475896835327,-0.053145237267017365
1772729604764460800,5.676460693359375,-0.043982263654470444,-0.49418962001800537,-0.13072505593299866
1772729604773979000,5.685978759765625,-0.13744457066059113,-0.6444623470306396,-0.20952661335468292
1772729604783497200,5.695497314453125,-0.21502439677715302,-0.7281508445739746,-0.27550002932548523
1772729604793015300,5.705015380859375,-0.2718348205089569,-0.7037162184715271,-0.30543237924575806
1772729604802533400,5.714533447265625,-0.2938259541988373,-0.5467239618301392,-0.27916520833969116
1772729604812051700,5.7240517578125,-0.2864955961704254,-0.2822195291519165,-0.19425499439239502
1772729604821569800,5.73356982421875,-0.2718348205089569,0.012217295356094837,-0.06963858753442764
1772729604831087900,5.743087890625,-0.2516762912273407,0.2663370370864868,0.07513637095689774
1772729604840606200,5.752606201171875,-0.21685700118541718,0.4471530318260193,0.21746785938739777
1772729604850124300,5.762124267578125,-0.1740964651107788,0.56382817029953,0.32559093832969666
1772729604859642400,5.771642333984375,-0.12950333952903748,0.5986474752426147,0.38850998878479004
1772729604869160700,5.78116064453125,-0.08796452730894089,0.5375609993934631,0.4098902642726898
1772729604878678800,5.7906787109375,-0.050090912729501724,0.401949018239975,0.4056142270565033
1772729604888196900,5.80019677734375,-0.010995565913617611,0.23212862014770508,0.38789913058280945
1772729604897715200,5.809715087890625,0.01649334840476513,0.05070177838206291,0.35796675086021423
1772729604907233300,5.8192333984375,0.017715077847242355,-0.12522727251052856,0.30543237924575806
1772729604916751600,5.828751708984375,-0.01588248461484909,-0.28466299176216125,0.22174391150474548
1772729604926269700,5.838269775390625,-0.07330377399921417,-0.4172206521034241,0.10873392969369888
1772729604935787800,5.847787841796875,-0.13683371245861053,-0.5161807537078857,-0.027488915249705315
1772729604945306000,5.85730615234375,-0.19242240488529205,-0.573602020740509,-0.1698204129934311
1772729604954824200,5.86682421875,-0.23823726177215576,-0.565049946308136,-0.29626941680908203
1772729604964342300,5.87634228515625,-0.2718348205089569,-0.4917461574077606,-0.38850998878479004
1772729604973860600,5.885860595703125,-0.29138249158859253,-0.36712974309921265,-0.4318813979625702
1772729604983378700,5.895378662109375,-0.29443681240081787,-0.20769402384757996,-0.4269944727420807
1772729604992896800,5.904896728515625,-0.27977606654167175,-0.056199558079242706,-0.3811796307563782
1772729605002415000,5.9144150390625,-0.25350889563560486,0.06047561392188072,-0.3072649836540222
1772729605011933200,5.92393310546875,-0.2211330533027649,0.12644900381565094,-0.21807873249053955
1772729605021451300,5.933451171875,-0.1899789422750473,0.143553227186203,-0.12705987691879272
1772729605030969600,5.942969482421875,-0.16615521907806396,0.13194678723812103,-0.04825831577181816
1772729605040487700,5.95248779296875,-0.15149445831775665,0.09346231073141098,0.009773836471140385
1772729605050006000,5.962006103515625,-0.14233149588108063,0.04886918142437935,0.046425722539424896
1772729605059524000,5.971524169921875,-0.13500112295150757,0.006719512399286032,0.06230820715427399
1772729605069042200,5.981042236328125,-0.1380554437637329,-0.03481929376721382,0.05803215503692627
1772729605078560300,5.990560302734375,-0.1496618688106537,-0.05497783049941063,0.03543015569448471
1772729605088078600,6.00007861328125,-0.17043127119541168,-0.04214967042207718,-0.002443459117785096
1772729605097596700,6.0095966796875,-0.1899789422750473,-0.01954767294228077,-0.05253437161445618
1772729605107114800,6.01911474609375,-0.2003636509180069,-0.009773836471140385,-0.11056652665138245
1772729605116633000,6.028633056640625,-0.19669845700263977,-0.01282816007733345,-0.17165300250053406
1772729605126151200,6.038151123046875,-0.16859868168830872,-0.03543015569448471,-0.22357651591300964
1772729605135669200,6.047669189453125,-0.1178968995809555,-0.0769689604640007,-0.2571740746498108
1772729605145187600,6.0571875,-0.05803215503692627,-0.11728604137897491,-0.2675587832927704
1772729605154705700,6.06670556640625,-0.007330377586185932,-0.14172062277793884,-0.25534147024154663
1772729605164224000,6.07622412109375,0.023212861269712448,-0.13439024984836578,-0.21991132199764252
1772729605173742000,6.0857421875,0.039706211537122726,-0.09834922850131989,-0.16798780858516693
1772729605183265000,6.09526513671875,0.04520399495959282,-0.05497783049941063,-0.11117739230394363
1772729605192778500,6.104778564453125,0.0513126403093338,-0.010384701192378998,-0.053756099194288254
1772729605202296600,6.114296630859375,0.06230820715427399,0.031154103577136993,-0.001221729558892548
1772729605211814700,6.123814697265625,0.08491020649671555,0.09101885557174683,0.04520399495959282
1772729605221333000,6.1333330078125,0.10934479534626007,0.1539379209280014,0.08429934084415436
1772729605230851000,6.14285107421875,0.12461641430854797,0.17104214429855347,0.11178825795650482
1772729605240369200,6.152369140625,0.13439024984836578,0.12950333952903748,0.12156209349632263
1772729605249887200,6.16188720703125,0.14294235408306122,0.06719512492418289,0.1130099818110466
1772729605259405600,6.171405517578125,0.15210533142089844,0.002443459117785096,0.08307760953903198
1772729605268923600,6.180923583984375,0.17043127119541168,-0.06719512492418289,0.04153880476951599
1772729605278442000,6.19044189453125,0.19792018830776215,-0.12705987691879272,0.003665188793092966
1772729605287960000,6.1999599609375,0.22907429933547974,-0.14782927930355072,-0.020769402384757996
1772729605297478100,6.20947802734375,0.2620609998703003,-0.1185077652335167,-0.024434590712189674
1772729605306996500,6.21899658203125,0.2877173125743866,-0.0665842592716217,-0.009773836471140385
1772729605316514600,6.2285146484375,0.3078758418560028,-0.02871064469218254,0.020769402384757996
1772729605326033000,6.238032958984375,0.32681265473365784,0.004886918235570192,0.06352993845939636
1772729605335551000,6.247551025390625,0.3451386094093323,0.07452550530433655,0.11911863088607788
1772729605345069000,6.257069091796875,0.35674503445625305,0.16737695038318634,0.18387030065059662
1772729605354587100,6.266587158203125,0.36163195967674255,0.26389357447624207,0.24862197041511536
1772729605364105500,6.27610546875,0.3707949221134186,0.3536907136440277,0.3072649836540222
1772729605373623600,6.28562353515625,0.3903425931930542,0.41783151030540466,0.3597993552684784
1772729605383141600,6.2951416015625,0.4214966893196106,0.43493571877479553,0.39767298102378845
1772729605392660000,6.304659912109375,0.45387253165245056,0.4050033390522003,0.4202749729156494
1772729605402178000,6.314177978515625,0.4776962697505951,0.34697118401527405,0.42271843552589417
1772729605411696000,6.323696044921875,0.4789179861545563,0.2657261788845062,0.3903425931930542
1772729605421214500,6.33321435546875,0.462424635887146,0.16126830875873566,0.32009315490722656
1772729605430732500,6.342732666015625,0.4355465769767761,0.040317077189683914,0.2162461280822754
1772729605440250600,6.352250732421875,0.40744680166244507,-0.08429934084415436,0.08613193035125732
1772729605449769000,6.36176904296875,0.3750709891319275,-0.1844811588525772,-0.053756099194288254
1772729605459287000,6.371287109375,0.34697118401527405,-0.23518294095993042,-0.1802051067352295
1772729605468805400,6.380805419921875,0.3274235129356384,-0.2003636509180069,-0.2712239623069763
1772729605478323500,6.390323486328125,0.32681265473365784,-0.07086031138896942,-0.2993237376213074
1772729605487841500,6.399841552734375,0.3481929302215576,0.14477495849132538,-0.25045454502105713
1772729605497360000,6.40935986328125,0.37812530994415283,0.4111120104789734,-0.1386663019657135
1772729605506878000,6.4188779296875,0.40927940607070923,0.6609556674957275,0.009773836471140385
1772729605516396000,6.42839599609375,0.4459312856197357,0.8674280047416687,0.164322629570961
1772729605525914000,6.4379140625,0.4874700903892517,0.9847140312194824,0.2993237376213074
1772729605535432400,6.447432373046875,0.5302306413650513,0.9963204264640808,0.4013381600379944
1772729605544950500,6.456950439453125,0.5626064538955688,0.924849271774292,0.45937031507492065
1772729605554468600,6.466468505859375,0.5778780579566956,0.7977893948554993,0.46364638209342957
1772729605563987000,6.475987060546875,0.574212908744812,0.6359102129936218,0.4111120104789734
1772729605573505000,6.485505126953125,0.5589412450790405,0.45387253165245056,0.3066541254520416
1772729605583023000,6.495023193359375,0.5430588126182556,0.27427828311920166,0.1588248461484909
1772729605592541400,6.50454150390625,0.535728394985199,0.13622283935546875,-0.017715077847242355
1772729605602059500,6.5140595703125,0.5351175665855408,0.05497783049941063,-0.205861434340477
1772729605611577900,6.523577880859375,0.5314523577690125,-0.003665188793092966,-0.3860665261745453
1772729605621096000,6.533095947265625,0.526565432548523,-0.04886918142437935,-0.5375609993934631
1772729605630614000,6.542614013671875,0.5216785073280334,-0.05192350596189499,-0.6444623470306396
1772729605640132400,6.55213232421875,0.5131264328956604,-0.006719512399286032,-0.6963858604431152
1772729605649650400,6.561650390625,0.49541133642196655,0.05558869615197182,-0.6994401812553406
1772729605659168500,6.57116845703125,0.4734202027320862,0.12461641430854797,-0.6548470258712769
1772729605668686800,6.580686767578125,0.462424635887146,0.23029601573944092,-0.5705476999282837
1772729605678205000,6.590204833984375,0.46425724029541016,0.3597993552684784,-0.45387253165245056
1772729605687723000,6.599722900390625,0.47586366534233093,0.48502662777900696,-0.318871408700943
1772729605697241000,6.609240966796875,0.4868592321872711,0.5876519083976746,-0.18875721096992493
1772729605706759400,6.618759521484375,0.49968740344047546,0.6579013466835022,-0.08002328872680664
1772729605716277500,6.628277587890625,0.5186241865158081,0.6902772188186646,0
1772729605725795600,6.637795654296875,0.5369501113891602,0.6792816519737244,0.04276053607463837
1772729605735314000,6.64731396484375,0.5510000586509705,0.6487383842468262,0.05192350596189499
1772729605744832000,6.65683203125,0.5564978122711182,0.5968148708343506,0.03176496922969818
1772729605754350300,6.666350341796875,0.5589412450790405,0.5338957905769348,-0.003665188793092966
1772729605763868400,6.675868408203125,0.5558869242668152,0.4728093445301056,-0.04764745384454727
1772729605773386500,6.685386474609375,0.5479456782341003,0.42882707715034485,-0.09285144507884979
1772729605782904800,6.69490478515625,0.5424479246139526,0.40317076444625854,-0.1337793916463852
1772729605792423000,6.7044228515625,0.5381718873977661,0.38789913058280945,-0.1692095398902893
1772729605801941000,6.71394091796875,0.5283980369567871,0.3652971386909485,-0.1997527778148651
1772729605811459300,6.723459228515625,0.5180133581161499,0.3231474757194519,-0.2211330533027649
1772729605820977400,6.732977294921875,0.5057960152626038,0.28527384996414185,-0.2315177470445633
1772729605830495500,6.74249560546875,0.4880809485912323,0.2461785078048706,-0.23335035145282745
1772729605840013800,6.752013916015625,0.46059203147888184,0.185092031955719,-0.2315177470445633
1772729605849532000,6.761531982421875,0.4324922561645508,0.12705987691879272,-0.2254091054201126
1772729605859050000,6.771050048828125,0.41355544328689575,0.10506874322891235,-0.21502439677715302
1772729605868568000,6.780568115234375,0.4013381600379944,0.12156209349632263,-0.2009745091199875
1772729605878086400,6.79008642578125,0.38667741417884827,0.15760311484336853,-0.18142683804035187
1772729605887604500,6.7996044921875,0.3695732057094574,0.17898337543010712,-0.15760311484336853
1772729605897122800,6.809122802734375,0.3543015718460083,0.17226386070251465,-0.1288924664258957
1772729605906641000,6.818640869140625,0.3488037884235382,0.13927717506885529,-0.09712749719619751
1772729605916159000,6.828158935546875,0.35063639283180237,0.08368847519159317,-0.06597339361906052
1772729605925677300,6.83767724609375,0.3451386094093323,0.007330377586185932,-0.043371398001909256
1772729605935195400,6.8471953125,0.3329212963581085,-0.05497783049941063,-0.029932374134659767
1772729605944713500,6.85671337890625,0.3139844834804535,-0.07269290834665298,-0.02871064469218254
1772729605954231800,6.866231689453125,0.2864955961704254,-0.0769689604640007,-0.04214967042207718
1772729605963750000,6.87575,0.25534147024154663,-0.09651663154363632,-0.06780599057674408
1772729605973268000,6.88526806640625,0.22785256803035736,-0.143553227186203,-0.09896009415388107
1772729605982786300,6.894786376953125,0.20952661335468292,-0.18814635276794434,-0.12461641430854797
1772729605992304400,6.904304443359375,0.19853104650974274,-0.2003636509180069,-0.13500112295150757
1772729606001822500,6.913822509765625,0.1893680840730667,-0.17043127119541168,-0.12705987691879272
1772729606011340800,6.9233408203125,0.17776164412498474,-0.11362084746360779,-0.0977383628487587
1772729606020859000,6.93285888671875,0.1649334877729416,-0.037262752652168274,-0.05253437161445618
1772729606030377000,6.942376953125,0.1539379209280014,0.04153880476951599,0.002443459117785096
1772729606039895300,6.951895263671875,0.1386663019657135,0.08307760953903198,0.05253437161445618
1772729606049413400,6.961413330078125,0.12217295914888382,0.07941242307424545,0.08429934084415436
1772729606058931500,6.970931396484375,0.10629047453403473,0.059864748269319534,0.09101885557174683
1772729606068449500,6.980449462890625,0.08857539296150208,0.004276053514331579,0.06963858753442764
1772729606077968000,6.9899677734375,0.059864748269319534,-0.09346231073141098,0.021380268037319183
1772729606087486000,6.99948583984375,0.023212861269712448,-0.21258094906806946,-0.046425722539424896
1772729606097004000,7.009004150390625,-0.017104214057326317,-0.3384190797805786,-0.12156209349632263
1772729606106522400,7.0185224609375,-0.056199558079242706,-0.42943793535232544,-0.18631376326084137
1772729606116040400,7.02804052734375,-0.0818558782339096,-0.4318813979625702,-0.22479823231697083
1772729606125558800,7.037558837890625,-0.0977383628487587,-0.3396408259868622,-0.2315177470445633
1772729606135076900,7.047076904296875,-0.10506874322891235,-0.1954767256975174,-0.2009745091199875
1772729606144595000,7.056594970703125,-0.09712749719619751,-0.050090912729501724,-0.13011419773101807
1772729606154113300,7.06611328125,-0.08124501258134842,0.06719512492418289,-0.02260199747979641
1772729606163631400,7.07563134765625,-0.06230820715427399,0.15821397304534912,0.11972949653863907
1772729606173149400,7.0851494140625,-0.04764745384454727,0.2309068888425827,0.2834412455558777
1772729606182667800,7.094667724609375,-0.04581485688686371,0.27916520833969116,0.44959646463394165
1772729606192185900,7.104185791015625,-0.059864748269319534,0.2926042377948761,0.5937605500221252
1772729606201704000,7.113703857421875,-0.08491020649671555,0.25961753726005554,0.6994401812553406
1772729606211222300,7.12322216796875,-0.10751219838857651,0.1899789422750473,0.759304940700531
1772729606220740400,7.132740234375,-0.12644900381565094,0.10140355676412582,0.7715222239494324
1772729606230258400,7.142258544921875,-0.14599667489528656,0.001221729558892548,0.7330377101898193
1772729606239776500,7.151776611328125,-0.18264856934547424,-0.11484257876873016,0.6389645338058472
1772729606249294800,7.161294921875,-0.23335035145282745,-0.23457208275794983,0.49663305282592773
1772729606258813000,7.17081298828125,-0.28588470816612244,-0.3494146466255188,0.3170388340950012
1772729606268331000,7.1803310546875,-0.33597561717033386,-0.44348782300949097,0.12034036219120026
1772729606277849300,7.189849365234375,-0.3756818473339081,-0.5027416944503784,-0.07147117704153061
1772729606287367400,7.199367431640625,-0.4153880476951599,-0.5320632457733154,-0.2412915825843811
1772729606296885800,7.2088857421875,-0.4618137776851654,-0.5216785073280334,-0.3744601011276245
1772729606306403800,7.21840380859375,-0.5143481492996216,-0.4685332775115967,-0.45937031507492065
1772729606315922000,7.227921875,-0.565049946308136,-0.40805765986442566,-0.49418962001800537
1772729606325440300,7.237440185546875,-0.5919279456138611,-0.3426951467990875,-0.4770853817462921
1772729606334958300,7.246958251953125,-0.5876519083976746,-0.24984370172023773,-0.4147771894931793
1772729606344476400,7.256476318359375,-0.5540543794631958,-0.11423171311616898,-0.31581708788871765
1772729606353994800,7.265994873046875,-0.4978547990322113,0.03298669680953026,-0.18814635276794434
1772729606363512800,7.275512939453125,-0.42882707715034485,0.15699224174022675,-0.04886918142437935
1772729606373031000,7.285031005859375,-0.3634645342826843,0.23273947834968567,0.08368847519159317
1772729606382549200,7.29454931640625,-0.30482152104377747,0.24434591829776764,0.19364413619041443
1772729606392067300,7.3040673828125,-0.24862197041511536,0.19914191961288452,0.2767217457294464
1772729606401585400,7.31358544921875,-0.1954767256975174,0.11423171311616898,0.3347539007663727
1772729606411103500,7.323103515625,-0.1545487940311432,0.020769402384757996,0.36712974309921265
1772729606420621800,7.332621826171875,-0.1380554437637329,-0.06963858753442764,0.3652971386909485
1772729606430140000,7.342139892578125,-0.14110976457595825,-0.1441640853881836,0.3335321843624115
1772729606439658000,7.351657958984375,-0.1533270627260208,-0.1802051067352295,0.27855435013771057
1772729606449176300,7.36117626953125,-0.16187916696071625,-0.18631376326084137,0.20952661335468292
1772729606458694400,7.3706943359375,-0.16676609218120575,-0.17898337543010712,0.12767073512077332
1772729606468212500,7.38021240234375,-0.17531819641590118,-0.1588248461484909,0.03787361457943916
1772729606477730800,7.389730712890625,-0.18875721096992493,-0.15088360011577606,-0.053756099194288254
1772729606487249000,7.399248779296875,-0.2009745091199875,-0.17165300250053406,-0.13561198115348816
1772729606496767000,7.40876708984375,-0.20341797173023224,-0.2107483446598053,-0.19914191961288452
1772729606506285300,7.418285400390625,-0.1948658674955368,-0.23945899307727814,-0.24006985127925873
1772729606515803400,7.427803466796875,-0.1844811588525772,-0.23518294095993042,-0.25961753726005554
1772729606525321500,7.437321533203125,-0.17226386070251465,-0.21685700118541718,-0.25961753726005554
1772729606534839800,7.44683984375,-0.15577052533626556,-0.18631376326084137,-0.2467893660068512
1772729606544358000,7.45635791015625,-0.12950333952903748,-0.14477495849132538,-0.2260199636220932
1772729606553876200,7.465876220703125,-0.10079269111156464,-0.1130099818110466,-0.20219624042510986
1772729606563394300,7.475394287109375,-0.07269290834665298,-0.09590577334165573,-0.1802051067352295
1772729606572912400,7.484912353515625,-0.04276053607463837,-0.08307760953903198,-0.15638138353824615
1772729606582430500,7.494430419921875,-0.009773836471140385,-0.0720820426940918,-0.13255766034126282
1772729606591948800,7.50394873046875,0.02626718580722809,-0.05192350596189499,-0.10873392969369888
1772729606601467000,7.513466796875,0.056199558079242706,-0.02871064469218254,-0.08429934084415436
1772729606610985000,7.52298486328125,0.07024945318698883,-0.01893680728971958,-0.06414080411195755
1772729606620503300,7.53250341796875,0.07452550530433655,-0.020769402384757996,-0.04886918142437935
1772729606630021400,7.542021484375,0.07330377399921417,-0.030543239787220955,-0.043982263654470444
1772729606639539500,7.55153955078125,0.06963858753442764,-0.04214967042207718,-0.04276053607463837
1772729606649057800,7.561057861328125,0.06414080411195755,-0.05497783049941063,-0.04276053607463837
1772729606658576000,7.570575927734375,0.06414080411195755,-0.05742128938436508,-0.03787361457943916
1772729606668094000,7.580093994140625,0.0769689604640007,-0.03848448023200035,-0.023823726922273636
1772729606677612000,7.589612060546875,0.09957095980644226,0.000610864779446274,0.000610864779446274
1772729606687130400,7.59913037109375,0.12950333952903748,0.06230820715427399,0.0360410213470459
1772729606696648400,7.6086484375,0.16798780858516693,0.1282816082239151,0.0818558782339096
1772729606706166500,7.61816650390625,0.2107483446598053,0.20158538222312927,0.1386663019657135
1772729606715684900,7.627684814453125,0.25473061203956604,0.2816086709499359,0.19792018830776215
1772729606725203000,7.637202880859375,0.28588470816612244,0.337808221578598,0.24923282861709595
1772729606734721000,7.646720947265625,0.2974911332130432,0.33719736337661743,0.28038692474365234
1772729606744239400,7.6562392578125,0.29993459582328796,0.2828303873538971,0.29077163338661194
1772729606753757400,7.66575732421875,0.2974911332130432,0.2052505612373352,0.28405213356018066
1772729606763275500,7.675275634765625,0.28466299176216125,0.12583814561367035,0.26389357447624207
1772729606772793900,7.6847939453125,0.25473061203956604,0.05253437161445618,0.22724169492721558
1772729606782312000,7.69431201171875,0.20769402384757996,-0.02932151034474373,0.17226386070251465
1772729606791830300,7.703830322265625,0.15821397304534912,-0.1130099818110466,0.10995566099882126
1772729606801348400,7.713348388671875,0.12705987691879272,-0.16004657745361328,0.05192350596189499
1772729606810866400,7.722866455078125,0.11911863088607788,-0.1496618688106537,0.010995565913617611
1772729606820384800,7.732384765625,0.12767073512077332,-0.07819069176912308,0.002443459117785096
1772729606829902800,7.74190283203125,0.1545487940311432,0.08491020649671555,0.03237583488225937
1772729606839421000,7.7514208984375,0.19730933010578156,0.3237583339214325,0.10018182545900345
1772729606848939000,7.76093896484375,0.24556763470172882,0.5699368119239807,0.18875721096992493
1772729606858457300,7.770457275390625,0.2938259541988373,0.7947350740432739,0.2834412455558777
1772729606867975400,7.779975341796875,0.34086254239082336,0.952949047088623,0.37323838472366333
1772729606877493500,7.789493408203125,0.3750709891319275,1.0177006721496582,0.44898560643196106
1772729606887011800,7.79901171875,0.3995055556297302,0.9993748068809509,0.5021308660507202
1772729606896530000,7.808530029296875,0.4098902642726898,0.925460159778595,0.5222893953323364
1772729606906048000,7.818048095703125,0.41233372688293457,0.8057306408882141,0.5009090900421143
1772729606915566300,7.82756640625,0.4068359434604645,0.6688969135284424,0.4318813979625702
1772729606925084400,7.83708447265625,0.40378162264823914,0.5222893953323364,0.3078758418560028
1772729606934602500,7.8466025390625,0.4159989058971405,0.3481929302215576,0.13927717506885529
1772729606944120600,7.85612060546875,0.4379900395870209,0.15760311484336853,-0.056199558079242706
1772729606953639000,7.865638916015625,0.45875945687294006,-0.01649334840476513,-0.2632827162742615
1772729606963157000,7.875156982421875,0.472198486328125,-0.16676609218120575,-0.4514290690422058
1772729606972675000,7.884675048828125,0.4764745235443115,-0.2657261788845062,-0.6023126840591431
1772729606982193400,7.894193359375,0.46425724029541016,-0.31031930446624756,-0.711046576499939
1772729606991711500,7.90371142578125,0.4373791813850403,-0.33108872175216675,-0.7776308655738831
1772729607001229600,7.9132294921875,0.401949018239975,-0.33169957995414734,-0.8051197528839111
1772729607010747600,7.92274755859375,0.3695732057094574,-0.3127627670764923,-0.7922916412353516
1772729607020266000,7.932265869140625,0.3451386094093323,-0.25534147024154663,-0.7422007322311401
1772729607029784000,7.9417841796875,0.33169957995414734,-0.13011419773101807,-0.6609556674957275
1772729607039302400,7.951302490234375,0.33108872175216675,0.06841685622930527,-0.5571087002754211
1772729607048820500,7.960820556640625,0.347582072019577,0.2926042377948761,-0.44470956921577454
1772729607058338600,7.970338623046875,0.38301220536231995,0.500298261642456,-0.3292561173439026
1772729607067857000,7.97985693359375,0.43310311436653137,0.6591231226921082,-0.2205221801996231
1772729607077375000,7.989375,0.4880809485912323,0.7507528066635132,-0.13255766034126282
1772729607086893000,7.99889306640625,0.5406153202056885,0.7965676784515381,-0.07269290834665298
1772729607096411400,8.008411376953125,0.5858193039894104,0.8075632452964783,-0.04276053607463837
1772729607105929500,8.017929443359375,0.6126973628997803,0.7721330523490906,-0.040317077189683914
1772729607115447600,8.027447509765626,0.6230821013450623,0.6805033683776855,-0.05436696484684944
1772729607124966000,8.0369658203125,0.6230821013450623,0.565049946308136,-0.0769689604640007
1772729607134484000,8.04648388671875,0.6096430420875549,0.4459312856197357,-0.10323614627122879
1772729607144002000,8.056001953125,0.5882627964019775,0.32681265473365784,-0.1288924664258957
1772729607153520400,8.065520263671875,0.5564978122711182,0.21930044889450073,-0.15821397304534912
1772729607163038200,8.0750380859375,0.5216785073280334,0.12644900381565094,-0.19120067358016968
1772729607172556500,8.084556640625,0.4880809485912323,0.04459312930703163,-0.22785256803035736
1772729607182075000,8.094074951171875,0.46059203147888184,0.002443459117785096,-0.2657261788845062
1772729607191593000,8.103593017578126,0.4404335021972656,0.011606430634856224,-0.3023780584335327
1772729607201111000,8.113111083984375,0.4159989058971405,0.053756099194288254,-0.33658650517463684
1772729607210629000,8.122629150390624,0.3842339515686035,0.0824667438864708,-0.37201663851737976
1772729607220147500,8.1321474609375,0.3481929302215576,0.05803215503692627,-0.40744680166244507
1772729607229665500,8.14166552734375,0.3133736252784729,-0.004886918235570192,-0.4373791813850403
1772729607239183600,8.15118359375,0.28466299176216125,-0.06902772188186646,-0.45509424805641174
1772729607248702000,8.160701904296875,0.25534147024154663,-0.11606431007385254,-0.45387253165245056
1772729607258220000,8.170219970703124,0.23396120965480804,-0.1178968995809555,-0.43004879355430603
1772729607267738000,8.179738037109376,0.22357651591300964,-0.0720820426940918,-0.3848448097705841
1772729607277256200,8.189256103515625,0.22907429933547974,-0.007330377586185932,-0.3274235129356384
1772729607286774500,8.1987744140625,0.2461785078048706,0.06475166976451874,-0.2614501118659973
1772729607296292600,8.208292724609375,0.2767217457294464,0.12583814561367035,-0.19242240488529205
1772729607305810700,8.217810791015625,0.31581708788871765,0.13744457066059113,-0.12705987691879272
1772729607315329000,8.2273291015625,0.3500255048274994,0.08857539296150208,-0.06780599057674408
1772729607324847000,8.23684716796875,0.3799578845500946,0.0054977829568088055,-0.01649334840476513
1772729607334365200,8.246365234375,0.39828383922576904,-0.08674279600381851,0.02871064469218254
1772729607343883500,8.255883544921875,0.4013381600379944,-0.1545487940311432,0.06902772188186646
1772729607353401600,8.265401611328125,0.38667741417884827,-0.18142683804035187,0.09896009415388107
1772729607362919700,8.274919677734376,0.3591884970664978,-0.18325942754745483,0.11484257876873016
1772729607372437800,8.284437744140625,0.32131487131118774,-0.17226386070251465,0.11423171311616898
1772729607381956000,8.2939560546875,0.2834412455558777,-0.17898337543010712,0.1026252806186676
1772729607391474200,8.30347412109375,0.2565632164478302,-0.19608759880065918,0.09346231073141098
1772729607400992300,8.3129921875,0.23884813487529755,-0.18203771114349365,0.08918625861406326
1772729607410510600,8.322510498046874,0.21868959069252014,-0.13744457066059113,0.09346231073141098
1772729607420028700,8.332028564453125,0.18631376326084137,-0.0922405794262886,0.10690133273601532
1772729607429546800,8.341546630859375,0.15149445831775665,-0.07269290834665298,0.11972949653863907
1772729607439065000,8.351065185546876,0.12767073512077332,-0.08857539296150208,0.12644900381565094
1772729607448583200,8.360583251953125,0.12217295914888382,-0.13133592903614044,0.12583814561367035
1772729607458101200,8.370101318359374,0.12400554865598679,-0.18753549456596375,0.11423171311616898
1772729607467619300,8.379619384765626,0.12767073512077332,-0.25534147024154663,0.08674279600381851
1772729607477137700,8.3891376953125,0.12400554865598679,-0.3341430425643921,0.04520399495959282
1772729607486655700,8.39865576171875,0.11606431007385254,-0.401949018239975,-0.006719512399286032
1772729607496173800,8.408173828125,0.10018182545900345,-0.4508182108402252,-0.06108647957444191
1772729607505692200,8.417692138671875,0.07269290834665298,-0.49541133642196655,-0.11362084746360779
1772729607515210200,8.427210205078126,0.034208428114652634,-0.5057960152626038,-0.15638138353824615
1772729607524728300,8.436728271484375,0.001221729558892548,-0.4667007029056549,-0.185092031955719
1772729607534246400,8.446246337890624,-0.010995565913617611,-0.3585776388645172,-0.1844811588525772
1772729607543764700,8.4557646484375,0,-0.18692462146282196,-0.14172062277793884
1772729607553282800,8.46528271484375,0.02260199747979641,0.01954767294228077,-0.053145237267017365
1772729607562801200,8.47480126953125,0.043982263654470444,0.20158538222312927,0.08124501258134842
1772729607572319200,8.4843193359375,0.06597339361906052,0.35063639283180237,0.24556763470172882
1772729607581837300,8.49383740234375,0.09285144507884979,0.4862483739852905,0.4251618981361389
1772729607591355600,8.503355712890626,0.11911863088607788,0.6004800796508789,0.5949822664260864
1772729607600873700,8.512873779296875,0.15149445831775665,0.647516667842865,0.7452550530433655
1772729607610391800,8.522391845703124,0.18631376326084137,0.6359102129936218,0.860708475112915
1772729607619910100,8.53191015625,0.2211330533027649,0.5919279456138611,0.9315688014030457
1772729607629428200,8.54142822265625,0.25900667905807495,0.5320632457733154,0.952949047088623
1772729607638946300,8.5509462890625,0.30115634202957153,0.45448338985443115,0.924849271774292
1772729607648464600,8.560464599609375,0.3390299379825592,0.3536907136440277,0.851545512676239
1772729607657982700,8.569982666015624,0.3597993552684784,0.24556763470172882,0.740368127822876
1772729607667500800,8.579500732421875,0.3555232882499695,0.1441640853881836,0.5992583632469177
1772729607677019000,8.589018798828125,0.318871408700943,0.056199558079242706,0.43371400237083435
1772729607686537200,8.598537109375,0.26022839546203613,0.014660755172371864,0.25350889563560486
1772729607696055300,8.60805517578125,0.19730933010578156,0.02626718580722809,0.07330377399921417
1772729607705573400,8.617573486328125,0.13927717506885529,0.056810423731803894,-0.09712749719619751
1772729607715091700,8.627091796875,0.09346231073141098,0.08002328872680664,-0.2510654330253601
1772729607724609800,8.63660986328125,0.06536252796649933,0.08491020649671555,-0.3787361681461334
1772729607734127900,8.6461279296875,0.05864302068948746,0.06352993845939636,-0.4734202027320862
1772729607743646200,8.655646240234375,0.07330377399921417,0.05742128938436508,-0.5222893953323364
1772729607753164300,8.665164306640625,0.12095122784376144,0.1288924664258957,-0.5222893953323364
1772729607762682400,8.674682373046876,0.1948658674955368,0.277332603931427,-0.47097674012184143
1772729607772200700,8.68420068359375,0.2779434621334076,0.4673115611076355,-0.38301220536231995
1772729607781718800,8.69371875,0.3530798554420471,0.627968966960907,-0.2724456787109375
1772729607791236900,8.70323681640625,0.4251618981361389,0.7153226733207703,-0.16187916696071625
1772729607800755000,8.7127548828125,0.5057960152626038,0.7373138070106506,-0.06047561392188072
1772729607810273300,8.722273193359374,0.5876519083976746,0.7092140316963196,0.024434590712189674
1772729607819791400,8.731791259765625,0.6554579138755798,0.6591231226921082,0.0824667438864708
1772729607829309400,8.741309326171875,0.7104357481002808,0.6243038177490234,0.11362084746360779
1772729607838827800,8.750827880859376,0.7568614482879639,0.6084213256835938,0.1185077652335167
1772729607848345900,8.760345947265625,0.8008437156677246,0.5980366468429565,0.09896009415388107
1772729607857864000,8.769864013671874,0.8399390578269958,0.5790998339653015,0.059864748269319534
1772729607867382300,8.77938232421875,0.8686497211456299,0.5406153202056885,0.001221729558892548
1772729607876900400,8.788900390625,0.8875865340232849,0.4740310609340668,-0.06963858753442764
1772729607886418400,8.79841845703125,0.8912517428398132,0.39400777220726013,-0.15271618962287903
1772729607895936500,8.8079365234375,0.8863648176193237,0.32070401310920715,-0.23945899307727814
1772729607905454800,8.817454833984375,0.8857539296150208,0.2816086709499359,-0.3176496922969818
1772729607914973000,8.826972900390626,0.8863648176193237,0.2919933497905731,-0.3854556679725647
1772729607924491000,8.836490966796875,0.8924734592437744,0.34574946761131287,-0.4355465769767761
1772729607934009300,8.84600927734375,0.9089667797088623,0.4153880476951599,-0.4563159942626953
1772729607943527400,8.85552734375,0.9297361969947815,0.481361448764801,-0.44837474822998047
1772729607953045500,8.86504541015625,0.9523382186889648,0.536339282989502,-0.411722868680954
1772729607962563600,8.8745634765625,0.9731075763702393,0.5894845128059387,-0.35185810923576355
1772729607972082000,8.88408203125,0.9914335608482361,0.6322450637817383,-0.27550002932548523
1772729607981600000,8.89360009765625,1.008537769317627,0.6585122346878052,-0.19364413619041443
1772729607991118000,8.9031181640625,1.0293071269989014,0.6682860851287842,-0.11362084746360779
1772729608000636400,8.912636474609375,1.0525200366973877,0.667064368724823,-0.03787361457943916
1772729608010154500,8.922154541015624,1.073289394378662,0.6524035930633545,0.025045456364750862
1772729608019672600,8.931672607421875,1.0946696996688843,0.6328558921813965,0.07147117704153061
1772729608029191000,8.94119091796875,1.1209368705749512,0.62857985496521,0.10201441496610641
1772729608038709000,8.950708984375,1.1508692502975464,0.6499601006507874,0.11484257876873016
1772729608048227000,8.96022705078125,1.18446683883667,0.6707295179367065,0.10751219838857651
1772729608057745200,8.9697451171875,1.2168426513671875,0.675616443157196,0.09346231073141098
1772729608067263500,8.979263427734375,1.247385859489441,0.6640099883079529,0.07880155742168427
1772729608076781600,8.988781494140625,1.2718204259872437,0.6493492722511292,0.07269290834665298
1772729608086299600,8.998299560546876,1.2901464700698853,0.657290518283844,0.07757982611656189
1772729608095818000,9.00781787109375,1.2993093729019165,0.6988292932510376,0.09590577334165573
1772729608105336000,9.017336181640625,1.3011419773101807,0.7696896195411682,0.12644900381565094
1772729608114854100,9.026854248046876,1.3090832233428955,0.8655954003334045,0.16615521907806396
1772729608124372500,9.03637255859375,1.3322961330413818,0.9639446139335632,0.21319180727005005
1772729608133890600,9.045890625,1.3573415279388428,1.0213658809661865,0.24801109731197357
1772729608143408600,9.05540869140625,1.3756674528121948,0.9773836731910706,0.2467893660068512
1772729608152926700,9.0649267578125,1.3762784004211426,0.7757982611656189,0.1948658674955368
1772729608162445000,9.074445068359376,1.3500111103057861,0.40378162264823914,0.08552107214927673
1772729608171963100,9.083963134765625,1.3078614473342896,-0.04520399495959282,-0.06597339361906052
1772729608181481200,9.093481201171874,1.2681553363800049,-0.3738492429256439,-0.2156352698802948
1772729608190999600,9.10299951171875,1.2217295169830322,-0.46914416551589966,-0.3396408259868622
1772729608200517600,9.112517578125,1.1710277795791626,-0.29077163338661194,-0.40744680166244507
1772729608210035700,9.12203564453125,1.1502584218978882,0.14172062277793884,-0.38667741417884827
1772729608219553800,9.1315537109375,1.1685843467712402,0.7116574645042419,-0.2889390289783478
1772729608229072100,9.141072021484375,1.1985167264938354,1.2724313735961914,-0.14538581669330597
1772729608238590200,9.150590087890626,1.2253947257995605,1.7067562341690063,0.014049889519810677
1772729608248108300,9.1601083984375,1.2638791799545288,1.9523237943649292,0.1698204129934311
1772729608257626400,9.16962646484375,1.32985258102417,2.0268492698669434,0.3133736252784729
1772729608267144400,9.17914453125,1.4080432653427124,1.9816453456878662,0.41844236850738525
1772729608276662800,9.188662841796875,1.480736255645752,1.830150842666626,0.46425724029541016
1772729608286180900,9.198180908203126,1.5247185230255127,1.5833615064620972,0.43921178579330444
1772729608295699200,9.20769921875,1.525329351425171,1.2486076354980469,0.32192572951316833
1772729608305217300,9.21721728515625,1.5015056133270264,0.8625410795211792,0.10751219838857651
1772729608314735400,9.2267353515625,1.479514479637146,0.5491674542427063,-0.16554436087608337
1772729608324253400,9.23625341796875,1.4385865926742554,0.3836230933666229,-0.42394015192985535
1772729608333771800,9.245771728515624,1.3017528057098389,0.2632827162742615,-0.5980366468429565
1772729608343289900,9.255289794921875,1.102000117301941,0.08429934084415436,-0.7721330523490906
1772729608352808000,9.264807861328125,0.963333785533905,-0.0256563201546669,-0.925460159778595
1772729608362326300,9.274326171875,0.8930842876434326,-0.0922405794262886,-1.0445787906646729
1772729608371844400,9.28384423828125,0.8570432662963867,-0.08429934084415436,-1.0971131324768066
1772729608381362400,9.293362548828124,0.8185588121414185,0.03237583488225937,-1.0836740732192993
1772729608390880500,9.302880615234375,0.7617483735084534,0.2419024556875229,-1.025641918182373
1772729608400398800,9.31239892578125,0.7024945020675659,0.4819723069667816,-0.9266818761825562
1772729608409917000,9.3219169921875,0.6554579138755798,0.6420188546180725,-0.778241753578186
