time,seconds_elapsed,z,y,x
1772729599178404900,0.09040478515625,8.992227554321289,3.6323046684265137,-0.45942193269729614
1772729599197441000,0.10944091796875,8.96112060546875,3.594019651412964,-0.6269195079803467
1772729599206959400,0.11895947265625,8.970691680908203,3.5365917682647705,-0.6963114142417908
1772729599216477400,0.1284775390625,8.992227554321289,3.572484254837036,-0.8063812255859375
1772729599225995500,0.13799560546875,9.066405296325684,3.6705899238586426,-0.9427721500396729
1772729599235513900,0.147513916015625,9.109476089477539,3.730410575866699,-1.1030912399291992
1772729599245032000,0.157031982421875,9.142974853515625,3.78544545173645,-1.215553879737854
1772729599254550000,0.166550048828125,9.219545364379883,3.8117663860321045,-1.3519448041915894
1772729599264068400,0.176068359375,9.20279598236084,3.7734813690185547,-1.3639088869094849
1772729599273586400,0.18558642578125,9.212367057800293,3.680161237716675,-1.246660590171814
1772729599283104800,0.195104736328125,9.370293617248535,3.610769271850586,-1.1509476900100708
1772729599292622800,0.204622802734375,9.616754531860352,3.5437703132629395,-1.0911271572113037
1772729599302141000,0.214140869140625,9.994820594787598,3.3547372817993164,-0.9690931439399719
1772729599311659000,0.223658935546875,10.396814346313477,3.122633457183838,-0.8350951075553894
1772729599321177300,0.23317724609375,10.724631309509277,2.9072794914245605,-0.7034898400306702
1772729599330695400,0.2426953125,10.947163581848145,2.7182464599609375,-0.6675975322723389
1772729599340213500,0.252213623046875,11.009376525878906,2.6560330390930176,-0.7800601720809937
1772729599349731800,0.26173193359375,10.949556350708008,2.5842485427856445,-0.7920243144035339
1772729599359250000,0.27125,10.77248764038086,2.6057839393615723,-0.8973084688186646
1772729599368768300,0.280768310546875,10.528419494628906,2.723032236099243,-1.031306505203247
1772729599378286300,0.290286376953125,10.238887786865234,2.823530673980713,-1.184447169303894
1772729599387804400,0.299804443359375,9.954142570495605,2.9623143672943115,-1.2945170402526855
1772729599397322800,0.30932275390625,9.635896682739258,3.046063184738159,-1.3950155973434448
1772729599406840800,0.3188408203125,9.32004451751709,3.0939197540283203,-1.4380863904953003
1772729599416359000,0.32835888671875,8.999405860900879,3.170490026473999,-1.3902299404144287
1772729599425877200,0.337877197265625,8.82951545715332,3.2781670093536377,-1.3088740110397339
1772729599435395300,0.347395263671875,8.650053977966309,3.431307554244995,-1.3112667798995972
1772729599444913400,0.356913330078125,8.484949111938477,3.4983067512512207,-1.2323036193847656
1772729599454431700,0.366431640625,8.401200294494629,3.438486099243164,-1.1389836072921753
1772729599463949800,0.37594970703125,8.37727165222168,3.3690943717956543,-1.1437692642211914
1772729599473468000,0.385468017578125,8.401200294494629,3.3571300506591797,-1.222732424736023
1772729599482986200,0.394986328125,8.48016357421875,3.3619158267974854,-1.2442678213119507
1772729599492504300,0.40450439453125,8.657232284545898,3.3714871406555176,-1.2490534782409668
1772729599502022400,0.4140224609375,8.872586250305176,3.3164522647857666,-1.2705888748168945
1772729599511540700,0.423540771484375,9.047262191772461,3.2279176712036133,-1.246660590171814
1772729599521058800,0.433058837890625,9.154939651489258,3.1561331748962402,-1.246660590171814
1772729599530577200,0.4425771484375,9.19561767578125,3.067598581314087,-1.2562319040298462
1772729599540095200,0.45209521484375,9.164510726928711,3.067598581314087,-1.2490534782409668
1772729599549613300,0.46161328125,9.09272575378418,3.1130621433258057,-1.2873386144638062
1772729599559131600,0.471131591796875,9.135796546936035,3.1345977783203125,-1.28255295753479
1772729599568649700,0.480649658203125,9.229117393493652,3.249453067779541,-1.423729419708252
1772729599578167800,0.490167724609375,9.267401695251465,3.232703447341919,-1.4644074440002441
1772729599587686000,0.499685791015625,9.250652313232422,3.16331148147583,-1.5098711252212524
1772729599597204200,0.509204345703125,9.19561767578125,3.0891339778900146,-1.4739787578582764
1772729599606722300,0.518722412109375,9.250652313232422,3.1178479194641113,-1.5433706045150757
1772729599616240600,0.52824072265625,9.308079719543457,3.1800613403320312,-1.5672988891601562
1772729599625758700,0.5377587890625,9.45882797241211,3.297309637069702,-1.6630117893218994
1772729599635277000,0.547277099609375,9.513862609863281,3.311666488647461,-1.734796404838562
1772729599644795100,0.556795166015625,9.499505996704102,3.2542388439178467,-1.6630117893218994
1772729599654313200,0.566313232421875,9.384650230407715,3.2542388439178467,-1.6462619304656982
1772729599663831300,0.575831298828125,9.29611587524414,3.2614171504974365,-1.648654818534851
1772729599673349600,0.585349609375,9.212367057800293,3.290131092071533,-1.7132610082626343
1772729599682867700,0.59486767578125,9.190832138061523,3.4121651649475098,-1.7802600860595703
1772729599692385800,0.6043857421875,9.126225471496582,3.445664644241333,-1.797009825706482
1772729599701904100,0.613904052734375,9.06401252746582,3.4097721576690674,-1.7994025945663452
1772729599711422200,0.623422119140625,9.044869422912598,3.38105845451355,-1.8233308792114258
1772729599720940300,0.632940185546875,9.073583602905273,3.314059257507324,-1.887937068939209
1772729599730458600,0.642458740234375,9.10229778289795,3.31884503364563,-1.9262222051620483
1772729599739976700,0.651976806640625,9.044869422912598,3.335594654083252,-1.8975083827972412
1772729599749495000,0.6614951171875,9.056833267211914,3.311666488647461,-1.794616937637329
1772729599759013000,0.67101318359375,9.023334503173828,3.3547372817993164,-1.7276179790496826
1772729599768531200,0.68053125,9.004191398620605,3.383451223373413,-1.7132610082626343
1772729599778049500,0.690049560546875,8.999405860900879,3.4097721576690674,-1.7012969255447388
1772729599787567600,0.699567626953125,9.049654960632324,3.421736478805542,-1.6893328428268433
1772729599797085700,0.709085693359375,9.042476654052734,3.4815568923950195,-1.6773686408996582
1772729599806604000,0.71860400390625,9.126225471496582,3.5270206928253174,-1.674975872039795
1772729599816122000,0.7281220703125,9.111868858337402,3.5341989994049072,-1.648654818534851
1772729599825640200,0.73764013671875,9.075976371765137,3.5748770236968994,-1.6079767942428589
1772729599835158500,0.747158447265625,9.032905578613281,3.5988051891326904,-1.588834285736084
1772729599844676600,0.756676513671875,9.028120040893555,3.672982692718506,-1.6247265338897705
1772729599854194700,0.766194580078125,9.032905578613281,3.7543387413024902,-1.6390835046768188
1772729599863712800,0.775712646484375,8.97787094116211,3.7734813690185547,-1.5720844268798828
1772729599873231000,0.785231201171875,8.913264274597168,3.809373617172241,-1.5242279767990112
1772729599882749400,0.79474951171875,8.927620887756348,3.84765887260437,-1.490728497505188
1772729599892267500,0.804267578125,8.982656478881836,3.864408493041992,-1.5314065217971802
1772729599901785600,0.81378564453125,9.011369705200195,3.8500516414642334,-1.5385849475860596
1772729599911304000,0.823303955078125,9.07119083404541,3.8213376998901367,-1.5601203441619873
1772729599920822000,0.832822021484375,9.061619758605957,3.7543387413024902,-1.552941918373108
1772729599930340000,0.842340087890625,9.035298347473145,3.680161237716675,-1.4572290182113647
1772729599939858200,0.851858154296875,9.056833267211914,3.713660717010498,-1.4739787578582764
1772729599949376500,0.86137646484375,9.186046600341797,3.744767427444458,-1.4787644147872925
1772729599958894600,0.87089453125,9.265008926391602,3.6921253204345703,-1.4452649354934692
1772729599968412700,0.88041259765625,9.355937004089355,3.627519130706787,-1.3806586265563965
1772729599977931000,0.889930908203125,9.391828536987305,3.6323046684265137,-1.423729419708252
1772729599987449000,0.899448974609375,9.293723106384277,3.651447296142578,-1.428515076637268
1772729599996967400,0.908967529296875,9.049654960632324,3.7016966342926025,-1.373480200767517
1772729600006485500,0.918485595703125,8.805587768554688,3.8189449310302734,-1.3782658576965332
1772729600016003600,0.928003662109375,8.599804878234863,3.94097900390625,-1.4404792785644531
1772729600025522000,0.93752197265625,8.468199729919434,3.9840497970581055,-1.5026925802230835
1772729600035040000,0.9470400390625,8.48016357421875,4.067798614501953,-1.5314065217971802
1772729600044558000,0.95655810546875,8.511270523071289,4.041477680206299,-1.581655740737915
1772729600054076400,0.966076416015625,8.427521705627441,4.01037073135376,-1.5840486288070679
1772729600063594500,0.975594482421875,8.346165657043457,3.9936211109161377,-1.5864413976669312
1772729600073112600,0.985112548828125,8.236095428466797,4.0797624588012695,-1.6845471858978271
1772729600082631000,0.994630859375,8.14516830444336,4.163511276245117,-1.7515461444854736
1772729600092149000,1.00414892578125,8.178668022155762,4.187439441680908,-1.7419748306274414
1772729600101667000,1.0136669921875,8.303094863891602,4.235296249389648,-1.7180466651916504
1772729600111185400,1.023185302734375,8.37966537475586,4.261617183685303,-1.6223337650299072
1772729600120703500,1.032703369140625,8.520841598510742,4.206582069396973,-1.4763715267181396
1772729600130221800,1.042221923828125,8.645268440246582,4.180261135101318,-1.3591232299804688
1772729600139740000,1.051739990234375,8.757730484008789,4.218546390533447,-1.399801254272461
1772729600149258000,1.061258056640625,8.865407943725586,4.185046672821045,-1.5122638940811157
1772729600158776300,1.0707763671875,9.049654960632324,4.132404804229736,-1.6390835046768188
1772729600168294400,1.08029443359375,9.142974853515625,4.060619831085205,-1.703689694404602
1772729600177812500,1.0898125,9.241081237792969,4.091726779937744,-1.679761528968811
1772729600187330800,1.099330810546875,9.300901412963867,4.086941242218018,-1.6414763927459717
1772729600196849000,1.108848876953125,9.245866775512695,4.153940200805664,-1.6199408769607544
1772729600206367000,1.118366943359375,9.128618240356445,4.201796531677246,-1.5984054803848267
1772729600215885300,1.12788525390625,9.030512809753418,4.216153621673584,-1.526620864868164
1772729600225403400,1.1374033203125,8.970691680908203,4.230510234832764,-1.5122638940811157
1772729600234921500,1.14692138671875,8.973084449768066,4.252045631408691,-1.4787644147872925
1772729600244439800,1.156439697265625,8.898907661437988,4.271188259124756,-1.397408366203308
1772729600253958000,1.1659580078125,8.6907320022583,4.297509670257568,-1.2729816436767578
1772729600263476200,1.175476318359375,8.506484031677246,4.287938117980957,-1.2801600694656372
1772729600272994300,1.184994384765625,8.470592498779297,4.311866283416748,-1.4021940231323242
1772729600282512400,1.194512451171875,7.800601959228516,4.266402721405029,-1.5936198234558105
1772729600292030500,1.204030517578125,7.728816986083984,4.319045066833496,-1.9692929983139038
1772729600301548800,1.213548828125,7.920242786407471,4.42193603515625,-2.060220241546631
1772729600311067000,1.22306689453125,8.214560508728027,4.6061835289001465,-2.0195422172546387
1772729600320585000,1.2325849609375,8.563912391662598,4.53200626373291,-1.4787644147872925
1772729600330103300,1.242103271484375,8.96112060546875,4.376472473144531,-0.9451649188995361
1772729600339621400,1.251621337890625,9.279366493225098,4.4410786628723145,-0.729810893535614
1772729600349139700,1.2611396484375,9.437292098999023,4.543970108032227,-0.8805587291717529
1772729600358657800,1.27065771484375,9.54496955871582,4.433900356292725,-0.8398807644844055
1772729600368175900,1.28017578125,9.533005714416504,4.177868366241455,-0.8207381963729858
1772729600377694200,1.289694091796875,9.580862045288086,4.024727821350098,-1.007378339767456
1772729600387212300,1.29921240234375,9.611968994140625,4.01754903793335,-1.399801254272461
1772729600396730400,1.30873046875,9.750752449035645,4.122833251953125,-1.8161523342132568
1772729600406248700,1.318248779296875,9.990034103393555,4.201796531677246,-2.012363910675049
1772729600415766800,1.327766845703125,9.973284721374512,4.1730828285217285,-1.8783657550811768
1772729600425284900,1.337284912109375,9.889535903930664,4.06540584564209,-1.576870083808899
1772729600434803200,1.34680322265625,9.970891952514648,4.00319242477417,-1.3208380937576294
1772729600444321300,1.3563212890625,9.954142570495605,4.022335052490234,-1.179661512374878
1772729600453839400,1.36583935546875,9.78664493560791,4.096512317657471,-1.1868400573730469
1772729600463357700,1.375357666015625,9.616754531860352,4.185046672821045,-1.2370892763137817
1772729600472875800,1.384875732421875,9.461220741271973,4.247260093688965,-1.3495519161224365
1772729600482394000,1.39439404296875,9.276973724365234,4.319045066833496,-1.4141582250595093
1772729600491912200,1.403912109375,9.075976371765137,4.342973232269287,-1.4835500717163086
1772729600501430300,1.41343017578125,8.965906143188477,4.333401679992676,-1.4787644147872925
1772729600510948600,1.422948486328125,8.97787094116211,4.328616142272949,-1.4476577043533325
1772729600520466700,1.432466796875,9.09990406036377,4.311866283416748,-1.4141582250595093
1772729600529984800,1.44198486328125,9.324830055236816,4.254438877105713,-1.3519448041915894
1772729600539503000,1.451503173828125,9.578469276428223,4.151547431945801,-1.3184453248977661
1772729600549021200,1.461021240234375,9.753145217895508,4.058227062225342,-1.368694543838501
1772729600558539300,1.470539306640625,9.820143699645996,4.074976921081543,-1.4213366508483887
1772729600568057300,1.480057373046875,9.779465675354004,4.1491546630859375,-1.4715858697891235
1772729600577575700,1.48957568359375,9.633503913879395,4.287938117980957,-1.5194423198699951
1772729600587093800,1.49909375,9.470791816711426,4.4482574462890625,-1.4452649354934692
1772729600596612000,1.508612060546875,9.34875774383545,4.579862594604492,-1.28255295753479
1772729600606130200,1.518130126953125,9.470791816711426,4.658825874328613,-1.0265209674835205
1772729600615648500,1.5276484375,9.729216575622559,4.680361270904541,-0.7250252366065979
1772729600625166600,1.53716650390625,10.085747718811035,4.570291042327881,-0.5216353535652161
1772729600634684700,1.5466845703125,10.49252700805664,4.240081787109375,-0.3565305769443512
1772729600644202800,1.55620263671875,10.995019912719727,3.85483717918396,-0.4211367964744568
1772729600653721000,1.56572119140625,11.483156204223633,3.3475589752197266,-0.41874396800994873
1772729600663239200,1.5752392578125,12.009576797485352,2.7254250049591064,-0.4331009089946747
1772729600672757200,1.58475732421875,12.275179862976074,2.132004976272583,-0.4713860750198364
1772729600682275600,1.594275634765625,12.201003074645996,1.6965112686157227,-0.45942193269729614
1772729600691793700,1.603793701171875,11.863615036010742,1.4093725681304932,-0.397208571434021
1772729600701312000,1.61331201171875,11.365907669067383,1.4333007335662842,-0.4785645306110382
1772729600710830000,1.622830078125,10.789237022399902,1.7204394340515137,-0.6460621356964111
1772729600720348200,1.63234814453125,10.145567893981934,2.1032910346984863,-0.8135597109794617
1772729600729866500,1.641866455078125,9.432506561279297,2.4646072387695312,-0.8087740540504456
1772729600739384600,1.651384521484375,8.662017822265625,2.761317253112793,-0.6269195079803467
1772729600748902700,1.660902587890625,7.903493404388428,3.0317063331604004,-0.3086741268634796
1772729600758421000,1.6704208984375,7.3292155265808105,3.3164522647857666,-0.04785645380616188
1772729600767939000,1.67993896484375,6.922435760498047,3.5916268825531006,0.09571290761232376
1772729600777457200,1.68945703125,6.64486837387085,3.7878382205963135,0.07896314561367035
1772729600786975500,1.6989755859375,6.613761901855469,3.8524444103240967,0.07417750358581543
1772729600796493600,1.70849365234375,6.788437843322754,3.7495529651641846,0.019142581149935722
1772729600806011600,1.71801171875,7.080362319946289,3.6610186100006104,-0.14356936514377594
1772729600815530000,1.727530029296875,7.503891944885254,3.4959139823913574,-0.34217363595962524
1772729600825048000,1.737048095703125,7.9585280418396,3.3571300506591797,-0.6293123364448547
1772729600834566400,1.74656640625,8.547162055969238,3.2446675300598145,-0.9236295223236084
1772729600844084500,1.75608447265625,9.05444049835205,3.177668571472168,-1.1868400573730469
1772729600853602600,1.7656025390625,9.470791816711426,3.1274192333221436,-1.3351950645446777
1772729600863121000,1.775120849609375,9.69093132019043,3.1178479194641113,-1.368694543838501
1772729600872639000,1.784638916015625,9.631111145019531,3.1585259437561035,-1.3208380937576294
1772729600882157000,1.794156982421875,9.523433685302734,3.2518460750579834,-1.191625714302063
1772729600891675400,1.80367529296875,9.274580955505371,3.4432718753814697,-1.1341979503631592
1772729600901193500,1.813193359375,8.8438720703125,3.689732551574707,-1.0839486122131348
1772729600910711600,1.822711669921875,8.396414756774902,3.840480327606201,-0.9954141974449158
1772729600920230000,1.83222998046875,7.960920810699463,4.0079779624938965,-0.8973084688186646
1772729600929748000,1.841748046875,7.635497093200684,4.1491546630859375,-0.8781659007072449
1772729600939266000,1.85126611328125,7.252645492553711,4.266402721405029,-0.8614161610603333
1772729600948784400,1.860784423828125,6.98704195022583,4.328616142272949,-0.8590233325958252
1772729600958302500,1.870302490234375,6.879364967346191,4.390829563140869,-0.851844847202301
1772729600967820800,1.87982080078125,6.9822564125061035,4.467400074005127,-0.8757730722427368
1772729600977339000,1.8893388671875,7.211967468261719,4.553541660308838,-0.9236295223236084
1772729600986857000,1.89885693359375,7.489534854888916,4.555934429168701,-0.8685946464538574
1772729600996375300,1.908375244140625,7.848458290100098,4.455435752868652,-0.760917603969574
1772729601005893400,1.917893310546875,8.260024070739746,4.350151538848877,-0.6101697683334351
1772729601015411500,1.927411376953125,8.664410591125488,4.268795490264893,-0.5383850932121277
1772729601024929500,1.936929443359375,8.963513374328613,4.235296249389648,-0.5168496966362
1772729601034448000,1.94644775390625,9.193224906921387,4.2592244148254395,-0.4977070987224579
1772729601043966000,1.955966064453125,9.324830055236816,4.275974273681641,-0.4785645306110382
1772729601053484300,1.965484375,9.401400566101074,4.304687976837158,-0.49292147159576416
1772729601063002400,1.97500244140625,9.355937004089355,4.4243292808532715,-0.5934200286865234
1772729601072520400,1.9845205078125,9.193224906921387,4.541577339172363,-0.6915257573127747
1772729601082038800,1.994038818359375,9.001798629760742,4.570291042327881,-0.7417750358581543
1772729601091556900,2.003556884765625,8.925228118896484,4.666004180908203,-0.8303094506263733
1772729601101075000,2.013074951171875,8.889336585998535,4.773681163787842,-0.9619147181510925
1772729601110593300,2.02259326171875,8.786444664001465,4.7952165603637695,-1.093519926071167
1772729601120111400,2.032111328125,8.717052459716797,4.790431022644043,-1.1581261157989502
1772729601129629400,2.04162939453125,8.717052459716797,4.78803825378418,-1.2418749332427979
1772729601139147800,2.051147705078125,8.810373306274414,4.8502516746521,-1.3591232299804688
1772729601148665900,2.060665771484375,9.035298347473145,4.922036170959473,-1.428515076637268
1772729601158184000,2.070183837890625,9.276973724365234,4.941178798675537,-1.399801254272461
1772729601167702300,2.079702392578125,9.506684303283691,4.95074987411499,-1.2993026971817017
1772729601177220400,2.089220458984375,9.856036186218262,4.878965377807617,-1.1940184831619263
1772729601186738700,2.09873876953125,10.214960098266602,4.821537494659424,-1.1485549211502075
1772729601196256800,2.1082568359375,10.463813781738281,4.768895626068115,-1.1318050622940063
1772729601205774800,2.11777490234375,10.593026161193848,4.754538536071777,-1.0911271572113037
1772729601215293200,2.127293212890625,10.621739387512207,4.802394866943359,-1.0719845294952393
1772729601224811300,2.136811279296875,10.571490287780762,4.874179840087891,-1.0648061037063599
1772729601234329300,2.146329345703125,10.432706832885742,5.034498691558838,-1.0719845294952393
1772729601243847700,2.15584765625,10.248459815979004,5.1565327644348145,-0.97148597240448
1772729601253365800,2.16536572265625,10.013962745666504,5.26181697845459,-0.8877372145652771
1772729601262883800,2.1748837890625,9.81535816192627,5.381458282470703,-0.8374879360198975
1772729601272402200,2.184402099609375,9.731609344482422,5.491528034210205,-0.7848458290100098
1772729601281920300,2.193920166015625,9.67657470703125,5.536991596221924,-0.698704183101654
1772729601291438300,2.203438232421875,9.659825325012207,5.453242778778076,-0.5527420043945312
1772729601300956700,2.212956787109375,9.645467758178711,5.292923450469971,-0.4498506486415863
1772729601310474800,2.222474853515625,9.741181373596191,5.091926574707031,-0.4043870270252228
1772729601319993000,2.2319931640625,9.93978500366211,4.807180881500244,-0.3397808074951172
1772729601329511200,2.24151123046875,10.205389022827148,4.53200626373291,-0.3206382393836975
1772729601339029200,2.251029296875,10.26760196685791,4.199403762817383,-0.3517449200153351
1772729601348547600,2.260547607421875,10.200602531433105,3.8524444103240967,-0.38285163044929504
1772729601358065700,2.270065673828125,9.961320877075195,3.6299118995666504,-0.4953143000602722
1772729601367583700,2.279583740234375,9.516255378723145,3.541377544403076,-0.6628118753433228
1772729601377101800,2.289101806640625,8.949156761169434,3.538984775543213,-0.8925228714942932
1772729601386620200,2.2986201171875,8.372486114501953,3.610769271850586,-1.1270195245742798
1772729601396138200,2.30813818359375,7.8077802658081055,3.6873397827148438,-1.3423734903335571
1772729601405656600,2.317656494140625,7.22871732711792,3.7423746585845947,-1.4979069232940674
1772729601415174700,2.327174560546875,6.647261142730713,3.775874137878418,-1.6701902151107788
1772729601424693000,2.33669287109375,6.226124286651611,3.845266103744507,-1.7467604875564575
1772729601434211000,2.346211181640625,5.986842155456543,4.0797624588012695,-1.9310078620910645
1772729601443729200,2.355729248046875,5.874379634857178,4.185046672821045,-1.887937068939209
1772729601453247200,2.365247314453125,5.7547383308410645,4.211368083953857,-1.7419748306274414
1772729601462765600,2.374765625,5.836094379425049,4.264009952545166,-1.5433706045150757
1772729601472283600,2.38428369140625,6.051448345184326,4.309473514556885,-1.3639088869094849
1772729601481801700,2.3938017578125,6.501298904418945,4.3070807456970215,-1.2275179624557495
1772729601491320000,2.403320068359375,7.221538543701172,4.271188259124756,-1.1437692642211914
1772729601500838100,2.412838134765625,7.9728851318359375,4.1659040451049805,-1.0432707071304321
1772729601510356500,2.4223564453125,8.776873588562012,4.060619831085205,-0.8422735929489136
1772729601519874600,2.43187451171875,9.724431037902832,3.988835334777832,-0.6245267391204834
1772729601529392600,2.441392578125,10.526026725769043,3.8500516414642334,-0.5216353535652161
1772729601538911000,2.450910888671875,11.23190975189209,3.6945180892944336,-0.4043870270252228
1772729601548429000,2.460428955078125,11.631510734558105,3.383451223373413,-0.17706887423992157
1772729601557947100,2.469947021484375,11.708081245422363,3.098705291748047,0
1772729601567465500,2.479465576171875,11.58126163482666,3.019742250442505,-0.08853443711996078
1772729601576983600,2.488983642578125,11.289337158203125,3.2279176712036133,-0.3397808074951172
1772729601586501600,2.498501708984375,10.784451484680176,3.6131622791290283,-0.5934200286865234
1772729601596020000,2.50802001953125,10.147960662841797,3.9218363761901855,-0.7728816866874695
1772729601605538000,2.5175380859375,9.518648147583008,4.125226020812988,-0.8781659007072449
1772729601615056100,2.52705615234375,9.011369705200195,4.2209391593933105,-0.8901300430297852
1772729601624574500,2.536574462890625,8.571090698242188,4.273581027984619,-0.8949156403541565
1772729601634092500,2.546092529296875,8.09970474243164,4.29033088684082,-0.8973084688186646
1772729601643610600,2.555610595703125,7.676175117492676,4.285545349121094,-0.9571290612220764
1772729601653129000,2.56512890625,7.410571575164795,4.278367042541504,-1.0049854516983032
1772729601662647000,2.57464697265625,7.259823799133301,4.323830604553223,-1.038485050201416
1772729601672165400,2.584165283203125,7.238288402557373,4.433900356292725,-1.038485050201416
1772729601681683500,2.593683349609375,7.255038261413574,4.53200626373291,-1.0049854516983032
1772729601691201500,2.603201416015625,7.267002582550049,4.622933387756348,-0.8925228714942932
1772729601700719900,2.612719970703125,7.331608772277832,4.721039295196533,-0.7345965504646301
1772729601710238000,2.622238037109375,7.405786037445068,4.833501815795898,-0.6819544434547424
1772729601719756000,2.631756103515625,7.499105930328369,4.88853645324707,-0.6963114142417908
1772729601729274400,2.6412744140625,7.57806921005249,4.9531426429748535,-0.7130611538887024
1772729601738792400,2.65079248046875,7.609176158905029,5.008177757263184,-0.6436693072319031
1772729601748310800,2.660310791015625,7.63310432434082,5.029713153839111,-0.6532405614852905
1772729601757828900,2.669828857421875,7.685746192932129,4.984249591827393,-0.7226324677467346
1772729601767347000,2.679346923828125,7.793423175811768,4.979464054107666,-0.8015955686569214
1772729601776865000,2.688864990234375,7.886743545532227,4.941178798675537,-0.9332008361816406
1772729601786383400,2.69838330078125,8.039883613586426,4.900500774383545,-1.1078768968582153
1772729601795901400,2.7079013671875,8.226524353027344,4.852644443511963,-1.246660590171814
1772729601805419800,2.717419677734375,8.319844245910645,4.809573650360107,-1.3878371715545654
1772729601814937900,2.726937744140625,8.34855842590332,4.821537494659424,-1.4715858697891235
1772729601824456000,2.7364560546875,8.62612533569336,4.972285270690918,-1.4644074440002441
1772729601833974300,2.745974365234375,8.851051330566406,5.168497085571289,-1.4572290182113647
1772729601843492400,2.755492431640625,8.891729354858398,5.31685209274292,-1.2921242713928223
1772729601853010400,2.765010498046875,8.944371223449707,5.4556355476379395,-1.1365907192230225
1772729601862528500,2.774528564453125,8.901300430297852,5.623133182525635,-1.0169496536254883
1772729601872046800,2.784046875,8.784051895141602,5.764309883117676,-0.973878800868988
1772729601881565200,2.793565185546875,8.800801277160645,5.9676995277404785,-1.0289137363433838
1772729601891083300,2.803083251953125,8.903693199157715,6.080162525177002,-1.1988041400909424
1772729601900601300,2.812601318359375,9.080761909484863,6.0777692794799805,-1.34476637840271
1772729601910119400,2.822119384765625,9.298508644104004,5.958128452301025,-1.4093725681304932
1772729601919637800,2.8316376953125,9.509077072143555,5.824130535125732,-1.4644074440002441
1772729601929155800,2.84115576171875,9.56889820098877,5.711667537689209,-1.5361921787261963
1772729601938674000,2.850673828125,9.643074989318848,5.66620397567749,-1.5984054803848267
1772729601948192300,2.860192138671875,9.635896682739258,5.6207404136657715,-1.679761528968811
1772729601957710300,2.86971044921875,9.681360244750977,5.697310924530029,-1.7682958841323853
1772729601967228700,2.879228759765625,9.647860527038574,5.709274768829346,-1.7587246894836426
1772729601976746800,2.888746826171875,9.66939640045166,5.699703693389893,-1.6606189012527466
1772729601986265000,2.89826513671875,9.556933403015137,5.642275810241699,-1.4500504732131958
1772729601995783200,2.907783203125,9.446864128112793,5.613562107086182,-1.2370892763137817
1772729602005301200,2.91730126953125,9.396614074707031,5.527420520782471,-1.0408778190612793
1772729602014819300,2.9268193359375,9.442078590393066,5.407779216766357,-0.8733802437782288
1772729602024337700,2.936337646484375,9.693324089050293,5.292923450469971,-0.7800601720809937
1772729602033855700,2.945855712890625,9.937392234802246,5.07517671585083,-0.6771687865257263
1772729602043373800,2.955373779296875,10.207781791687012,4.72582483291626,-0.48095735907554626
1772729602052892200,2.96489208984375,10.478170394897461,4.333401679992676,-0.1698904037475586
1772729602062410200,2.97441015625,10.899307250976562,3.957728624343872,0.004785645287483931
1772729602071928600,2.983928466796875,11.179266929626465,3.562912940979004,0.07417750358581543
1772729602081446700,2.99344677734375,11.076375961303711,3.1274192333221436,0.12681959569454193
1772729602090964700,3.00296484375,10.712666511535645,2.7326035499572754,0.2273181527853012
1772729602100483000,3.012483154296875,10.145567893981934,2.495713949203491,0.21296121180057526
1772729602110001200,3.022001220703125,9.573683738708496,2.5938198566436768,-0.007178467698395252
1772729602119519200,3.031519287109375,9.052047729492188,2.957528829574585,-0.38285163044929504
1772729602129037600,3.04103759765625,8.566305160522461,3.2829527854919434,-0.6867401003837585
1772729602138555600,3.0505556640625,8.047062873840332,3.469592809677124,-0.7896314859390259
1772729602148073700,3.06007373046875,7.609176158905029,3.5365917682647705,-0.7489534616470337
1772729602157592000,3.069592041015625,7.226324558258057,3.5820555686950684,-0.7417750358581543
1772729602167110100,3.079110107421875,6.960721015930176,3.6681971549987793,-0.760917603969574
1772729602176628200,3.088628173828125,6.845865726470947,3.7399818897247314,-0.8183453679084778
1772729602186146600,3.098146484375,6.915257453918457,3.8596229553222656,-0.9068797826766968
1772729602195664600,3.10766455078125,7.1856465339660645,3.924229145050049,-1.0145567655563354
1772729602205183000,3.117182861328125,7.611568927764893,3.90987229347229,-1.1222338676452637
1772729602214701000,3.126701171875,8.030312538146973,3.799802303314209,-1.1437692642211914
1772729602224219100,3.13621923828125,8.343772888183594,3.728017568588257,-1.196411371231079
1772729602233737500,3.145737548828125,8.61176872253418,3.6921253204345703,-1.3160524368286133
1772729602243255600,3.155255615234375,8.726624488830566,3.7088751792907715,-1.4093725681304932
1772729602252773600,3.164773681640625,8.762516975402832,3.7974095344543457,-1.5194423198699951
1772729602262291700,3.174291748046875,8.745766639709473,3.895515203475952,-1.6151553392410278
1772729602271810000,3.18381005859375,8.566305160522461,4.048655986785889,-1.7084753513336182
1772729602281328000,3.193328125,8.24566650390625,4.182653903961182,-1.7491533756256104
1772729602290846500,3.202846435546875,7.987242221832275,4.359723091125488,-1.765903115272522
1772729602300364500,3.212364501953125,7.812565803527832,4.508078098297119,-1.8185452222824097
1772729602309883000,3.2218828125,7.6498541831970215,4.689932346343994,-1.856830358505249
1772729602319401000,3.23140087890625,7.494320392608643,4.835894584655762,-1.8616160154342651
1772729602328919000,3.2409189453125,7.324429988861084,4.883750915527344,-1.7515461444854736
1772729602338437400,3.250437255859375,7.3052873611450195,4.919643402099609,-1.6247265338897705
1772729602347955500,3.25995556640625,7.310073375701904,5.029713153839111,-1.5050854682922363
1772729602357473500,3.2694736328125,7.432106971740723,5.089533805847168,-1.306481122970581
1772729602366991600,3.27899169921875,7.5637125968933105,5.101497650146484,-1.0552347898483276
1772729602376510000,3.288510009765625,7.750352382659912,5.048855781555176,-0.8422735929489136
1772729602386028000,3.298028076171875,8.037490844726562,4.965106964111328,-0.7010970115661621
1772729602395546400,3.30754638671875,8.458627700805664,4.979464054107666,-0.6939185857772827
1772729602405064400,3.317064453125,8.791230201721191,4.931607246398926,-0.672383189201355
1772729602414582800,3.326582763671875,9.059226989746094,4.821537494659424,-0.5479564070701599
1772729602424100900,3.336100830078125,9.300901412963867,4.759324073791504,-0.3852444589138031
1772729602433619000,3.345618896484375,9.437292098999023,4.780859470367432,-0.30628129839897156
1772729602443137000,3.355136962890625,9.482755661010742,4.838287353515625,-0.2967100143432617
1772729602452655400,3.3646552734375,9.399007797241211,4.910071849822998,-0.3445664644241333
1772729602462173400,3.37417333984375,9.32004451751709,4.948357105255127,-0.4378865361213684
1772729602471691500,3.38369140625,9.281759262084961,5.091926574707031,-0.5910272002220154
1772729602481209900,3.3932099609375,9.20997428894043,5.2354960441589355,-0.7776673436164856
1772729602490728000,3.40272802734375,9.114261627197266,5.2977094650268555,-0.9116654396057129
1772729602500246300,3.412246337890625,8.994620323181152,5.304887771606445,-0.882951557636261
1772729602509764400,3.421764404296875,8.901300430297852,5.343173027038574,-0.8685946464538574
1772729602519282400,3.431282470703125,8.788837432861328,5.431707382202148,-0.8662018179893494
1772729602528800800,3.44080078125,8.681160926818848,5.563312530517578,-0.8733802437782288
1772729602538318800,3.45031884765625,8.640482902526855,5.682953834533691,-0.8949156403541565
1772729602547837000,3.4598369140625,8.695517539978027,5.781059741973877,-0.9690931439399719
1772729602557355300,3.469355224609375,8.791230201721191,5.86002254486084,-0.9978070259094238
1772729602566873300,3.478873291015625,8.958727836608887,5.816951751708984,-0.9116654396057129
1772729602576391400,3.488391357421875,9.152546882629395,5.66620397567749,-0.8087740540504456
1772729602585909800,3.49790966796875,9.432506561279297,5.606383323669434,-0.7058826684951782
1772729602595427800,3.507427734375,9.68375301361084,5.539384365081787,-0.6747759580612183
1772729602604946000,3.51694580078125,9.853643417358398,5.450850009918213,-0.6843472719192505
1772729602614464300,3.52646435546875,9.834501266479492,5.357530117034912,-0.6963114142417908
1772729602623982300,3.535982421875,9.686145782470703,5.338387489318848,-0.7561319470405579
1772729602633500700,3.545500732421875,9.4660062789917,5.410171985626221,-0.9834501147270203
1772729602643018800,3.555018798828125,9.138189315795898,5.582455158233643,-1.3040883541107178
1772729602652536800,3.564536865234375,8.798408508300781,5.7786664962768555,-1.643869161605835
1772729602662055200,3.57405517578125,8.477770805358887,5.982056617736816,-2.038684844970703
1772729602671573200,3.5835732421875,8.190631866455078,6.1399827003479,-2.3736801147460938
1772729602681091300,3.59309130859375,8.00638484954834,6.2428741455078125,-2.541177749633789
1772729602690609700,3.602609619140625,7.944170951843262,6.357729911804199,-2.7110681533813477
1772729602700127700,3.612127685546875,8.02074146270752,6.386443614959717,-2.744567632675171
1772729602709645800,3.621645751953125,8.288737297058105,6.245266914367676,-2.6847469806671143
1772729602719164200,3.6311640625,8.733802795410156,5.960521221160889,-2.550748825073242
1772729602728682200,3.64068212890625,9.205188751220703,5.508277893066406,-2.3736801147460938
1772729602738200600,3.65020068359375,9.812965393066406,4.972285270690918,-2.256431818008423
1772729602747718700,3.65971875,10.482955932617188,4.386044025421143,-2.0889341831207275
1772729602757236700,3.66923681640625,10.928021430969238,3.900300979614258,-2.0745773315429688
1772729602766755000,3.678755126953125,11.035697937011719,3.4815568923950195,-1.9884356260299683
1772729602776273200,3.688273193359375,10.832307815551758,3.153740167617798,-1.852044701576233
1772729602785791200,3.697791259765625,10.38485050201416,3.1561331748962402,-1.832902193069458
1772729602795309600,3.7073095703125,9.784252166748047,3.3858439922332764,-1.9334007501602173
1772729602804827600,3.71682763671875,9.059226989746094,3.6945180892944336,-2.0650060176849365
1772729602814345700,3.726345703125,8.310273170471191,3.926621913909912,-2.0003998279571533
1772729602823864000,3.735864013671875,7.487142086029053,4.139583110809326,-1.8496519327163696
1772729602833382100,3.745382080078125,6.6831536293029785,4.381258487701416,-1.7395820617675781
1772729602842900200,3.754900146484375,6.022734642028809,4.59421968460083,-1.5792629718780518
1772729602852418600,3.76441845703125,5.558526992797852,4.790431022644043,-1.5290136337280273
1772729602861936600,3.7739365234375,5.31685209274292,4.934000492095947,-1.4883357286453247
1772729602871454700,3.783454833984375,5.300102233886719,5.01296329498291,-1.4524433612823486
1772729602880973000,3.79297314453125,5.402993679046631,5.024927616119385,-1.3543375730514526
1772729602890491100,3.8024912109375,5.635097503662109,4.919643402099609,-1.2658032178878784
1772729602900009200,3.81200927734375,5.955735683441162,4.814359188079834,-1.1724830865859985
1772729602909527600,3.821527587890625,6.446264266967773,4.67078971862793,-1.1629117727279663
1772729602919045600,3.831045654296875,6.965506553649902,4.524827480316162,-1.1700903177261353
1772729602928564000,3.84056396484375,7.506284713745117,4.316651821136475,-1.2179467678070068
1772729602938082000,3.85008203125,8.204988479614258,4.125226020812988,-1.2442678213119507
1772729602947600100,3.85960009765625,8.949156761169434,3.91705060005188,-1.2945170402526855
1772729602957118500,3.869118408203125,9.475577354431152,3.775874137878418,-1.2897313833236694
1772729602966636500,3.878636474609375,9.738788604736328,3.7328033447265625,-1.2610175609588623
1772729602976155000,3.88815478515625,9.841679573059082,3.751945972442627,-1.1748759746551514
1772729602985673000,3.8976728515625,9.853643417358398,3.900300979614258,-1.1485549211502075
1772729602995191000,3.90719091796875,9.7938232421875,4.156332969665527,-1.3040883541107178
1772729603004709000,3.916709228515625,9.592825889587402,4.47697114944458,-1.581655740737915
1772729603014227500,3.9262275390625,9.22433090209961,4.73300313949585,-1.7539390325546265
1772729603023745500,3.93574560546875,8.796015739440918,4.900500774383545,-1.7419748306274414
1772729603033263600,3.945263671875,8.422736167907715,4.991427898406982,-1.6007983684539795
1772729603042782000,3.954781982421875,8.070990562438965,5.173282623291016,-1.4691931009292603
1772729603052300000,3.964300048828125,7.841279983520508,5.362315654754639,-1.3112667798995972
1772729603061818400,3.973818359375,7.743174076080322,5.536991596221924,-1.2035897970199585
1772729603071336400,3.98333642578125,7.680960655212402,5.647061347961426,-1.093519926071167
1772729603080854500,3.9928544921875,7.70249605178833,5.663811206817627,-0.9451649188995361
1772729603090372900,4.002372802734375,7.81974458694458,5.685346603393555,-0.7800601720809937
1772729603099891000,4.011890869140625,7.982456207275391,5.702096462249756,-0.6675975322723389
1772729603109409000,4.021408935546875,8.128418922424316,5.678168296813965,-0.5647061467170715
1772729603118927400,4.03092724609375,8.23848819732666,5.615954875946045,-0.46899324655532837
1772729603128445400,4.040445556640625,8.26241683959961,5.54177713394165,-0.397208571434021
1772729603137963500,4.049963623046875,8.200202941894531,5.4867424964904785,-0.3517449200153351
1772729603147481900,4.05948193359375,8.116454124450684,5.438885688781738,-0.46420758962631226
1772729603157000000,4.069,8.015955924987793,5.436492919921875,-0.7250252366065979
1772729603166518300,4.078518310546875,7.982456207275391,5.429314613342285,-0.9858429431915283
1772729603176036400,4.088036376953125,7.893921852111816,5.343173027038574,-1.2035897970199585
1772729603185554400,4.097554443359375,7.70249605178833,5.2283172607421875,-1.3519448041915894
1772729603195072800,4.10707275390625,7.530212879180908,5.132604598999023,-1.5146567821502686
1772729603204590800,4.1165908203125,7.496713161468506,5.13021183013916,-1.7156537771224976
1772729603214109000,4.12610888671875,7.549355506896973,5.144568920135498,-1.9812572002410889
1772729603223627300,4.135627197265625,7.6977105140686035,5.154139995574951,-2.2444677352905273
1772729603233145300,4.145145263671875,7.8077802658081055,5.115854740142822,-2.416750907897949
1772729603242663400,4.154663330078125,7.869993686676025,5.065605640411377,-2.4813570976257324
1772729603252181800,4.164181640625,7.980063438415527,5.063212871551514,-2.4813570976257324
1772729603261699800,4.173699951171875,8.13798999786377,5.178068161010742,-2.4358935356140137
1772729603271218200,4.18321826171875,8.35573673248291,5.259424209594727,-2.376072883605957
1772729603280736300,4.192736328125,8.662017822265625,5.295316696166992,-2.2444677352905273
1772729603290254300,4.20225439453125,8.982656478881836,5.276174068450928,-2.117648124694824
1772729603299772700,4.211772705078125,9.176474571228027,5.151747226715088,-1.950150489807129
1772729603309290800,4.221290771484375,9.29611587524414,5.039284706115723,-1.7539390325546265
1772729603318808800,4.230808837890625,9.44447135925293,5.056034088134766,-1.6917256116867065
1772729603328327200,4.2403271484375,9.549755096435547,5.1565327644348145,-1.703689694404602
1772729603337845200,4.24984521484375,9.590433120727539,5.225924491882324,-1.7730815410614014
1772729603347363300,4.25936328125,9.518648147583008,5.213960647583008,-1.7730815410614014
1772729603356881400,4.26888134765625,9.375079154968262,5.2354960441589355,-1.7563318014144897
1772729603366399700,4.278399658203125,9.183652877807617,5.271388053894043,-1.7611174583435059
1772729603375917800,4.287917724609375,9.032905578613281,5.438885688781738,-1.8640087842941284
1772729603385436200,4.297436279296875,8.908478736877441,5.608776092529297,-1.8544375896453857
1772729603394954200,4.306954345703125,8.94676399230957,5.6685967445373535,-1.6582261323928833
1772729603404472300,4.316472412109375,9.181260108947754,5.632704734802246,-1.2873386144638062
1772729603413990700,4.32599072265625,9.487542152404785,5.86002254486084,-1.454836130142212
1772729603423508700,4.3355087890625,9.944570541381836,5.9198431968688965,-1.5242279767990112
1772729603433026800,4.34502685546875,10.480563163757324,5.558526992797852,-1.1676974296569824
1772729603442545200,4.354545166015625,10.947163581848145,4.8813581466674805,-0.5288137793540955
1772729603452063200,4.364063232421875,11.411371231079102,4.242474555969238,-0.1698904037475586
1772729603461581300,4.373581298828125,11.933006286621094,3.6466617584228516,-0.016749758273363113
1772729603471099600,4.383099609375,12.117254257202148,3.153740167617798,0.04307080805301666
1772729603480617700,4.39261767578125,11.944971084594727,2.801995277404785,0.16031911969184875
1772729603490136000,4.402135986328125,11.466405868530273,2.6560330390930176,0.16749759018421173
1772729603499654100,4.411654052734375,10.760523796081543,2.7349963188171387,0.03349951654672623
1772729603509172500,4.42117236328125,9.930213928222656,2.981456995010376,-0.30149564146995544
1772729603518690600,4.430690673828125,9.107083320617676,3.31884503364563,-0.6556333899497986
1772729603528208600,4.440208740234375,8.365307807922363,3.594019651412964,-0.8733802437782288
1772729603537726700,4.449726806640625,7.740781307220459,3.8285162448883057,-0.9427721500396729
1772729603547245000,4.4592451171875,7.317251682281494,3.9601213932037354,-0.9690931439399719
1772729603556763100,4.46876318359375,7.0755767822265625,3.933800458908081,-0.8877372145652771
1772729603566281200,4.47828125,7.101897716522217,3.893122434616089,-0.885344386100769
1772729603575799600,4.487799560546875,7.396214962005615,3.7663028240203857,-0.9116654396057129
1772729603585317600,4.497317626953125,7.762316703796387,3.5581271648406982,-0.9044869542121887
1772729603594836000,4.5068359375,8.154739379882812,3.3714871406555176,-0.8566305041313171
1772729603604354000,4.51635400390625,8.535198211669922,3.2039895057678223,-0.8949156403541565
1772729603613872000,4.5258720703125,8.870193481445312,3.1034910678863525,-0.9834501147270203
1772729603623390500,4.535390380859375,9.032905578613281,3.081955671310425,-1.1772687435150146
1772729603632908500,4.544908447265625,9.087940216064453,3.060420274734497,-1.3471591472625732
1772729603642426600,4.554426513671875,9.1716890335083,3.053241729736328,-1.5242279767990112
1772729603651945000,4.563945068359375,9.028120040893555,3.0867412090301514,-1.6965112686157227
1772729603661463000,4.573463134765625,8.788837432861328,3.1417760848999023,-1.7539390325546265
1772729603670981000,4.582981201171875,8.499305725097656,3.273381471633911,-1.7084753513336182
1772729603680499500,4.59249951171875,8.183453559875488,3.486342668533325,-1.5984054803848267
1772729603690017500,4.602017578125,7.867600917816162,3.7639100551605225,-1.521835207939148
1772729603699535600,4.61153564453125,7.635497093200684,3.9696927070617676,-1.397408366203308
1772729603709054000,4.621053955078125,7.489534854888916,4.108476638793945,-1.2969099283218384
1772729603718572000,4.630572021484375,7.427321434020996,4.170690059661865,-1.1700903177261353
1772729603728090400,4.64009033203125,7.458428382873535,4.242474555969238,-1.0217353105545044
1772729603737608400,4.6496083984375,7.501499176025391,4.369294166564941,-0.9068797826766968
1772729603747126500,4.65912646484375,7.544569969177246,4.524827480316162,-0.7537391185760498
1772729603756644900,4.668644775390625,7.616354465484619,4.651647090911865,-0.5479564070701599
1772729603766163000,4.678162841796875,7.767102241516113,4.7234320640563965,-0.33499518036842346
1772729603775681000,4.687680908203125,7.982456207275391,4.778466701507568,-0.24885354936122894
1772729603785199400,4.697199462890625,8.281558990478516,4.845465660095215,-0.33499518036842346
1772729603794717400,4.706717529296875,8.583054542541504,4.864608287811279,-0.4953143000602722
1772729603804235500,4.716235595703125,8.839086532592773,4.768895626068115,-0.47617170214653015
1772729603813753900,4.72575390625,9.090332984924316,4.711467742919922,-0.5335994362831116
1772729603823272000,4.73527197265625,9.358329772949219,4.661218643188477,-0.5096712112426758
1772729603832790300,4.744790283203125,9.640682220458984,4.661218643188477,-0.6029912829399109
1772729603842308400,4.754308349609375,9.827322959899902,4.7234320640563965,-0.6149554252624512
1772729603851826400,4.763826416015625,9.89432144165039,4.761716842651367,-0.7345965504646301
1772729603861344800,4.7733447265625,9.858428955078125,4.847858905792236,-0.8877372145652771
1772729603870862800,4.78286279296875,9.743574142456055,4.9124650955200195,-1.0911271572113037
1772729603880381000,4.792380859375,9.578469276428223,4.981856822967529,-1.3543375730514526
1772729603889899000,4.80189892578125,9.382257461547852,5.058426856994629,-1.5912270545959473
1772729603899417300,4.811417236328125,9.162117958068848,5.115854740142822,-1.7060825824737549
1772729603908935400,4.820935302734375,8.992227554321289,5.173282623291016,-1.7563318014144897
1772729603918453800,4.830453857421875,8.851051330566406,5.19960355758667,-1.8424733877182007
1772729603927971800,4.839971923828125,8.764909744262695,5.161318302154541,-1.9262222051620483
1772729603937490000,4.849489990234375,8.779266357421875,5.1182475090026855,-1.9908283948898315
1772729603947008300,4.85900830078125,8.944371223449707,5.020142078399658,-2.021935224533081
1772729603956526300,4.8685263671875,9.152546882629395,4.981856822967529,-2.0745773315429688
1772729603966044700,4.878044677734375,9.34157943725586,4.974678039550781,-2.1056840419769287
1772729603975562800,4.887562744140625,9.542576789855957,4.981856822967529,-2.117648124694824
1772729603985080800,4.897080810546875,9.745966911315918,5.015356063842773,-2.2157537937164307
1772729603994599000,4.906598876953125,9.860821723937988,5.041677474975586,-2.287538528442383
1772729604004117200,4.9161171875,9.93260669708252,5.0943193435668945,-2.3497519493103027
1772729604013635300,4.92563525390625,9.865608215332031,5.190032482147217,-2.407179594039917
1772729604023153400,4.9351533203125,9.604789733886719,5.340780258178711,-2.5387847423553467
1772729604032671700,4.944671630859375,9.269794464111328,5.508277893066406,-2.5986053943634033
1772729604042189800,4.95418994140625,8.951549530029297,5.6590256690979,-2.6608188152313232
1772729604051708200,4.963708251953125,8.796015739440918,5.735595703125,-2.651247501373291
1772729604061226200,4.973226318359375,8.896514892578125,5.800201892852783,-2.60339093208313
1772729604070744300,4.982744384765625,9.05444049835205,5.749952793121338,-2.469393014907837
1772729604080262700,4.9922626953125,9.351150512695312,5.426921844482422,-2.242074728012085
1772729604089780700,5.00178076171875,9.860821723937988,4.986642360687256,-1.9621145725250244
1772729604099298800,5.011298828125,10.315458297729492,4.429114818572998,-1.674975872039795
1772729604108817200,5.020817138671875,10.674382209777832,3.91705060005188,-1.430907964706421
1772729604118335200,5.030335205078125,10.753344535827637,3.436093330383301,-1.3304094076156616
1772729604127853300,5.039853271484375,10.549955368041992,3.0963125228881836,-1.2586246728897095
1772729604137371600,5.04937158203125,10.107282638549805,2.9240293502807617,-1.3112667798995972
1772729604146889700,5.0588896484375,9.614361763000488,3.012563705444336,-1.6007983684539795
1772729604156408000,5.068407958984375,9.006584167480469,3.297309637069702,-1.9453648328781128
1772729604165926100,5.077926025390625,8.394021987915039,3.538984775543213,-2.2707886695861816
1772729604175444200,5.0874443359375,7.848458290100098,3.7567315101623535,-2.462214469909668
1772729604184962600,5.096962646484375,7.345965385437012,3.9385859966278076,-2.5746772289276123
1772729604194480600,5.106480712890625,6.953542709350586,4.096512317657471,-2.557927370071411
1772729604203998700,5.115998779296875,6.556334018707275,4.244867324829102,-2.4837498664855957
1772729604213517000,5.12551708984375,6.223731517791748,4.371686935424805,-2.2205393314361572
1772729604223035100,5.13503515625,6.175875186920166,4.522434711456299,-1.9214365482330322
1772729604232553200,5.14455322265625,6.305087566375732,4.687539577484131,-1.6654045581817627
1772729604242071300,5.1540712890625,6.556334018707275,4.704289436340332,-1.3639088869094849
1772729604251589600,5.163589599609375,7.020541667938232,4.59421968460083,-1.0217353105545044
1772729604261107700,5.173107666015625,7.64028263092041,4.4410786628723145,-0.729810893535614
1772729604270626000,5.1826259765625,8.252845764160156,4.338187217712402,-0.5934200286865234
1772729604280144100,5.19214404296875,8.82233715057373,4.280759811401367,-0.5551348328590393
1772729604289662500,5.201662353515625,9.298508644104004,4.218546390533447,-0.576670229434967
1772729604299180500,5.2111806640625,9.731609344482422,4.012763500213623,-0.49292147159576416
1772729604308698600,5.22069873046875,9.992427825927734,3.8596229553222656,-0.5479564070701599
1772729604318217000,5.230217041015625,9.930213928222656,3.7471601963043213,-0.6293123364448547
1772729604327735000,5.239735107421875,9.714859962463379,3.7734813690185547,-0.7657032608985901
1772729604337253000,5.249253173828125,9.387042999267578,3.88594388961792,-0.9906286001205444
1772729604346771200,5.258771240234375,8.937192916870117,4.067798614501953,-1.2394821643829346
1772729604356289500,5.26828955078125,8.477770805358887,4.3310089111328125,-1.4763715267181396
1772729604365807600,5.2778076171875,7.9657063484191895,4.579862594604492,-1.5984054803848267
1772729604375325700,5.28732568359375,7.503891944885254,4.766502857208252,-1.576870083808899
1772729604384844000,5.296843994140625,7.17368221282959,4.902893543243408,-1.4811571836471558
1772729604394362000,5.306362060546875,6.943971157073975,5.044070243835449,-1.4476577043533325
1772729604403880400,5.31588037109375,6.8171515464782715,5.142175674438477,-1.459621787071228
1772729604413398500,5.3253984375,6.838686943054199,5.230710506439209,-1.4572290182113647
1772729604422916600,5.33491650390625,6.927221775054932,5.230710506439209,-1.521835207939148
1772729604432435000,5.34443505859375,7.080362319946289,5.264209747314453,-1.5050854682922363
1772729604441953000,5.353953125,7.211967468261719,5.283352375030518,-1.428515076637268
1772729604451471000,5.36347119140625,7.362715244293213,5.2977094650268555,-1.301695466041565
1772729604460989400,5.372989501953125,7.5804619789123535,5.3455657958984375,-1.2801600694656372
1772729604470507500,5.382507568359375,7.905886173248291,5.407779216766357,-1.2275179624557495
1772729604480025600,5.392025634765625,8.24566650390625,5.438885688781738,-1.191625714302063
1772729604489544000,5.4015439453125,8.489734649658203,5.388636589050293,-1.038485050201416
1772729604499062000,5.41106201171875,8.688339233398438,5.333601474761963,-0.9020941257476807
1772729604508580000,5.420580078125,8.874979019165039,5.300102233886719,-0.8207381963729858
1772729604518098400,5.430098388671875,8.989834785461426,5.307280540466309,-0.7561319470405579
1772729604527616500,5.439616455078125,8.999405860900879,5.314459323883057,-0.7657032608985901
1772729604537134800,5.449134765625,8.920442581176758,5.362315654754639,-0.8542376756668091
1772729604546653000,5.45865283203125,8.82233715057373,5.405386447906494,-1.0456634759902954
1772729604556171000,5.4681708984375,8.669196128845215,5.424529075622559,-1.2299108505249023
1772729604565689300,5.477689453125,8.401200294494629,5.4556355476379395,-1.3878371715545654
1772729604575207400,5.48720751953125,8.207381248474121,5.484349727630615,-1.5122638940811157
1772729604584725500,5.4967255859375,8.063812255859375,5.54177713394165,-1.6510475873947144
1772729604594243600,5.50624365234375,8.030312538146973,5.6207404136657715,-1.770688772201538
1772729604603762000,5.515761962890625,8.09252643585205,5.618347644805908,-1.7994025945663452
1772729604613280000,5.525280029296875,8.171489715576172,5.580062389373779,-1.7994025945663452
1772729604622798300,5.53479833984375,8.346165657043457,5.589633464813232,-1.801795482635498
1772729604632316400,5.54431640625,8.659625053405762,5.615954875946045,-1.820937991142273
1772729604641834500,5.55383447265625,8.915657043457031,5.606383323669434,-1.7443677186965942
1772729604651352800,5.563352783203125,9.22433090209961,5.582455158233643,-1.698904037475586
1772729604660871000,5.572870849609375,9.523433685302734,5.558526992797852,-1.6390835046768188
1772729604670389200,5.58238916015625,9.741181373596191,5.570491313934326,-1.5672988891601562
1772729604679907300,5.5919072265625,9.772287368774414,5.570491313934326,-1.4165509939193726
1772729604689425400,5.60142529296875,9.757930755615234,5.568098068237305,-1.222732424736023
1772729604698943500,5.610943603515625,9.705288887023926,5.592026710510254,-1.0959128141403198
1772729604708461800,5.6204619140625,9.623932838439941,5.656632900238037,-1.0336993932724
1772729604717980000,5.62997998046875,9.509077072143555,5.699703693389893,-0.9451649188995361
1772729604727498000,5.639498046875,9.45164966583252,5.706881999969482,-0.7465606927871704
1772729604737016300,5.649016357421875,9.336793899536133,5.680561065673828,-0.42831525206565857
1772729604746534400,5.658534423828125,9.286544799804688,5.539384365081787,-0.07178468257188797
1772729604756052700,5.668052734375,9.430113792419434,5.424529075622559,0.29431718587875366
1772729604765570800,5.67757080078125,9.7005033493042,5.285745143890381,0.5024927258491516
1772729604775089000,5.6870888671875,10.045069694519043,5.077569484710693,0.607776939868927
1772729604784607200,5.696607177734375,10.518848419189453,4.72582483291626,0.6939185857772827
1772729604794125300,5.706125244140625,10.88973617553711,4.381258487701416,0.6125625967979431
1772729604803643400,5.715643310546875,11.033305168151855,3.8213376998901367,0.5718846321105957
1772729604813161700,5.72516162109375,10.978270530700684,3.2374889850616455,0.5670989751815796
1772729604822679800,5.7346796875,10.743773460388184,2.8905298709869385,0.4259224236011505
1772729604832198000,5.744197998046875,10.341779708862305,2.8043880462646484,0.06699903309345245
1772729604841716200,5.75371630859375,9.726823806762695,2.988635540008545,-0.26560330390930176
1772729604851234300,5.763234375,8.941978454589844,3.1824541091918945,-0.5479564070701599
1772729604860752400,5.77275244140625,8.24566650390625,3.3308091163635254,-0.6963114142417908
1772729604870270700,5.782270751953125,7.685746192932129,3.460021495819092,-0.8662018179893494
1772729604879788800,5.791788818359375,7.274180889129639,3.634697675704956,-1.1222338676452637
1772729604889307000,5.801306884765625,7.003791809082031,3.8739798069000244,-1.3232308626174927
1772729604898825200,5.8108251953125,6.774080753326416,4.067798614501953,-1.3112667798995972
1772729604908343300,5.82034326171875,6.573083877563477,4.268795490264893,-1.1413763761520386
1772729604917861600,5.829861572265625,6.479763507843018,4.431507587432861,-0.885344386100769
1772729604927379700,5.839379638671875,6.5180487632751465,4.560719966888428,-0.6819544434547424
1772729604936897800,5.848897705078125,6.795616149902344,4.634897232055664,-0.5455635786056519
1772729604946416000,5.858416015625,7.121040344238281,4.615755081176758,-0.48574298620224
1772729604955934200,5.867934326171875,7.64028263092041,4.46979284286499,-0.4833501875400543
1772729604965452300,5.877452392578125,8.12123966217041,4.295116424560547,-0.5168496966362
1772729604974970400,5.886970458984375,8.535198211669922,4.12761926651001,-0.6221339106559753
1772729604984488700,5.89648876953125,8.841479301452637,4.051048755645752,-0.7657032608985901
1772729604994006800,5.9060068359375,9.07119083404541,4.07258415222168,-0.9523434042930603
1772729605003525000,5.915525146484375,9.142974853515625,4.194618225097656,-1.1318050622940063
1772729605013043200,5.925043212890625,9.095118522644043,4.3788652420043945,-1.2418749332427979
1772729605022561300,5.934561279296875,8.903693199157715,4.517649173736572,-1.2993026971817017
1772729605032079600,5.94407958984375,8.645268440246582,4.625326156616211,-1.2370892763137817
1772729605041597700,5.95359765625,8.405985832214355,4.73300313949585,-1.222732424736023
1772729605051115800,5.96311572265625,8.147561073303223,4.840680122375488,-1.2059825658798218
1772729605060634000,5.972634033203125,8.003992080688477,4.9531426429748535,-1.1318050622940063
1772729605070152200,5.982152099609375,7.8388872146606445,5.000999450683594,-1.031306505203247
1772729605079670300,5.991670166015625,7.683353424072266,5.06082010269165,-0.9355936646461487
1772729605089188600,6.001188720703125,7.568498134613037,5.07517671585083,-0.9092726111412048
1772729605098706700,6.010706787109375,7.551748275756836,5.089533805847168,-0.9236295223236084
1772729605108224800,6.020224853515625,7.568498134613037,5.091926574707031,-1.0001999139785767
1772729605117743000,6.0297431640625,7.6737823486328125,5.029713153839111,-1.1198409795761108
1772729605127261200,6.03926123046875,7.903493404388428,4.986642360687256,-1.191625714302063
1772729605136779300,6.048779296875,8.190631866455078,4.9435715675354,-1.1485549211502075
1772729605146297600,6.058297607421875,8.508877754211426,4.948357105255127,-0.9834501147270203
1772729605155815700,6.067815673828125,8.762516975402832,4.948357105255127,-0.794417142868042
1772729605165334000,6.077333984375,8.901300430297852,5.000999450683594,-0.6197410821914673
1772729605174852000,6.08685205078125,9.004191398620605,5.039284706115723,-0.44027936458587646
1772729605184375000,6.096375,9.013762474060059,5.020142078399658,-0.43549370765686035
1772729605193888500,6.105888427734375,9.004191398620605,5.051248550415039,-0.4666004180908203
1772729605203406600,6.115406494140625,8.944371223449707,5.101497650146484,-0.5838487148284912
1772729605212924700,6.124924560546875,8.798408508300781,5.111069202423096,-0.6891329288482666
1772729605222442800,6.13444287109375,8.659625053405762,5.108676433563232,-0.7417750358581543
1772729605231961000,6.143961181640625,8.571090698242188,5.163711071014404,-0.8207381963729858
1772729605241479200,6.153479248046875,8.508877754211426,5.257031440734863,-0.9260223507881165
1772729605250997200,6.162997314453125,8.470592498779297,5.395814895629883,-1.0097711086273193
1772729605260515600,6.172515625,8.523234367370605,5.472385406494141,-1.0767701864242554
1772729605270033700,6.18203369140625,8.724231719970703,5.453242778778076,-1.1509476900100708
1772729605279552000,6.191552001953125,8.96112060546875,5.4173502922058105,-1.1341979503631592
1772729605289070000,6.201070068359375,9.219545364379883,5.326423168182373,-1.0887342691421509
1772729605298588200,6.210588134765625,9.43489933013916,5.230710506439209,-1.0001999139785767
1772729605308106500,6.2201064453125,9.66939640045166,5.151747226715088,-0.9020941257476807
1772729605317624600,6.22962451171875,9.913464546203613,5.158925533294678,-0.8542376756668091
1772729605327142700,6.239142578125,10.03310489654541,5.221138954162598,-0.8350951075553894
1772729605336661000,6.248660888671875,10.04267692565918,5.242674350738525,-0.7992027401924133
1772729605346179000,6.258178955078125,9.958928108215332,5.242674350738525,-0.763310432434082
1772729605355697200,6.267697265625,9.796216011047363,5.264209747314453,-0.8398807644844055
1772729605365215500,6.277215576171875,9.53061294555664,5.328815937042236,-1.0145567655563354
1772729605374733600,6.286733642578125,9.231510162353516,5.381458282470703,-1.2251251935958862
1772729605384251600,6.296251708984375,8.989834785461426,5.4867424964904785,-1.3854442834854126
1772729605393770000,6.30577001953125,8.740981101989746,5.60399055480957,-1.5242279767990112
1772729605403288000,6.3152880859375,8.475378036499023,5.6925249099731445,-1.5242279767990112
1772729605412806100,6.32480615234375,8.274380683898926,5.78345251083374,-1.495514154434204
1772729605422324500,6.334324462890625,8.11406135559082,5.855237007141113,-1.4452649354934692
1772729605431842600,6.343842529296875,8.090133666992188,5.848058700561523,-1.3591232299804688
1772729605441360600,6.353360595703125,8.214560508728027,5.714060306549072,-1.2299108505249023
1772729605450879000,6.36287890625,8.559126853942871,5.4867424964904785,-1.0911271572113037
1772729605460397000,6.37239697265625,9.030512809753418,5.146961688995361,-0.9643075466156006
1772729605469915400,6.381915283203125,9.504291534423828,4.756931304931641,-0.8422735929489136
1772729605479433500,6.39143359375,9.91107177734375,4.309473514556885,-0.7752745151519775
1772729605488951600,6.40095166015625,10.092926025390625,3.9768712520599365,-0.8685946464538574
1772729605498469600,6.4104697265625,10.071390151977539,3.761517286300659,-1.0408778190612793
1772729605507988000,6.419988037109375,9.724431037902832,3.7184464931488037,-1.28255295753479
1772729605517506000,6.429506103515625,9.200403213500977,3.8572301864624023,-1.5242279767990112
1772729605527024000,6.439024169921875,8.642875671386719,4.070191383361816,-1.7730815410614014
1772729605536542500,6.44854248046875,8.047062873840332,4.302295207977295,-2.014756679534912
1772729605546060500,6.458060546875,7.444071292877197,4.453042984008789,-2.155933141708374
1772729605555578600,6.46757861328125,6.876972198486328,4.596612453460693,-2.1774685382843018
1772729605565097000,6.477096923828125,6.434299945831299,4.72582483291626,-2.201396942138672
1772729605574615000,6.486614990234375,6.214160442352295,4.8191447257995605,-2.2205393314361572
1772729605584133000,6.496133056640625,6.130411624908447,4.852644443511963,-2.2325034141540527
1772729605593651500,6.5056513671875,6.166304111480713,4.802394866943359,-2.1343977451324463
1772729605603169500,6.51516943359375,6.405586242675781,4.661218643188477,-1.947757601737976
1772729605612688000,6.52468798828125,6.970292568206787,4.587040901184082,-1.7539390325546265
1772729605622206000,6.5342060546875,7.597211837768555,4.541577339172363,-1.6103696823120117
1772729605631724000,6.54372412109375,8.188239097595215,4.47697114944458,-1.4093725681304932
1772729605641242400,6.553242431640625,8.717052459716797,4.295116424560547,-1.1868400573730469
1772729605650760400,6.562760498046875,9.312865257263184,4.144368648529053,-1.0480563640594482
1772729605660278500,6.572278564453125,9.765109062194824,4.101297855377197,-1.0336993932724
1772729605669796600,6.581796630859375,10.03549861907959,4.039084434509277,-1.1054840087890625
1772729605679315000,6.59131494140625,10.15035343170166,3.9625144004821777,-1.1509476900100708
1772729605688833000,6.6008330078125,10.021141052246094,3.91705060005188,-1.2011969089508057
1772729605698351000,6.61035107421875,9.717252731323242,3.957728624343872,-1.2921242713928223
1772729605707869400,6.619869384765625,9.312865257263184,4.074976921081543,-1.3615161180496216
1772729605717387500,6.629387451171875,8.855836868286133,4.194618225097656,-1.4404792785644531
1772729605726905600,6.638905517578125,8.3629150390625,4.316651821136475,-1.4165509939193726
1772729605736424000,6.648423828125,8.008777618408203,4.376472473144531,-1.3519448041915894
1772729605745942000,6.65794189453125,7.7216386795043945,4.4650068283081055,-1.3423734903335571
1772729605755460400,6.66746044921875,7.613961696624756,4.534399032592773,-1.34476637840271
1772729605764978400,6.676978515625,7.518248558044434,4.589433670043945,-1.2921242713928223
1772729605774496500,6.68649658203125,7.463213920593262,4.618147850036621,-1.2610175609588623
1772729605784014800,6.696014892578125,7.444071292877197,4.644468784332275,-1.215553879737854
1772729605793533000,6.705532958984375,7.45364236831665,4.692325115203857,-1.153340458869934
1772729605803051000,6.715051025390625,7.57806921005249,4.764110088348389,-1.160519003868103
1772729605812569300,6.7245693359375,7.683353424072266,4.898108005523682,-1.1437692642211914
1772729605822087400,6.73408740234375,7.704888820648193,4.957928657531738,-1.069591760635376
1772729605831605500,6.74360546875,7.814958572387695,4.974678039550781,-0.9858429431915283
1772729605841123800,6.753123779296875,7.946564197540283,5.01296329498291,-0.9355936646461487
1772729605850642000,6.762641845703125,8.090133666992188,5.056034088134766,-0.9236295223236084
1772729605860160000,6.772159912109375,8.228917121887207,5.048855781555176,-0.8446664214134216
1772729605869678000,6.781677978515625,8.312665939331055,5.032105922698975,-0.763310432434082
1772729605879196400,6.791196533203125,8.396414756774902,5.027320384979248,-0.7441678643226624
1772729605888714500,6.800714599609375,8.482556343078613,5.056034088134766,-0.8159525394439697
1772729605898232800,6.81023291015625,8.585447311401367,5.163711071014404,-0.9762716293334961
1772729605907751000,6.8197509765625,8.642875671386719,5.223531723022461,-1.0504491329193115
1772729605917269000,6.82926904296875,8.731410026550293,5.285745143890381,-1.0648061037063599
1772729605926787300,6.838787353515625,8.82233715057373,5.3216376304626465,-1.00259268283844
1772729605936305400,6.848305419921875,8.781659126281738,5.357530117034912,-0.9260223507881165
1772729605945823500,6.857823486328125,8.776873588562012,5.400600910186768,-0.8374879360198975
1772729605955341800,6.867341796875,8.798408508300781,5.426921844482422,-0.7896314859390259
1772729605964860000,6.87685986328125,8.958727836608887,5.520241737365723,-0.8087740540504456
1772729605974378000,6.8863779296875,9.221938133239746,5.558526992797852,-0.8662018179893494
1772729605983896300,6.895896240234375,9.439684867858887,5.584847927093506,-0.9092726111412048
1772729605993414400,6.905414306640625,9.65503978729248,5.477170944213867,-0.8590233325958252
1772729606002932500,6.914932373046875,9.870393753051758,5.362315654754639,-0.7872386574745178
1772729606012450800,6.924450927734375,9.997213363647461,5.283352375030518,-0.760917603969574
1772729606021969000,6.933968994140625,10.023533821105957,5.300102233886719,-0.8255237936973572
1772729606031487000,6.943487060546875,9.968499183654785,5.328815937042236,-0.8638089895248413
1772729606041005000,6.953005126953125,9.848857879638672,5.367101192474365,-0.9068797826766968
1772729606050523400,6.9625234375,9.631111145019531,5.450850009918213,-0.9332008361816406
1772729606060041500,6.97204150390625,9.389435768127441,5.496313571929932,-0.8757730722427368
1772729606069559600,6.9815595703125,9.276973724365234,5.498706340789795,-0.7537391185760498
1772729606079078000,6.991077880859375,9.262616157531738,5.496313571929932,-0.5718846321105957
1772729606088596000,7.000595947265625,9.432506561279297,5.438885688781738,-0.35413774847984314
1772729606098114000,7.010114013671875,9.736394882202148,5.307280540466309,-0.18903298676013947
1772729606107632400,7.01963232421875,10.037891387939453,5.139782905578613,-0.11964113265275955
1772729606117150500,7.029150390625,10.272387504577637,4.847858905792236,0.02153540402650833
1772729606126668800,7.038668701171875,10.51645565032959,4.560719966888428,0.09810572862625122
1772729606136187000,7.048186767578125,10.717453002929688,4.369294166564941,0.019142581149935722
1772729606145705000,7.057705078125,10.760523796081543,4.113262176513672,0.04307080805301666
1772729606155223300,7.067223388671875,10.707880973815918,3.9290146827697754,0.07417750358581543
1772729606164741400,7.076741455078125,10.49252700805664,3.838087558746338,0.031106693670153618
1772729606174259500,7.086259521484375,10.076175689697266,3.81655216217041,0.009571290574967861
1772729606183777800,7.09577783203125,9.54496955871582,3.8189449310302734,0.019142581149935722
1772729606193296000,7.1052958984375,8.963513374328613,3.838087558746338,0.08135596662759781
1772729606202814000,7.11481396484375,8.372486114501953,3.8763725757598877,0.016749758273363113
1772729606212332000,7.12433203125,7.853243827819824,3.9840497970581055,-0.13160525262355804
1772729606221850400,7.133850341796875,7.3292155265808105,4.077369689941406,-0.17946170270442963
1772729606231368400,7.143368408203125,6.905686378479004,4.153940200805664,-0.10049854964017868
1772729606240886500,7.152886474609375,6.594619274139404,4.244867324829102,0.038285162299871445
1772729606250404900,7.16240478515625,6.4701924324035645,4.364508628845215,0.08374879509210587
1772729606259923000,7.1719228515625,6.515655994415283,4.498506546020508,0.12921242415905
1772729606269441000,7.18144091796875,6.790830612182617,4.522434711456299,0.2273181527853012
1772729606278959400,7.19095947265625,7.278966426849365,4.4961137771606445,0.32542386651039124
1772729606288477400,7.2004775390625,7.8795647621154785,4.419543266296387,0.5072783827781677
1772729606297995800,7.209995849609375,8.439485549926758,4.304687976837158,0.6221339106559753
1772729606307513900,7.219513916015625,9.020941734313965,4.170690059661865,0.6604190468788147
1772729606317032000,7.229031982421875,9.619147300720215,4.063013076782227,0.5670989751815796
1772729606326550300,7.23855029296875,10.073782920837402,4.024727821350098,0.2679961323738098
1772729606336068400,7.248068359375,10.26760196685791,3.9385859966278076,-0.009571290574967861
1772729606345586400,7.25758642578125,10.293923377990723,3.8524444103240967,-0.19381862878799438
1772729606355104800,7.267104736328125,10.17428207397461,3.900300979614258,-0.41156548261642456
1772729606364622800,7.276622802734375,9.789037704467773,4.029513359069824,-0.6269195079803467
1772729606374141000,7.286140869140625,9.267401695251465,4.225724697113037,-0.7728816866874695
1772729606383659000,7.295658935546875,8.717052459716797,4.445864677429199,-0.9116654396057129
1772729606393177300,7.30517724609375,8.193024635314941,4.625326156616211,-1.0193424224853516
1772729606402695400,7.3146953125,7.740781307220459,4.766502857208252,-1.0552347898483276
1772729606412213500,7.324213623046875,7.300501823425293,4.821537494659424,-0.9523434042930603
1772729606421731800,7.33373193359375,6.984649181365967,4.876572608947754,-0.7441678643226624
1772729606431250000,7.34325,6.742974281311035,4.977071285247803,-0.6580262184143066
1772729606440768000,7.35276806640625,6.6113691329956055,5.091926574707031,-0.6173482537269592
1772729606450286300,7.362286376953125,6.580262184143066,5.175675392150879,-0.6149554252624512
1772729606459804400,7.371804443359375,6.530013084411621,5.2043890953063965,-0.5694918036460876
1772729606469322500,7.381322509765625,6.5180487632751465,5.221138954162598,-0.5072783827781677
1772729606478840800,7.3908408203125,6.64486837387085,5.223531723022461,-0.5312066078186035
1772729606488359000,7.40035888671875,6.8865437507629395,5.242674350738525,-0.6125625967979431
1772729606497877000,7.409876953125,7.18086051940918,5.201996326446533,-0.672383189201355
1772729606507395300,7.419395263671875,7.439285755157471,5.139782905578613,-0.7178468108177185
1772729606516913400,7.428913330078125,7.755138397216797,5.056034088134766,-0.7465606927871704
1772729606526431500,7.438431396484375,8.030312538146973,4.996213912963867,-0.7800601720809937
1772729606535949800,7.44794970703125,8.21695327758789,4.986642360687256,-0.8327022790908813
1772729606545468000,7.457468017578125,8.391629219055176,4.984249591827393,-0.9020941257476807
1772729606554986000,7.466986083984375,8.539983749389648,4.993820667266846,-0.9188438653945923
1772729606564504300,7.47650439453125,8.628518104553223,5.034498691558838,-1.0097711086273193
1772729606574022400,7.4860224609375,8.714659690856934,5.079962253570557,-1.0456634759902954
1772729606583540500,7.49554052734375,8.740981101989746,5.120640277862549,-1.0528420209884644
1772729606593058800,7.505058837890625,8.82233715057373,5.144568920135498,-1.0408778190612793
1772729606602577000,7.514576904296875,8.922835350036621,5.225924491882324,-0.9858429431915283
1772729606612095000,7.524094970703125,9.013762474060059,5.285745143890381,-0.8997012972831726
1772729606621613300,7.53361328125,9.09990406036377,5.400600910186768,-0.8350951075553894
1772729606631131400,7.54313134765625,9.219545364379883,5.491528034210205,-0.794417142868042
1772729606640649500,7.5526494140625,9.394221305847168,5.527420520782471,-0.7441678643226624
1772729606650167600,7.56216748046875,9.53779125213623,5.551348686218262,-0.698704183101654
1772729606659686000,7.571685791015625,9.707681655883789,5.5034918785095215,-0.7322037220001221
1772729606669204000,7.581203857421875,9.891928672790527,5.446064472198486,-0.7154539823532104
1772729606678722000,7.59072216796875,9.982855796813965,5.474778175354004,-0.7034898400306702
1772729606688240400,7.600240478515625,10.073782920837402,5.489135265350342,-0.7393822073936462
1772729606697758500,7.609758544921875,10.131211280822754,5.570491313934326,-0.7704889178276062
1772729606707276500,7.619276611328125,10.04267692565918,5.649454116821289,-0.8279166221618652
1772729606716795000,7.628794921875,9.832108497619629,5.79063081741333,-0.8159525394439697
1772729606726313000,7.63831298828125,9.564111709594727,5.905486106872559,-0.8015955686569214
1772729606735831000,7.6478310546875,9.367900848388672,6.10169792175293,-0.8590233325958252
1772729606745349400,7.657349365234375,9.221938133239746,6.295516490936279,-1.0360921621322632
1772729606754867500,7.666867431640625,9.135796546936035,6.429514408111572,-1.1270195245742798
1772729606764385500,7.676385498046875,9.037691116333008,6.410371780395508,-1.0456634759902954
1772729606773904000,7.68590380859375,9.049654960632324,6.295516490936279,-0.8949156403541565
1772729606783422000,7.695421875,9.214759826660156,6.10169792175293,-0.7680960893630981
1772729606792940300,7.704940185546875,9.449256896972656,5.816951751708984,-0.7848458290100098
1772729606802458400,7.714458251953125,9.743574142456055,5.520241737365723,-0.8303094506263733
1772729606811976400,7.7239765625,10.06421184539795,5.07517671585083,-0.8374879360198975
1772729606821494500,7.73349462890625,10.234102249145508,4.649254322052002,-0.8255237936973572
1772729606831012900,7.743012939453125,10.1814603805542,4.287938117980957,-0.8470591902732849
1772729606840531000,7.752531005859375,10.009177207946777,4.0079779624938965,-0.8997012972831726
1772729606850049000,7.762049072265625,9.65503978729248,3.895515203475952,-1.00259268283844
1772729606859567400,7.7715673828125,9.147761344909668,3.933800458908081,-1.2203395366668701
1772729606869085400,7.78108544921875,8.597412109375,4.034298896789551,-1.4213366508483887
1772729606878603500,7.790603515625,8.025527000427246,4.120440483093262,-1.6079767942428589
1772729606888121900,7.800121826171875,7.463213920593262,4.194618225097656,-1.852044701576233
1772729606897640000,7.809639892578125,6.9344000816345215,4.2209391593933105,-1.9836499691009521
1772729606907158000,7.819157958984375,6.419943332672119,4.237689018249512,-2.0578274726867676
1772729606916676000,7.828676025390625,6.001199245452881,4.256831645965576,-2.0267207622528076
1772729606926194400,7.8381943359375,5.740381717681885,4.40757942199707,-2.227717876434326
1772729606935712500,7.84771240234375,5.697310924530029,4.524827480316162,-2.3712873458862305
1772729606945230600,7.857230712890625,5.749952793121338,4.5200419425964355,-2.287538528442383
1772729606954749000,7.8667490234375,6.099305152893066,4.436293125152588,-2.117648124694824
1772729606964267000,7.87626708984375,6.6352972984313965,4.280759811401367,-1.8807586431503296
1772729606973785000,7.88578515625,7.216753005981445,4.151547431945801,-1.5720844268798828
1772729606983303200,7.89530322265625,7.829315662384033,4.005585193634033,-1.246660590171814
1772729606992821500,7.904821533203125,8.477770805358887,3.871587038040161,-1.00259268283844
1772729607002339600,7.914339599609375,9.128618240356445,3.809373617172241,-0.8805587291717529
1772729607011857700,7.923857666015625,9.719645500183105,3.7543387413024902,-0.7872386574745178
1772729607021376000,7.9333759765625,10.147960662841797,3.7423746585845947,-0.8015955686569214
1772729607030894000,7.94289404296875,10.317851066589355,3.617947816848755,-0.7154539823532104
1772729607040412400,7.952412353515625,10.336994171142578,3.5270206928253174,-0.7872386574745178
1772729607049930500,7.961930419921875,10.219745635986328,3.469592809677124,-0.914058268070221
1772729607059448600,7.971448486328125,9.982855796813965,3.4815568923950195,-1.129412293434143
1772729607068967000,7.980966796875,9.592825889587402,3.596412420272827,-1.3399807214736938
1772729607078485000,7.990485107421875,9.10229778289795,3.7806596755981445,-1.526620864868164
1772729607088003000,8.000003173828125,8.566305160522461,3.972085475921631,-1.6151553392410278
1772729607097521400,8.009521484375,8.094919204711914,4.1491546630859375,-1.6223337650299072
1772729607107039500,8.01903955078125,7.793423175811768,4.316651821136475,-1.5720844268798828
1772729607116557600,8.0285576171875,7.5804619789123535,4.493721008300781,-1.4739787578582764
1772729607126076000,8.038075927734376,7.369893550872803,4.603790760040283,-1.3830515146255493
1772729607135594000,8.047593994140625,7.231110095977783,4.658825874328613,-1.25144624710083
1772729607145112000,8.057112060546874,7.164111137390137,4.718646049499512,-1.1772687435150146
1772729607154630400,8.06663037109375,7.17368221282959,4.730610370635986,-1.0360921621322632
1772729607164148200,8.076148193359375,7.3052873611450195,4.764110088348389,-0.9523434042930603
1772729607173666600,8.08566650390625,7.475177764892578,4.78803825378418,-0.8997012972831726
1772729607183184600,8.0951845703125,7.621140003204346,4.816751956939697,-0.8662018179893494
1772729607192703000,8.104702880859374,7.671389579772949,4.785645484924316,-0.7704889178276062
1772729607202221000,8.114220947265625,7.752745151519775,4.804787635803223,-0.6891329288482666
1772729607211739100,8.1237392578125,7.908278942108154,4.826323509216309,-0.6580262184143066
1772729607221257500,8.133257568359374,8.13798999786377,4.9363932609558105,-0.6819544434547424
1772729607230775600,8.142775634765625,8.365307807922363,5.044070243835449,-0.6939185857772827
1772729607240293600,8.152293701171875,8.671588897705078,5.000999450683594,-0.6508477330207825
1772729607249811700,8.161811767578126,8.982656478881836,4.917250633239746,-0.605384111404419
1772729607259330000,8.171330078125,9.226723670959473,4.828716278076172,-0.5288137793540955
1772729607268848000,8.18084814453125,9.43489933013916,4.730610370635986,-0.576670229434967
1772729607278366200,8.1903662109375,9.55214786529541,4.713860511779785,-0.607776939868927
1772729607287884500,8.199884521484375,9.542576789855957,4.735395908355713,-0.6771687865257263
1772729607297402600,8.209402587890626,9.497113227844238,4.7473602294921875,-0.7824530005455017
1772729607306920700,8.218920654296875,9.475577354431152,4.898108005523682,-0.8183453679084778
1772729607316439000,8.22843896484375,9.44447135925293,5.063212871551514,-0.8709874153137207
1772729607325957000,8.23795703125,9.4061861038208,5.182853698730469,-0.794417142868042
1772729607335475200,8.24747509765625,9.415757179260254,5.290530681610107,-0.6460621356964111
1772729607344993300,8.2569931640625,9.379864692687988,5.3312087059021,-0.4546363055706024
1772729607354511600,8.26651171875,9.291330337524414,5.3455657958984375,-0.27038896083831787
1772729607364029700,8.27602978515625,9.162117958068848,5.395814895629883,-0.16749759018421173
1772729607373547800,8.2855478515625,9.123832702636719,5.4867424964904785,-0.20578274130821228
1772729607383066000,8.295066162109375,9.20279598236084,5.5728840827941895,-0.2919243574142456
1772729607392584200,8.304584228515624,9.269794464111328,5.675775527954102,-0.4331009089946747
1772729607402102300,8.314102294921875,9.32004451751709,5.694917678833008,-0.46420758962631226
1772729607411620600,8.32362060546875,9.367900848388672,5.649454116821289,-0.49292147159576416
1772729607421138700,8.333138671875,9.415757179260254,5.587240695953369,-0.5216353535652161
1772729607430656800,8.34265673828125,9.468399047851562,5.587240695953369,-0.6508477330207825
1772729607440174800,8.3521748046875,9.494720458984375,5.592026710510254,-0.8207381963729858
1772729607449693200,8.361693115234376,9.480362892150879,5.587240695953369,-0.9236295223236084
1772729607459211300,8.371211181640625,9.4660062789917,5.529813289642334,-0.9116654396057129
1772729607468729300,8.380729248046874,9.590433120727539,5.5034918785095215,-0.8207381963729858
1772729607478247700,8.39024755859375,9.765109062194824,5.44845724105835,-0.6939185857772827
1772729607487765800,8.399765869140625,9.990034103393555,5.414957523345947,-0.550349235534668
1772729607497283800,8.409283935546876,10.28195858001709,5.278566837310791,-0.34217363595962524
1772729607506802200,8.41880224609375,10.597811698913574,5.053641319274902,-0.13878370821475983
1772729607516320300,8.4283203125,10.930414199829102,4.831109046936035,0.06699903309345245
1772729607525838300,8.43783837890625,11.279766082763672,4.646861553192139,0.12921242415905
1772729607535356400,8.4473564453125,11.535798072814941,4.48414945602417,0.02153540402650833
1772729607544874800,8.456874755859374,11.58126163482666,4.125226020812988,-0.0023928226437419653
1772729607554392800,8.466392822265625,11.48794174194336,3.7256247997283936,0.019142581149935722
1772729607563911200,8.4759111328125,11.303693771362305,3.34995174407959,-0.09571290761232376
1772729607573429200,8.48542919921875,10.949556350708008,3.1274192333221436,-0.2727817893028259
1772729607582947300,8.494947265625,10.432706832885742,3.019742250442505,-0.42831525206565857
1772729607592465700,8.504465576171874,9.89432144165039,2.991028308868408,-0.6101697683334351
1772729607601983700,8.513983642578125,9.34157943725586,3.0388846397399902,-0.7680960893630981
1772729607611501800,8.523501708984375,8.726624488830566,3.077169895172119,-0.914058268070221
1772729607621020200,8.533020263671874,8.102097511291504,3.139383316040039,-0.9571290612220764
1772729607630538200,8.542538330078125,7.530212879180908,3.273381471633911,-1.0217353105545044
1772729607640056300,8.552056396484375,7.1234331130981445,3.421736478805542,-1.0097711086273193
1772729607649574700,8.56157470703125,6.788437843322754,3.6227335929870605,-0.9355936646461487
1772729607659092700,8.5710927734375,6.570691108703613,3.8500516414642334,-0.7992027401924133
1772729607668610800,8.58061083984375,6.50608491897583,4.0319061279296875,-0.5599204897880554
1772729607678129000,8.59012890625,6.527620315551758,4.194618225097656,-0.36610186100006104
1772729607687647200,8.599647216796875,6.601797580718994,4.242474555969238,-0.23449662327766418
1772729607697165300,8.609165283203126,6.8004021644592285,4.244867324829102,-0.15074782073497772
1772729607706683400,8.618683349609375,7.070790767669678,4.247260093688965,-0.2584248483181
1772729607716201700,8.62820166015625,7.441678524017334,4.211368083953857,-0.4666004180908203
1772729607725719800,8.6377197265625,7.944170951843262,4.187439441680908,-0.7082754969596863
1772729607735238000,8.64723779296875,8.484949111938477,4.082155227661133,-0.8757730722427368
1772729607744756200,8.656756103515624,8.922835350036621,3.9314076900482178,-1.00259268283844
1772729607754274300,8.6662744140625,9.305686950683594,3.862015724182129,-1.0887342691421509
1772729607763792400,8.67579248046875,9.499505996704102,3.7567315101623535,-1.184447169303894
1772729607773310500,8.685310546875,9.53061294555664,3.7423746585845947,-1.275374412536621
1772729607782828800,8.694828857421875,9.463613510131836,3.806980848312378,-1.3878371715545654
1772729607792347000,8.704346923828124,9.255437850952148,4.060619831085205,-1.5984054803848267
1772729607801865000,8.713864990234375,8.944371223449707,4.280759811401367,-1.7443677186965942
1772729607811383300,8.72338330078125,8.614161491394043,4.450650215148926,-1.7778671979904175
1772729607820901400,8.7329013671875,8.291130065917969,4.541577339172363,-1.6965112686157227
1772729607830419500,8.74241943359375,7.968099594116211,4.656432628631592,-1.612762451171875
1772729607839937800,8.751937744140625,7.680960655212402,4.7401814460754395,-1.5601203441619873
1772729607849455900,8.761455810546876,7.448856830596924,4.862215518951416,-1.4883357286453247
1772729607858974000,8.770973876953125,7.255038261413574,4.965106964111328,-1.3878371715545654
1772729607868492000,8.780491943359374,7.188039302825928,5.091926574707031,-1.2921242713928223
1772729607878010400,8.79001025390625,7.200003147125244,5.158925533294678,-1.1389836072921753
1772729607887528400,8.799528564453125,7.319644451141357,5.2043890953063965,-0.9475577473640442
1772729607897046500,8.809046630859376,7.537391185760498,5.158925533294678,-0.849452018737793
1772729607906564900,8.81856494140625,7.755138397216797,5.051248550415039,-0.7322037220001221
1772729607916083000,8.8280830078125,7.9968132972717285,4.972285270690918,-0.6317051649093628
1772729607925601000,8.83760107421875,8.303094863891602,4.8813581466674805,-0.6436693072319031
1772729607935119400,8.847119384765625,8.635697364807129,4.797609329223633,-0.6652047038078308
1772729607944637400,8.856637451171874,8.965906143188477,4.754538536071777,-0.6867401003837585
1772729607954155500,8.866155517578125,9.162117958068848,4.72582483291626,-0.6795616149902344
1772729607963673600,8.875673583984375,9.241081237792969,4.6372904777526855,-0.6867401003837585
1772729607973192000,8.88519189453125,9.281759262084961,4.553541660308838,-0.7202396392822266
1772729607982710000,8.8947099609375,9.257830619812012,4.522434711456299,-0.8231309652328491
1772729607992228000,8.90422802734375,9.18843936920166,4.522434711456299,-0.914058268070221
1772729608001746400,8.913746337890625,9.095118522644043,4.462614059448242,-0.9403793215751648
1772729608011264500,8.923264404296875,9.049654960632324,4.4243292808532715,-0.9906286001205444
1772729608020782600,8.932782470703126,9.023334503173828,4.453042984008789,-1.100698471069336
1772729608030300700,8.94230078125,8.987442016601562,4.417150497436523,-1.1150553226470947
1772729608039819000,8.951819091796875,8.93240737915039,4.3310089111328125,-1.0815558433532715
1772729608049337000,8.961337158203126,8.93958568572998,4.347758769989014,-1.0169496536254883
1772729608058855200,8.970855224609375,9.025727272033691,4.371686935424805,-0.9930213689804077
1772729608068373500,8.98037353515625,9.142974853515625,4.41475772857666,-0.9595218896865845
1772729608077891600,8.9898916015625,9.286544799804688,4.402793884277344,-0.8327022790908813
1772729608087409700,8.99940966796875,9.422935485839844,4.419543266296387,-0.6580262184143066
1772729608096928000,9.008927978515626,9.499505996704102,4.371686935424805,-0.5383850932121277
1772729608106446000,9.018446044921875,9.559326171875,4.357329845428467,-0.5551348328590393
1772729608115964200,9.027964111328124,9.540184020996094,4.4721856117248535,-0.7776673436164856
1772729608125482200,9.037482177734375,9.384650230407715,4.60857629776001,-1.0887342691421509
1772729608135000600,9.04700048828125,9.116654396057129,4.764110088348389,-1.3088740110397339
1772729608144518700,9.0565185546875,8.944371223449707,4.955535888671875,-1.3112667798995972
1772729608154036700,9.06603662109375,8.95394229888916,5.158925533294678,-1.2035897970199585
1772729608163555000,9.07555517578125,9.293723106384277,5.350351333618164,-1.0552347898483276
1772729608173073200,9.0850732421875,9.750752449035645,5.355136871337891,-0.97148597240448
1772729608182591200,9.09459130859375,10.296316146850586,4.989035129547119,-0.6029912829399109
1772729608192109600,9.104109619140624,10.937592506408691,4.402793884277344,-0.12681959569454193
1772729608201627600,9.113627685546875,11.468798637390137,3.7734813690185547,0.13639089465141296
1772729608211145700,9.123145751953125,11.660224914550781,3.208775281906128,0.09810572862625122
1772729608220663800,9.132663818359376,11.389835357666016,2.6081767082214355,0.07417750358581543
1772729608230182100,9.14218212890625,10.846665382385254,2.2396819591522217,-0.13639089465141296
1772729608239700200,9.1517001953125,10.195816993713379,2.3330020904541016,-0.6699903607368469
1772729608249218300,9.16121826171875,9.559326171875,2.7086751461029053,-1.397408366203308
1772729608258736400,9.170736328125,8.922835350036621,3.1585259437561035,-1.9214365482330322
1772729608268254500,9.18025439453125,8.228917121887207,3.6083765029907227,-2.3473589420318604
1772729608277772800,9.189772705078125,7.537391185760498,3.91705060005188,-2.4885356426239014
1772729608287291000,9.199290771484375,6.97268533706665,4.208974838256836,-2.4095723628997803
1772729608296809200,9.208809326171876,6.503692150115967,4.488935470581055,-2.2947168350219727
1772729608306327300,9.218327392578125,6.230910301208496,4.749752998352051,-2.2085752487182617
1772729608315845400,9.227845458984374,6.044270038604736,4.768895626068115,-1.923829436302185
1772729608325363500,9.237363525390625,6.58265495300293,4.450650215148926,-1.3806586265563965
1772729608334881800,9.2468818359375,7.511070251464844,4.264009952545166,-0.8781659007072449
1772729608344400000,9.25639990234375,8.283951759338379,4.213760852813721,-0.7537391185760498
1772729608353918000,9.26591796875,9.104690551757812,4.091726779937744,-0.9667003750801086
1772729608363436300,9.275436279296875,10.013962745666504,3.9864425659179688,-0.9906286001205444
1772729608372954400,9.284954345703126,10.61695384979248,3.720839262008667,-0.7872386574745178
1772729608382472400,9.294472412109375,10.861021995544434,3.390629768371582,-0.40677985548973083
1772729608391990500,9.303990478515624,10.856236457824707,3.036491870880127,-0.16031911969184875
1772729608401508900,9.3135087890625,11.21515941619873,2.7349963188171387,-0.15553347766399384
1772729608411027000,9.32302685546875,11.212766647338867,2.400001049041748,-0.11485548317432404
