time,seconds_elapsed,z,y,x
1772726496094548500,0.077548583984375,0,0,0
1772726496104066300,0.08706640625,-0.02674102783203125,-0.01726531982421875,0.0022463202476501465
1772726496113583900,0.096583984375,-0.010539054870605469,-0.05643892288208008,0.016675174236297607
1772726496123101400,0.106101318359375,0.0576934814453125,-0.028142929077148438,-0.023744583129882812
1772726496132619000,0.115618896484375,0.0757598876953125,-0.014760017395019531,-0.0831102728843689
1772726496142136300,0.12513623046875,-0.00412750244140625,-0.03140687942504883,-0.10300993919372559
1772726496151654100,0.134654052734375,-0.052959442138671875,0.008234977722167969,-0.14666223526000977
1772726496161171500,0.14417138671875,-0.07259273529052734,-0.005338191986083984,-0.16833144426345825
1772726496170689000,0.15368896484375,-0.08807086944580078,0.005955696105957031,-0.11764121055603027
1772726496180206600,0.16320654296875,0.023149490356445312,-0.008135318756103516,-0.06852960586547852
1772726496189724200,0.17272412109375,0.09387016296386719,0.01428985595703125,0.004439651966094971
1772726496199241700,0.18224169921875,0.1225748062133789,-0.0115814208984375,0.08650392293930054
1772726496208759300,0.19175927734375,0.1528167724609375,-0.04556608200073242,0.14916205406188965
1772726496218276900,0.20127685546875,0.16483783721923828,-0.06345272064208984,0.12701678276062012
1772726496227794400,0.21079443359375,0.14648818969726562,-0.03989362716674805,0.10726845264434814
1772726496237312000,0.22031201171875,0.15300273895263672,-0.010503768920898438,0.10446089506149292
1772726496246829600,0.22982958984375,0.15555477142333984,0.00940847396850586,0.07153081893920898
1772726496256347100,0.23934716796875,0.10666465759277344,0.03445577621459961,-0.00395125150680542
1772726496265864700,0.24886474609375,0.047036170959472656,0.030950546264648438,-0.06109356880187988
1772726496275382300,0.25838232421875,-0.046080589294433594,0.04162168502807617,-0.044409871101379395
1772726496284899800,0.26789990234375,-0.13747882843017578,0.002106189727783203,-0.07439082860946655
1772726496294417200,0.277417236328125,-0.15671730041503906,-0.025739669799804688,-0.03749954700469971
1772726496303935000,0.28693505859375,-0.15990066528320312,-0.0074520111083984375,0.07821458578109741
1772726496313452300,0.296452392578125,-0.06302165985107422,0.02555561065673828,0.11289939284324646
1772726496322969900,0.305969970703125,0.03360748291015625,0.06849479675292969,0.07802796363830566
1772726496332487400,0.3154873046875,0.10977363586425781,0.08382081985473633,0.0029781460762023926
1772726496342005000,0.3250048828125,0.13196849822998047,0.06311416625976562,-0.10249608755111694
1772726496351522600,0.3345224609375,0.13254833221435547,0.02053356170654297,-0.1363559365272522
1772726496361040100,0.3440400390625,0.12642192840576172,-0.002223968505859375,-0.08380979299545288
1772726496370557700,0.3535576171875,0.20897674560546875,0.009563684463500977,-0.011993467807769775
1772726496380075300,0.3630751953125,0.28283214569091797,0.010117530822753906,0.0522800087928772
1772726496389592800,0.3725927734375,0.3578662872314453,0.03641247749328613,0.03507566452026367
1772726496399110400,0.3821103515625,0.35787105560302734,0.02684187889099121,0.013616025447845459
1772726496408628000,0.3916279296875,0.30828380584716797,0.007977962493896484,0.00003612041473388672
1772726496418145500,0.4011455078125,0.25394535064697266,-0.04231095314025879,0.12005192041397095
1772726496427663000,0.4106630859375,0.3321094512939453,-0.1646895408630371,0.15850362181663513
1772726496437180700,0.4201806640625,0.16057968139648438,-0.022846221923828125,-0.12335968017578125
1772726496446698200,0.4296982421875,0.054901123046875,0.10243082046508789,0.05165693163871765
1772726496456215800,0.4392158203125,-0.05519390106201172,0.07551288604736328,0.1596064567565918
1772726496465733000,0.448733154296875,-0.1539287567138672,0.03244209289550781,0.14755108952522278
1772726496475250700,0.458250732421875,-0.23999881744384766,0.026278972625732422,0.11839652061462402
1772726496484768500,0.4677685546875,-0.24391460418701172,0.05640602111816406,0.11573615670204163
1772726496494285800,0.477285888671875,-0.3031730651855469,0.07294988632202148,0.06842595338821411
1772726496503803400,0.486803466796875,-0.3555154800415039,0.07100820541381836,0.029166877269744873
1772726496513321000,0.496321044921875,-0.33514976501464844,0.028887271881103516,0.026130259037017822
1772726496522838500,0.505838623046875,-0.2782115936279297,-0.03036355972290039,0.08198189735412598
1772726496532356000,0.515356201171875,-0.1521759033203125,-0.051247358322143555,0.10427108407020569
1772726496541873700,0.524873779296875,-0.05872821807861328,-0.06362509727478027,0.0932493805885315
1772726496551391200,0.53439111328125,0.11810588836669922,-0.06629562377929688,0.09319892525672913
1772726496560908800,0.54390869140625,0.252716064453125,-0.06455254554748535,0.05500882863998413
1772726496570426400,0.55342626953125,0.2826728820800781,-0.08176231384277344,0.050854772329330444
1772726496579944000,0.56294384765625,0.27088356018066406,-0.09598135948181152,0.04869133234024048
1772726496589461500,0.57246142578125,0.1966381072998047,-0.08547043800354004,0.08946317434310913
1772726496598979000,0.58197900390625,0.2603902816772461,-0.0620267391204834,0.09055551886558533
1772726496608496600,0.59149658203125,0.2811250686645508,-0.025782346725463867,0.07455739378929138
1772726496618014200,0.60101416015625,0.27385902404785156,-0.04769468307495117,0.086972177028656
1772726496627531800,0.61053173828125,0.2251119613647461,-0.042263031005859375,0.08433347940444946
1772726496637049300,0.62004931640625,0.1920318603515625,-0.026393651962280273,0.11946335434913635
1772726496646567000,0.62956689453125,0.13656234741210938,-0.014226675033569336,0.1265617311000824
1772726496656084200,0.639084228515625,0.17656612396240234,-0.01967763900756836,0.07879003882408142
1772726496665602000,0.64860205078125,0.16917037963867188,-0.03763771057128906,0.08474123477935791
1772726496675119400,0.658119384765625,0.1505413055419922,-0.020801544189453125,-0.03090241551399231
1772726496684637000,0.667636962890625,0.12329387664794922,-0.0028333663940429688,-0.009477794170379639
1772726496694154500,0.677154541015625,0.05889320373535156,0.061860084533691406,0.051652491092681885
1772726496703672000,0.686672119140625,-0.04248046875,0.03225421905517578,0.045407265424728394
1772726496713189600,0.696189697265625,-0.12165641784667969,0.018706321716308594,-0.015667617321014404
1772726496722707200,0.705707275390625,-0.10835742950439453,0.025366783142089844,-0.0496523380279541
1772726496732224800,0.715224853515625,-0.010822296142578125,0.027561187744140625,-0.12525510787963867
1772726496741742300,0.724742431640625,-0.008771896362304688,0.036147117614746094,-0.1510809361934662
1772726496751260000,0.734260009765625,-0.0630655288696289,0.00878000259399414,-0.08655238151550293
1772726496760777500,0.743777587890625,-0.13079071044921875,-0.0012927055358886719,0.1142263114452362
1772726496770295000,0.753294921875,-0.1885814666748047,-0.06144237518310547,0.27310317754745483
1772726496779812600,0.7628125,-0.3400239944458008,0.001220703125,0.1400386393070221
1772726496789330200,0.772330078125,-0.3438386917114258,0.07892990112304688,0.2071729600429535
1772726496798847700,0.78184765625,-0.2472209930419922,0.060656070709228516,0.17454829812049866
1772726496808365300,0.791365234375,-0.19502830505371094,0.03428792953491211,0.02956870198249817
1772726496817883000,0.8008828125,-0.18868255615234375,-0.023992061614990234,-0.054172247648239136
1772726496827400400,0.810400390625,-0.18724822998046875,-0.0741109848022461,-0.043309569358825684
1772726496836917800,0.819917724609375,-0.185791015625,-0.09063005447387695,-0.005198806524276733
1772726496846435600,0.829435546875,-0.13946151733398438,-0.032022953033447266,0.017848730087280273
1772726496855953000,0.838952880859375,-0.12441444396972656,-0.005148887634277344,0.0004711449146270752
1772726496865470500,0.848470458984375,-0.17122268676757812,-0.0036764144897460938,0.016347020864486694
1772726496874988300,0.85798828125,-0.21358871459960938,-0.04247331619262695,0.009316325187683105
1772726496884505600,0.867505615234375,-0.16006183624267578,-0.04021644592285156,0.018707215785980225
1772726496894023200,0.877023193359375,-0.056632041931152344,-0.04288530349731445,-0.0019842684268951416
1772726496903540700,0.886540771484375,0.17440032958984375,-0.005386829376220703,-0.03483003377914429
1772726496913058300,0.896058349609375,0.3553943634033203,0.01291656494140625,-0.04103437066078186
1772726496922576000,0.905575927734375,0.4574155807495117,-0.02476215362548828,-0.08244737982749939
1772726496932093400,0.915093505859375,0.45139503479003906,-0.056633949279785156,-0.023127198219299316
1772726496941611000,0.924611083984375,0.3197822570800781,-0.08150434494018555,0.04952475428581238
1772726496951128600,0.934128662109375,0.23118209838867188,-0.04172325134277344,0.09398645162582397
1772726496960646100,0.943646240234375,0.08290290832519531,0.04925394058227539,0.07772430777549744
1772726496970163700,0.953163818359375,-0.06593036651611328,0.08137273788452148,0.04532867670059204
1772726496979681300,0.962681396484375,-0.1451101303100586,0.10839653015136719,0.08367595076560974
1772726496989198800,0.97219873046875,-0.1771106719970703,0.10234785079956055,0.16463063657283783
1772726496998716400,0.98171630859375,-0.136322021484375,0.12149190902709961,0.1015951931476593
1772726497008234000,0.99123388671875,-0.12929630279541016,0.0842442512512207,-0.004106253385543823
1772726497017751600,1.00075146484375,-0.09169578552246094,0.014477252960205078,0.0027680397033691406
1772726497027269000,1.01026904296875,-0.02625274658203125,-0.047724246978759766,0.033802539110183716
1772726497036786700,1.01978662109375,0.050238609313964844,-0.060460567474365234,-0.015280395746231079
1772726497046304000,1.029303955078125,0.07875633239746094,-0.03157949447631836,-0.0419030487537384
1772726497055821800,1.03882177734375,0.05525970458984375,0.012756824493408203,-0.04983508586883545
1772726497065339100,1.048339111328125,-0.02657794952392578,0.03036975860595703,0.01387980580329895
1772726497074857000,1.05785693359375,-0.13562297821044922,0.020250320434570312,0.07265731692314148
1772726497084374300,1.067374267578125,-0.23160171508789062,-0.012071609497070312,0.020413100719451904
1772726497093891800,1.076891845703125,-0.2278146743774414,-0.021275997161865234,-0.0004329383373260498
1772726497103409400,1.086409423828125,-0.20122432708740234,0.015816688537597656,0.0028316080570220947
1772726497112927000,1.095927001953125,-0.21334266662597656,0.030147075653076172,0.025509774684906006
1772726497122444500,1.105444580078125,-0.19997501373291016,0.026758670806884766,0.08616989850997925
1772726497131962000,1.114962158203125,-0.11660480499267578,0.007788181304931641,0.09228354692459106
1772726497141479700,1.124479736328125,-0.011061668395996094,0.00093841552734375,0.07825949788093567
1772726497150997200,1.133997314453125,0.10494804382324219,-0.02763843536376953,-0.12246334552764893
1772726497160514800,1.143514892578125,0.2903118133544922,-0.1915130615234375,-0.38049325346946716
1772726497170032400,1.153032470703125,0.3816347122192383,-0.056240081787109375,0.0620480477809906
1772726497179550000,1.162550048828125,0.3623218536376953,0.1415863037109375,-0.01857548952102661
1772726497189067500,1.172067626953125,0.36116886138916016,0.15670394897460938,0.11619265377521515
1772726497198585000,1.181585205078125,0.2811269760131836,0.11757993698120117,0.14622609317302704
1772726497208102700,1.1911025390625,0.19365501403808594,0.02130889892578125,0.07260441780090332
1772726497217620200,1.2006201171875,0.0771932601928711,-0.03106403350830078,0.01688435673713684
1772726497227137800,1.2101376953125,-0.07543563842773438,-0.03423357009887695,0.06172972917556763
1772726497236655400,1.2196552734375,-0.18894386291503906,-0.008951663970947266,0.11795926094055176
1772726497246172700,1.229172607421875,-0.22890090942382812,0.05640983581542969,0.10173365473747253
1772726497255690500,1.2386904296875,-0.21051692962646484,0.06421661376953125,0.05181264877319336
1772726497265207800,1.248207763671875,-0.18148040771484375,0.06641769409179688,-0.003543764352798462
1772726497274725400,1.257725341796875,-0.14156436920166016,0.03405904769897461,-0.0000794827938079834
1772726497284243200,1.2672431640625,-0.08836650848388672,0.021320819854736328,0.016184478998184204
1772726497293760500,1.276760498046875,-0.03834819793701172,0.006235599517822266,-0.03230094909667969
1772726497303278000,1.286278076171875,0.015838623046875,-0.006929874420166016,-0.08769303560256958
1772726497312795600,1.295795654296875,0.04599761962890625,-0.03017139434814453,-0.05072367191314697
1772726497322313200,1.305313232421875,0.024194717407226562,-0.030165672302246094,-0.04754155874252319
1772726497331830800,1.314830810546875,0.014685630798339844,-0.00933837890625,-0.06334176659584045
1772726497341348400,1.324348388671875,-0.027426719665527344,-0.017451763153076172,-0.03624469041824341
1772726497350866000,1.333865966796875,-0.06188011169433594,-0.03458261489868164,0.00035065412521362305
1772726497360383500,1.343383544921875,-0.0795450210571289,-0.03433990478515625,0.01603299379348755
1772726497369901000,1.352901123046875,-0.05027961730957031,-0.030818939208984375,0.041246622800827026
1772726497379418600,1.362418701171875,-0.02904987335205078,-0.01455831527709961,0.01424524188041687
1772726497388936200,1.371936279296875,-0.034424781799316406,0.016327857971191406,-0.003003060817718506
1772726497398453800,1.381453857421875,-0.06354141235351562,0.03555011749267578,-0.013213157653808594
1772726497407971300,1.390971435546875,-0.0830392837524414,0.022077083587646484,-0.007142186164855957
1772726497417489000,1.400489013671875,-0.11186885833740234,0.018747806549072266,-0.0037004053592681885
1772726497427006500,1.41000634765625,-0.10279560089111328,-0.0028371810913085938,0.035313695669174194
1772726497436524000,1.41952392578125,-0.08944892883300781,0.00013256072998046875,0.04613757133483887
1772726497446041600,1.42904150390625,0.013174057006835938,0.021828174591064453,0.030214130878448486
1772726497455559000,1.438558837890625,0.1663827896118164,0.035079002380371094,0.006402313709259033
1772726497465076700,1.44807666015625,0.2662191390991211,0.006043910980224609,0.0012808442115783691
1772726497474594000,1.457593994140625,0.3421001434326172,-0.006482601165771484,-0.10909080505371094
1772726497484111600,1.467111572265625,0.27682971954345703,-0.03347587585449219,-0.16287818551063538
1772726497493629400,1.47662939453125,0.17586135864257812,-0.0666360855102539,-0.09901893138885498
1772726497503146800,1.486146728515625,0.04158306121826172,-0.08572912216186523,-0.01224568486213684
1772726497512664300,1.495664306640625,-0.07914447784423828,-0.006922721862792969,0.03705799579620361
1772726497522182000,1.505181884765625,-0.2059307098388672,0.0517268180847168,-0.006481200456619263
1772726497531699500,1.514699462890625,-0.2872142791748047,0.08880472183227539,-0.005427002906799316
1772726497541217000,1.524217041015625,-0.2483377456665039,0.0478367805480957,-0.011169642210006714
1772726497550734600,1.533734619140625,-0.1780853271484375,0.002337932586669922,-0.04879039525985718
1772726497560252200,1.543252197265625,-0.0787954330444336,-0.004102230072021484,-0.07593515515327454
1772726497569769700,1.552769775390625,0.03073406219482422,-0.008508682250976562,-0.08098623156547546
1772726497579287300,1.562287353515625,0.0847616195678711,-0.004460334777832031,-0.042323291301727295
1772726497588804900,1.571804931640625,0.14103126525878906,0.009601116180419922,0.0027435719966888428
1772726497598322400,1.581322509765625,0.17364215850830078,0.014699459075927734,0.05253952741622925
1772726497607840000,1.590840087890625,0.2086782455444336,0.0019707679748535156,0.09034398198127747
1772726497617357600,1.600357666015625,0.19186687469482422,0.021366119384765625,0.06215032935142517
1772726497626875100,1.609875244140625,0.09794902801513672,0.021090984344482422,0.03249245882034302
1772726497636392700,1.619392822265625,0.024446487426757812,0.016065120697021484,0.07158809900283813
1772726497645910300,1.62891015625,-0.07870006561279297,-0.002361774444580078,0.11984232068061829
1772726497655427800,1.638427734375,-0.1311969757080078,0.020620346069335938,0.1117316484451294
1772726497664945200,1.647945068359375,-0.20249176025390625,-0.0020208358764648438,0.08259007334709167
1772726497674463000,1.657462890625,-0.20989513397216797,0.019814014434814453,0.05127549171447754
1772726497683980500,1.66698046875,-0.1848745346069336,0.000308990478515625,-0.000683903694152832
1772726497693497900,1.676497802734375,-0.12534809112548828,0.028998851776123047,0.00015163421630859375
1772726497703015700,1.686015625,-0.01732158660888672,-0.015845298767089844,0.015667080879211426
1772726497712533000,1.695532958984375,0.13162994384765625,-0.027780532836914062,0.005230724811553955
1772726497722050800,1.70505078125,0.20350074768066406,-0.04577159881591797,-0.01748529076576233
1772726497731568000,1.714568115234375,0.23486709594726562,-0.013299942016601562,-0.029365360736846924
1772726497741085700,1.724085693359375,0.1839284896850586,-0.04382896423339844,-0.06760352849960327
1772726497750603300,1.733603271484375,0.08944988250732422,-0.05338907241821289,-0.06083953380584717
1772726497760120800,1.743120849609375,0.03654289245605469,-0.04866600036621094,-0.05191844701766968
1772726497769638400,1.752638427734375,-0.027454376220703125,0.0034952163696289062,-0.04766589403152466
1772726497779156000,1.762156005859375,-0.0929861068725586,0.0271148681640625,-0.047876983880996704
1772726497788673500,1.771673583984375,-0.1577434539794922,0.05106496810913086,-0.028824657201766968
1772726497798191000,1.781191162109375,-0.20536422729492188,0.02144622802734375,0.02593103051185608
1772726497807708700,1.790708740234375,-0.13255786895751953,0.030746936798095703,0.07488217949867249
1772726497817226200,1.800226318359375,-0.03282928466796875,0.051857948303222656,0.00519561767578125
1772726497826743800,1.809743896484375,0.025241851806640625,0.013735771179199219,-0.0027399659156799316
1772726497836261400,1.819261474609375,0.056571006774902344,-0.0028247833251953125,0.01977938413619995
1772726497845779000,1.828779052734375,0.05214881896972656,0.016087055206298828,0.0424344539642334
1772726497855296500,1.838296630859375,0.0456085205078125,0.0343785285949707,0.013510048389434814
1772726497864814000,1.84781396484375,0.051070213317871094,0.021457195281982422,-0.010758131742477417
1772726497874331600,1.85733154296875,0.00960540771484375,0.017692089080810547,-0.036863893270492554
1772726497883849200,1.86684912109375,-0.02388477325439453,0.00886392593383789,-0.026407331228256226
1772726497893366800,1.87636669921875,0.011595726013183594,0.0045719146728515625,0.00353163480758667
1772726497902884400,1.88588427734375,0.04437446594238281,-0.009643077850341797,-0.012440323829650879
1772726497912402000,1.89540185546875,0.0626993179321289,-0.0030832290649414062,-0.044513195753097534
1772726497921919200,1.904919189453125,0.09038066864013672,-0.051377296447753906,-0.05359750986099243
1772726497931437000,1.91443701171875,0.08476638793945312,-0.0685267448425293,-0.0015448033809661865
1772726497940954400,1.923954345703125,0.08152198791503906,-0.0146331787109375,0.04494601488113403
1772726497950472000,1.933471923828125,0.016782760620117188,0.013310432434082031,0.029711365699768066
1772726497959989800,1.94298974609375,-0.0686178207397461,0.00908041000366211,-0.0016051530838012695
1772726497969507000,1.952507080078125,-0.0872802734375,0.013210296630859375,-0.03244304656982422
1772726497979024600,1.962024658203125,-0.05197715759277344,-0.01699686050415039,-0.020147770643234253
1772726497988542200,1.971542236328125,0.03896903991699219,0.0056304931640625,-0.03104269504547119
1772726497998059800,1.981059814453125,0.08838176727294922,0.018529891967773438,0.014988213777542114
1772726498007577300,1.990577392578125,0.10660839080810547,-0.006935596466064453,0.01767978072166443
1772726498017095000,2.000094970703125,0.0850067138671875,0.006997108459472656,0.015663444995880127
1772726498026612500,2.009612548828125,0.0807638168334961,0.019515514373779297,-0.007941603660583496
1772726498036130000,2.019130126953125,0.0700540542602539,-0.0022482872009277344,-0.026400268077850342
1772726498045647600,2.028647705078125,0.048195838928222656,0.017814159393310547,-0.05071908235549927
1772726498055165200,2.038165283203125,0.04824256896972656,0.02744579315185547,-0.03319668769836426
1772726498064682800,2.047682861328125,0.03671836853027344,0.022493839263916016,0.004403144121170044
1772726498074200300,2.057200439453125,0.041884422302246094,0.0011653900146484375,0.039964377880096436
1772726498083718000,2.0667177734375,0.030379295349121094,-0.007777214050292969,-0.007221728563308716
1772726498093235500,2.0762353515625,-0.018909454345703125,-0.0018329620361328125,-0.029030978679656982
1772726498102753000,2.0857529296875,-0.051352500915527344,0.016598224639892578,-0.05240815877914429
1772726498112270600,2.0952705078125,-0.01763629913330078,-0.014285087585449219,-0.06822097301483154
1772726498121788200,2.1047880859375,0.010890007019042969,-0.0025720596313476562,-0.10389664769172668
1772726498131305700,2.1143056640625,-0.005503654479980469,-0.0128021240234375,-0.0426064133644104
1772726498140823300,2.1238232421875,-0.03774070739746094,-0.0259246826171875,0.05128669738769531
1772726498150340900,2.1333408203125,-0.052840232849121094,-0.03661632537841797,0.09614992141723633
1772726498159858200,2.142858154296875,-0.060769081115722656,-0.006659030914306641,0.11897650361061096
1772726498169376000,2.1523759765625,-0.09487628936767578,0.0002980232238769531,0.07453367114067078
1772726498178893300,2.161893310546875,-0.1242818832397461,-0.00804901123046875,0.04309636354446411
1772726498188411000,2.171410888671875,-0.10423564910888672,-0.05057239532470703,0.005151629447937012
1772726498197928700,2.1809287109375,-0.04230022430419922,-0.05684041976928711,0.012164086103439331
1772726498207446000,2.190446044921875,0.016488075256347656,-0.0305938720703125,-0.007115691900253296
1772726498216963600,2.199963623046875,-0.007542610168457031,0.03647422790527344,-0.023398667573928833
1772726498226481200,2.209481201171875,0.040184974670410156,0.04429912567138672,-0.01329377293586731
1772726498235998700,2.218998779296875,0.06888484954833984,0.045957088470458984,-0.032276272773742676
1772726498245516300,2.228516357421875,0.024260520935058594,0.002521514892578125,-0.07881432771682739
1772726498255033900,2.238033935546875,-0.029468536376953125,-0.015889644622802734,-0.09630715847015381
1772726498264551400,2.247551513671875,-0.12310028076171875,-0.01592540740966797,-0.08699986338615417
1772726498274069000,2.257069091796875,-0.15021705627441406,-0.011637687683105469,-0.02433258295059204
1772726498283586600,2.266586669921875,-0.14231300354003906,-0.01051473617553711,0.03541406989097595
1772726498293104000,2.276104248046875,-0.09263038635253906,0.01515817642211914,0.08099190890789032
1772726498302621700,2.28562158203125,-0.008518218994140625,0.031153202056884766,0.10328035056591034
1772726498312139300,2.29513916015625,0.050914764404296875,0.008726119995117188,0.11388826370239258
1772726498321656800,2.30465673828125,0.12392902374267578,-0.035436153411865234,0.05678664147853851
1772726498331174400,2.31417431640625,0.20828628540039062,-0.02166128158569336,-0.0025185048580169678
1772726498340692000,2.32369189453125,0.24053573608398438,-0.01975536346435547,0.027472347021102905
1772726498350209500,2.33320947265625,0.22137165069580078,-0.024491310119628906,0.07619220018386841
1772726498359727000,2.34272705078125,0.1511545181274414,-0.03235769271850586,0.13358551263809204
1772726498369244700,2.35224462890625,0.09598350524902344,-0.023138999938964844,0.06699991226196289
1772726498378762200,2.36176220703125,0.02210235595703125,0.03934431076049805,-0.04700574278831482
1772726498388279800,2.37127978515625,-0.06322097778320312,0.0415043830871582,-0.09910249710083008
1772726498397797400,2.38079736328125,-0.08185005187988281,0.03789663314819336,-0.06800836324691772
1772726498407315000,2.39031494140625,-0.05088329315185547,0.022945404052734375,-0.003250688314437866
1772726498416832500,2.39983251953125,-0.027204513549804688,-0.0016775131225585938,0.05721235275268555
1772726498426350000,2.40935009765625,0.017823219299316406,-0.0482025146484375,0.04043984413146973
1772726498435867600,2.41886767578125,0.06755542755126953,-0.041441917419433594,-0.0015929937362670898
1772726498445385000,2.428385009765625,0.10779285430908203,-0.015278816223144531,-0.03402191400527954
1772726498454902800,2.43790283203125,0.08907413482666016,0.0020933151245117188,-0.060553163290023804
1772726498464420000,2.447420166015625,0.04733753204345703,-0.01433420181274414,-0.0885033905506134
1772726498473937700,2.456937744140625,-0.03619861602783203,0.00977182388305664,-0.07906448841094971
1772726498483455500,2.46645556640625,-0.0999298095703125,0.006120204925537109,-0.03945305943489075
1772726498492972800,2.475972900390625,-0.14917755126953125,0.04168224334716797,-0.007723420858383179
1772726498502490400,2.485490478515625,-0.2454833984375,0.0619964599609375,0.03344956040382385
1772726498512008000,2.495008056640625,-0.27047061920166016,0.003939628601074219,0.030151963233947754
1772726498521525500,2.504525390625,-0.21821880340576172,0.002780914306640625,-0.005626857280731201
1772726498531043000,2.51404296875,-0.16029930114746094,0.019249439239501953,0.011002808809280396
1772726498540560600,2.523560546875,-0.07287025451660156,0.0027570724487304688,0.006234407424926758
1772726498550078200,2.533078125,0.0039119720458984375,0.009590625762939453,0.0038633346557617188
1772726498559595800,2.542595703125,0.079925537109375,-0.0036559104919433594,0.001052170991897583
1772726498569113300,2.55211328125,0.19080066680908203,0.007338523864746094,-0.0024024248123168945
1772726498578631000,2.561630859375,0.2654762268066406,-0.0003943443298339844,-0.0177861750125885
1772726498588148500,2.5711484375,0.23861217498779297,-0.03343391418457031,0.030789822340011597
1772726498597666000,2.580666015625,0.16312122344970703,-0.04309558868408203,0.07188490033149719
1772726498607183600,2.59018359375,0.0723562240600586,-0.01477670669555664,0.061101242899894714
1772726498616701200,2.599701171875,-0.01966571807861328,0.016355037689208984,0.029603004455566406
1772726498626218800,2.60921875,-0.0800943374633789,0.043389320373535156,-0.032255858182907104
1772726498635736300,2.618736328125,-0.14946365356445312,0.033507347106933594,-0.04110410809516907
1772726498645254000,2.62825390625,-0.185150146484375,0.03889036178588867,-0.006343543529510498
1772726498654771500,2.637771484375,-0.1334981918334961,-0.013906002044677734,0.04964485764503479
1772726498664289000,2.6472890625,-0.07342147827148438,0.000324249267578125,0.03162330389022827
1772726498673806600,2.656806640625,0.01631641387939453,0.014098167419433594,-0.015118986368179321
1772726498683324200,2.66632421875,0.060077667236328125,0.03182172775268555,-0.019232898950576782
1772726498692841700,2.675841796875,0.06805706024169922,0.036916255950927734,0.02554181218147278
1772726498702359000,2.685359130859375,0.036034584045410156,0.013385295867919922,0.010456353425979614
1772726498711876600,2.694876708984375,0.01632213592529297,-0.014456748962402344,-0.018161773681640625
1772726498721394400,2.70439453125,0.00876617431640625,-0.006648540496826172,-0.019951343536376953
1772726498730912000,2.713912109375,0.09336090087890625,0.026397705078125,0.033101826906204224
1772726498740429300,2.72342919921875,0.10400867462158203,0.025121688842773438,0.013057291507720947
1772726498749947100,2.732947021484375,0.051344871520996094,0.0089263916015625,0.007873833179473877
1772726498759464400,2.74246435546875,0.03734588623046875,-0.0026445388793945312,0.03984278440475464
1772726498768982300,2.751982177734375,-0.021259307861328125,0.0002980232238769531,0.0065651535987854
1772726498778499600,2.76149951171875,-0.07454586029052734,0.00395965576171875,-0.02651113271713257
1772726498788017200,2.77101708984375,-0.11090850830078125,0.04383277893066406,0.0002048015594482422
1772726498797535000,2.780534912109375,-0.09066581726074219,0.029969215393066406,0.06444364786148071
1772726498807052300,2.79005224609375,-0.0830230712890625,0.00566864013671875,0.06189562380313873
1772726498816569900,2.79956982421875,-0.056921958923339844,0.02468729019165039,-0.003614753484725952
1772726498826087400,2.80908740234375,-0.02417755126953125,0.03156709671020508,-0.007082939147949219
1772726498835605000,2.81860498046875,0.0036478042602539062,-0.0118560791015625,0.012392640113830566
1772726498845122600,2.82812255859375,0.04570484161376953,-0.0417327880859375,0.016913771629333496
1772726498854640000,2.83764013671875,0.09488677978515625,0.00482940673828125,-0.007364332675933838
1772726498864157700,2.84715771484375,0.14634037017822266,0.01836681365966797,-0.008371502161026001
1772726498873675300,2.85667529296875,0.13878154754638672,0.023171424865722656,-0.0022753477096557617
1772726498883192800,2.86619287109375,0.09164714813232422,-0.017420291900634766,0.046552449464797974
1772726498892710400,2.87571044921875,0.016948699951171875,-0.012357711791992188,0.04774966835975647
1772726498902228000,2.88522802734375,-0.07828998565673828,-0.015482902526855469,0.025147169828414917
1772726498911745500,2.89474560546875,-0.12337398529052734,0.02094888687133789,-0.0061521828174591064
1772726498921263000,2.90426318359375,-0.14014816284179688,0.07012462615966797,-0.016490042209625244
1772726498930780700,2.91378076171875,-0.16652202606201172,0.07491016387939453,-0.015592575073242188
1772726498940298200,2.92329833984375,-0.1788339614868164,0.06658649444580078,0.006616532802581787
1772726498949815800,2.93281591796875,-0.1818685531616211,0.040252685546875,-0.0029389262199401855
1772726498959333400,2.94233349609375,-0.08393669128417969,0.005349159240722656,-0.08275315165519714
1772726498968851000,2.951850830078125,-0.008961677551269531,-0.024176597595214844,-0.11247596144676208
1772726498978368500,2.961368408203125,0.03652763366699219,-0.04395866394042969,-0.0968552827835083
1772726498987886000,2.970885986328125,0.0791616439819336,-0.02867889404296875,-0.013447433710098267
1772726498997403600,2.980403564453125,0.11451530456542969,-0.002852916717529297,0.06976303458213806
1772726499006921200,2.989921142578125,0.11222553253173828,-0.02803945541381836,0.08257672190666199
1772726499016438800,2.999438720703125,0.0799264907836914,-0.002071857452392578,0.06662562489509583
1772726499025956400,3.008956298828125,0.07211685180664062,-0.014963626861572266,0.0646202564239502
1772726499035474000,3.018473876953125,0.0528106689453125,0.02390432357788086,0.05433812737464905
1772726499044991500,3.027991455078125,0.0055179595947265625,0.019969463348388672,0.03291234374046326
1772726499054508800,3.0375087890625,-0.050713539123535156,0.005008697509765625,0.025829970836639404
1772726499064026600,3.047026611328125,-0.08066844940185547,0.0313868522644043,0.02700561285018921
1772726499073544000,3.0565439453125,-0.12246513366699219,0.02323007583618164,0.003845036029815674
1772726499083061500,3.0660615234375,-0.14532852172851562,0.030569076538085938,-0.033464670181274414
1772726499092579300,3.075579345703125,-0.13291454315185547,0.017487049102783203,-0.06299072504043579
1772726499102096600,3.0850966796875,-0.050212860107421875,0.03310394287109375,-0.08440926671028137
1772726499111614200,3.0946142578125,0.0762319564819336,-0.0065479278564453125,-0.09363740682601929
1772726499121131800,3.1041318359375,0.16588783264160156,-0.023421287536621094,-0.09425929188728333
1772726499130649300,3.1136494140625,0.16772079467773438,-0.041687965393066406,-0.12421637773513794
1772726499140167200,3.123167236328125,0.11833381652832031,-0.0539393424987793,-0.11951270699501038
1772726499149684500,3.1326845703125,0.048829078674316406,-0.03595542907714844,-0.04017534852027893
1772726499159202000,3.1422021484375,-0.033659934997558594,-0.025220394134521484,-0.03673967719078064
1772726499168719600,3.1517197265625,-0.03022003173828125,0.004581451416015625,-0.01571047306060791
1772726499178237200,3.1612373046875,-0.027055740356445312,-0.0008325576782226562,-0.03845450282096863
1772726499187754800,3.170754638671875,-0.002910614013671875,0.008325576782226562,-0.034293413162231445
1772726499197272300,3.180272216796875,0.02548694610595703,0.010373115539550781,-0.025571167469024658
1772726499206790000,3.189789794921875,0.00389862060546875,0.007887840270996094,-0.0124950110912323
1772726499216307500,3.199307373046875,-0.017472267150878906,0.010409832000732422,-0.0002849400043487549
1772726499225825000,3.208824951171875,-0.041085243225097656,0.018062591552734375,-0.015067130327224731
1772726499235342600,3.218342529296875,-0.02692413330078125,-0.004492759704589844,-0.014077484607696533
1772726499244860200,3.227860107421875,0.012789726257324219,-0.005298137664794922,-0.036752015352249146
1772726499254377700,3.237377685546875,0.042511940002441406,-0.003894329071044922,-0.01170337200164795
1772726499263895300,3.246895263671875,0.09090328216552734,0.020348072052001953,0.04454523324966431
1772726499273412900,3.256412841796875,0.1319866180419922,0.01011514663696289,0.051573097705841064
1772726499282930400,3.265930419921875,0.1376495361328125,-0.010547161102294922,0.04245063662528992
1772726499292448000,3.275447998046875,0.07773113250732422,-0.010512828826904297,0.026910603046417236
1772726499301965600,3.284965576171875,0.02117919921875,0.008356571197509766,0.01451021432876587
1772726499311483100,3.294483154296875,-0.011084556579589844,-0.0009074211120605469,0.02840113639831543
1772726499321000700,3.304000732421875,-0.02670001983642578,0.02605152130126953,-0.01223611831665039
1772726499330518300,3.313518310546875,-0.030727386474609375,-0.007735729217529297,-0.010773926973342896
1772726499340035800,3.323035888671875,-0.02563762664794922,-0.021427631378173828,-0.05040469765663147
1772726499349553400,3.332553466796875,0.009856224060058594,0.009966373443603516,-0.057256489992141724
1772726499359071000,3.342071044921875,0.0071392059326171875,0.007790565490722656,-0.036299437284469604
1772726499368588500,3.351588623046875,-0.009538650512695312,-0.0016150474548339844,-0.01993235945701599
1772726499378106000,3.361106201171875,-0.05644702911376953,-0.01566934585571289,0.006551682949066162
1772726499387623700,3.370623779296875,-0.03420448303222656,-0.02968883514404297,0.04548758268356323
1772726499397141200,3.380141357421875,0.008931159973144531,-0.050688743591308594,0.03247493505477905
1772726499406658800,3.389658935546875,0.06796073913574219,-0.03170585632324219,0.016583174467086792
1772726499416176400,3.39917626953125,0.08141899108886719,-0.022824764251708984,-0.03106635808944702
1772726499425693700,3.408693603515625,0.08541393280029297,0.008965492248535156,-0.07209503650665283
1772726499435211500,3.41821142578125,0.04960918426513672,-0.005095005035400391,-0.030533015727996826
1772726499444729000,3.42772900390625,-0.001865386962890625,-0.019328594207763672,0.0013574659824371338
1772726499454246400,3.437246337890625,-0.07126522064208984,-0.052141666412353516,0.026814311742782593
1772726499463764200,3.44676416015625,-0.045439720153808594,-0.011250972747802734,0.03913992643356323
1772726499473281500,3.456281494140625,-0.0036878585815429688,0.005745887756347656,0.05683580040931702
1772726499482799000,3.465799072265625,-0.04765510559082031,0.016072750091552734,0.04814758896827698
1772726499492317000,3.47531689453125,-0.09374141693115234,0.006033420562744141,0.00537148118019104
1772726499501834200,3.484834228515625,-0.12320327758789062,-0.02143239974975586,-0.023984193801879883
1772726499511352000,3.49435205078125,-0.09851360321044922,0.025472640991210938,-0.05071955919265747
1772726499520869400,3.503869384765625,-0.025011062622070312,0.04142141342163086,-0.013428062200546265
1772726499530387000,3.513386962890625,0.07088470458984375,0.04748725891113281,0.02541196346282959
1772726499539904800,3.52290478515625,0.1491527557373047,0.010166168212890625,-0.0019121766090393066
1772726499549422000,3.532422119140625,0.15622806549072266,-0.01386117935180664,-0.0042701661586761475
1772726499558939600,3.541939697265625,0.1450643539428711,-0.029564380645751953,0.06215071678161621
1772726499568457200,3.551457275390625,0.1559000015258789,-0.036982059478759766,0.0803457647562027
1772726499577974800,3.560974853515625,0.1339740753173828,-0.007406711578369141,0.02537599205970764
1772726499587492400,3.570492431640625,0.056059837341308594,-0.011527538299560547,-0.0005932748317718506
1772726499597010000,3.580010009765625,0.005091667175292969,-0.015162467956542969,0.02433881163597107
1772726499606527500,3.589527587890625,-0.014908790588378906,-0.05780601501464844,0.035902202129364014
1772726499616045000,3.599045166015625,-0.08442211151123047,-0.056409358978271484,0.005365431308746338
1772726499625562600,3.608562744140625,-0.1131277084350586,-0.049504756927490234,-0.007337212562561035
1772726499635080200,3.618080078125,-0.146148681640625,-0.0071048736572265625,0.017138749361038208
1772726499644597800,3.62759765625,-0.2186126708984375,0.03003692626953125,0.012838244438171387
1772726499654115300,3.637115234375,-0.23102188110351562,0.007793426513671875,0.04996973276138306
1772726499663633000,3.6466328125,-0.18695354461669922,-0.03249311447143555,-0.00799456238746643
1772726499673150500,3.656150390625,-0.10396957397460938,-0.0479741096496582,-0.07873070240020752
1772726499682668000,3.66566796875,-0.041571617126464844,-0.057938575744628906,-0.13755765557289124
1772726499692185600,3.675185546875,0.02663135528564453,-0.05577516555786133,-0.12117546796798706
1772726499701703200,3.684703125,0.11974716186523438,-0.04469585418701172,-0.07817581295967102
1772726499711220700,3.694220703125,0.1365032196044922,-0.027710914611816406,-0.013646334409713745
1772726499720738300,3.70373828125,0.11810779571533203,-0.023529052734375,0.05179855227470398
1772726499730256000,3.713255859375,0.14504337310791016,-0.04349851608276367,0.07090730965137482
1772726499739773400,3.7227734375,0.12950992584228516,-0.03788185119628906,0.029719501733779907
1772726499749291000,3.732291015625,0.12640094757080078,0.00919961929321289,-0.01921728253364563
1772726499758808600,3.74180859375,0.1000518798828125,-0.003848552703857422,0.010185182094573975
1772726499768326100,3.751326171875,0.052997589111328125,0.0138092041015625,0.02686437964439392
1772726499777843700,3.76084375,0.015960693359375,0.012715816497802734,-0.011141806840896606
1772726499787361300,3.770361328125,-0.04428577423095703,0.04755973815917969,-0.006451278924942017
1772726499796878800,3.77987890625,-0.10171890258789062,0.05708646774291992,0.009605050086975098
1772726499806396400,3.789396484375,-0.11870002746582031,0.08165454864501953,0.001737445592880249
1772726499815914000,3.7989140625,-0.09572315216064453,0.07123327255249023,-0.04578542709350586
1772726499825431600,3.808431640625,-0.0285797119140625,0.02840137481689453,-0.04514437913894653
1772726499834949000,3.81794921875,0.016449928283691406,-0.021142959594726562,-0.027778327465057373
1772726499844466700,3.827466796875,0.09421253204345703,-0.033355712890625,-0.02915710210800171
1772726499853984000,3.83698388671875,0.11716175079345703,-0.037245750427246094,-0.01644313335418701
1772726499863501800,3.846501708984375,0.0649871826171875,-0.03289985656738281,-0.014047414064407349
1772726499873019400,3.856019287109375,-0.02390766143798828,-0.04288911819458008,-0.009631484746932983
1772726499882537000,3.865536865234375,-0.1564350128173828,-0.033003807067871094,-0.0005903840065002441
1772726499892054500,3.875054443359375,-0.22634124755859375,-0.012267589569091797,0.047856807708740234
1772726499901571800,3.88457177734375,-0.26768016815185547,-0.02777576446533203,0.026749908924102783
1772726499911089700,3.894089599609375,-0.25499725341796875,-0.03197002410888672,0.007785439491271973
1772726499920607200,3.903607177734375,-0.2547950744628906,-0.04677438735961914,0.02207544445991516
1772726499930124500,3.91312451171875,-0.21491241455078125,-0.07001924514770508,0.03901606798171997
1772726499939642400,3.922642333984375,-0.13808631896972656,-0.050366878509521484,0.033119261264801025
1772726499949160000,3.932159912109375,-0.03412628173828125,-0.057233333587646484,0.07771018147468567
1772726499958677200,3.94167724609375,0.061321258544921875,-0.043315887451171875,0.06631496548652649
1772726499968195000,3.951195068359375,0.13905906677246094,-0.02092885971069336,0.08157500624656677
1772726499977712400,3.96071240234375,0.17350292205810547,0.019086837768554688,0.03225186467170715
1772726499987230000,3.97022998046875,0.1865711212158203,0.02931690216064453,-0.000773012638092041
1772726499996747800,3.979747802734375,0.20925426483154297,0.0548548698425293,-0.05789497494697571
1772726500006265000,3.98926513671875,0.15421199798583984,0.046292781829833984,-0.05876857042312622
1772726500015782700,3.99878271484375,0.09794425964355469,0.06563520431518555,-0.01521998643875122
1772726500025300500,4.008300537109375,0.03571319580078125,0.0866999626159668,0.009266793727874756
1772726500034817800,4.01781787109375,-0.006649017333984375,0.053354740142822266,0.02019980549812317
1772726500044335400,4.02733544921875,0.0294952392578125,0.08620309829711914,0.025114089250564575
1772726500053853000,4.03685302734375,0.05120277404785156,0.04970884323120117,0.05419018864631653
1772726500063370500,4.04637060546875,0.03515052795410156,0.01095438003540039,0.05245122313499451
1772726500072888000,4.05588818359375,-0.0042743682861328125,0.010703086853027344,0.047972023487091064
1772726500082405600,4.065405517578125,-0.0034971237182617188,0.0042819976806640625,0.03042733669281006
1772726500091923200,4.074923095703125,-0.007785797119140625,0.022162437438964844,-0.020868897438049316
1772726500101440800,4.084440673828125,-0.06406307220458984,0.02623748779296875,-0.019922971725463867
1772726500110958300,4.093958251953125,-0.09845447540283203,-0.0045795440673828125,0.02069091796875
1772726500120476000,4.103475830078125,-0.10180950164794922,-0.015744686126708984,0.05656111240386963
1772726500129993500,4.112993408203125,-0.14519596099853516,-0.012299060821533203,0.048804253339767456
1772726500139511000,4.122510986328125,-0.13385772705078125,-0.02271127700805664,0.05864271521568298
1772726500149028600,4.132028564453125,-0.09688568115234375,-0.023435115814208984,0.05148577690124512
1772726500158546200,4.141546142578125,-0.04870128631591797,-0.0219573974609375,-0.017105787992477417
1772726500168063700,4.151063720703125,-0.020124435424804688,-0.015856266021728516,-0.035392552614212036
1772726500177581300,4.160581298828125,-0.011116981506347656,-0.011697769165039062,0.009128540754318237
1772726500187099000,4.170098876953125,-0.04021930694580078,-0.016400814056396484,0.007401585578918457
1772726500196616400,4.179616455078125,-0.010133743286132812,0.012173652648925781,-0.001355499029159546
1772726500206134000,4.189134033203125,0.005465507507324219,0.054137229919433594,-0.0024757683277130127
1772726500215651600,4.198651611328125,0.0634603500366211,0.06185293197631836,0.06534004211425781
1772726500225169200,4.208169189453125,0.1280202865600586,0.042588233947753906,0.05271157622337341
1772726500234686700,4.217686767578125,0.15432071685791016,0.01795673370361328,0.017049551010131836
1772726500244204300,4.227204345703125,0.11003971099853516,0.05627775192260742,0.002832859754562378
1772726500253721900,4.236721923828125,0.09027767181396484,0.043976783752441406,0.0024868249893188477
1772726500263239400,4.246239501953125,0.045020103454589844,0.01295328140258789,-0.00460284948348999
1772726500272757000,4.255757080078125,0.02392101287841797,0.003928184509277344,0.019509315490722656
1772726500282274600,4.265274658203125,0.01945209503173828,0.009584903717041016,0.019662588834762573
1772726500291792100,4.274792236328125,-0.0015554428100585938,-0.055179595947265625,0.035610005259513855
1772726500301309700,4.284309814453125,0.03428840637207031,-0.050681114196777344,-0.014436066150665283
1772726500310827300,4.2938271484375,-0.03386974334716797,-0.0017576217651367188,-0.04384493827819824
1772726500320344800,4.3033447265625,-0.1244354248046875,-0.012406349182128906,0.007761120796203613
1772726500329862400,4.3128623046875,-0.16681766510009766,-0.0009174346923828125,-0.00570330023765564
1772726500339380000,4.3223798828125,-0.1337881088256836,-0.021387100219726562,-0.07438972592353821
1772726500348897500,4.3318974609375,-0.09499454498291016,-0.03533649444580078,-0.07790553569793701
1772726500358415000,4.3414150390625,-0.06699180603027344,-0.04051971435546875,-0.08526647090911865
1772726500367932700,4.3509326171875,-0.04213428497314453,-0.026128768920898438,-0.05081412196159363
1772726500377450200,4.3604501953125,-0.020112991333007812,0.004660129547119141,0.011489927768707275
1772726500386967800,4.3699677734375,-0.0028409957885742188,0.015505790710449219,0.05280354619026184
1772726500396485400,4.3794853515625,0.0241241455078125,0.018041610717773438,0.09105360507965088
1772726500406003000,4.3890029296875,0.07473468780517578,0.019455909729003906,0.07678462564945221
1772726500415520500,4.3985205078125,0.07315826416015625,-0.008212089538574219,0.06168961524963379
1772726500425038000,4.4080380859375,0.09773540496826172,0.01582813262939453,0.0446760356426239
1772726500434555600,4.4175556640625,0.11955833435058594,0.051177024841308594,0.013293266296386719
1772726500444073200,4.4270732421875,0.0939798355102539,0.055235862731933594,-0.016284465789794922
1772726500453590800,4.4365908203125,0.06402206420898438,0.012319564819335938,-0.02747023105621338
1772726500463108400,4.4461083984375,0.05564689636230469,0.010272026062011719,-0.03215697407722473
1772726500472626000,4.4556259765625,0.047347068786621094,0.024835586547851562,-0.044344574213027954
1772726500482143500,4.4651435546875,0.0155792236328125,0.025188922882080078,-0.07067310810089111
1772726500491661000,4.4746611328125,-0.003936767578125,0.023284435272216797,-0.0658436119556427
1772726500501178600,4.4841787109375,-0.032578468322753906,0.0003361701965332031,-0.06553837656974792
1772726500510696200,4.4936962890625,-0.044322967529296875,-0.026835918426513672,-0.023036032915115356
1772726500520213800,4.5032138671875,-0.018178939819335938,-0.03483772277832031,-0.014334052801132202
1772726500529731300,4.5127314453125,-0.006447792053222656,-0.005320072174072266,-0.033388733863830566
1772726500539249000,4.522248779296875,-0.04879188537597656,-0.002635478973388672,0.0005599856376647949
1772726500548766500,4.531766357421875,-0.09279155731201172,-0.021114349365234375,0.01573064923286438
1772726500558284000,4.541283935546875,-0.09629440307617188,-0.038763999938964844,0.044837236404418945
1772726500567801600,4.550801513671875,-0.14262104034423828,-0.03150653839111328,0.018360406160354614
1772726500577319200,4.560319091796875,-0.16301536560058594,-0.032279014587402344,-0.022833019495010376
1772726500586836700,4.569836669921875,-0.13431835174560547,0.003646373748779297,-0.019328415393829346
1772726500596354300,4.579354248046875,-0.035834312438964844,0.004397869110107422,-0.015774905681610107
1772726500605871900,4.588871826171875,0.06362533569335938,0.018744945526123047,0.026211217045783997
1772726500615389400,4.598389404296875,0.15495586395263672,0.010440826416015625,0.0469638854265213
1772726500624907000,4.607906982421875,0.17496109008789062,0.012339591979980469,0.06046226620674133
1772726500634424300,4.61742431640625,0.15299320220947266,0.022064685821533203,0.03151853382587433
1772726500643942100,4.626942138671875,0.1412363052368164,0.016521930694580078,-0.006965756416320801
1772726500653459700,4.636459716796875,0.12981319427490234,0.04129314422607422,0.0013004839420318604
1772726500662977000,4.64597705078125,0.1114349365234375,0.0329127311706543,-0.004553079605102539
1772726500672494800,4.655494873046875,0.10976028442382812,0.020171165466308594,0.030391141772270203
1772726500682012400,4.665012451171875,0.084564208984375,-0.0016622543334960938,0.05158543586730957
1772726500691529700,4.67452978515625,0.015218734741210938,0.0024881362915039062,0.00944700837135315
1772726500701047600,4.684047607421875,-0.029369354248046875,-0.0030012130737304688,-0.017867088317871094
1772726500710565000,4.693565185546875,-0.05910491943359375,-0.013103961944580078,-0.02849048376083374
1772726500720082700,4.703082763671875,-0.08601951599121094,0.014672279357910156,-0.013044208288192749
1772726500729600300,4.712600341796875,-0.08686637878417969,-0.01866006851196289,0.006184101104736328
1772726500739117600,4.72211767578125,-0.057445526123046875,-0.024885177612304688,-0.022893130779266357
1772726500748635400,4.731635498046875,-0.07588768005371094,-0.018578052520751953,-0.05421534180641174
1772726500758153000,4.741153076171875,-0.08007335662841797,-0.021435260772705078,-0.054672449827194214
1772726500767670300,4.750670166015625,-0.046545982360839844,-0.03836870193481445,-0.04120194911956787
1772726500777188000,4.76018798828125,-0.015748023986816406,-0.03420257568359375,0.01731419563293457
1772726500786705700,4.76970556640625,0.014802932739257812,-0.0070896148681640625,0.0005902945995330811
1772726500796223000,4.779222900390625,0.03316974639892578,-0.008814811706542969,0.034299761056900024
1772726500805740800,4.78874072265625,0.004246711730957031,0.012870311737060547,0.04176291823387146
1772726500815258400,4.79825830078125,-0.010106086730957031,0.003658294677734375,0.011271387338638306
1772726500824775700,4.807775634765625,-0.05494117736816406,-0.002788543701171875,-0.00035372376441955566
1772726500834293500,4.81729345703125,-0.0709686279296875,0.017110347747802734,-0.047483742237091064
1772726500843810800,4.826810791015625,-0.09401893615722656,0.011310100555419922,-0.023160159587860107
1772726500853328400,4.836328369140625,-0.03691673278808594,-0.0009312629699707031,0.005689680576324463
1772726500862846200,4.84584619140625,-0.004458427429199219,0.020341873168945312,0.024741187691688538
1772726500872363500,4.855363525390625,0.06032752990722656,0.04612588882446289,0.019912928342819214
1772726500881881000,4.864881103515625,0.07936859130859375,0.03138399124145508,0.007993549108505249
1772726500891399000,4.87439892578125,0.07468509674072266,0.007228374481201172,0.02012193202972412
1772726500900916200,4.883916259765625,0.10567855834960938,-0.007775306701660156,0.039247870445251465
1772726500910433800,4.893433837890625,0.11773967742919922,0.004774570465087891,0.029250353574752808
1772726500919951600,4.90295166015625,0.09704971313476562,0.006819725036621094,0.012082934379577637
1772726500929469000,4.912468994140625,0.041751861572265625,-0.006019115447998047,0.018975913524627686
1772726500938986800,4.92198681640625,0.011037826538085938,-0.00008916854858398438,0.0143660306930542
1772726500948504000,4.931504150390625,-0.049818992614746094,-0.01994037628173828,0.015301376581192017
1772726500958021600,4.941021728515625,-0.08638668060302734,-0.036487579345703125,0.031270384788513184
1772726500967539500,4.95053955078125,-0.1321096420288086,-0.03075551986694336,0.02173975110054016
1772726500977056800,4.960056884765625,-0.1775674819946289,-0.005208492279052734,-0.03474324941635132
1772726500986574300,4.96957421875,-0.15444564819335938,0.04197263717651367,-0.05308517813682556
1772726500996092200,4.979092041015625,-0.10142135620117188,0.03486776351928711,-0.08590716123580933
1772726501005609500,4.988609375,-0.040017127990722656,0.028140544891357422,-0.09796491265296936
1772726501015127000,4.998126953125,0.010850906372070312,-0.008960247039794922,-0.06925094127655029
1772726501024644900,5.007644775390625,0.07036972045898438,-0.02459239959716797,-0.07349395751953125
1772726501034162200,5.017162109375,0.13147544860839844,-0.03578329086303711,-0.05937454104423523
1772726501043679700,5.0266796875,0.15190696716308594,-0.014563560485839844,0.013943314552307129
1772726501053197600,5.036197509765625,0.12055110931396484,-0.020190715789794922,0.06378848850727081
1772726501062715000,5.04571484375,0.11118602752685547,0.004301548004150391,0.06464722752571106
1772726501072232400,5.055232421875,0.09050655364990234,0.013646602630615234,0.054169729351997375
1772726501081750300,5.064750244140625,0.03972625732421875,0.0178680419921875,0.07991492748260498
1772726501091267600,5.074267578125,-0.01253509521484375,0.031434059143066406,0.06851178407669067
1772726501100785200,5.08378515625,-0.05473041534423828,0.06171607971191406,0.06887444853782654
1772726501110302700,5.093302734375,-0.09667587280273438,0.035954952239990234,0.04942286014556885
1772726501119820300,5.1028203125,-0.08892345428466797,0.05385637283325195,0.046172648668289185
1772726501129337900,5.112337890625,-0.05321979522705078,0.029474258422851562,-0.013089686632156372
1772726501138855400,5.12185546875,-0.03692340850830078,0.03138589859008789,0.0231342613697052
1772726501148373000,5.131373046875,0.028837203979492188,-0.0027518272399902344,-0.01892116665840149
1772726501157890800,5.140890869140625,0.046776771545410156,-0.01116943359375,-0.017860740423202515
1772726501167408000,5.150408203125,0.027044296264648438,-0.03177785873413086,0.012085914611816406
1772726501176925700,5.15992578125,0.038318634033203125,-0.03807830810546875,0.00685611367225647
1772726501186443300,5.169443359375,0.014067649841308594,-0.04417276382446289,-0.028765857219696045
1772726501195960800,5.1789609375,0.01594257354736328,-0.005105018615722656,-0.04508724808692932
1772726501205478400,5.188478515625,-0.015288352966308594,-0.008785247802734375,-0.07346630096435547
1772726501214996200,5.197996337890625,-0.01794147491455078,-0.0026292800903320312,-0.050126075744628906
1772726501224513500,5.207513427734375,-0.02313232421875,-0.014934539794921875,-0.05365082621574402
1772726501234031000,5.217031005859375,-0.04479217529296875,0.006062507629394531,-0.07405403256416321
1772726501243549000,5.226548828125,-0.04486656188964844,0.00772857666015625,-0.03599098324775696
1772726501253066200,5.236066162109375,0.009407997131347656,0.004082679748535156,0.005197644233703613
1772726501262583800,5.245583740234375,0.05120277404785156,0.030673980712890625,-0.022437244653701782
1772726501272101400,5.255101318359375,0.04298973083496094,0.0330357551574707,-0.01711404323577881
1772726501281619000,5.264618896484375,-0.0004787445068359375,0.049677371978759766,-0.02397364377975464
1772726501291136500,5.274136474609375,-0.05748176574707031,0.04051685333251953,0.017024695873260498
1772726501300654000,5.283654052734375,-0.09013652801513672,0.03898191452026367,0.051992446184158325
1772726501310171600,5.293171630859375,-0.09660625457763672,0.040457725524902344,0.06177550554275513
1772726501319689200,5.302689208984375,-0.09860706329345703,0.03328704833984375,0.07877257466316223
1772726501329206800,5.312206787109375,-0.09385395050048828,0.010486602783203125,0.03144353628158569
1772726501338724400,5.321724365234375,-0.04234123229980469,0.009700298309326172,-0.04383423924446106
1772726501348242000,5.331241943359375,0.022481918334960938,0.02998971939086914,-0.04024571180343628
1772726501357759500,5.340759521484375,0.0795297622680664,0.030341148376464844,-0.02453702688217163
1772726501367277000,5.350277099609375,0.15732383728027344,0.008320331573486328,-0.0023479163646698
1772726501376794600,5.359794677734375,0.17090415954589844,-0.019443035125732422,-0.042166292667388916
1772726501386312200,5.369312255859375,0.1330108642578125,-0.0008320808410644531,-0.05530041456222534
1772726501395829800,5.378829833984375,0.08431243896484375,-0.01855325698852539,-0.049236178398132324
1772726501405347600,5.38834765625,0.04816246032714844,-0.0076732635498046875,0.001531839370727539
1772726501414865000,5.397864990234375,0.014563560485839844,0.008631706237792969,0.041910022497177124
1772726501424382500,5.407382568359375,-0.02834606170654297,0.030408859252929688,0.006476908922195435
1772726501433900300,5.416900390625,-0.04043388366699219,0.03408241271972656,-0.01656094193458557
1772726501443417600,5.42641748046875,-0.024335861206054688,0.021784305572509766,-0.008736729621887207
1772726501452935200,5.43593505859375,-0.0132598876953125,0.002734661102294922,0.005940824747085571
1772726501462453000,5.445452880859375,0.023606300354003906,0.014380455017089844,0.029739350080490112
1772726501471970300,5.45497021484375,0.013123512268066406,0.03216075897216797,0.017875999212265015
1772726501481488000,5.46448779296875,0.07381820678710938,0.00870513916015625,0.029566645622253418
1772726501491005700,5.474005615234375,0.08687114715576172,-0.010644912719726562,0.0007043778896331787
1772726501500523000,5.48352294921875,0.03186988830566406,-0.011735916137695312,-0.01810339093208313
1772726501510040600,5.49304052734375,-0.007767677307128906,-0.030002117156982422,-0.02696073055267334
1772726501519558400,5.502558349609375,-0.020776748657226562,-0.03169679641723633,0.0064688026905059814
1772726501529075700,5.51207568359375,-0.021898269653320312,0.02566814422607422,-0.007717758417129517
1772726501538593300,5.52159326171875,-0.05159568786621094,0.00521087646484375,-0.000935971736907959
1772726501548111000,5.531111083984375,-0.0695953369140625,0.0027723312377929688,0.033298999071121216
1772726501557628400,5.54062841796875,-0.09032344818115234,-0.009874343872070312,0.03405734896659851
1772726501567146000,5.55014599609375,-0.10886478424072266,0.00006151199340820312,0.02591070532798767
1772726501576663600,5.55966357421875,-0.09438800811767578,0.0033440589904785156,0.030391573905944824
1772726501586181000,5.56918115234375,-0.0023870468139648438,0.008715629577636719,0.030795812606811523
1772726501595698700,5.57869873046875,0.09090232849121094,0.0341801643371582,0.04144766926765442
1772726501605216300,5.58821630859375,0.1267414093017578,0.020329952239990234,0.029010653495788574
1772726501614733800,5.59773388671875,0.11058616638183594,-0.03417205810546875,0.011400014162063599
1772726501624251600,5.607251708984375,0.05492591857910156,-0.038934946060180664,-0.03750419616699219
1772726501633769000,5.61676904296875,0.03322029113769531,-0.022658348083496094,-0.07420393824577332
1772726501643286500,5.62628662109375,-0.011606216430664062,0.012066841125488281,-0.06783506274223328
1772726501652804400,5.635804443359375,-0.06275558471679688,0.036858558654785156,-0.06589710712432861
1772726501662321700,5.64532177734375,-0.15332984924316406,0.024217605590820312,-0.05218067765235901
1772726501671839200,5.654839111328125,-0.16292285919189453,-0.0035457611083984375,-0.06526830792427063
1772726501681357000,5.664357177734375,-0.12355422973632812,-0.02955913543701172,-0.0910511314868927
1772726501690874400,5.673874267578125,-0.057160377502441406,-0.030470848083496094,-0.06373491883277893
1772726501700392000,5.683391845703125,0.012597084045410156,-0.042665958404541016,-0.02130943536758423
1772726501709909800,5.69290966796875,0.05069160461425781,-0.0006847381591796875,0.016308516263961792
1772726501719427000,5.702427001953125,0.0768117904663086,-0.04027390480041504,0.0638592541217804
1772726501728944600,5.711944580078125,0.13132572174072266,-0.005140781402587891,0.09560099244117737
1772726501738462500,5.72146240234375,0.1691427230834961,-0.014398574829101562,0.06217312812805176
1772726501747979800,5.730979736328125,0.16687774658203125,0.010589122772216797,0.048658400774002075
1772726501757497300,5.740497314453125,0.12973403930664062,0.04137277603149414,0.004857271909713745
1772726501767015200,5.75001513671875,0.041507720947265625,0.0667734146118164,0.013227880001068115
1772726501776532500,5.759532470703125,-0.0313873291015625,0.05462074279785156,-0.0029261112213134766
1772726501786050000,5.769050048828125,-0.032817840576171875,0.04340314865112305,0.0042962729930877686
1772726501795567900,5.77856787109375,-0.008513450622558594,0.028079509735107422,-0.007107287645339966
1772726501805085200,5.788085205078125,0.03187370300292969,0.022428512573242188,-0.013025641441345215
1772726501814602800,5.797602783203125,0.07647132873535156,0.018862247467041016,-0.01600116491317749
1772726501824120600,5.80712060546875,0.07825374603271484,-0.008801937103271484,-0.04234650731086731
1772726501833638000,5.816637939453125,0.10868263244628906,0.0006499290466308594,-0.037710607051849365
1772726501843155700,5.82615576171875,0.10842514038085938,-0.03099203109741211,-0.04041895270347595
1772726501852673300,5.83567333984375,0.07548809051513672,-0.055620670318603516,-0.0312654972076416
1772726501862190600,5.845190673828125,-0.015714645385742188,-0.046906471252441406,-0.02687835693359375
1772726501871708400,5.85470849609375,-0.10790729522705078,-0.030972957611083984,-0.03499439358711243
1772726501881226000,5.86422607421875,-0.1354522705078125,-0.030895709991455078,-0.03441348671913147
1772726501890743300,5.873743408203125,-0.2054595947265625,-0.00133514404296875,-0.04830089211463928
1772726501900261000,5.88326123046875,-0.23267364501953125,-0.031832218170166016,-0.03628244996070862
1772726501909778700,5.89277880859375,-0.21311664581298828,-0.027260780334472656,-0.01791265606880188
1772726501919296000,5.9022958984375,-0.15688419342041016,-0.02606058120727539,0.009004026651382446
1772726501928813800,5.911813720703125,-0.08790302276611328,-0.01688241958618164,0.009192198514938354
1772726501938331400,5.921331298828125,-0.0012149810791015625,-0.022029876708984375,-0.009284764528274536
1772726501947848700,5.9308486328125,0.05393218994140625,0.007164955139160156,0.025141596794128418
1772726501957366500,5.940366455078125,0.10885047912597656,-0.007977962493896484,0.062062621116638184
1772726501966884000,5.949884033203125,0.1281118392944336,-0.0029268264770507812,0.09377184510231018
1772726501976401700,5.959401611328125,0.13571453094482422,-0.0012516975402832031,0.02174067497253418
1772726501985919200,5.968919189453125,0.11286735534667969,0.04221630096435547,-0.02232968807220459
1772726501995436800,5.978436767578125,0.05520343780517578,0.023622512817382812,0.007986187934875488
1772726502004954400,5.987954345703125,-0.0015430450439453125,0.021918296813964844,0.023748457431793213
1772726502014472000,5.997471923828125,-0.03403186798095703,0.018312454223632812,0.019633084535598755
1772726502023989500,6.006989501953125,-0.023962020874023438,0.027153491973876953,-0.02149808406829834
1772726502033507000,6.016507080078125,-0.03078937530517578,0.03870868682861328,-0.06291401386260986
1772726502043024600,6.026024658203125,0.0000705718994140625,0.026693344116210938,-0.0661657452583313
1772726502052542200,6.035542236328125,-0.0024051666259765625,0.01226663589477539,-0.04100099205970764
1772726502062059800,6.045059814453125,0.016651153564453125,-0.03083038330078125,-0.01113399863243103
1772726502071577300,6.054577392578125,0.03579235076904297,-0.03640031814575195,0.004960477352142334
1772726502081095000,6.064094970703125,0.0077686309814453125,-0.030521869659423828,0.0005861818790435791
1772726502090612500,6.073612548828125,-0.074127197265625,-0.03362274169921875,0.041389137506484985
1772726502100130000,6.083130126953125,-0.14345169067382812,-0.033111572265625,0.059718042612075806
1772726502109647600,6.092647705078125,-0.16526317596435547,-0.04287528991699219,0.015566229820251465
1772726502119165200,6.102165283203125,-0.12139225006103516,-0.006538867950439453,-0.028346002101898193
1772726502128682800,6.111682861328125,-0.08095932006835938,-0.01939249038696289,-0.019392162561416626
1772726502138200300,6.121200439453125,-0.03161811828613281,-0.027631759643554688,0.004534333944320679
1772726502147718000,6.1307177734375,0.0667724609375,-0.046175479888916016,0.0021912455558776855
1772726502157235500,6.1402353515625,0.15000534057617188,-0.06110668182373047,-0.005441904067993164
1772726502166753000,6.1497529296875,0.1477346420288086,-0.037146568298339844,-0.043940067291259766
1772726502176270600,6.1592705078125,0.07281494140625,-0.018863677978515625,-0.025326192378997803
1772726502185788200,6.1687880859375,-0.019750595092773438,-0.007780551910400391,0.02836364507675171
1772726502195305700,6.1783056640625,-0.05939292907714844,0.006358623504638672,0.05314838886260986
1772726502204823300,6.1878232421875,-0.05410957336425781,0.044827938079833984,0.03574472665786743
1772726502214340900,6.1973408203125,-0.025839805603027344,0.03427886962890625,0.054064035415649414
1772726502223858400,6.2068583984375,0.04893016815185547,0.026469707489013672,0.027522176504135132
1772726502233376000,6.2163759765625,0.13940715789794922,0.02715587615966797,0.0279407799243927
1772726502242893600,6.2258935546875,0.19155597686767578,0.016608238220214844,0.038451433181762695
1772726502252411100,6.2354111328125,0.17772960662841797,-0.002578258514404297,0.05815230309963226
1772726502261928700,6.2449287109375,0.12935543060302734,-0.0014591217041015625,0.006612956523895264
1772726502271446300,6.2544462890625,0.07486152648925781,0.01109170913696289,-0.023173868656158447
1772726502280963800,6.2639638671875,0.02105998992919922,0.026248931884765625,-0.048162758350372314
1772726502290481400,6.2734814453125,-0.02755260467529297,0.0067348480224609375,-0.007644385099411011
1772726502299999000,6.2829990234375,-0.0382232666015625,-0.0019054412841796875,-0.010402858257293701
1772726502309516500,6.2925166015625,-0.08903980255126953,0.02095174789428711,-0.0385299026966095
1772726502319034000,6.3020341796875,-0.172210693359375,0.027574539184570312,-0.03517276048660278
1772726502328551700,6.3115517578125,-0.1648855209350586,0.03005838394165039,-0.013025134801864624
1772726502338069200,6.3210693359375,-0.17911052703857422,0.011898517608642578,-0.026442736387252808
1772726502347586800,6.3305869140625,-0.12515830993652344,-0.02180767059326172,-0.03312051296234131
1772726502357104400,6.3401044921875,-0.09360885620117188,-0.04962491989135742,-0.04597392678260803
1772726502366622000,6.3496220703125,-0.04170989990234375,-0.05057811737060547,-0.03012484312057495
1772726502376139500,6.359139404296875,0.030472755432128906,-0.023282527923583984,-0.06257978081703186
1772726502385657000,6.368656982421875,0.1275768280029297,-0.011126995086669922,-0.029085278511047363
1772726502395174700,6.378174560546875,0.16708660125732422,0.004439830780029297,0.02531486749649048
1772726502404692200,6.387692138671875,0.1902484893798828,-0.019562244415283203,0.04716522991657257
1772726502414209800,6.397209716796875,0.19029617309570312,-0.026009082794189453,0.07766810059547424
1772726502423727400,6.406727294921875,0.17448139190673828,-0.005357265472412109,0.09778702259063721
1772726502433245000,6.416244873046875,0.10048580169677734,0.025939464569091797,0.08333374559879303
1772726502442762500,6.425762451171875,-0.0028390884399414062,0.007254600524902344,0.05747753381729126
1772726502452280000,6.435280029296875,-0.048203468322753906,0.001117706298828125,0.05947789549827576
1772726502461797600,6.444797607421875,-0.05805015563964844,-0.02259063720703125,0.030093669891357422
1772726502471315200,6.454315185546875,-0.06836795806884766,0.0025582313537597656,0.010246962308883667
1772726502480832800,6.463832763671875,-0.043732643127441406,-0.006864070892333984,-0.028167635202407837
1772726502490350300,6.473350341796875,0.03201580047607422,0.007975578308105469,-0.03253862261772156
1772726502499868000,6.482867919921875,0.09253692626953125,-0.029512882232666016,-0.031709372997283936
1772726502509385500,6.492385498046875,0.11008930206298828,-0.03667259216308594,-0.009740501642227173
1772726502518903000,6.501903076171875,0.07596397399902344,-0.051657676696777344,-0.033386677503585815
1772726502528420600,6.511420654296875,0.028612136840820312,-0.060120582580566406,-0.057511478662490845
1772726502537938200,6.520938232421875,-0.013031005859375,-0.024258136749267578,-0.06541082262992859
1772726502547455700,6.530455810546875,-0.06332111358642578,-0.012673377990722656,-0.0402197539806366
1772726502556973300,6.539973388671875,-0.11289691925048828,-0.00096893310546875,-0.02904638648033142
1772726502566491000,6.549490966796875,-0.15959739685058594,0.0018587112426757812,0.001515030860900879
1772726502576008400,6.559008544921875,-0.20834922790527344,-0.013088703155517578,0.010771840810775757
1772726502585526000,6.568526123046875,-0.14865398406982422,-0.012370586395263672,0.014441639184951782
1772726502595043600,6.578043701171875,-0.09291648864746094,-0.003311634063720703,-0.027636200189590454
1772726502604561400,6.5875615234375,-0.05482006072998047,0.0013990402221679688,-0.04600870609283447
1772726502614078700,6.59707861328125,0.018057823181152344,0.0010676383972167969,0.004391372203826904
1772726502623596500,6.606596435546875,0.06880569458007812,-0.018649578094482422,0.044741660356521606
1772726502633114000,6.616114013671875,0.07665348052978516,-0.005768299102783203,0.020832344889640808
1772726502642631400,6.62563134765625,0.12004661560058594,-0.008051395416259766,0.00006651878356933594
1772726502652149200,6.635149169921875,0.0806283950805664,0.015010356903076172,-0.005993694067001343
1772726502661666800,6.644666748046875,0.04204559326171875,0.011446475982666016,-0.0019004642963409424
1772726502671184100,6.65418408203125,-0.045276641845703125,-0.003815174102783203,0.054992109537124634
1772726502680702000,6.663701904296875,-0.046634674072265625,-0.006580352783203125,0.05504351854324341
1772726502690219300,6.67321923828125,-0.06470775604248047,0.012450218200683594,0.028819262981414795
1772726502699736800,6.68273681640625,-0.02859783172607422,0.003395557403564453,-0.02378508448600769
1772726502709254700,6.692254638671875,0.04684162139892578,0.006352901458740234,-0.04346632957458496
1772726502718772200,6.701772216796875,0.11652565002441406,-0.014745235443115234,-0.05359882116317749
1772726502728289800,6.711289794921875,0.1289358139038086,0.013140201568603516,-0.030281156301498413
1772726502737807400,6.720807373046875,0.10857772827148438,-0.019094467163085938,-0.016452312469482422
1772726502747325000,6.730324951171875,0.07945442199707031,-0.03970193862915039,-0.014411002397537231
1772726502756842500,6.739842529296875,0.041538238525390625,-0.024984359741210938,0.013218671083450317
1772726502766360000,6.749360107421875,0.00424957275390625,-0.026983261108398438,-0.002144336700439453
1772726502775877600,6.758877685546875,-0.020715713500976562,-0.06173133850097656,0.013591095805168152
1772726502785395200,6.768395263671875,-0.0785531997680664,-0.05040740966796875,0.03634314239025116
1772726502794912800,6.777912841796875,-0.14293670654296875,-0.05705404281616211,0.03334760665893555
1772726502804430300,6.787430419921875,-0.19254779815673828,-0.04377889633178711,0.033533841371536255
1772726502813948000,6.796947998046875,-0.1805133819580078,-0.020482540130615234,0.022494345903396606
1772726502823465500,6.806465576171875,-0.1264352798461914,-0.03260469436645508,0.01902642846107483
1772726502832983000,6.815983154296875,-0.06854248046875,-0.021043777465820312,0.0034020543098449707
1772726502842500600,6.82550048828125,-0.023245811462402344,-0.031212329864501953,-0.005894452333450317
1772726502852018200,6.83501806640625,0.04254341125488281,-0.04377460479736328,-0.013507723808288574
1772726502861535700,6.84453564453125,0.02485179901123047,-0.02549123764038086,-0.009558409452438354
1772726502871053300,6.85405322265625,0.00028228759765625,0.004515171051025391,0.02968864142894745
1772726502880571000,6.86357080078125,-0.02629375457763672,0.01300668716430664,0.04037509858608246
1772726502890088400,6.87308837890625,-0.026579856872558594,0.037928104400634766,0.027694180607795715
1772726502899606000,6.88260595703125,0.02973175048828125,0.055117130279541016,0.0013144910335540771
1772726502909123600,6.89212353515625,0.10661697387695312,0.05246591567993164,0.008736640214920044
1772726502918641200,6.90164111328125,0.1166982650756836,0.01378631591796875,0.004737734794616699
1772726502928158700,6.91115869140625,0.058587074279785156,-0.005888938903808594,0.010338753461837769
1772726502937676300,6.92067626953125,0.02280426025390625,-0.011532783508300781,0.0157945454120636
1772726502947193900,6.93019384765625,-0.04533100128173828,0.0017995834350585938,-0.0016829967498779297
1772726502956711400,6.93971142578125,-0.12434768676757812,0.029613018035888672,0.030825823545455933
1772726502966229000,6.94922900390625,-0.17661380767822266,0.03913068771362305,-0.005684763193130493
1772726502975746600,6.95874658203125,-0.15547466278076172,0.06583738327026367,-0.07038223743438721
1772726502985264000,6.96826416015625,-0.05496025085449219,0.01971435546875,-0.0877738893032074
1772726502994781700,6.97778173828125,0.02255535125732422,-0.058331966400146484,-0.07093697786331177
1772726503004299300,6.98729931640625,0.07288837432861328,-0.06925034523010254,-0.04372358322143555
1772726503013816800,6.99681689453125,0.1296243667602539,-0.04981517791748047,-0.028907746076583862
1772726503023334400,7.00633447265625,0.122314453125,-0.04575634002685547,0.007304280996322632
1772726503032852000,7.01585205078125,0.07556724548339844,-0.04974651336669922,0.06750938296318054
1772726503042369500,7.02536962890625,0.018087387084960938,-0.05417633056640625,0.11122724413871765
1772726503051887000,7.03488720703125,-0.0006704330444335938,-0.03756117820739746,0.09872706234455109
1772726503061404700,7.04440478515625,-0.03322792053222656,0.0023550987243652344,0.06855246424674988
1772726503070922200,7.053922119140625,-0.048857688903808594,0.0394597053527832,0.06264673173427582
1772726503080439800,7.063439697265625,-0.05736255645751953,0.03636884689331055,0.06835582852363586
1772726503089957400,7.072957275390625,-0.08731365203857422,0.029508113861083984,0.04508236050605774
1772726503099475000,7.082474853515625,-0.08202743530273438,0.014546394348144531,0.00486639142036438
1772726503108992800,7.09199267578125,-0.030198097229003906,0.0007076263427734375,-0.05263859033584595
1772726503118510000,7.101510009765625,0.08431339263916016,0.050568580627441406,-0.076642245054245
1772726503128027600,7.111027587890625,0.1526784896850586,0.027968406677246094,-0.0717974603176117
1772726503137545500,7.12054541015625,0.1923065185546875,-0.019183635711669922,-0.012298554182052612
1772726503147062800,7.130062744140625,0.1967487335205078,-0.034272193908691406,-0.03029516339302063
1772726503156580600,7.13958056640625,0.15946197509765625,-0.029442310333251953,-0.0376380980014801
1772726503166098200,7.14909814453125,0.10434913635253906,0.002712249755859375,0.014219313859939575
1772726503175615700,7.15861572265625,-0.006369590759277344,0.01797199249267578,0.020310163497924805
1772726503185133300,7.16813330078125,-0.11333465576171875,0.008033275604248047,-0.02418091893196106
1772726503194651000,7.17765087890625,-0.16038036346435547,0.011474132537841797,-0.04579278826713562
1772726503204168400,7.18716845703125,-0.1719188690185547,0.01609325408935547,-0.07961723208427429
1772726503213686000,7.19668603515625,-0.15294456481933594,0.014195442199707031,-0.037289053201675415
1772726503223203600,7.20620361328125,-0.08257293701171875,-0.008685588836669922,-0.0020611584186553955
1772726503232721200,7.21572119140625,0.007945060729980469,0.006203174591064453,0.024177536368370056
1772726503242238700,7.22523876953125,0.07830810546875,-0.014815807342529297,0.00815090537071228
1772726503251756300,7.23475634765625,0.06058692932128906,-0.0028600692749023438,-0.002764195203781128
1772726503261273900,7.24427392578125,0.03611183166503906,-0.017037391662597656,0.00255778431892395
1772726503270791400,7.25379150390625,0.019005775451660156,-0.040227413177490234,0.004566878080368042
1772726503280309000,7.26330908203125,0.011562347412109375,-0.01592254638671875,-0.019749760627746582
1772726503289826600,7.27282666015625,-0.005127906799316406,0.007871150970458984,-0.022663623094558716
1772726503299344100,7.28234423828125,-0.028525352478027344,0.005229473114013672,-0.0019474923610687256
1772726503308861700,7.29186181640625,-0.07518386840820312,0.0029478073120117188,0.0026223063468933105
1772726503318379300,7.301379150390625,-0.100067138671875,-0.0011854171752929688,-0.013068050146102905
1772726503327896800,7.310896728515625,-0.08472537994384766,0.011682987213134766,-0.009194642305374146
1772726503337414400,7.320414306640625,-0.048557281494140625,0.024537086486816406,-0.02202385663986206
1772726503346932000,7.329931884765625,-0.03193473815917969,-0.0073223114013671875,0.004426151514053345
1772726503356449500,7.339449462890625,-0.006230354309082031,-0.015067100524902344,-0.02474948763847351
1772726503365967000,7.348967041015625,0.03325653076171875,-0.0041217803955078125,-0.03774136304855347
1772726503375484700,7.358484619140625,0.04637908935546875,0.013278484344482422,-0.02263343334197998
1772726503385002200,7.368002197265625,0.042967796325683594,-0.0005125999450683594,-0.011935025453567505
1772726503394519800,7.377519775390625,0.016214370727539062,-0.019036293029785156,0.015621095895767212
1772726503404037400,7.387037353515625,0.025176048278808594,-0.018321990966796875,0.0528281033039093
1772726503413555000,7.396554931640625,-0.0084075927734375,0.02253866195678711,0.012801021337509155
1772726503423072500,7.406072509765625,-0.0015401840209960938,0.018278121948242188,-0.0003765523433685303
1772726503432590000,7.415590087890625,-0.006676673889160156,0.026116371154785156,-0.006541222333908081
1772726503442107600,7.425107666015625,0.007180213928222656,0.012433528900146484,0.0011106431484222412
1772726503451625200,7.434625244140625,0.046855926513671875,0.010322093963623047,-0.010852128267288208
1772726503461142800,7.444142822265625,0.03655433654785156,-0.010843753814697266,-0.006912559270858765
1772726503470660600,7.45366064453125,0.0027875900268554688,0.013258934020996094,-0.00824117660522461
1772726503480178000,7.463177978515625,-0.06595230102539062,0.021013736724853516,0.013583123683929443
1772726503489695500,7.472695556640625,-0.05608081817626953,0.019652843475341797,0.04236772656440735
1772726503499213300,7.48221337890625,-0.004080772399902344,0.018480300903320312,0.04053430259227753
1772726503508730600,7.491730712890625,0.06603813171386719,0.01937246322631836,0.0726250410079956
1772726503518248200,7.501248291015625,0.06684589385986328,0.012983322143554688,0.05236414074897766
1772726503527766000,7.51076611328125,0.04895496368408203,0.04167604446411133,0.004142493009567261
1772726503537283600,7.52028369140625,-0.001453399658203125,0.03433084487915039,0.01817294955253601
1772726503546801000,7.52980078125,-0.003936767578125,0.005877494812011719,0.02499169111251831
1772726503556318700,7.539318603515625,-0.03233528137207031,-0.02194499969482422,0.019776135683059692
1772726503565836300,7.548836181640625,-0.015612602233886719,-0.030379772186279297,0.00472182035446167
1772726503575353600,7.558353515625,0.029163360595703125,-0.043584585189819336,0.013649851083755493
1772726503584871400,7.567871337890625,0.03341197967529297,-0.02644634246826172,-0.002939373254776001
1772726503594389000,7.577388916015625,-0.01384735107421875,0.017968177795410156,0.007716193795204163
1772726503603906600,7.586906494140625,-0.06716537475585938,0.0400547981262207,-0.00427854061126709
1772726503613424000,7.596424072265625,-0.12204360961914062,0.010222434997558594,0.002685844898223877
1772726503622941700,7.605941650390625,-0.11520004272460938,-0.015980243682861328,-0.045415520668029785
1772726503632459300,7.615459228515625,-0.12548542022705078,-0.012424468994140625,-0.07146033644676208
1772726503641976800,7.624976806640625,-0.1008901596069336,-0.0030364990234375,-0.05923500657081604
1772726503651494400,7.634494384765625,-0.11010169982910156,0.009534835815429688,-0.026815980672836304
1772726503661012000,7.644011962890625,-0.08186531066894531,0.013274192810058594,0.04721289873123169
1772726503670529500,7.653529541015625,-0.009464263916015625,0.01245880126953125,0.06660515069961548
1772726503680047000,7.663047119140625,0.05483245849609375,0.006695747375488281,0.09916962683200836
1772726503689564700,7.672564697265625,0.12082481384277344,0.023734569549560547,0.08130753040313721
1772726503699082200,7.682082275390625,0.14628028869628906,0.00870656967163086,0.050977081060409546
1772726503708599800,7.691599853515625,0.17416000366210938,0.028131484985351562,0.04295307397842407
1772726503718117400,7.701117431640625,0.15267086029052734,0.0343174934387207,0.037428900599479675
1772726503727635000,7.710635009765625,0.14828872680664062,0.02801036834716797,0.03673240542411804
1772726503737152500,7.720152587890625,0.09693241119384766,0.026472091674804688,0.052366599440574646
1772726503746670000,7.729670166015625,0.0533294677734375,0.02056884765625,0.017437562346458435
1772726503756187600,7.739187744140625,0.03134441375732422,0.03180122375488281,-0.07236795127391815
1772726503765705200,7.748705322265625,0.03056621551513672,0.03650474548339844,-0.0955502986907959
1772726503775222800,7.758222900390625,0.008393287658691406,0.02752685546875,-0.08091798424720764
1772726503784740400,7.767740234375,0.0076751708984375,-0.03521537780761719,-0.021840378642082214
1772726503794258000,7.7772578125,0.023468017578125,-0.04990959167480469,-0.04365995526313782
1772726503803775500,7.786775390625,0.04639244079589844,-0.03686094284057617,-0.0623273104429245
1772726503813293300,7.796293212890625,0.0058441162109375,-0.006147861480712891,-0.06804993748664856
1772726503822810600,7.805810546875,-0.03357887268066406,-0.016927719116210938,-0.011686384677886963
1772726503832328200,7.815328125,-0.09799957275390625,-0.05156683921813965,0.03430062532424927
1772726503841846000,7.824845947265625,-0.17803382873535156,-0.0546114444732666,-0.0037942975759506226
1772726503851363300,7.83436328125,-0.19617462158203125,-0.009194135665893555,-0.0585804283618927
1772726503860881000,7.843880859375,-0.23358631134033203,-0.0215761661529541,0.011250391602516174
1772726503870398700,7.853398681640625,-0.17928791046142578,0.007820606231689453,0.08736690878868103
1772726503879916300,7.862916259765625,-0.12165451049804688,0.05892825126647949,-0.019554883241653442
1772726503889433600,7.87243359375,-0.025186538696289062,0.07428169250488281,-0.0647386908531189
1772726503898951400,7.881951416015625,0.07221603393554688,0.07242679595947266,-0.06306704878807068
1772726503908469000,7.891468994140625,0.14256668090820312,-0.008031129837036133,0.005239218473434448
1772726503917986300,7.900986328125,0.1959371566772461,-0.04147481918334961,0.09795016050338745
1772726503927504100,7.910504150390625,0.2727022171020508,-0.047774314880371094,0.1502748429775238
1772726503937021700,7.920021728515625,0.31826305389404297,-0.06018400192260742,0.07009053230285645
1772726503946539300,7.929539306640625,0.2554616928100586,-0.029149293899536133,-0.004343539476394653
1772726503956056800,7.939056884765625,0.16118240356445312,-0.011388778686523438,-0.028877228498458862
1772726503965574400,7.948574462890625,0.10873699188232422,-0.0016021728515625,-0.015657544136047363
1772726503975092000,7.958092041015625,0.03861522674560547,0.005093574523925781,-0.023179560899734497
1772726503984609500,7.967609619140625,-0.013715744018554688,0.016065597534179688,-0.03978952765464783
1772726503994127000,7.977127197265625,-0.10049152374267578,0.017489910125732422,-0.01861974596977234
1772726504003644700,7.986644775390625,-0.14616680145263672,-0.017972707748413086,-0.007423460483551025
1772726504013162200,7.996162353515625,-0.19167804718017578,-0.037368059158325195,-0.008237361907958984
1772726504022679800,8.0056796875,-0.20647239685058594,0.01090383529663086,-0.0038701295852661133
1772726504032197400,8.015197265625,-0.1980886459350586,0.019722938537597656,-0.016070038080215454
1772726504041715000,8.02471484375,-0.16458988189697266,0.02268075942993164,-0.04799357056617737
1772726504051232500,8.034232421875,-0.09689617156982422,0.026726245880126953,-0.026555150747299194
1772726504060750000,8.04375,-0.07288837432861328,0.017047405242919922,-0.045536816120147705
1772726504070267600,8.053267578125,-0.04220294952392578,-0.006591320037841797,-0.03073495626449585
1772726504079785200,8.06278515625,-0.01654052734375,-0.013769388198852539,0.02441975474357605
1772726504089302800,8.072302734375,0.0019102096557617188,-0.03085017204284668,0.03167596459388733
1772726504098820400,8.0818203125,0.053231239318847656,-0.038802146911621094,0.03841206431388855
1772726504108338000,8.091337890625,0.12041759490966797,-0.023675918579101562,-0.02118581533432007
1772726504117855500,8.10085546875,0.1537942886352539,0.018839359283447266,-0.0377582311630249
1772726504127373300,8.110373291015625,0.1280374526977539,0.008347034454345703,-0.03240808844566345
1772726504136890600,8.119890625,0.08644771575927734,-0.007087230682373047,0.04190826416015625
1772726504146408200,8.129408203125,0.09286785125732422,-0.008706092834472656,0.054201096296310425
1772726504155926000,8.138926025390624,0.12535667419433594,-0.0015592575073242188,0.049708202481269836
1772726504165443300,8.148443359375,0.12244606018066406,0.004418849945068359,0.011378496885299683
1772726504174961000,8.1579609375,0.11781501770019531,-0.021701812744140625,-0.048859238624572754
1772726504184478700,8.167478759765626,0.0712118148803711,0.01542520523071289,-0.05208626389503479
1772726504193996300,8.176996337890625,-0.038249969482421875,-0.01601409912109375,0.01582440733909607
1772726504203513600,8.186513671875,-0.15114593505859375,-0.003318309783935547,0.045095205307006836
1772726504213031400,8.196031494140625,-0.14739322662353516,0.008041858673095703,-0.029141902923583984
1772726504222549000,8.205549072265624,-0.09905815124511719,0.026497364044189453,-0.03972935676574707
1772726504232066600,8.215066650390625,0.005311012268066406,0.0014486312866210938,-0.02684888243675232
1772726504241584000,8.224584228515624,0.08512210845947266,-0.02483081817626953,0.0014328360557556152
1772726504251101700,8.234101806640625,0.10310649871826172,-0.049738407135009766,0.00012227892875671387
1772726504260619300,8.243619384765625,0.015107154846191406,-0.06277942657470703,0.05478459596633911
1772726504270136800,8.25313671875,-0.06478023529052734,-0.06280326843261719,0.06523129343986511
1772726504279654400,8.262654296875,-0.1489086151123047,-0.0655522346496582,0.038445666432380676
1772726504289172000,8.272171875,-0.22575950622558594,-0.013928413391113281,-0.03616839647293091
1772726504298689500,8.281689453125,-0.22014141082763672,0.015748977661132812,-0.04353538155555725
1772726504308207000,8.29120703125,-0.20838451385498047,0.0420069694519043,-0.05401313304901123
1772726504317724700,8.300724609375,-0.1903219223022461,0.033779144287109375,0.03225269913673401
1772726504327242200,8.3102421875,-0.16592121124267578,0.00547027587890625,0.09604541957378387
1772726504336759800,8.319759765625,-0.12575721740722656,-0.019264698028564453,0.09867149591445923
1772726504346277400,8.32927734375,-0.12409687042236328,0.008702754974365234,0.04847164452075958
1772726504355795000,8.338794921875,-0.04966259002685547,0.02949810028076172,0.020640581846237183
1772726504365312500,8.3483125,0.011767387390136719,0.03581857681274414,0.009426802396774292
1772726504374830000,8.357830078125,0.07702159881591797,0.01818990707397461,0.014750033617019653
1772726504384347600,8.36734765625,0.11328601837158203,-0.011673450469970703,0.045487016439437866
1772726504393865200,8.376865234375,0.14945697784423828,0.004831790924072266,0.013958960771560669
1772726504403382800,8.3863828125,0.1646137237548828,0.012281417846679688,-0.009966373443603516
1772726504412900600,8.395900634765624,0.22523784637451172,-0.008575439453125,-0.03359502553939819
1772726504422418000,8.40541796875,0.2458333969116211,-0.012499809265136719,-0.03831136226654053
1772726504431935500,8.414935546875,0.24567508697509766,-0.032239437103271484,-0.03385460376739502
1772726504441453300,8.424453369140625,0.17072296142578125,0.001331329345703125,-0.057904064655303955
1772726504450971000,8.433970947265625,0.05450630187988281,0.013488292694091797,-0.02331867814064026
1772726504460488200,8.44348828125,-0.08881282806396484,0.038933753967285156,-0.04461181163787842
1772726504470006000,8.453006103515625,-0.19567298889160156,0.06199312210083008,-0.07520368695259094
1772726504479523600,8.462523681640626,-0.27363109588623047,0.10136079788208008,-0.08802306652069092
1772726504489041000,8.472041015625,-0.2876243591308594,0.10913610458374023,-0.04582923650741577
1772726504498558700,8.481558837890624,-0.1841573715209961,0.0800619125366211,-0.01870429515838623
1772726504508076300,8.491076171875,-0.07058334350585938,0.025388240814208984,0.035465121269226074
1772726504517593900,8.50059375,-0.022020339965820312,0.04358673095703125,0.024492263793945312
1772726504527111400,8.510111328125,0.033326148986816406,0.027303695678710938,0.0180034339427948
1772726504536629000,8.51962890625,0.06946468353271484,0.03598499298095703,0.044892311096191406
1772726504546146600,8.529146484375,0.1149587631225586,0.045678138732910156,-0.0034645795822143555
1772726504555664100,8.5386640625,0.12954044342041016,0.044805049896240234,0.010092049837112427
1772726504565181700,8.548181640625,0.14427566528320312,0.014822006225585938,0.016450941562652588
1772726504574699300,8.55769921875,0.1543407440185547,-0.005816459655761719,0.04242819547653198
1772726504584216800,8.567216796875,0.1713848114013672,-0.014477729797363281,0.07121899724006653
1772726504593734400,8.576734375,0.10320472717285156,-0.003562450408935547,0.10992148518562317
1772726504603252000,8.586251953125,0.00040435791015625,0.024738788604736328,0.05685576796531677
1772726504612769500,8.59576953125,-0.0893259048461914,0.05819225311279297,0.01629069447517395
1772726504622287000,8.605287109375,-0.050698280334472656,0.058530330657958984,-0.0385456383228302
1772726504631804700,8.6148046875,-0.012820243835449219,0.03311443328857422,0.007444262504577637
1772726504641322200,8.624322265625,-0.0013713836669921875,0.017273426055908203,0.03766551613807678
1772726504650839800,8.63383984375,0.014894485473632812,0.03155803680419922,-0.0013495385646820068
1772726504660357400,8.643357421875,-0.0064144134521484375,0.01894235610961914,-0.023295819759368896
1772726504669875000,8.652875,-0.027152061462402344,0.027241230010986328,-0.02583855390548706
1772726504679392500,8.662392578125,-0.014555931091308594,0.032938480377197266,-0.0213489830493927
1772726504688910000,8.67191015625,0.06368350982666016,-0.015524864196777344,-0.014708399772644043
1772726504698427600,8.681427734375,0.06310749053955078,0.021253585815429688,-0.04774421453475952
1772726504707945500,8.690945556640624,0.055840492248535156,0.0025224685668945312,-0.0657247006893158
1772726504717462800,8.700462890625,0.03251361846923828,-0.03772735595703125,-0.019912421703338623
1772726504726980600,8.709980712890625,0.014499664306640625,-0.018986225128173828,-0.0009032189846038818
1772726504736498200,8.719498291015626,-0.007962226867675781,-0.009870052337646484,-0.0198228657245636
1772726504746015500,8.729015380859375,-0.016145706176757812,-0.005156517028808594,-0.02467888593673706
1772726504755533300,8.738533203125,-0.008135795593261719,0.005070209503173828,-0.05123147368431091
1772726504765051000,8.74805078125,0.0065479278564453125,0.003956317901611328,-0.03701263666152954
1772726504774568400,8.757568359375,-0.04746055603027344,-0.029476642608642578,0.037380993366241455
1772726504784086000,8.7670859375,-0.11970806121826172,-0.01684284210205078,0.08813703060150146
1772726504793603600,8.776603515625,-0.16286659240722656,-0.0013151168823242188,0.06230264902114868
1772726504803121200,8.78612109375,-0.13036155700683594,0.03110647201538086,-0.011516302824020386
1772726504812638700,8.795638671875,-0.07505512237548828,0.05391740798950195,-0.042756110429763794
1772726504822156300,8.80515625,0.021584510803222656,0.06479501724243164,0.004062175750732422
1772726504831673900,8.814673828125,0.032082557678222656,0.0492401123046875,0.04098305106163025
1772726504841191400,8.82419140625,0.04046344757080078,0.004817008972167969,0.007157057523727417
1772726504850709000,8.833708984375,0.10812187194824219,-0.049613237380981445,-0.037818580865859985
1772726504860226600,8.8432265625,0.1447916030883789,-0.10705900192260742,-0.01291579008102417
1772726504869744000,8.852744140625,0.11318302154541016,-0.11063194274902344,0.04790991544723511
1772726504879261700,8.86226171875,0.04475975036621094,-0.06539630889892578,0.03034040331840515
1772726504888779300,8.871779296875,-0.06498336791992188,0.01691293716430664,-0.05828583240509033
1772726504898296800,8.881296875,-0.16642379760742188,0.04028892517089844,-0.1344662308692932
1772726504907814400,8.890814453125,-0.20577430725097656,0.06971120834350586,-0.10840234160423279
1772726504917332000,8.90033203125,-0.1982288360595703,0.039319515228271484,-0.082669198513031
1772726504926849500,8.909849609375,-0.1491069793701172,0.0038161277770996094,-0.017682373523712158
1772726504936367000,8.9193671875,-0.08714771270751953,-0.03951883316040039,0.00556984543800354
1772726504945884700,8.928884765625,0.032497406005859375,-0.06550168991088867,-0.0031454265117645264
1772726504955402200,8.93840234375,0.08202457427978516,-0.02541065216064453,0.004806846380233765
1772726504964920000,8.947920166015624,0.06270122528076172,-0.04520082473754883,0.03477725386619568
1772726504974437400,8.957437255859375,0.03688526153564453,-0.025096416473388672,0.09856705367565155
1772726504983955000,8.966954833984374,-0.021211624145507812,-0.03871488571166992,0.08922849595546722
1772726504993472800,8.97647265625,-0.0052776336669921875,-0.010068655014038086,0.032472699880599976
1772726505002990300,8.985990234375,0.015242576599121094,0.0011854171752929688,-0.012956112623214722
1772726505012508000,8.9955078125,0.040363311767578125,0.006885051727294922,-0.06858959794044495
1772726505022025500,9.005025390625,0.039383888244628906,0.02142620086669922,-0.05290329456329346
1772726505031543000,9.01454296875,0.022034645080566406,-0.011478900909423828,0.04307493567466736
1772726505041060600,9.024060546875,0.009766578674316406,-0.022801876068115234,0.06048670411109924
1772726505050578200,9.033578125,0.06364631652832031,-0.045793771743774414,0.03340384364128113
1772726505060095700,9.043095703125,0.13557720184326172,-0.06389355659484863,-0.006219714879989624
1772726505069613300,9.05261328125,0.1523599624633789,-0.04199981689453125,-0.01601719856262207
1772726505079131000,9.062130859375,0.1171712875366211,-0.02533888816833496,-0.023262590169906616
1772726505088648400,9.0716484375,0.06601715087890625,-0.020580768585205078,-0.04978078603744507
1772726505098166000,9.081166015625,0.02265453338623047,0.005509376525878906,-0.05042806267738342
1772726505107683600,9.09068359375,0.003345489501953125,-0.008423566818237305,-0.058660537004470825
1772726505117201200,9.100201171875,-0.0417022705078125,0.0018358230590820312,-0.045240044593811035
1772726505126718700,9.10971875,-0.06270885467529297,0.012568473815917969,0.018534451723098755
1772726505136236300,9.119236328125,-0.0790700912475586,0.016992807388305664,0.03885355591773987
1772726505145753900,9.12875390625,-0.029588699340820312,0.03370189666748047,-0.05797097086906433
1772726505155271400,9.138271484375,0.03078937530517578,0.04299640655517578,-0.15519627928733826
1772726505164789200,9.147789306640625,0.09761905670166016,0.036924123764038086,-0.11659228801727295
1772726505174306600,9.157306640625,0.1476573944091797,-0.02970266342163086,-0.048323243856430054
1772726505183824100,9.16682421875,0.10825824737548828,-0.059275150299072266,0.06281536817550659
1772726505193342000,9.176342041015625,0.053444862365722656,-0.0938425064086914,0.13132573664188385
1772726505202859500,9.185859619140626,-0.0028104782104492188,-0.0571291446685791,0.07764771580696106
1772726505212376800,9.195376953125,-0.02766895294189453,0.016962289810180664,-0.012170761823654175
1772726505221894700,9.204894775390626,-0.028662681579589844,0.045291900634765625,-0.051081061363220215
1772726505231412200,9.214412109375,-0.043730735778808594,0.007196903228759766,-0.0024601519107818604
1772726505240929800,9.2239296875,-0.03964710235595703,-0.053990840911865234,0.04034256935119629
1772726505250447400,9.233447265625,-0.016648292541503906,-0.12625741958618164,0.09451133012771606
1772726505259965000,9.24296484375,-0.09517288208007812,-0.11728405952453613,0.08807709813117981
1772726505269482500,9.252482421875,-0.1703357696533203,-0.06294393539428711,0.09740790724754333
1772726505279000000,9.262,-0.18125629425048828,0.005845069885253906,0.03368896245956421
1772726505288517600,9.271517578125,-0.18794536590576172,0.04193925857543945,-0.07003667950630188
1772726505298035200,9.28103515625,-0.11264991760253906,0.0478057861328125,-0.11252442002296448
1772726505307552800,9.290552734375,0.001132965087890625,0.014037609100341797,-0.089813232421875
1772726505317070300,9.3000703125,0.07779693603515625,-0.012324333190917969,-0.03755524754524231
1772726505326588000,9.309587890625,0.1134176254272461,-0.008263111114501953,0.04596221446990967
1772726505336105500,9.31910546875,0.10408782958984375,-0.02154827117919922,0.0690183937549591
1772726505345623000,9.328623046875,0.07164573669433594,-0.02339792251586914,0.0569593608379364
1772726505355140600,9.338140625,0.051705360412597656,-0.025571107864379883,0.05796864628791809
1772726505364658200,9.347658203125,0.06061267852783203,-0.01641368865966797,0.05390849709510803
1772726505374175700,9.35717578125,0.057707786560058594,0.0019562244415283203,0.06618368625640869
1772726505383693300,9.366693359375,0.040557861328125,0.03225350379943848,0.08849889039993286
1772726505393211000,9.3762109375,0.08233165740966797,0.06943559646606445,-0.010726958513259888
1772726505402728400,9.385728515625,0.11873435974121094,0.03997373580932617,-0.10209071636199951
1772726505412246000,9.39524609375,0.1265544891357422,0.033963680267333984,-0.043441951274871826
1772726505421763600,9.404763671875,0.08031654357910156,-0.007665872573852539,0.07068321108818054
1772726505431281400,9.414281494140624,0.08457756042480469,-0.025886058807373047,0.07365036010742188
1772726505440798700,9.423798828125,0.06101799011230469,-0.05195808410644531,-0.0034256577491760254
1772726505450316500,9.433316650390625,-0.030152320861816406,-0.08745527267456055,0.01810738444328308
1772726505459834000,9.442834228515625,-0.12456226348876953,-0.08450984954833984,0.04493081569671631
1772726505469351700,9.4523515625,-0.1847238540649414,-0.06678438186645508,0.07480686902999878
1772726505478869200,9.461869140625,-0.21348857879638672,0.010052204132080078,0.07974517345428467
1772726505488386800,9.47138671875,-0.23478317260742188,0.012866497039794922,0.04971003532409668
1772726505497904400,9.480904296875,-0.23953819274902344,0.004410266876220703,-0.0022312402725219727
1772726505507422000,9.490421875,-0.258880615234375,0.018421649932861328,-0.0002449452877044678
1772726505516939500,9.499939453125,-0.2460947036743164,0.041676998138427734,0.018950670957565308
1772726505526457000,9.50945703125,-0.20208072662353516,0.020756244659423828,0.00831592082977295
1772726505535974700,9.518974609375,-0.1413421630859375,0.003239154815673828,-0.04973617196083069
1772726505545492200,9.5284921875,-0.004848480224609375,0.009146451950073242,-0.08629393577575684
1772726505555009800,9.538009765625,0.14561939239501953,0.0012979507446289062,-0.07128852605819702
1772726505564527400,9.54752734375,0.3292856216430664,0.03272509574890137,-0.027832746505737305
1772726505574045000,9.557044921875,0.33873558044433594,0.010795116424560547,0.04848620295524597
