time,seconds_elapsed,z,y,x
1772726496094548500,0.077548583984375,0.01893680728971958,-0.018325943499803543,0.04214967042207718
1772726496104066300,0.08706640625,0.013439024798572063,-0.0054977829568088055,0.029932374134659767
1772726496113583900,0.096583984375,0.003665188793092966,0.007941242307424545,0.023212861269712448
1772726496123101400,0.106101318359375,-0.007330377586185932,0.010995565913617611,0.021991131827235222
1772726496132619000,0.115618896484375,-0.014660755172371864,-0.000610864779446274,0.018325943499803543
1772726496142136300,0.12513623046875,-0.013439024798572063,-0.012217295356094837,0.007941242307424545
1772726496151654100,0.134654052734375,-0.006108647678047419,-0.023823726922273636,-0.01282816007733345
1772726496161171500,0.14417138671875,0.0030543238390237093,-0.03787361457943916,-0.03787361457943916
1772726496170689000,0.15368896484375,0.010384701192378998,-0.05864302068948746,-0.06719512492418289
1772726496180206600,0.16320654296875,0.014660755172371864,-0.07635809481143951,-0.0873536616563797
1772726496189724200,0.17272412109375,0.01649334840476513,-0.06597339361906052,-0.09407317638397217
1772726496199241700,0.18224169921875,0.011606430634856224,-0.04276053607463837,-0.0873536616563797
1772726496208759300,0.19175927734375,0.002443459117785096,-0.024434590712189674,-0.07147117704153061
1772726496218276900,0.20127685546875,-0.002443459117785096,-0.014049889519810677,-0.05070177838206291
1772726496227794400,0.21079443359375,-0.001832594396546483,-0.010384701192378998,-0.027488915249705315
1772726496237312000,0.22031201171875,0.001832594396546483,-0.014660755172371864,-0.009162971749901772
1772726496246829600,0.22982958984375,0.004276053514331579,-0.031154103577136993,0.002443459117785096
1772726496256347100,0.23934716796875,0.008552107028663158,-0.050090912729501724,0.009162971749901772
1772726496265864700,0.24886474609375,0.015271619893610477,-0.06536252796649933,0.010384701192378998
1772726496275382300,0.25838232421875,0.01954767294228077,-0.08307760953903198,0.006719512399286032
1772726496284899800,0.26789990234375,0.028099779039621353,-0.10934479534626007,0.001832594396546483
1772726496294417200,0.277417236328125,0.03176496922969818,-0.08674279600381851,-0.007330377586185932
1772726496303935000,0.28693505859375,0.0256563201546669,-0.056810423731803894,-0.025045456364750862
1772726496313452300,0.296452392578125,0.020158538594841957,-0.039706211537122726,-0.04581485688686371
1772726496322969900,0.305969970703125,0.01893680728971958,-0.033597562462091446,-0.07024945318698883
1772726496332487400,0.3154873046875,0.023823726922273636,-0.034208428114652634,-0.08918625861406326
1772726496342005000,0.3250048828125,0.03176496922969818,-0.04214967042207718,-0.10506874322891235
1772726496351522600,0.3345224609375,0.03909534588456154,-0.053756099194288254,-0.10995566099882126
1772726496361040100,0.3440400390625,0.0409279391169548,-0.053756099194288254,-0.1081230640411377
1772726496370557700,0.3535576171875,0.0409279391169548,-0.050090912729501724,-0.09712749719619751
1772726496380075300,0.3630751953125,0.037262752652168274,-0.05864302068948746,-0.07757982611656189
1772726496389592800,0.3725927734375,0.034208428114652634,-0.06841685622930527,-0.05253437161445618
1772726496399110400,0.3821103515625,0.037262752652168274,-0.06902772188186646,-0.021380268037319183
1772726496408628000,0.3916279296875,0.0409279391169548,-0.06414080411195755,0.009773836471140385
1772726496418145500,0.4011455078125,0.03176496922969818,-0.11484257876873016,0.031154103577136993
1772726496427663000,0.4106630859375,0.020769402384757996,-0.1380554437637329,0.04764745384454727
1772726496437180700,0.4201806640625,0.02626718580722809,-0.05803215503692627,0.07147117704153061
1772726496446698200,0.4296982421875,0.021991131827235222,-0.033597562462091446,0.08552107214927673
1772726496456215800,0.4392158203125,0.010384701192378998,-0.06230820715427399,0.08429934084415436
1772726496465733000,0.448733154296875,0.004276053514331579,-0.046425722539424896,0.06352993845939636
1772726496475250700,0.458250732421875,0.004276053514331579,-0.03237583488225937,0.02626718580722809
1772726496484768500,0.4677685546875,0.000610864779446274,-0.033597562462091446,-0.014049889519810677
1772726496494285800,0.477285888671875,0.003665188793092966,-0.036651886999607086,-0.05497783049941063
1772726496503803400,0.486803466796875,0.014049889519810677,-0.03298669680953026,-0.08979712426662445
1772726496513321000,0.496321044921875,0.0256563201546669,-0.025045456364750862,-0.11239911615848541
1772726496522838500,0.505838623046875,0.02626718580722809,-0.021380268037319183,-0.12034036219120026
1772726496532356000,0.515356201171875,0.023212861269712448,-0.018325943499803543,-0.11606431007385254
1772726496541873700,0.524873779296875,0.020158538594841957,-0.020769402384757996,-0.10079269111156464
1772726496551391200,0.53439111328125,0.023823726922273636,-0.031154103577136993,-0.07452550530433655
1772726496560908800,0.54390869140625,0.02626718580722809,-0.03787361457943916,-0.043371398001909256
1772726496570426400,0.55342626953125,0.023212861269712448,-0.034208428114652634,-0.014049889519810677
1772726496579944000,0.56294384765625,0.018325943499803543,-0.014049889519810677,0.009773836471140385
1772726496589461500,0.57246142578125,0.01282816007733345,-0.009162971749901772,0.0256563201546669
1772726496598979000,0.58197900390625,0.012217295356094837,-0.0256563201546669,0.036651886999607086
1772726496608496600,0.59149658203125,0.01588248461484909,-0.03176496922969818,0.046425722539424896
1772726496618014200,0.60101416015625,0.017104214057326317,-0.03237583488225937,0.05925388261675835
1772726496627531800,0.61053173828125,0.013439024798572063,-0.015271619893610477,0.07391463965177536
1772726496637049300,0.62004931640625,0.004276053514331579,0.009162971749901772,0.08857539296150208
1772726496646567000,0.62956689453125,-0.000610864779446274,0.01588248461484909,0.10140355676412582
1772726496656084200,0.639084228515625,0.000610864779446274,0.008552107028663158,0.11239911615848541
1772726496665602000,0.64860205078125,0.001832594396546483,-0.004886918235570192,0.12217295914888382
1772726496675119400,0.658119384765625,0.006719512399286032,0.007330377586185932,0.13133592903614044
1772726496684637000,0.667636962890625,0.008552107028663158,0.020158538594841957,0.14233149588108063
1772726496694154500,0.677154541015625,0.0054977829568088055,0.01954767294228077,0.14294235408306122
1772726496703672000,0.686672119140625,0.004276053514331579,0.013439024798572063,0.13255766034126282
1772726496713189600,0.696189697265625,0.007941242307424545,0.0054977829568088055,0.11545344442129135
1772726496722707200,0.705707275390625,0.018325943499803543,-0.015271619893610477,0.10140355676412582
1772726496732224800,0.715224853515625,0.0360410213470459,-0.03298669680953026,0.09651663154363632
1772726496741742300,0.724742431640625,0.05253437161445618,-0.0360410213470459,0.10323614627122879
1772726496751260000,0.734260009765625,0.053145237267017365,-0.05742128938436508,0.10934479534626007
1772726496760777500,0.743777587890625,0.0409279391169548,-0.08063415437936783,0.10567960888147354
1772726496770295000,0.753294921875,0.025045456364750862,-0.07086031138896942,0.08857539296150208
1772726496779812600,0.7628125,0.013439024798572063,0.008552107028663158,0.06780599057674408
1772726496789330200,0.772330078125,-0.001221729558892548,0.033597562462091446,0.04520399495959282
1772726496798847700,0.78184765625,-0.007330377586185932,0.03298669680953026,0.024434590712189674
1772726496808365300,0.791365234375,-0.001832594396546483,0.0360410213470459,0.012217295356094837
1772726496817883000,0.8008828125,0.006108647678047419,0.039706211537122726,0.004886918235570192
1772726496827400400,0.810400390625,0.012217295356094837,0.03176496922969818,0.0030543238390237093
1772726496836917800,0.819917724609375,0.018325943499803543,0.025045456364750862,0.004886918235570192
1772726496846435600,0.829435546875,0.02626718580722809,0.025045456364750862,0.009773836471140385
1772726496855953000,0.838952880859375,0.029932374134659767,0.02626718580722809,0.011606430634856224
1772726496865470500,0.848470458984375,0.02932151034474373,0.02626718580722809,0.000610864779446274
1772726496874988300,0.85798828125,0.029932374134659767,0.009162971749901772,-0.024434590712189674
1772726496884505600,0.867505615234375,0.034208428114652634,0.009162971749901772,-0.05742128938436508
1772726496894023200,0.877023193359375,0.03176496922969818,0.01588248461484909,-0.08307760953903198
1772726496903540700,0.886540771484375,0.026878049597144127,0.004886918235570192,-0.08429934084415436
1772726496913058300,0.896058349609375,0.025045456364750862,-0.021380268037319183,-0.05925388261675835
1772726496922576000,0.905575927734375,0.025045456364750862,-0.049480047076940536,-0.01282816007733345
1772726496932093400,0.915093505859375,0.02626718580722809,-0.06230820715427399,0.037262752652168274
1772726496941611000,0.924611083984375,0.02626718580722809,-0.059864748269319534,0.0720820426940918
1772726496951128600,0.934128662109375,0.024434590712189674,-0.04581485688686371,0.09162971377372742
1772726496960646100,0.943646240234375,0.026878049597144127,-0.030543239787220955,0.09040798991918564
1772726496970163700,0.953163818359375,0.03176496922969818,-0.027488915249705315,0.07269290834665298
1772726496979681300,0.962681396484375,0.02626718580722809,-0.006719512399286032,0.043371398001909256
1772726496989198800,0.97219873046875,0.015271619893610477,-0.001221729558892548,0.012217295356094837
1772726496998716400,0.98171630859375,0.010995565913617611,0.007330377586185932,-0.006108647678047419
1772726497008234000,0.99123388671875,0.014660755172371864,0.020769402384757996,-0.010995565913617611
1772726497017751600,1.00075146484375,0.01282816007733345,0.02260199747979641,-0.008552107028663158
1772726497027269000,1.01026904296875,0.009162971749901772,0.001832594396546483,-0.000610864779446274
1772726497036786700,1.01978662109375,0.010384701192378998,-0.020769402384757996,0.010995565913617611
1772726497046304000,1.029303955078125,0.01649334840476513,-0.040317077189683914,0.021991131827235222
1772726497055821800,1.03882177734375,0.021991131827235222,-0.04459312930703163,0.028099779039621353
1772726497065339100,1.048339111328125,0.021991131827235222,-0.033597562462091446,0.02932151034474373
1772726497074857000,1.05785693359375,0.015271619893610477,-0.026878049597144127,0.020158538594841957
1772726497084374300,1.067374267578125,0.007941242307424545,-0.023823726922273636,0.006719512399286032
1772726497093891800,1.076891845703125,0.004276053514331579,-0.02626718580722809,-0.009773836471140385
1772726497103409400,1.086409423828125,0.004886918235570192,-0.023212861269712448,-0.026878049597144127
1772726497112927000,1.095927001953125,0.0054977829568088055,-0.015271619893610477,-0.043371398001909256
1772726497122444500,1.105444580078125,0.0030543238390237093,-0.007941242307424545,-0.05925388261675835
1772726497131962000,1.114962158203125,0,-0.002443459117785096,-0.06902772188186646
1772726497141479700,1.124479736328125,0.003665188793092966,0.01282816007733345,-0.06963858753442764
1772726497150997200,1.133997314453125,0.03237583488225937,0.06963858753442764,-0.06291907280683517
1772726497160514800,1.143514892578125,0.06475166976451874,0.06291907280683517,-0.04459312930703163
1772726497170032400,1.153032470703125,0.06108647957444191,-0.025045456364750862,-0.01588248461484909
1772726497179550000,1.162550048828125,0.056199558079242706,-0.06108647957444191,0.025045456364750862
1772726497189067500,1.172067626953125,0.043371398001909256,-0.06780599057674408,0.06047561392188072
1772726497198585000,1.181585205078125,0.031154103577136993,-0.06108647957444191,0.0873536616563797
1772726497208102700,1.1911025390625,0.028099779039621353,-0.05803215503692627,0.10323614627122879
1772726497217620200,1.2006201171875,0.031154103577136993,-0.02626718580722809,0.10384701192378998
1772726497227137800,1.2101376953125,0.021380268037319183,0.006719512399286032,0.08918625861406326
1772726497236655400,1.2196552734375,0.008552107028663158,0.03298669680953026,0.059864748269319534
1772726497246172700,1.229172607421875,0.002443459117785096,0.047036588191986084,0.02626718580722809
1772726497255690500,1.2386904296875,0.004886918235570192,0.0360410213470459,-0.001832594396546483
1772726497265207800,1.248207763671875,0.007941242307424545,0.01893680728971958,-0.020769402384757996
1772726497274725400,1.257725341796875,0.007941242307424545,0.007941242307424545,-0.029932374134659767
1772726497284243200,1.2672431640625,0.007330377586185932,-0.007330377586185932,-0.03298669680953026
1772726497293760500,1.276760498046875,0.007941242307424545,-0.018325943499803543,-0.030543239787220955
1772726497303278000,1.286278076171875,0.01282816007733345,-0.023823726922273636,-0.02260199747979641
1772726497312795600,1.295795654296875,0.01588248461484909,-0.02626718580722809,-0.012217295356094837
1772726497322313200,1.305313232421875,0.01649334840476513,-0.02871064469218254,-0.004276053514331579
1772726497331830800,1.314830810546875,0.015271619893610477,-0.030543239787220955,0
1772726497341348400,1.324348388671875,0.014660755172371864,-0.027488915249705315,0.004276053514331579
1772726497350866000,1.333865966796875,0.014049889519810677,-0.021380268037319183,0.001221729558892548
1772726497360383500,1.343383544921875,0.014049889519810677,-0.010995565913617611,-0.006108647678047419
1772726497369901000,1.352901123046875,0.012217295356094837,-0.007330377586185932,-0.017104214057326317
1772726497379418600,1.362418701171875,0.010384701192378998,-0.008552107028663158,-0.02932151034474373
1772726497388936200,1.371936279296875,0.007941242307424545,-0.010995565913617611,-0.03848448023200035
1772726497398453800,1.381453857421875,0.007941242307424545,-0.014660755172371864,-0.04581485688686371
1772726497407971300,1.390971435546875,0.007941242307424545,-0.01893680728971958,-0.05253437161445618
1772726497417489000,1.400489013671875,0.009773836471140385,-0.020158538594841957,-0.05864302068948746
1772726497427006500,1.41000634765625,0.010384701192378998,-0.01588248461484909,-0.06475166976451874
1772726497436524000,1.41952392578125,0.010995565913617611,-0.007330377586185932,-0.07269290834665298
1772726497446041600,1.42904150390625,0.010384701192378998,0.012217295356094837,-0.0720820426940918
1772726497455559000,1.438558837890625,0.009773836471140385,0.026878049597144127,-0.059864748269319534
1772726497465076700,1.44807666015625,0.01282816007733345,0.021991131827235222,-0.03543015569448471
1772726497474594000,1.457593994140625,0.01954767294228077,0.003665188793092966,-0.002443459117785096
1772726497484111600,1.467111572265625,0.028099779039621353,-0.01282816007733345,0.03176496922969818
1772726497493629400,1.47662939453125,0.029932374134659767,-0.02260199747979641,0.05436696484684944
1772726497503146800,1.486146728515625,0.025045456364750862,-0.01954767294228077,0.0616973415017128
1772726497512664300,1.495664306640625,0.01649334840476513,-0.004276053514331579,0.04886918142437935
1772726497522182000,1.505181884765625,0.011606430634856224,0.018325943499803543,0.021380268037319183
1772726497531699500,1.514699462890625,0.010995565913617611,0.0360410213470459,-0.013439024798572063
1772726497541217000,1.524217041015625,0.010384701192378998,0.03909534588456154,-0.043982263654470444
1772726497550734600,1.533734619140625,0.011606430634856224,0.023212861269712448,-0.06597339361906052
1772726497560252200,1.543252197265625,0.01588248461484909,0.002443459117785096,-0.07391463965177536
1772726497569769700,1.552769775390625,0.020769402384757996,-0.017715077847242355,-0.06902772188186646
1772726497579287300,1.562287353515625,0.021991131827235222,-0.029932374134659767,-0.056810423731803894
1772726497588804900,1.571804931640625,0.018325943499803543,-0.03176496922969818,-0.036651886999607086
1772726497598322400,1.581322509765625,0.010384701192378998,-0.02626718580722809,-0.01649334840476513
1772726497607840000,1.590840087890625,0.0054977829568088055,-0.021380268037319183,-0.001221729558892548
1772726497617357600,1.600357666015625,0.0054977829568088055,-0.015271619893610477,0.010995565913617611
1772726497626875100,1.609875244140625,0.007941242307424545,-0.009162971749901772,0.017104214057326317
1772726497636392700,1.619392822265625,0.007330377586185932,-0.009162971749901772,0.017715077847242355
1772726497645910300,1.62891015625,0.002443459117785096,-0.006719512399286032,0.010384701192378998
1772726497655427800,1.638427734375,-0.003665188793092966,0.001221729558892548,-0.002443459117785096
1772726497664945200,1.647945068359375,-0.009162971749901772,-0.001221729558892548,-0.023823726922273636
1772726497674463000,1.657462890625,-0.007941242307424545,-0.004276053514331579,-0.04459312930703163
1772726497683980500,1.66698046875,-0.004276053514331579,-0.002443459117785096,-0.06108647957444191
1772726497693497900,1.676497802734375,-0.000610864779446274,0.001221729558892548,-0.07086031138896942
1772726497703015700,1.686015625,0.0030543238390237093,0.009773836471140385,-0.06963858753442764
1772726497712533000,1.695532958984375,0.006108647678047419,0.013439024798572063,-0.06047561392188072
1772726497722050800,1.70505078125,0.007941242307424545,0.006108647678047419,-0.04214967042207718
1772726497731568000,1.714568115234375,0.009773836471140385,-0.008552107028663158,-0.023212861269712448
1772726497741085700,1.724085693359375,0.008552107028663158,-0.017104214057326317,-0.007941242307424545
1772726497750603300,1.733603271484375,0.006719512399286032,-0.021991131827235222,0.000610864779446274
1772726497760120800,1.743120849609375,0.004886918235570192,-0.023823726922273636,0.000610864779446274
1772726497769638400,1.752638427734375,0.006719512399286032,-0.020769402384757996,-0.004886918235570192
1772726497779156000,1.762156005859375,0.007941242307424545,-0.01649334840476513,-0.011606430634856224
1772726497788673500,1.771673583984375,0.007330377586185932,-0.011606430634856224,-0.020158538594841957
1772726497798191000,1.781191162109375,0.000610864779446274,-0.006108647678047419,-0.031154103577136993
1772726497807708700,1.790708740234375,-0.001221729558892548,-0.009162971749901772,-0.040317077189683914
1772726497817226200,1.800226318359375,0.000610864779446274,-0.010384701192378998,-0.04276053607463837
1772726497826743800,1.809743896484375,0.002443459117785096,-0.01649334840476513,-0.04214967042207718
1772726497836261400,1.819261474609375,0,-0.020769402384757996,-0.03909534588456154
1772726497845779000,1.828779052734375,-0.001221729558892548,-0.015271619893610477,-0.03787361457943916
1772726497855296500,1.838296630859375,-0.002443459117785096,-0.009162971749901772,-0.034208428114652634
1772726497864814000,1.84781396484375,0.000610864779446274,-0.014049889519810677,-0.030543239787220955
1772726497874331600,1.85733154296875,0.0030543238390237093,-0.011606430634856224,-0.025045456364750862
1772726497883849200,1.86684912109375,0.0054977829568088055,-0.000610864779446274,-0.020158538594841957
1772726497893366800,1.87636669921875,0.007941242307424545,0.010384701192378998,-0.01649334840476513
1772726497902884400,1.88588427734375,0.01282816007733345,0.004276053514331579,-0.009773836471140385
1772726497912402000,1.89540185546875,0.01893680728971958,-0.01954767294228077,-0.002443459117785096
1772726497921919200,1.904919189453125,0.021380268037319183,-0.031154103577136993,0.004886918235570192
1772726497931437000,1.91443701171875,0.018325943499803543,-0.03481929376721382,0.007941242307424545
1772726497940954400,1.923954345703125,0.014049889519810677,-0.036651886999607086,0.006108647678047419
1772726497950472000,1.933471923828125,0.012217295356094837,-0.03481929376721382,-0.003665188793092966
1772726497959989800,1.94298974609375,0.014049889519810677,-0.03237583488225937,-0.018325943499803543
1772726497969507000,1.952507080078125,0.01649334840476513,-0.03176496922969818,-0.03298669680953026
1772726497979024600,1.962024658203125,0.01893680728971958,-0.027488915249705315,-0.04520399495959282
1772726497988542200,1.971542236328125,0.01954767294228077,-0.020769402384757996,-0.05192350596189499
1772726497998059800,1.981059814453125,0.01649334840476513,-0.01893680728971958,-0.05253437161445618
1772726498007577300,1.990577392578125,0.01282816007733345,-0.023212861269712448,-0.046425722539424896
1772726498017095000,2.000094970703125,0.010384701192378998,-0.023823726922273636,-0.034208428114652634
1772726498026612500,2.009612548828125,0.008552107028663158,-0.029932374134659767,-0.020158538594841957
1772726498036130000,2.019130126953125,0.007330377586185932,-0.029932374134659767,-0.006719512399286032
1772726498045647600,2.028647705078125,0.010995565913617611,-0.017715077847242355,0.003665188793092966
1772726498055165200,2.038165283203125,0.015271619893610477,0.001221729558892548,0.011606430634856224
1772726498064682800,2.047682861328125,0.014049889519810677,0.01893680728971958,0.015271619893610477
1772726498074200300,2.057200439453125,0.009773836471140385,0.028099779039621353,0.015271619893610477
1772726498083718000,2.0667177734375,0.007330377586185932,0.02932151034474373,0.012217295356094837
1772726498093235500,2.0762353515625,0.007330377586185932,0.014049889519810677,0.004886918235570192
1772726498102753000,2.0857529296875,0.009162971749901772,-0.007941242307424545,-0.004886918235570192
1772726498112270600,2.0952705078125,0.012217295356094837,-0.03298669680953026,-0.009773836471140385
1772726498121788200,2.1047880859375,0.01649334840476513,-0.046425722539424896,-0.006719512399286032
1772726498131305700,2.1143056640625,0.017715077847242355,-0.047036588191986084,0
1772726498140823300,2.1238232421875,0.013439024798572063,-0.0409279391169548,0.008552107028663158
1772726498150340900,2.1333408203125,0.008552107028663158,-0.020158538594841957,0.010384701192378998
1772726498159858200,2.142858154296875,0.006719512399286032,0.0054977829568088055,0.004886918235570192
1772726498169376000,2.1523759765625,0.007941242307424545,0.021991131827235222,-0.007330377586185932
1772726498178893300,2.161893310546875,0.010995565913617611,0.02932151034474373,-0.02260199747979641
1772726498188411000,2.171410888671875,0.011606430634856224,0.029932374134659767,-0.034208428114652634
1772726498197928700,2.1809287109375,0.013439024798572063,0.02626718580722809,-0.037262752652168274
1772726498207446000,2.190446044921875,0.018325943499803543,0.025045456364750862,-0.031154103577136993
1772726498216963600,2.199963623046875,0.021991131827235222,0.030543239787220955,-0.018325943499803543
1772726498226481200,2.209481201171875,0.02260199747979641,0.033597562462091446,0.001221729558892548
1772726498235998700,2.218998779296875,0.01893680728971958,0.023823726922273636,0.017104214057326317
1772726498245516300,2.228516357421875,0.018325943499803543,0,0.021380268037319183
1772726498255033900,2.238033935546875,0.01954767294228077,-0.026878049597144127,0.012217295356094837
1772726498264551400,2.247551513671875,0.020158538594841957,-0.047036588191986084,-0.006719512399286032
1772726498274069000,2.257069091796875,0.017104214057326317,-0.05558869615197182,-0.029932374134659767
1772726498283586600,2.266586669921875,0.01282816007733345,-0.05192350596189499,-0.04886918142437935
1772726498293104000,2.276104248046875,0.009773836471140385,-0.04214967042207718,-0.06108647957444191
1772726498302621700,2.28562158203125,0.007941242307424545,-0.031154103577136993,-0.06291907280683517
1772726498312139300,2.29513916015625,0.0054977829568088055,-0.026878049597144127,-0.056810423731803894
1772726498321656800,2.30465673828125,0.007330377586185932,-0.017715077847242355,-0.04581485688686371
1772726498331174400,2.31417431640625,0.015271619893610477,0.004276053514331579,-0.026878049597144127
1772726498340692000,2.32369189453125,0.017715077847242355,0.020158538594841957,-0.000610864779446274
1772726498350209500,2.33320947265625,0.015271619893610477,0.023823726922273636,0.021991131827235222
1772726498359727000,2.34272705078125,0.006719512399286032,0.020769402384757996,0.03237583488225937
1772726498369244700,2.35224462890625,0,0.009773836471140385,0.026878049597144127
1772726498378762200,2.36176220703125,0.000610864779446274,-0.007330377586185932,0.007330377586185932
1772726498388279800,2.37127978515625,0.006719512399286032,-0.018325943499803543,-0.015271619893610477
1772726498397797400,2.38079736328125,0.01282816007733345,-0.01588248461484909,-0.031154103577136993
1772726498407315000,2.39031494140625,0.01282816007733345,-0.001221729558892548,-0.03543015569448471
1772726498416832500,2.39983251953125,0.010384701192378998,0.015271619893610477,-0.02932151034474373
1772726498426350000,2.40935009765625,0.009773836471140385,0.03176496922969818,-0.01588248461484909
1772726498435867600,2.41886767578125,0.011606430634856224,0.036651886999607086,0.0030543238390237093
1772726498445385000,2.428385009765625,0.014049889519810677,0.03176496922969818,0.02260199747979641
1772726498454902800,2.43790283203125,0.015271619893610477,0.012217295356094837,0.03787361457943916
1772726498464420000,2.447420166015625,0.015271619893610477,-0.009773836471140385,0.04459312930703163
1772726498473937700,2.456937744140625,0.015271619893610477,-0.018325943499803543,0.04153880476951599
1772726498483455500,2.46645556640625,0.015271619893610477,-0.021380268037319183,0.031154103577136993
1772726498492972800,2.475972900390625,0.01282816007733345,-0.024434590712189674,0.013439024798572063
1772726498502490400,2.485490478515625,0.010384701192378998,-0.01893680728971958,-0.007941242307424545
1772726498512008000,2.495008056640625,0.007941242307424545,-0.009162971749901772,-0.031154103577136993
1772726498521525500,2.504525390625,0.0054977829568088055,-0.0054977829568088055,-0.05253437161445618
1772726498531043000,2.51404296875,0.004276053514331579,-0.0054977829568088055,-0.06597339361906052
1772726498540560600,2.523560546875,0.0054977829568088055,-0.004276053514331579,-0.06902772188186646
1772726498550078200,2.533078125,0.010384701192378998,-0.002443459117785096,-0.06352993845939636
1772726498559595800,2.542595703125,0.013439024798572063,-0.006719512399286032,-0.050090912729501724
1772726498569113300,2.55211328125,0.015271619893610477,-0.014049889519810677,-0.028099779039621353
1772726498578631000,2.561630859375,0.018325943499803543,-0.015271619893610477,-0.003665188793092966
1772726498588148500,2.5711484375,0.01649334840476513,-0.014049889519810677,0.01893680728971958
1772726498597666000,2.580666015625,0.009162971749901772,-0.01282816007733345,0.027488915249705315
1772726498607183600,2.59018359375,0.002443459117785096,-0.009162971749901772,0.0256563201546669
1772726498616701200,2.599701171875,0.001832594396546483,-0.006108647678047419,0.014660755172371864
1772726498626218800,2.60921875,0.0054977829568088055,-0.007941242307424545,0.001221729558892548
1772726498635736300,2.618736328125,0.007941242307424545,-0.004276053514331579,-0.01282816007733345
1772726498645254000,2.62825390625,0.007330377586185932,0.008552107028663158,-0.024434590712189674
1772726498654771500,2.637771484375,0.0030543238390237093,0.014049889519810677,-0.03298669680953026
1772726498664289000,2.6472890625,0.001221729558892548,0.011606430634856224,-0.0360410213470459
1772726498673806600,2.656806640625,0.0054977829568088055,0.004276053514331579,-0.033597562462091446
1772726498683324200,2.66632421875,0.009162971749901772,0,-0.027488915249705315
1772726498692841700,2.675841796875,0.009773836471140385,-0.006719512399286032,-0.020769402384757996
1772726498702359000,2.685359130859375,0.007941242307424545,-0.010995565913617611,-0.017104214057326317
1772726498711876600,2.694876708984375,0.007330377586185932,-0.007330377586185932,-0.017104214057326317
1772726498721394400,2.70439453125,0.008552107028663158,-0.001221729558892548,-0.01588248461484909
1772726498730912000,2.713912109375,0.007941242307424545,0.006719512399286032,-0.009773836471140385
1772726498740429300,2.72342919921875,0.009162971749901772,0.01588248461484909,0
1772726498749947100,2.732947021484375,0.007941242307424545,0.020158538594841957,0.009773836471140385
1772726498759464400,2.74246435546875,0.004276053514331579,0.011606430634856224,0.014049889519810677
1772726498768982300,2.751982177734375,0.0054977829568088055,-0.001832594396546483,0.011606430634856224
1772726498778499600,2.76149951171875,0.007941242307424545,-0.004886918235570192,0.002443459117785096
1772726498788017200,2.77101708984375,0.009162971749901772,0.000610864779446274,-0.009162971749901772
1772726498797535000,2.780534912109375,0.004886918235570192,0.002443459117785096,-0.021380268037319183
1772726498807052300,2.79005224609375,0.000610864779446274,0.002443459117785096,-0.034208428114652634
1772726498816569900,2.79956982421875,0.0030543238390237093,0.009773836471140385,-0.0409279391169548
1772726498826087400,2.80908740234375,0.004886918235570192,0.007941242307424545,-0.040317077189683914
1772726498835605000,2.81860498046875,0.0054977829568088055,0.000610864779446274,-0.031154103577136993
1772726498845122600,2.82812255859375,0.006719512399286032,-0.004886918235570192,-0.01588248461484909
1772726498854640000,2.83764013671875,0.007330377586185932,-0.010384701192378998,0.004276053514331579
1772726498864157700,2.84715771484375,0.009773836471140385,-0.017104214057326317,0.023823726922273636
1772726498873675300,2.85667529296875,0.010384701192378998,-0.01649334840476513,0.0409279391169548
1772726498883192800,2.86619287109375,0.007330377586185932,-0.012217295356094837,0.04825831577181816
1772726498892710400,2.87571044921875,0.002443459117785096,-0.011606430634856224,0.04520399495959282
1772726498902228000,2.88522802734375,-0.0030543238390237093,-0.017104214057326317,0.029932374134659767
1772726498911745500,2.89474560546875,-0.002443459117785096,-0.01282816007733345,0.007941242307424545
1772726498921263000,2.90426318359375,0.002443459117785096,0.008552107028663158,-0.010995565913617611
1772726498930780700,2.91378076171875,0.002443459117785096,0.028099779039621353,-0.024434590712189674
1772726498940298200,2.92329833984375,0.001221729558892548,0.02932151034474373,-0.037262752652168274
1772726498949815800,2.93281591796875,-0.000610864779446274,0.01893680728971958,-0.04520399495959282
1772726498959333400,2.94233349609375,0.002443459117785096,-0.0054977829568088055,-0.050090912729501724
1772726498968851000,2.951850830078125,0.006719512399286032,-0.03909534588456154,-0.0513126403093338
1772726498978368500,2.961368408203125,0.009162971749901772,-0.06414080411195755,-0.049480047076940536
1772726498987886000,2.970885986328125,0.007330377586185932,-0.06719512492418289,-0.04276053607463837
1772726498997403600,2.980403564453125,0.001832594396546483,-0.05558869615197182,-0.031154103577136993
1772726499006921200,2.989921142578125,-0.004276053514331579,-0.039706211537122726,-0.017104214057326317
1772726499016438800,2.999438720703125,-0.004886918235570192,-0.01588248461484909,-0.004886918235570192
1772726499025956400,3.008956298828125,-0.003665188793092966,0.007330377586185932,0.004276053514331579
1772726499035474000,3.018473876953125,0.001221729558892548,0.02260199747979641,0.006719512399286032
1772726499044991500,3.027991455078125,0.004276053514331579,0.02932151034474373,0.004276053514331579
1772726499054508800,3.0375087890625,0.003665188793092966,0.027488915249705315,-0.003665188793092966
1772726499064026600,3.047026611328125,0.001832594396546483,0.011606430634856224,-0.01649334840476513
1772726499073544000,3.0565439453125,-0.001832594396546483,0.000610864779446274,-0.030543239787220955
1772726499083061500,3.0660615234375,-0.0030543238390237093,-0.004886918235570192,-0.04520399495959282
1772726499092579300,3.075579345703125,-0.0030543238390237093,-0.003665188793092966,-0.05558869615197182
1772726499102096600,3.0850966796875,0.001221729558892548,0.004886918235570192,-0.05864302068948746
1772726499111614200,3.0946142578125,0.006108647678047419,0.007941242307424545,-0.04825831577181816
1772726499121131800,3.1041318359375,0.012217295356094837,-0.000610864779446274,-0.03176496922969818
1772726499130649300,3.1136494140625,0.01954767294228077,-0.010384701192378998,-0.012217295356094837
1772726499140167200,3.123167236328125,0.020769402384757996,-0.023212861269712448,0.003665188793092966
1772726499149684500,3.1326845703125,0.017104214057326317,-0.03176496922969818,0.010384701192378998
1772726499159202000,3.1422021484375,0.014660755172371864,-0.024434590712189674,0.009162971749901772
1772726499168719600,3.1517197265625,0.012217295356094837,-0.011606430634856224,0.004276053514331579
1772726499178237200,3.1612373046875,0.009773836471140385,0.002443459117785096,-0.002443459117785096
1772726499187754800,3.170754638671875,0.009162971749901772,0.009773836471140385,-0.006719512399286032
1772726499197272300,3.180272216796875,0.009773836471140385,0.009162971749901772,-0.007941242307424545
1772726499206790000,3.189789794921875,0.009773836471140385,0.006719512399286032,-0.010384701192378998
1772726499216307500,3.199307373046875,0.009162971749901772,-0.001221729558892548,-0.013439024798572063
1772726499225825000,3.208824951171875,0.008552107028663158,-0.012217295356094837,-0.01893680728971958
1772726499235342600,3.218342529296875,0.011606430634856224,-0.021991131827235222,-0.025045456364750862
1772726499244860200,3.227860107421875,0.014660755172371864,-0.021991131827235222,-0.027488915249705315
1772726499254377700,3.237377685546875,0.015271619893610477,-0.018325943499803543,-0.0256563201546669
1772726499263895300,3.246895263671875,0.014049889519810677,-0.006719512399286032,-0.017715077847242355
1772726499273412900,3.256412841796875,0.011606430634856224,0.0054977829568088055,-0.004276053514331579
1772726499282930400,3.265930419921875,0.010995565913617611,0.010384701192378998,0.009773836471140385
1772726499292448000,3.275447998046875,0.010384701192378998,0.01588248461484909,0.01954767294228077
1772726499301965600,3.284965576171875,0.006108647678047419,0.020158538594841957,0.01954767294228077
1772726499311483100,3.294483154296875,0.004886918235570192,0.021991131827235222,0.014660755172371864
1772726499321000700,3.304000732421875,0.0054977829568088055,0.020158538594841957,0.0054977829568088055
1772726499330518300,3.313518310546875,0.0054977829568088055,0.009162971749901772,-0.004886918235570192
1772726499340035800,3.323035888671875,0.010384701192378998,-0.001221729558892548,-0.013439024798572063
1772726499349553400,3.332553466796875,0.011606430634856224,-0.010384701192378998,-0.015271619893610477
1772726499359071000,3.342071044921875,0.012217295356094837,-0.01649334840476513,-0.014049889519810677
1772726499368588500,3.351588623046875,0.012217295356094837,-0.010995565913617611,-0.011606430634856224
1772726499378106000,3.361106201171875,0.010995565913617611,0,-0.010384701192378998
1772726499387623700,3.370623779296875,0.008552107028663158,0.012217295356094837,-0.007941242307424545
1772726499397141200,3.380141357421875,0.008552107028663158,0.017715077847242355,-0.006108647678047419
1772726499406658800,3.389658935546875,0.010384701192378998,0.009773836471140385,-0.001832594396546483
1772726499416176400,3.39917626953125,0.014049889519810677,-0.0054977829568088055,0.002443459117785096
1772726499425693700,3.408693603515625,0.01649334840476513,-0.01893680728971958,0.007941242307424545
1772726499435211500,3.41821142578125,0.014660755172371864,-0.025045456364750862,0.015271619893610477
1772726499444729000,3.42772900390625,0.01282816007733345,-0.020769402384757996,0.020158538594841957
1772726499454246400,3.437246337890625,0.010995565913617611,-0.007941242307424545,0.020158538594841957
1772726499463764200,3.44676416015625,0.007941242307424545,0.007330377586185932,0.017715077847242355
1772726499473281500,3.456281494140625,0.0054977829568088055,0.01649334840476513,0.014049889519810677
1772726499482799000,3.465799072265625,0.0054977829568088055,0.014049889519810677,0.006108647678047419
1772726499492317000,3.47531689453125,0.0054977829568088055,-0.001221729558892548,-0.0054977829568088055
1772726499501834200,3.484834228515625,0.008552107028663158,-0.01649334840476513,-0.020158538594841957
1772726499511352000,3.49435205078125,0.011606430634856224,-0.017715077847242355,-0.03176496922969818
1772726499520869400,3.503869384765625,0.011606430634856224,-0.017104214057326317,-0.036651886999607086
1772726499530387000,3.513386962890625,0.010995565913617611,-0.01954767294228077,-0.034208428114652634
1772726499539904800,3.52290478515625,0.012217295356094837,-0.014660755172371864,-0.023212861269712448
1772726499549422000,3.532422119140625,0.012217295356094837,-0.0030543238390237093,-0.006108647678047419
1772726499558939600,3.541939697265625,0.008552107028663158,0.001221729558892548,0.011606430634856224
1772726499568457200,3.551457275390625,0.006108647678047419,-0.000610864779446274,0.028099779039621353
1772726499577974800,3.560974853515625,0.006719512399286032,0.000610864779446274,0.037262752652168274
1772726499587492400,3.570492431640625,0.007941242307424545,-0.000610864779446274,0.040317077189683914
1772726499597010000,3.580010009765625,0.006719512399286032,-0.01649334840476513,0.03543015569448471
1772726499606527500,3.589527587890625,0.006719512399286032,-0.030543239787220955,0.024434590712189674
1772726499616045000,3.599045166015625,0.008552107028663158,-0.024434590712189674,0.01282816007733345
1772726499625562600,3.608562744140625,0.009162971749901772,-0.014049889519810677,0.0030543238390237093
1772726499635080200,3.618080078125,0.007330377586185932,0.004886918235570192,-0.000610864779446274
1772726499644597800,3.62759765625,0.007330377586185932,0.031154103577136993,-0.002443459117785096
1772726499654115300,3.637115234375,0.0054977829568088055,0.046425722539424896,-0.0030543238390237093
1772726499663633000,3.6466328125,0.006719512399286032,0.04276053607463837,-0.007941242307424545
1772726499673150500,3.656150390625,0.010995565913617611,0.021380268037319183,-0.015271619893610477
1772726499682668000,3.66566796875,0.01588248461484909,-0.01649334840476513,-0.021991131827235222
1772726499692185600,3.675185546875,0.01893680728971958,-0.05558869615197182,-0.024434590712189674
1772726499701703200,3.684703125,0.017715077847242355,-0.0720820426940918,-0.01893680728971958
1772726499711220700,3.694220703125,0.014049889519810677,-0.06108647957444191,-0.007330377586185932
1772726499720738300,3.70373828125,0.007941242307424545,-0.040317077189683914,0.001832594396546483
1772726499730256000,3.713255859375,0.002443459117785096,-0.021380268037319183,0.008552107028663158
1772726499739773400,3.7227734375,0.006108647678047419,-0.0054977829568088055,0.01588248461484909
1772726499749291000,3.732291015625,0.01282816007733345,0.009162971749901772,0.025045456364750862
1772726499758808600,3.74180859375,0.014660755172371864,0.008552107028663158,0.031154103577136993
1772726499768326100,3.751326171875,0.013439024798572063,0.002443459117785096,0.03237583488225937
1772726499777843700,3.76084375,0.011606430634856224,-0.001832594396546483,0.028099779039621353
1772726499787361300,3.770361328125,0.009773836471140385,-0.006108647678047419,0.020769402384757996
1772726499796878800,3.77987890625,0.006108647678047419,-0.011606430634856224,0.007330377586185932
1772726499806396400,3.789396484375,0.006719512399286032,-0.01282816007733345,-0.0054977829568088055
1772726499815914000,3.7989140625,0.009162971749901772,-0.009162971749901772,-0.014049889519810677
1772726499825431600,3.808431640625,0.010384701192378998,-0.004886918235570192,-0.018325943499803543
1772726499834949000,3.81794921875,0.01282816007733345,-0.000610864779446274,-0.014049889519810677
1772726499844466700,3.827466796875,0.015271619893610477,0.004886918235570192,-0.000610864779446274
1772726499853984000,3.83698388671875,0.01649334840476513,0.004886918235570192,0.014660755172371864
1772726499863501800,3.846501708984375,0.017104214057326317,-0.0030543238390237093,0.02932151034474373
1772726499873019400,3.856019287109375,0.014049889519810677,-0.007941242307424545,0.031154103577136993
1772726499882537000,3.865536865234375,0.011606430634856224,-0.009162971749901772,0.020769402384757996
1772726499892054500,3.875054443359375,0.009773836471140385,-0.015271619893610477,0.001832594396546483
1772726499901571800,3.88457177734375,0.010995565913617611,-0.020769402384757996,-0.01893680728971958
1772726499911089700,3.894089599609375,0.012217295356094837,-0.026878049597144127,-0.03848448023200035
1772726499920607200,3.903607177734375,0.010995565913617611,-0.027488915249705315,-0.0513126403093338
1772726499930124500,3.91312451171875,0.009162971749901772,-0.021991131827235222,-0.059864748269319534
1772726499939642400,3.922642333984375,0.007941242307424545,-0.010995565913617611,-0.0616973415017128
1772726499949160000,3.932159912109375,0.007941242307424545,0.000610864779446274,-0.05803215503692627
1772726499958677200,3.94167724609375,0.0054977829568088055,0.014049889519810677,-0.05192350596189499
1772726499968195000,3.951195068359375,0.002443459117785096,0.01954767294228077,-0.043371398001909256
1772726499977712400,3.96071240234375,0.001832594396546483,0.009773836471140385,-0.033597562462091446
1772726499987230000,3.97022998046875,0.004886918235570192,-0.000610864779446274,-0.023212861269712448
1772726499996747800,3.979747802734375,0.009773836471140385,-0.011606430634856224,-0.011606430634856224
1772726500006265000,3.98926513671875,0.013439024798572063,-0.023823726922273636,-0.0030543238390237093
1772726500015782700,3.99878271484375,0.017104214057326317,-0.0256563201546669,0.002443459117785096
1772726500025300500,4.008300537109375,0.01649334840476513,-0.020158538594841957,0.006108647678047419
1772726500034817800,4.01781787109375,0.014049889519810677,-0.009773836471140385,0.0054977829568088055
1772726500044335400,4.02733544921875,0.009162971749901772,0.002443459117785096,0.008552107028663158
1772726500053853000,4.03685302734375,0.006719512399286032,0.009773836471140385,0.015271619893610477
1772726500063370500,4.04637060546875,0.006719512399286032,0.01282816007733345,0.021380268037319183
1772726500072888000,4.05588818359375,0.0054977829568088055,0.007330377586185932,0.01893680728971958
1772726500082405600,4.065405517578125,0.002443459117785096,-0.010384701192378998,0.008552107028663158
1772726500091923200,4.074923095703125,0.004276053514331579,-0.02260199747979641,0.000610864779446274
1772726500101440800,4.084440673828125,0.007330377586185932,-0.0256563201546669,-0.006719512399286032
1772726500110958300,4.093958251953125,0.004886918235570192,-0.030543239787220955,-0.012217295356094837
1772726500120476000,4.103475830078125,0.0030543238390237093,-0.023823726922273636,-0.01588248461484909
1772726500129993500,4.112993408203125,0.003665188793092966,-0.003665188793092966,-0.01954767294228077
1772726500139511000,4.122510986328125,0.000610864779446274,0.006719512399286032,-0.023212861269712448
1772726500149028600,4.132028564453125,0.000610864779446274,0.002443459117785096,-0.024434590712189674
1772726500158546200,4.141546142578125,0.003665188793092966,-0.000610864779446274,-0.02260199747979641
1772726500168063700,4.151063720703125,0.006108647678047419,-0.002443459117785096,-0.021991131827235222
1772726500177581300,4.160581298828125,0.007330377586185932,-0.014049889519810677,-0.028099779039621353
1772726500187099000,4.170098876953125,0.006719512399286032,-0.023823726922273636,-0.03543015569448471
1772726500196616400,4.179616455078125,0.006719512399286032,-0.023823726922273636,-0.03848448023200035
1772726500206134000,4.189134033203125,0.004886918235570192,-0.01954767294228077,-0.03543015569448471
1772726500215651600,4.198651611328125,0.000610864779446274,-0.013439024798572063,-0.028099779039621353
1772726500225169200,4.208169189453125,-0.002443459117785096,-0.006719512399286032,-0.01649334840476513
1772726500234686700,4.217686767578125,-0.001832594396546483,-0.0030543238390237093,-0.004886918235570192
1772726500244204300,4.227204345703125,0.001221729558892548,-0.0054977829568088055,0.006719512399286032
1772726500253721900,4.236721923828125,0.0030543238390237093,-0.010384701192378998,0.013439024798572063
1772726500263239400,4.246239501953125,0.0030543238390237093,-0.006719512399286032,0.014660755172371864
1772726500272757000,4.255757080078125,0.004886918235570192,0,0.010995565913617611
1772726500282274600,4.265274658203125,0.004276053514331579,-0.000610864779446274,0.006108647678047419
1772726500291792100,4.274792236328125,0.0030543238390237093,-0.009162971749901772,0.0030543238390237093
1772726500301309700,4.284309814453125,0.0030543238390237093,-0.007330377586185932,0.003665188793092966
1772726500310827300,4.2938271484375,0.0030543238390237093,0.004276053514331579,0.006108647678047419
1772726500320344800,4.3033447265625,-0.002443459117785096,0.007941242307424545,0.0054977829568088055
1772726500329862400,4.3128623046875,-0.006108647678047419,-0.001832594396546483,-0.003665188793092966
1772726500339380000,4.3223798828125,-0.002443459117785096,-0.01588248461484909,-0.017715077847242355
1772726500348897500,4.3318974609375,0.0054977829568088055,-0.034208428114652634,-0.03543015569448471
1772726500358415000,4.3414150390625,0.012217295356094837,-0.049480047076940536,-0.053145237267017365
1772726500367932700,4.3509326171875,0.014660755172371864,-0.056199558079242706,-0.06108647957444191
1772726500377450200,4.3604501953125,0.009773836471140385,-0.056199558079242706,-0.06291907280683517
1772726500386967800,4.3699677734375,0.006108647678047419,-0.043371398001909256,-0.05558869615197182
1772726500396485400,4.3794853515625,0.001832594396546483,-0.017715077847242355,-0.04276053607463837
1772726500406003000,4.3890029296875,0,0.007941242307424545,-0.029932374134659767
1772726500415520500,4.3985205078125,0,0.023212861269712448,-0.020158538594841957
1772726500425038000,4.4080380859375,0.000610864779446274,0.0256563201546669,-0.014049889519810677
1772726500434555600,4.4175556640625,0.002443459117785096,0.020158538594841957,-0.013439024798572063
1772726500444073200,4.4270732421875,0.006108647678047419,0.009162971749901772,-0.012217295356094837
1772726500453590800,4.4365908203125,0.007330377586185932,-0.001221729558892548,-0.014049889519810677
1772726500463108400,4.4461083984375,0.007941242307424545,-0.009773836471140385,-0.01588248461484909
1772726500472626000,4.4556259765625,0.006719512399286032,-0.01649334840476513,-0.017104214057326317
1772726500482143500,4.4651435546875,0.008552107028663158,-0.018325943499803543,-0.01893680728971958
1772726500491661000,4.4746611328125,0.009162971749901772,-0.01649334840476513,-0.020158538594841957
1772726500501178600,4.4841787109375,0.010384701192378998,-0.01282816007733345,-0.021380268037319183
1772726500510696200,4.4936962890625,0.011606430634856224,-0.014049889519810677,-0.02260199747979641
1772726500520213800,4.5032138671875,0.01282816007733345,-0.015271619893610477,-0.021380268037319183
1772726500529731300,4.5127314453125,0.014049889519810677,-0.007330377586185932,-0.018325943499803543
1772726500539249000,4.522248779296875,0.011606430634856224,0.002443459117785096,-0.01282816007733345
1772726500548766500,4.531766357421875,0.009162971749901772,0.008552107028663158,-0.013439024798572063
1772726500558284000,4.541283935546875,0.007330377586185932,0.008552107028663158,-0.01954767294228077
1772726500567801600,4.550801513671875,0.007330377586185932,-0.0030543238390237093,-0.03237583488225937
1772726500577319200,4.560319091796875,0.004886918235570192,-0.01649334840476513,-0.050090912729501724
1772726500586836700,4.569836669921875,0.0054977829568088055,-0.024434590712189674,-0.0665842592716217
1772726500596354300,4.579354248046875,0.006719512399286032,-0.02260199747979641,-0.07513637095689774
1772726500605871900,4.588871826171875,0.004886918235570192,-0.013439024798572063,-0.06902772188186646
1772726500615389400,4.598389404296875,0.004276053514331579,-0.006108647678047419,-0.05436696484684944
1772726500624907000,4.607906982421875,0.0030543238390237093,-0.004886918235570192,-0.034208428114652634
1772726500634424300,4.61742431640625,0.004886918235570192,-0.002443459117785096,-0.01588248461484909
1772726500643942100,4.626942138671875,0.007330377586185932,-0.008552107028663158,-0.004276053514331579
1772726500653459700,4.636459716796875,0.009162971749901772,-0.01893680728971958,0
1772726500662977000,4.64597705078125,0.010995565913617611,-0.01649334840476513,-0.002443459117785096
1772726500672494800,4.655494873046875,0.011606430634856224,-0.007941242307424545,-0.004886918235570192
1772726500682012400,4.665012451171875,0.009773836471140385,0.002443459117785096,-0.006108647678047419
1772726500691529700,4.67452978515625,0.011606430634856224,0.009773836471140385,-0.0030543238390237093
1772726500701047600,4.684047607421875,0.01282816007733345,0.010384701192378998,-0.001221729558892548
1772726500710565000,4.693565185546875,0.012217295356094837,0.007330377586185932,-0.001221729558892548
1772726500720082700,4.703082763671875,0.007941242307424545,0.0054977829568088055,-0.001832594396546483
1772726500729600300,4.712600341796875,0.002443459117785096,-0.004886918235570192,-0.007941242307424545
1772726500739117600,4.72211767578125,0.003665188793092966,-0.015271619893610477,-0.01588248461484909
1772726500748635400,4.731635498046875,0.006719512399286032,-0.018325943499803543,-0.023823726922273636
1772726500758153000,4.741153076171875,0.010384701192378998,-0.01954767294228077,-0.028099779039621353
1772726500767670300,4.750670166015625,0.01282816007733345,-0.020769402384757996,-0.028099779039621353
1772726500777188000,4.76018798828125,0.011606430634856224,-0.014660755172371864,-0.023823726922273636
1772726500786705700,4.76970556640625,0.010384701192378998,-0.0030543238390237093,-0.017715077847242355
1772726500796223000,4.779222900390625,0.008552107028663158,0.004886918235570192,-0.01588248461484909
1772726500805740800,4.78874072265625,0.006108647678047419,0.006108647678047419,-0.014049889519810677
1772726500815258400,4.79825830078125,0.0054977829568088055,0.003665188793092966,-0.014660755172371864
1772726500824775700,4.807775634765625,0.0054977829568088055,-0.001832594396546483,-0.017715077847242355
1772726500834293500,4.81729345703125,0.007941242307424545,-0.0054977829568088055,-0.021991131827235222
1772726500843810800,4.826810791015625,0.008552107028663158,-0.004276053514331579,-0.028099779039621353
1772726500853328400,4.836328369140625,0.006719512399286032,-0.002443459117785096,-0.034208428114652634
1772726500862846200,4.84584619140625,0.004276053514331579,-0.002443459117785096,-0.03848448023200035
1772726500872363500,4.855363525390625,0.002443459117785096,-0.003665188793092966,-0.040317077189683914
1772726500881881000,4.864881103515625,0,-0.006108647678047419,-0.03909534588456154
1772726500891399000,4.87439892578125,-0.004276053514331579,-0.004276053514331579,-0.0360410213470459
1772726500900916200,4.883916259765625,-0.007941242307424545,-0.004276053514331579,-0.028099779039621353
1772726500910433800,4.893433837890625,-0.007941242307424545,-0.010995565913617611,-0.017104214057326317
1772726500919951600,4.90295166015625,-0.006108647678047419,-0.013439024798572063,-0.006719512399286032
1772726500929469000,4.912468994140625,-0.0030543238390237093,-0.009162971749901772,0.001832594396546483
1772726500938986800,4.92198681640625,0.000610864779446274,-0.0030543238390237093,0.004886918235570192
1772726500948504000,4.931504150390625,0.003665188793092966,0.007330377586185932,0.002443459117785096
1772726500958021600,4.941021728515625,0.003665188793092966,0.018325943499803543,-0.004886918235570192
1772726500967539500,4.95053955078125,0.004276053514331579,0.02626718580722809,-0.014660755172371864
1772726500977056800,4.960056884765625,0.004276053514331579,0.0256563201546669,-0.027488915249705315
1772726500986574300,4.96957421875,0.002443459117785096,0.01954767294228077,-0.03787361457943916
1772726500996092200,4.979092041015625,0.003665188793092966,0.012217295356094837,-0.04520399495959282
1772726501005609500,4.988609375,0.0030543238390237093,0.000610864779446274,-0.04825831577181816
1772726501015127000,4.998126953125,0.003665188793092966,-0.020158538594841957,-0.049480047076940536
1772726501024644900,5.007644775390625,0.009773836471140385,-0.039706211537122726,-0.04581485688686371
1772726501034162200,5.017162109375,0.01282816007733345,-0.04459312930703163,-0.039706211537122726
1772726501043679700,5.0266796875,0.010384701192378998,-0.03848448023200035,-0.031154103577136993
1772726501053197600,5.036197509765625,0.006719512399286032,-0.025045456364750862,-0.023823726922273636
1772726501062715000,5.04571484375,0.003665188793092966,-0.011606430634856224,-0.017104214057326317
1772726501072232400,5.055232421875,0.004276053514331579,-0.006108647678047419,-0.009773836471140385
1772726501081750300,5.064750244140625,0.004886918235570192,0.0030543238390237093,-0.006719512399286032
1772726501091267600,5.074267578125,0.003665188793092966,0.013439024798572063,-0.006719512399286032
1772726501100785200,5.08378515625,0.001832594396546483,0.010384701192378998,-0.012217295356094837
1772726501110302700,5.093302734375,0.001832594396546483,-0.001221729558892548,-0.023212861269712448
1772726501119820300,5.1028203125,0.002443459117785096,-0.007941242307424545,-0.033597562462091446
1772726501129337900,5.112337890625,0,-0.004276053514331579,-0.03787361457943916
1772726501138855400,5.12185546875,-0.001832594396546483,-0.000610864779446274,-0.03787361457943916
1772726501148373000,5.131373046875,-0.002443459117785096,-0.001221729558892548,-0.02932151034474373
1772726501157890800,5.140890869140625,0,0.000610864779446274,-0.020769402384757996
1772726501167408000,5.150408203125,-0.001221729558892548,0.007941242307424545,-0.014049889519810677
1772726501176925700,5.15992578125,-0.002443459117785096,0.014660755172371864,-0.012217295356094837
1772726501186443300,5.169443359375,-0.001221729558892548,0.01649334840476513,-0.013439024798572063
1772726501195960800,5.1789609375,0.001832594396546483,0.01649334840476513,-0.017715077847242355
1772726501205478400,5.188478515625,0.0030543238390237093,0.010384701192378998,-0.020769402384757996
1772726501214996200,5.197996337890625,0.0030543238390237093,0.004276053514331579,-0.025045456364750862
1772726501224513500,5.207513427734375,0.003665188793092966,-0.002443459117785096,-0.030543239787220955
1772726501234031000,5.217031005859375,0.003665188793092966,-0.007941242307424545,-0.03237583488225937
1772726501243549000,5.226548828125,0.004276053514331579,-0.01588248461484909,-0.030543239787220955
1772726501253066200,5.236066162109375,0.007330377586185932,-0.0256563201546669,-0.023823726922273636
1772726501262583800,5.245583740234375,0.006108647678047419,-0.025045456364750862,-0.01893680728971958
1772726501272101400,5.255101318359375,0.0054977829568088055,-0.030543239787220955,-0.01588248461484909
1772726501281619000,5.264618896484375,0.007330377586185932,-0.033597562462091446,-0.018325943499803543
1772726501291136500,5.274136474609375,0.009773836471140385,-0.024434590712189674,-0.02260199747979641
1772726501300654000,5.283654052734375,0.009773836471140385,-0.004276053514331579,-0.027488915249705315
1772726501310171600,5.293171630859375,0.006108647678047419,0.009162971749901772,-0.03481929376721382
1772726501319689200,5.302689208984375,0.001832594396546483,0.010995565913617611,-0.043982263654470444
1772726501329206800,5.312206787109375,0.0030543238390237093,0.0054977829568088055,-0.05253437161445618
1772726501338724400,5.321724365234375,0.006719512399286032,0.001221729558892548,-0.05803215503692627
1772726501348242000,5.331241943359375,0.010384701192378998,0.002443459117785096,-0.056810423731803894
1772726501357759500,5.340759521484375,0.010384701192378998,0.007330377586185932,-0.04764745384454727
1772726501367277000,5.350277099609375,0.009162971749901772,0.0030543238390237093,-0.033597562462091446
1772726501376794600,5.359794677734375,0.010384701192378998,-0.001832594396546483,-0.017104214057326317
1772726501386312200,5.369312255859375,0.012217295356094837,0.000610864779446274,-0.003665188793092966
1772726501395829800,5.378829833984375,0.012217295356094837,0.002443459117785096,0.004886918235570192
1772726501405347600,5.38834765625,0.0054977829568088055,0.000610864779446274,0.004276053514331579
1772726501414865000,5.397864990234375,-0.000610864779446274,-0.003665188793092966,-0.006108647678047419
1772726501424382500,5.407382568359375,-0.000610864779446274,-0.001832594396546483,-0.018325943499803543
1772726501433900300,5.416900390625,0.002443459117785096,0,-0.031154103577136993
1772726501443417600,5.42641748046875,0.006719512399286032,0.000610864779446274,-0.03787361457943916
1772726501452935200,5.43593505859375,0.007330377586185932,0,-0.03909534588456154
1772726501462453000,5.445452880859375,0.008552107028663158,0,-0.036651886999607086
1772726501471970300,5.45497021484375,0.009162971749901772,0.000610864779446274,-0.028099779039621353
1772726501481488000,5.46448779296875,0.010995565913617611,-0.000610864779446274,-0.017104214057326317
1772726501491005700,5.474005615234375,0.012217295356094837,-0.004276053514331579,-0.0054977829568088055
1772726501500523000,5.48352294921875,0.013439024798572063,-0.001832594396546483,0.004886918235570192
1772726501510040600,5.49304052734375,0.011606430634856224,0,0.013439024798572063
1772726501519558400,5.502558349609375,0.010384701192378998,-0.0030543238390237093,0.01588248461484909
1772726501529075700,5.51207568359375,0.010384701192378998,-0.0030543238390237093,0.013439024798572063
1772726501538593300,5.52159326171875,0.009773836471140385,-0.008552107028663158,0.004276053514331579
1772726501548111000,5.531111083984375,0.0054977829568088055,-0.018325943499803543,-0.009773836471140385
1772726501557628400,5.54062841796875,0.001832594396546483,-0.01954767294228077,-0.027488915249705315
1772726501567146000,5.55014599609375,0.001832594396546483,-0.013439024798572063,-0.04153880476951599
1772726501576663600,5.55966357421875,0.001832594396546483,-0.004886918235570192,-0.04825831577181816
1772726501586181000,5.56918115234375,0.002443459117785096,0.003665188793092966,-0.04581485688686371
1772726501595698700,5.57869873046875,0.004886918235570192,0.014660755172371864,-0.034208428114652634
1772726501605216300,5.58821630859375,0.003665188793092966,0.021380268037319183,-0.01954767294228077
1772726501614733800,5.59773388671875,0.003665188793092966,0.013439024798572063,-0.009162971749901772
1772726501624251600,5.607251708984375,0.006719512399286032,0.0030543238390237093,-0.002443459117785096
1772726501633769000,5.61676904296875,0.009773836471140385,0,0
1772726501643286500,5.62628662109375,0.009773836471140385,0.001221729558892548,0.001221729558892548
1772726501652804400,5.635804443359375,0.007941242307424545,0.004886918235570192,0.000610864779446274
1772726501662321700,5.64532177734375,0.006719512399286032,0.004886918235570192,-0.006719512399286032
1772726501671839200,5.654839111328125,0.008552107028663158,-0.002443459117785096,-0.020158538594841957
1772726501681357000,5.664357177734375,0.01282816007733345,-0.014049889519810677,-0.03543015569448471
1772726501690874400,5.673874267578125,0.014049889519810677,-0.030543239787220955,-0.04886918142437935
1772726501700392000,5.683391845703125,0.014660755172371864,-0.0409279391169548,-0.05436696484684944
1772726501709909800,5.69290966796875,0.010995565913617611,-0.03543015569448471,-0.05253437161445618
1772726501719427000,5.702427001953125,0.006719512399286032,-0.023823726922273636,-0.04214967042207718
1772726501728944600,5.711944580078125,0.001221729558892548,-0.009162971749901772,-0.027488915249705315
1772726501738462500,5.72146240234375,0,0.004886918235570192,-0.010384701192378998
1772726501747979800,5.730979736328125,0.002443459117785096,0.012217295356094837,0.003665188793092966
1772726501757497300,5.740497314453125,0.007330377586185932,0.015271619893610477,0.013439024798572063
1772726501767015200,5.75001513671875,0.010384701192378998,0.01282816007733345,0.015271619893610477
1772726501776532500,5.759532470703125,0.010995565913617611,0.0030543238390237093,0.009162971749901772
1772726501786050000,5.769050048828125,0.009773836471140385,-0.002443459117785096,0.000610864779446274
1772726501795567900,5.77856787109375,0.010995565913617611,0.001832594396546483,-0.004276053514331579
1772726501805085200,5.788085205078125,0.009162971749901772,0.007941242307424545,-0.004276053514331579
1772726501814602800,5.797602783203125,0.008552107028663158,0.013439024798572063,0
1772726501824120600,5.80712060546875,0.009773836471140385,0.015271619893610477,0.007330377586185932
1772726501833638000,5.816637939453125,0.010995565913617611,0.015271619893610477,0.01893680728971958
1772726501843155700,5.82615576171875,0.010995565913617611,0.01282816007733345,0.029932374134659767
1772726501852673300,5.83567333984375,0.010995565913617611,0.013439024798572063,0.036651886999607086
1772726501862190600,5.845190673828125,0.014049889519810677,0.01588248461484909,0.036651886999607086
1772726501871708400,5.85470849609375,0.01649334840476513,0.009162971749901772,0.03298669680953026
1772726501881226000,5.86422607421875,0.018325943499803543,0,0.02260199747979641
1772726501890743300,5.873743408203125,0.017715077847242355,-0.004276053514331579,0.007941242307424545
1772726501900261000,5.88326123046875,0.017715077847242355,-0.006719512399286032,-0.010995565913617611
1772726501909778700,5.89277880859375,0.014660755172371864,-0.014049889519810677,-0.029932374134659767
1772726501919296000,5.9022958984375,0.011606430634856224,-0.021991131827235222,-0.046425722539424896
1772726501928813800,5.911813720703125,0.009773836471140385,-0.027488915249705315,-0.05742128938436508
1772726501938331400,5.921331298828125,0.010995565913617611,-0.025045456364750862,-0.056810423731803894
1772726501947848700,5.9308486328125,0.010995565913617611,-0.015271619893610477,-0.04459312930703163
1772726501957366500,5.940366455078125,0.008552107028663158,-0.007941242307424545,-0.026878049597144127
1772726501966884000,5.949884033203125,0.004276053514331579,-0.008552107028663158,-0.012217295356094837
1772726501976401700,5.959401611328125,0.0054977829568088055,-0.004276053514331579,-0.001221729558892548
1772726501985919200,5.968919189453125,0.009773836471140385,0.007941242307424545,0.004886918235570192
1772726501995436800,5.978436767578125,0.011606430634856224,0.017104214057326317,0.006719512399286032
1772726502004954400,5.987954345703125,0.009773836471140385,0.017104214057326317,0.0054977829568088055
1772726502014472000,5.997471923828125,0.007330377586185932,0.006719512399286032,0.000610864779446274
1772726502023989500,6.006989501953125,0.007941242307424545,-0.014049889519810677,-0.006719512399286032
1772726502033507000,6.016507080078125,0.011606430634856224,-0.023823726922273636,-0.01282816007733345
1772726502043024600,6.026024658203125,0.013439024798572063,-0.025045456364750862,-0.014660755172371864
1772726502052542200,6.035542236328125,0.01282816007733345,-0.023823726922273636,-0.011606430634856224
1772726502062059800,6.045059814453125,0.01282816007733345,-0.01893680728971958,-0.003665188793092966
1772726502071577300,6.054577392578125,0.015271619893610477,-0.007941242307424545,0.006108647678047419
1772726502081095000,6.064094970703125,0.01282816007733345,0.002443459117785096,0.010995565913617611
1772726502090612500,6.073612548828125,0.009162971749901772,0.0054977829568088055,0.004886918235570192
1772726502100130000,6.083130126953125,0.004886918235570192,-0.003665188793092966,-0.009162971749901772
1772726502109647600,6.092647705078125,0.007941242307424545,-0.014049889519810677,-0.026878049597144127
1772726502119165200,6.102165283203125,0.01282816007733345,-0.017715077847242355,-0.04153880476951599
1772726502128682800,6.111682861328125,0.014049889519810677,-0.01282816007733345,-0.0513126403093338
1772726502138200300,6.121200439453125,0.012217295356094837,-0.001832594396546483,-0.04764745384454727
1772726502147718000,6.1307177734375,0.009162971749901772,-0.0030543238390237093,-0.03543015569448471
1772726502157235500,6.1402353515625,0.009162971749901772,-0.010384701192378998,-0.01893680728971958
1772726502166753000,6.1497529296875,0.011606430634856224,-0.014049889519810677,-0.0030543238390237093
1772726502176270600,6.1592705078125,0.011606430634856224,-0.014049889519810677,0.003665188793092966
1772726502185788200,6.1687880859375,0.009162971749901772,-0.014049889519810677,0.001832594396546483
1772726502195305700,6.1783056640625,0.007330377586185932,-0.012217295356094837,-0.008552107028663158
1772726502204823300,6.1878232421875,0.008552107028663158,-0.004886918235570192,-0.020769402384757996
1772726502214340900,6.1973408203125,0.010384701192378998,-0.002443459117785096,-0.03298669680953026
1772726502223858400,6.2068583984375,0.009162971749901772,-0.001221729558892548,-0.03543015569448471
1772726502233376000,6.2163759765625,0.011606430634856224,0.007330377586185932,-0.023212861269712448
1772726502242893600,6.2258935546875,0.008552107028663158,0.014049889519810677,-0.001832594396546483
1772726502252411100,6.2354111328125,0.004276053514331579,0.011606430634856224,0.01893680728971958
1772726502261928700,6.2449287109375,0.001832594396546483,0.006719512399286032,0.03298669680953026
1772726502271446300,6.2544462890625,0.002443459117785096,0.003665188793092966,0.036651886999607086
1772726502280963800,6.2639638671875,0.004886918235570192,0,0.031154103577136993
1772726502290481400,6.2734814453125,0.007941242307424545,-0.007941242307424545,0.020769402384757996
1772726502299999000,6.2829990234375,0.010384701192378998,-0.009773836471140385,0.007330377586185932
1772726502309516500,6.2925166015625,0.01588248461484909,-0.001832594396546483,-0.001832594396546483
1772726502319034000,6.3020341796875,0.018325943499803543,0.004276053514331579,-0.009162971749901772
1772726502328551700,6.3115517578125,0.017715077847242355,0.004276053514331579,-0.017104214057326317
1772726502338069200,6.3210693359375,0.01649334840476513,0.004886918235570192,-0.023823726922273636
1772726502347586800,6.3305869140625,0.017104214057326317,-0.001221729558892548,-0.031154103577136993
1772726502357104400,6.3401044921875,0.017715077847242355,-0.01954767294228077,-0.03848448023200035
1772726502366622000,6.3496220703125,0.018325943499803543,-0.043982263654470444,-0.04459312930703163
1772726502376139500,6.359139404296875,0.01954767294228077,-0.05497783049941063,-0.04459312930703163
1772726502385657000,6.368656982421875,0.018325943499803543,-0.06108647957444191,-0.03787361457943916
1772726502395174700,6.378174560546875,0.01893680728971958,-0.05742128938436508,-0.025045456364750862
1772726502404692200,6.387692138671875,0.01893680728971958,-0.04214967042207718,-0.0054977829568088055
1772726502414209800,6.397209716796875,0.020769402384757996,-0.018325943499803543,0.014049889519810677
1772726502423727400,6.406727294921875,0.01893680728971958,0.0030543238390237093,0.02871064469218254
1772726502433245000,6.416244873046875,0.017104214057326317,0.014660755172371864,0.03787361457943916
1772726502442762500,6.425762451171875,0.015271619893610477,0.015271619893610477,0.03848448023200035
1772726502452280000,6.435280029296875,0.014660755172371864,0.0054977829568088055,0.03298669680953026
1772726502461797600,6.444797607421875,0.01282816007733345,-0.004276053514331579,0.01954767294228077
1772726502471315200,6.454315185546875,0.01282816007733345,-0.008552107028663158,0.0030543238390237093
1772726502480832800,6.463832763671875,0.013439024798572063,-0.009162971749901772,-0.010384701192378998
1772726502490350300,6.473350341796875,0.012217295356094837,-0.004276053514331579,-0.017104214057326317
1772726502499868000,6.482867919921875,0.013439024798572063,0.001221729558892548,-0.013439024798572063
1772726502509385500,6.492385498046875,0.014049889519810677,0.001221729558892548,-0.0030543238390237093
1772726502518903000,6.501903076171875,0.014660755172371864,-0.004886918235570192,0.007330377586185932
1772726502528420600,6.511420654296875,0.017104214057326317,-0.014049889519810677,0.01649334840476513
1772726502537938200,6.520938232421875,0.017715077847242355,-0.021380268037319183,0.02260199747979641
1772726502547455700,6.530455810546875,0.01588248461484909,-0.021991131827235222,0.024434590712189674
1772726502556973300,6.539973388671875,0.01588248461484909,-0.01588248461484909,0.020769402384757996
1772726502566491000,6.549490966796875,0.015271619893610477,-0.007330377586185932,0.012217295356094837
1772726502576008400,6.559008544921875,0.013439024798572063,-0.003665188793092966,-0.000610864779446274
1772726502585526000,6.568526123046875,0.013439024798572063,-0.012217295356094837,-0.01588248461484909
1772726502595043600,6.578043701171875,0.014660755172371864,-0.023212861269712448,-0.031154103577136993
1772726502604561400,6.5875615234375,0.01893680728971958,-0.027488915249705315,-0.037262752652168274
1772726502614078700,6.59707861328125,0.018325943499803543,-0.025045456364750862,-0.034208428114652634
1772726502623596500,6.606596435546875,0.017104214057326317,-0.023212861269712448,-0.027488915249705315
1772726502633114000,6.616114013671875,0.01588248461484909,-0.024434590712189674,-0.01954767294228077
1772726502642631400,6.62563134765625,0.01649334840476513,-0.01954767294228077,-0.009773836471140385
1772726502652149200,6.635149169921875,0.018325943499803543,-0.01588248461484909,-0.0030543238390237093
1772726502661666800,6.644666748046875,0.01649334840476513,-0.009162971749901772,0.001221729558892548
1772726502671184100,6.65418408203125,0.013439024798572063,0.002443459117785096,0.001221729558892548
1772726502680702000,6.663701904296875,0.009162971749901772,0.007330377586185932,-0.004276053514331579
1772726502690219300,6.67321923828125,0.008552107028663158,0.002443459117785096,-0.010995565913617611
1772726502699736800,6.68273681640625,0.008552107028663158,-0.008552107028663158,-0.01649334840476513
1772726502709254700,6.692254638671875,0.011606430634856224,-0.017715077847242355,-0.017715077847242355
1772726502718772200,6.701772216796875,0.015271619893610477,-0.018325943499803543,-0.012217295356094837
1772726502728289800,6.711289794921875,0.01588248461484909,-0.014049889519810677,-0.0030543238390237093
1772726502737807400,6.720807373046875,0.01588248461484909,-0.010384701192378998,0.006719512399286032
1772726502747325000,6.730324951171875,0.01588248461484909,-0.007941242307424545,0.014660755172371864
1772726502756842500,6.739842529296875,0.01588248461484909,-0.010995565913617611,0.018325943499803543
1772726502766360000,6.749360107421875,0.01649334840476513,-0.01282816007733345,0.018325943499803543
1772726502775877600,6.758877685546875,0.015271619893610477,-0.010384701192378998,0.01649334840476513
1772726502785395200,6.768395263671875,0.012217295356094837,-0.009162971749901772,0.007330377586185932
1772726502794912800,6.777912841796875,0.010995565913617611,-0.003665188793092966,-0.004886918235570192
1772726502804430300,6.787430419921875,0.010995565913617611,0.0054977829568088055,-0.01649334840476513
1772726502813948000,6.796947998046875,0.010384701192378998,0.011606430634856224,-0.02626718580722809
1772726502823465500,6.806465576171875,0.008552107028663158,0.014660755172371864,-0.02932151034474373
1772726502832983000,6.815983154296875,0.006719512399286032,0.008552107028663158,-0.02871064469218254
1772726502842500600,6.82550048828125,0.0054977829568088055,-0.003665188793092966,-0.024434590712189674
1772726502852018200,6.83501806640625,0.006719512399286032,-0.01282816007733345,-0.021991131827235222
1772726502861535700,6.84453564453125,0.008552107028663158,-0.01588248461484909,-0.02260199747979641
1772726502871053300,6.85405322265625,0.006719512399286032,-0.01588248461484909,-0.0256563201546669
1772726502880571000,6.86357080078125,0.004886918235570192,-0.01282816007733345,-0.027488915249705315
1772726502890088400,6.87308837890625,0.0054977829568088055,-0.008552107028663158,-0.02871064469218254
1772726502899606000,6.88260595703125,0.0054977829568088055,-0.006108647678047419,-0.0256563201546669
1772726502909123600,6.89212353515625,0.006719512399286032,-0.000610864779446274,-0.017104214057326317
1772726502918641200,6.90164111328125,0.006719512399286032,0.004886918235570192,-0.007941242307424545
1772726502928158700,6.91115869140625,0.004886918235570192,0.0054977829568088055,-0.002443459117785096
1772726502937676300,6.92067626953125,0.004886918235570192,0.004886918235570192,0.002443459117785096
1772726502947193900,6.93019384765625,0.001832594396546483,0.011606430634856224,0.001832594396546483
1772726502956711400,6.93971142578125,-0.004276053514331579,0.012217295356094837,-0.004886918235570192
1772726502966229000,6.94922900390625,-0.006108647678047419,0.008552107028663158,-0.01649334840476513
1772726502975746600,6.95874658203125,-0.003665188793092966,0.0030543238390237093,-0.026878049597144127
1772726502985264000,6.96826416015625,0.001832594396546483,-0.004276053514331579,-0.033597562462091446
1772726502994781700,6.97778173828125,0.006108647678047419,-0.018325943499803543,-0.036651886999607086
1772726503004299300,6.98729931640625,0.007941242307424545,-0.030543239787220955,-0.0360410213470459
1772726503013816800,6.99681689453125,0.008552107028663158,-0.03237583488225937,-0.031154103577136993
1772726503023334400,7.00633447265625,0.008552107028663158,-0.026878049597144127,-0.020158538594841957
1772726503032852000,7.01585205078125,0.003665188793092966,-0.01649334840476513,-0.009162971749901772
1772726503042369500,7.02536962890625,-0.001832594396546483,-0.007330377586185932,-0.0030543238390237093
1772726503051887000,7.03488720703125,-0.0030543238390237093,0.003665188793092966,-0.000610864779446274
1772726503061404700,7.04440478515625,-0.001832594396546483,0.015271619893610477,-0.001221729558892548
1772726503070922200,7.053922119140625,-0.001221729558892548,0.018325943499803543,-0.003665188793092966
1772726503080439800,7.063439697265625,-0.004276053514331579,0.014049889519810677,-0.008552107028663158
1772726503089957400,7.072957275390625,-0.004886918235570192,0.006108647678047419,-0.01893680728971958
1772726503099475000,7.082474853515625,-0.0054977829568088055,-0.004276053514331579,-0.03298669680953026
1772726503108992800,7.09199267578125,-0.001832594396546483,-0.020158538594841957,-0.043371398001909256
1772726503118510000,7.101510009765625,0.001832594396546483,-0.023212861269712448,-0.04276053607463837
1772726503128027600,7.111027587890625,0.0030543238390237093,-0.020158538594841957,-0.030543239787220955
1772726503137545500,7.12054541015625,0.001832594396546483,-0.013439024798572063,-0.014049889519810677
1772726503147062800,7.130062744140625,0.001832594396546483,0,0.0054977829568088055
1772726503156580600,7.13958056640625,0.0030543238390237093,0.011606430634856224,0.023212861269712448
1772726503166098200,7.14909814453125,0.001832594396546483,0.014049889519810677,0.03298669680953026
1772726503175615700,7.15861572265625,-0.001221729558892548,0.010384701192378998,0.03176496922969818
1772726503185133300,7.16813330078125,-0.001832594396546483,-0.002443459117785096,0.020769402384757996
1772726503194651000,7.17765087890625,0.000610864779446274,-0.017715077847242355,0.003665188793092966
1772726503204168400,7.18716845703125,0.0054977829568088055,-0.025045456364750862,-0.010995565913617611
1772726503213686000,7.19668603515625,0.007330377586185932,-0.020769402384757996,-0.018325943499803543
1772726503223203600,7.20620361328125,0.004886918235570192,-0.014049889519810677,-0.020158538594841957
1772726503232721200,7.21572119140625,0.004276053514331579,-0.002443459117785096,-0.017104214057326317
1772726503242238700,7.22523876953125,0.0054977829568088055,0.004276053514331579,-0.01282816007733345
1772726503251756300,7.23475634765625,0.007330377586185932,0.006719512399286032,-0.009162971749901772
1772726503261273900,7.24427392578125,0.007330377586185932,0.001832594396546483,-0.008552107028663158
1772726503270791400,7.25379150390625,0.004276053514331579,-0.009773836471140385,-0.010384701192378998
1772726503280309000,7.26330908203125,0.0054977829568088055,-0.014049889519810677,-0.010995565913617611
1772726503289826600,7.27282666015625,0.006108647678047419,-0.01588248461484909,-0.009773836471140385
1772726503299344100,7.28234423828125,0.006108647678047419,-0.015271619893610477,-0.007941242307424545
1772726503308861700,7.29186181640625,0.004886918235570192,-0.007941242307424545,-0.011606430634856224
1772726503318379300,7.301379150390625,0.006108647678047419,0.004276053514331579,-0.017104214057326317
1772726503327896800,7.310896728515625,0.008552107028663158,0.010995565913617611,-0.02260199747979641
1772726503337414400,7.320414306640625,0.011606430634856224,0.010384701192378998,-0.025045456364750862
1772726503346932000,7.329931884765625,0.011606430634856224,-0.000610864779446274,-0.027488915249705315
1772726503356449500,7.339449462890625,0.010995565913617611,-0.013439024798572063,-0.028099779039621353
1772726503365967000,7.348967041015625,0.012217295356094837,-0.021991131827235222,-0.025045456364750862
1772726503375484700,7.358484619140625,0.014660755172371864,-0.025045456364750862,-0.020158538594841957
1772726503385002200,7.368002197265625,0.015271619893610477,-0.018325943499803543,-0.01649334840476513
1772726503394519800,7.377519775390625,0.014049889519810677,-0.012217295356094837,-0.013439024798572063
1772726503404037400,7.387037353515625,0.013439024798572063,-0.004276053514331579,-0.014660755172371864
1772726503413555000,7.396554931640625,0.012217295356094837,0.007330377586185932,-0.01649334840476513
1772726503423072500,7.406072509765625,0.009773836471140385,0.009773836471140385,-0.01954767294228077
1772726503432590000,7.415590087890625,0.008552107028663158,0.006108647678047419,-0.02260199747979641
1772726503442107600,7.425107666015625,0.010995565913617611,0.002443459117785096,-0.020158538594841957
1772726503451625200,7.434625244140625,0.013439024798572063,-0.004276053514331579,-0.015271619893610477
1772726503461142800,7.444142822265625,0.01588248461484909,-0.012217295356094837,-0.012217295356094837
1772726503470660600,7.45366064453125,0.015271619893610477,-0.018325943499803543,-0.014660755172371864
1772726503480178000,7.463177978515625,0.013439024798572063,-0.023823726922273636,-0.020769402384757996
1772726503489695500,7.472695556640625,0.009162971749901772,-0.02260199747979641,-0.0256563201546669
1772726503499213300,7.48221337890625,0.0054977829568088055,-0.01893680728971958,-0.027488915249705315
1772726503508730600,7.491730712890625,0.003665188793092966,-0.008552107028663158,-0.023823726922273636
1772726503518248200,7.501248291015625,0.003665188793092966,-0.009162971749901772,-0.021380268037319183
1772726503527766000,7.51076611328125,0.006719512399286032,-0.008552107028663158,-0.017715077847242355
1772726503537283600,7.52028369140625,0.009162971749901772,-0.004276053514331579,-0.014660755172371864
1772726503546801000,7.52980078125,0.009773836471140385,-0.0030543238390237093,-0.014049889519810677
1772726503556318700,7.539318603515625,0.009773836471140385,-0.004886918235570192,-0.01588248461484909
1772726503565836300,7.548836181640625,0.010995565913617611,-0.010384701192378998,-0.017104214057326317
1772726503575353600,7.558353515625,0.009773836471140385,-0.008552107028663158,-0.014660755172371864
1772726503584871400,7.567871337890625,0.008552107028663158,-0.0030543238390237093,-0.009162971749901772
1772726503594389000,7.577388916015625,0.007330377586185932,0.009162971749901772,-0.001221729558892548
1772726503603906600,7.586906494140625,0.0054977829568088055,0.020769402384757996,0.003665188793092966
1772726503613424000,7.596424072265625,0.0030543238390237093,0.01893680728971958,0.001221729558892548
1772726503622941700,7.605941650390625,0.0030543238390237093,0.009162971749901772,-0.007941242307424545
1772726503632459300,7.615459228515625,0.0054977829568088055,-0.01649334840476513,-0.020769402384757996
1772726503641976800,7.624976806640625,0.009162971749901772,-0.040317077189683914,-0.03481929376721382
1772726503651494400,7.634494384765625,0.009162971749901772,-0.049480047076940536,-0.046425722539424896
1772726503661012000,7.644011962890625,0.004886918235570192,-0.053756099194288254,-0.05558869615197182
1772726503670529500,7.653529541015625,0.002443459117785096,-0.046425722539424896,-0.05803215503692627
1772726503680047000,7.663047119140625,0.000610864779446274,-0.026878049597144127,-0.05497783049941063
1772726503689564700,7.672564697265625,-0.002443459117785096,-0.006108647678047419,-0.04520399495959282
1772726503699082200,7.682082275390625,-0.002443459117785096,0.009773836471140385,-0.031154103577136993
1772726503708599800,7.691599853515625,-0.002443459117785096,0.017104214057326317,-0.018325943499803543
1772726503718117400,7.701117431640625,0,0.018325943499803543,-0.004886918235570192
1772726503727635000,7.710635009765625,0.000610864779446274,0.01893680728971958,0.002443459117785096
1772726503737152500,7.720152587890625,-0.003665188793092966,0.015271619893610477,0.0030543238390237093
1772726503746670000,7.729670166015625,-0.004886918235570192,0.004276053514331579,-0.000610864779446274
1772726503756187600,7.739187744140625,-0.002443459117785096,-0.010384701192378998,-0.007330377586185932
1772726503765705200,7.748705322265625,0.002443459117785096,-0.017104214057326317,-0.01588248461484909
1772726503775222800,7.758222900390625,0.0054977829568088055,-0.018325943499803543,-0.021991131827235222
1772726503784740400,7.767740234375,0.007330377586185932,-0.017715077847242355,-0.024434590712189674
1772726503794258000,7.7772578125,0.009162971749901772,-0.01588248461484909,-0.023823726922273636
1772726503803775500,7.786775390625,0.01282816007733345,-0.009162971749901772,-0.015271619893610477
1772726503813293300,7.796293212890625,0.014660755172371864,0.001832594396546483,-0.004276053514331579
1772726503822810600,7.805810546875,0.010995565913617611,0.009773836471140385,0.007330377586185932
1772726503832328200,7.815328125,0.006108647678047419,0.007330377586185932,0.013439024798572063
1772726503841846000,7.824845947265625,0.001221729558892548,-0.006108647678047419,0.008552107028663158
1772726503851363300,7.83436328125,0.001832594396546483,-0.01588248461484909,-0.007330377586185932
1772726503860881000,7.843880859375,-0.003665188793092966,-0.002443459117785096,-0.028099779039621353
1772726503870398700,7.853398681640625,-0.008552107028663158,0,-0.046425722539424896
1772726503879916300,7.862916259765625,-0.002443459117785096,-0.004276053514331579,-0.05864302068948746
1772726503889433600,7.87243359375,0.007941242307424545,-0.014049889519810677,-0.06352993845939636
1772726503898951400,7.881951416015625,0.014049889519810677,-0.02260199747979641,-0.05803215503692627
1772726503908469000,7.891468994140625,0.014049889519810677,-0.013439024798572063,-0.046425722539424896
1772726503917986300,7.900986328125,0.006108647678047419,0.006719512399286032,-0.029932374134659767
1772726503927504100,7.910504150390625,-0.001221729558892548,0.017104214057326317,-0.010384701192378998
1772726503937021700,7.920021728515625,-0.001832594396546483,0.018325943499803543,0.007330377586185932
1772726503946539300,7.929539306640625,0.001832594396546483,0.01649334840476513,0.024434590712189674
1772726503956056800,7.939056884765625,0.002443459117785096,0.007941242307424545,0.0360410213470459
1772726503965574400,7.948574462890625,-0.000610864779446274,0.0030543238390237093,0.043371398001909256
1772726503975092000,7.958092041015625,0,0.010995565913617611,0.050090912729501724
1772726503984609500,7.967609619140625,0.0030543238390237093,0.014660755172371864,0.053756099194288254
1772726503994127000,7.977127197265625,0.0054977829568088055,0.014049889519810677,0.053145237267017365
1772726504003644700,7.986644775390625,0.0054977829568088055,0.011606430634856224,0.043982263654470444
1772726504013162200,7.996162353515625,0.004276053514331579,0.010384701192378998,0.028099779039621353
1772726504022679800,8.0056796875,0.0030543238390237093,0.015271619893610477,0.010995565913617611
1772726504032197400,8.015197265625,0.003665188793092966,0.015271619893610477,-0.004886918235570192
1772726504041715000,8.02471484375,0.006719512399286032,0.003665188793092966,-0.020769402384757996
1772726504051232500,8.034232421875,0.009162971749901772,-0.010384701192378998,-0.034208428114652634
1772726504060750000,8.04375,0.012217295356094837,-0.009773836471140385,-0.039706211537122726
1772726504070267600,8.053267578125,0.013439024798572063,-0.0030543238390237093,-0.039706211537122726
1772726504079785200,8.06278515625,0.008552107028663158,0.001832594396546483,-0.03481929376721382
1772726504089302800,8.072302734375,0.003665188793092966,0.000610864779446274,-0.027488915249705315
1772726504098820400,8.0818203125,0.001832594396546483,-0.004886918235570192,-0.020769402384757996
1772726504108338000,8.091337890625,0.006719512399286032,-0.006719512399286032,-0.014049889519810677
1772726504117855500,8.10085546875,0.015271619893610477,-0.006719512399286032,-0.007330377586185932
1772726504127373300,8.110373291015625,0.020769402384757996,0.001221729558892548,-0.001221729558892548
1772726504136890600,8.119890625,0.018325943499803543,0.009773836471140385,0.003665188793092966
1772726504146408200,8.129408203125,0.013439024798572063,0.012217295356094837,0.010384701192378998
1772726504155926000,8.138926025390624,0.012217295356094837,0.010384701192378998,0.018325943499803543
1772726504165443300,8.148443359375,0.01588248461484909,0.000610864779446274,0.030543239787220955
1772726504174961000,8.1579609375,0.017715077847242355,-0.014660755172371864,0.047036588191986084
1772726504184478700,8.167478759765626,0.013439024798572063,-0.021991131827235222,0.05558869615197182
1772726504193996300,8.176996337890625,0.0030543238390237093,-0.020769402384757996,0.05253437161445618
1772726504203513600,8.186513671875,-0.000610864779446274,-0.020769402384757996,0.03787361457943916
1772726504213031400,8.196031494140625,0.007941242307424545,-0.010995565913617611,0.023212861269712448
1772726504222549000,8.205549072265624,0.021991131827235222,0.009773836471140385,0.020158538594841957
1772726504232066600,8.215066650390625,0.026878049597144127,0.009162971749901772,0.029932374134659767
1772726504241584000,8.224584228515624,0.021991131827235222,-0.0030543238390237093,0.049480047076940536
1772726504251101700,8.234101806640625,0.007941242307424545,0.007941242307424545,0.0665842592716217
1772726504260619300,8.243619384765625,-0.011606430634856224,0.020769402384757996,0.07086031138896942
1772726504270136800,8.25313671875,-0.02932151034474373,0.02932151034474373,0.05925388261675835
1772726504279654400,8.262654296875,-0.031154103577136993,0.03543015569448471,0.0360410213470459
1772726504289172000,8.272171875,-0.018325943499803543,0.026878049597144127,0.0054977829568088055
1772726504298689500,8.281689453125,-0.000610864779446274,0.008552107028663158,-0.023823726922273636
1772726504308207000,8.29120703125,0.011606430634856224,0.003665188793092966,-0.04520399495959282
1772726504317724700,8.300724609375,0.010384701192378998,0.004276053514331579,-0.059864748269319534
1772726504327242200,8.3102421875,0.001221729558892548,0.001832594396546483,-0.07086031138896942
1772726504336759800,8.319759765625,-0.007941242307424545,0.010384701192378998,-0.07941242307424545
1772726504346277400,8.32927734375,-0.010384701192378998,0.025045456364750862,-0.08552107214927673
1772726504355795000,8.338794921875,-0.006108647678047419,0.031154103577136993,-0.08979712426662445
1772726504365312500,8.3483125,-0.001832594396546483,0.02932151034474373,-0.08979712426662445
1772726504374830000,8.357830078125,0,0.02871064469218254,-0.08613193035125732
1772726504384347600,8.36734765625,-0.003665188793092966,0.02260199747979641,-0.0769689604640007
1772726504393865200,8.376865234375,-0.004886918235570192,0.015271619893610477,-0.06291907280683517
1772726504403382800,8.3863828125,-0.001221729558892548,0.017104214057326317,-0.04276053607463837
1772726504412900600,8.395900634765624,0.004276053514331579,0.018325943499803543,-0.01588248461484909
1772726504422418000,8.40541796875,0.0054977829568088055,0.015271619893610477,0.010384701192378998
1772726504431935500,8.414935546875,0.004276053514331579,0.010995565913617611,0.031154103577136993
1772726504441453300,8.424453369140625,0.001221729558892548,0.007330377586185932,0.04459312930703163
1772726504450971000,8.433970947265625,-0.002443459117785096,-0.001221729558892548,0.0409279391169548
1772726504460488200,8.44348828125,-0.0054977829568088055,-0.01649334840476513,0.020769402384757996
1772726504470006000,8.453006103515625,-0.001832594396546483,-0.017715077847242355,-0.011606430634856224
1772726504479523600,8.462523681640626,0.006108647678047419,-0.004886918235570192,-0.04214967042207718
1772726504489041000,8.472041015625,0.01282816007733345,0.006108647678047419,-0.06597339361906052
1772726504498558700,8.481558837890624,0.015271619893610477,0.004276053514331579,-0.0769689604640007
1772726504508076300,8.491076171875,0.01282816007733345,-0.0054977829568088055,-0.07452550530433655
1772726504517593900,8.50059375,0.010995565913617611,-0.014660755172371864,-0.06291907280683517
1772726504527111400,8.510111328125,0.007941242307424545,-0.020769402384757996,-0.04825831577181816
1772726504536629000,8.51962890625,0.006108647678047419,-0.017715077847242355,-0.034208428114652634
1772726504546146600,8.529146484375,0.006719512399286032,-0.011606430634856224,-0.020158538594841957
1772726504555664100,8.5386640625,0.008552107028663158,-0.011606430634856224,-0.008552107028663158
1772726504565181700,8.548181640625,0.010384701192378998,-0.009773836471140385,0.001832594396546483
1772726504574699300,8.55769921875,0.008552107028663158,0,0.008552107028663158
1772726504584216800,8.567216796875,0,0.006719512399286032,0.010384701192378998
1772726504593734400,8.576734375,-0.012217295356094837,0.01282816007733345,0.003665188793092966
1772726504603252000,8.586251953125,-0.014049889519810677,0.01954767294228077,-0.009162971749901772
1772726504612769500,8.59576953125,-0.007330377586185932,0.020769402384757996,-0.020158538594841957
1772726504622287000,8.605287109375,0.003665188793092966,0.01588248461484909,-0.025045456364750862
1772726504631804700,8.6148046875,0.010995565913617611,0.004276053514331579,-0.026878049597144127
1772726504641322200,8.624322265625,0.010995565913617611,-0.006108647678047419,-0.023823726922273636
1772726504650839800,8.63383984375,0.010384701192378998,-0.012217295356094837,-0.015271619893610477
1772726504660357400,8.643357421875,0.010384701192378998,-0.01282816007733345,-0.006108647678047419
1772726504669875000,8.652875,0.011606430634856224,-0.009773836471140385,-0.000610864779446274
1772726504679392500,8.662392578125,0.013439024798572063,-0.009773836471140385,0.000610864779446274
1772726504688910000,8.67191015625,0.014049889519810677,-0.010995565913617611,0
1772726504698427600,8.681427734375,0.017715077847242355,-0.004276053514331579,0.0030543238390237093
1772726504707945500,8.690945556640624,0.017104214057326317,0,0.012217295356094837
1772726504717462800,8.700462890625,0.009773836471140385,-0.003665188793092966,0.020158538594841957
1772726504726980600,8.709980712890625,0.004276053514331579,-0.007941242307424545,0.02626718580722809
1772726504736498200,8.719498291015626,0.006108647678047419,-0.006719512399286032,0.025045456364750862
1772726504746015500,8.729015380859375,0.010384701192378998,-0.009162971749901772,0.01954767294228077
1772726504755533300,8.738533203125,0.009773836471140385,-0.01649334840476513,0.009162971749901772
1772726504765051000,8.74805078125,0.002443459117785096,-0.01588248461484909,0.002443459117785096
1772726504774568400,8.757568359375,-0.007941242307424545,-0.001832594396546483,-0.004276053514331579
1772726504784086000,8.7670859375,-0.01588248461484909,0.007941242307424545,-0.013439024798572063
1772726504793603600,8.776603515625,-0.006719512399286032,0.006719512399286032,-0.02260199747979641
1772726504803121200,8.78612109375,0.008552107028663158,-0.002443459117785096,-0.031154103577136993
1772726504812638700,8.795638671875,0.01588248461484909,-0.010995565913617611,-0.03543015569448471
1772726504822156300,8.80515625,0.014660755172371864,-0.01282816007733345,-0.03787361457943916
1772726504831673900,8.814673828125,0.01649334840476513,-0.008552107028663158,-0.033597562462091446
1772726504841191400,8.82419140625,0.01954767294228077,-0.001832594396546483,-0.023212861269712448
1772726504850709000,8.833708984375,0.014049889519810677,-0.003665188793092966,-0.007330377586185932
1772726504860226600,8.8432265625,0,0.000610864779446274,0.011606430634856224
1772726504869744000,8.852744140625,-0.015271619893610477,0.006108647678047419,0.02626718580722809
1772726504879261700,8.86226171875,-0.01954767294228077,0.007330377586185932,0.034208428114652634
1772726504888779300,8.871779296875,-0.010384701192378998,0.002443459117785096,0.03176496922969818
1772726504898296800,8.881296875,0.002443459117785096,-0.001221729558892548,0.01649334840476513
1772726504907814400,8.890814453125,0.014660755172371864,0.001832594396546483,-0.004276053514331579
1772726504917332000,8.90033203125,0.020158538594841957,0.0054977829568088055,-0.02626718580722809
1772726504926849500,8.909849609375,0.024434590712189674,0.003665188793092966,-0.043371398001909256
1772726504936367000,8.9193671875,0.023823726922273636,-0.004276053514331579,-0.05497783049941063
1772726504945884700,8.928884765625,0.02260199747979641,-0.01649334840476513,-0.056810423731803894
1772726504955402200,8.93840234375,0.017104214057326317,-0.018325943499803543,-0.053756099194288254
1772726504964920000,8.947920166015624,0.009162971749901772,-0.010384701192378998,-0.04886918142437935
1772726504974437400,8.957437255859375,-0.001221729558892548,0.001221729558892548,-0.043371398001909256
1772726504983955000,8.966954833984374,-0.007941242307424545,0.008552107028663158,-0.03787361457943916
1772726504993472800,8.97647265625,-0.006719512399286032,0.0030543238390237093,-0.034208428114652634
1772726505002990300,8.985990234375,0.002443459117785096,-0.009162971749901772,-0.02932151034474373
1772726505012508000,8.9955078125,0.014660755172371864,-0.021991131827235222,-0.021991131827235222
1772726505022025500,9.005025390625,0.017104214057326317,-0.023212861269712448,-0.01649334840476513
1772726505031543000,9.01454296875,0.013439024798572063,-0.018325943499803543,-0.014660755172371864
1772726505041060600,9.024060546875,0.009162971749901772,-0.012217295356094837,-0.01282816007733345
1772726505050578200,9.033578125,0.0054977829568088055,-0.007941242307424545,-0.011606430634856224
1772726505060095700,9.043095703125,0.001832594396546483,0.003665188793092966,-0.009162971749901772
1772726505069613300,9.05261328125,0.000610864779446274,0.014049889519810677,-0.0054977829568088055
1772726505079131000,9.062130859375,0.002443459117785096,0.015271619893610477,-0.003665188793092966
1772726505088648400,9.0716484375,0.007941242307424545,0.010995565913617611,-0.0054977829568088055
1772726505098166000,9.081166015625,0.01588248461484909,0.009162971749901772,-0.008552107028663158
1772726505107683600,9.09068359375,0.017715077847242355,0.003665188793092966,-0.013439024798572063
1772726505117201200,9.100201171875,0.01282816007733345,0.0054977829568088055,-0.018325943499803543
1772726505126718700,9.10971875,0.006719512399286032,0.01649334840476513,-0.0256563201546669
1772726505136236300,9.119236328125,0.009162971749901772,0.017104214057326317,-0.036651886999607086
1772726505145753900,9.12875390625,0.01893680728971958,0.003665188793092966,-0.043982263654470444
1772726505155271400,9.138271484375,0.026878049597144127,-0.01649334840476513,-0.043371398001909256
1772726505164789200,9.147789306640625,0.027488915249705315,-0.04276053607463837,-0.030543239787220955
1772726505174306600,9.157306640625,0.014049889519810677,-0.05192350596189499,-0.008552107028663158
1772726505183824100,9.16682421875,-0.007941242307424545,-0.04214967042207718,0.012217295356094837
1772726505193342000,9.176342041015625,-0.025045456364750862,-0.031154103577136993,0.021991131827235222
1772726505202859500,9.185859619140626,-0.02932151034474373,-0.017715077847242355,0.020769402384757996
1772726505212376800,9.195376953125,-0.021991131827235222,-0.007330377586185932,0.01649334840476513
1772726505221894700,9.204894775390626,-0.012217295356094837,-0.0030543238390237093,0.014049889519810677
1772726505231412200,9.214412109375,-0.006108647678047419,-0.002443459117785096,0.014660755172371864
1772726505240929800,9.2239296875,-0.009162971749901772,-0.007330377586185932,0.017104214057326317
1772726505250447400,9.233447265625,-0.01893680728971958,-0.007941242307424545,0.021380268037319183
1772726505259965000,9.24296484375,-0.030543239787220955,0.004276053514331579,0.021380268037319183
1772726505269482500,9.252482421875,-0.039706211537122726,0.018325943499803543,0.012217295356094837
1772726505279000000,9.262,-0.03543015569448471,0.020769402384757996,-0.002443459117785096
1772726505288517600,9.271517578125,-0.015271619893610477,0.017104214057326317,-0.01954767294228077
1772726505298035200,9.28103515625,0.009773836471140385,0.008552107028663158,-0.03176496922969818
1772726505307552800,9.290552734375,0.027488915249705315,0,-0.03787361457943916
1772726505317070300,9.3000703125,0.029932374134659767,-0.006719512399286032,-0.03543015569448471
1772726505326588000,9.309587890625,0.023823726922273636,-0.01893680728971958,-0.028099779039621353
1772726505336105500,9.31910546875,0.01649334840476513,-0.025045456364750862,-0.018325943499803543
1772726505345623000,9.328623046875,0.009773836471140385,-0.021380268037319183,-0.011606430634856224
1772726505355140600,9.338140625,0.006719512399286032,-0.009773836471140385,-0.007330377586185932
1772726505364658200,9.347658203125,0.007330377586185932,0.014049889519810677,-0.001832594396546483
1772726505374175700,9.35717578125,0.0054977829568088055,0.03848448023200035,-0.001221729558892548
1772726505383693300,9.366693359375,0.0054977829568088055,0.04825831577181816,-0.006719512399286032
1772726505393211000,9.3762109375,0.01588248461484909,0.03909534588456154,-0.010995565913617611
1772726505402728400,9.385728515625,0.027488915249705315,0.034208428114652634,-0.009773836471140385
1772726505412246000,9.39524609375,0.02626718580722809,0.036651886999607086,-0.0030543238390237093
1772726505421763600,9.404763671875,0.01282816007733345,0.030543239787220955,0.002443459117785096
1772726505431281400,9.414281494140624,0.006719512399286032,0.01588248461484909,0.012217295356094837
1772726505440798700,9.423798828125,0.007941242307424545,0.01649334840476513,0.025045456364750862
1772726505450316500,9.433316650390625,0.001832594396546483,0.023823726922273636,0.030543239787220955
1772726505459834000,9.442834228515625,-0.012217295356094837,0.02871064469218254,0.02871064469218254
1772726505469351700,9.4523515625,-0.021991131827235222,0.03787361457943916,0.020769402384757996
1772726505478869200,9.461869140625,-0.024434590712189674,0.053756099194288254,0.014049889519810677
1772726505488386800,9.47138671875,-0.021380268037319183,0.059864748269319534,0.011606430634856224
1772726505497904400,9.480904296875,-0.012217295356094837,0.049480047076940536,0.004886918235570192
1772726505507422000,9.490421875,0.000610864779446274,0.04276053607463837,-0.009162971749901772
1772726505516939500,9.499939453125,0.006719512399286032,0.026878049597144127,-0.03787361457943916
1772726505526457000,9.50945703125,0.006108647678047419,0.011606430634856224,-0.07635809481143951
1772726505535974700,9.518974609375,0.007941242307424545,0.006108647678047419,-0.11239911615848541
1772726505545492200,9.5284921875,0.01282816007733345,0.000610864779446274,-0.13561198115348816
1772726505555009800,9.538009765625,0.01649334840476513,-0.007330377586185932,-0.14110976457595825
1772726505564527400,9.54752734375,0.010995565913617611,-0.004276053514331579,-0.13072505593299866
1772726505574045000,9.557044921875,-0.006719512399286032,0.023212861269712448,-0.11728604137897491
