time,seconds_elapsed,z,y,x
1772725491878465000,0.089465087890625,0,0,0
1772725491887981800,0.09898193359375,0.013691902160644531,0.00971078872680664,0.02015054225921631
1772725491897498600,0.10849853515625,0.00861358642578125,-0.011793136596679688,0.0737525224685669
1772725491907015400,0.118015380859375,-0.013627052307128906,-0.008401155471801758,0.07471120357513428
1772725491916532500,0.127532470703125,-0.05330944061279297,-0.025504589080810547,0.10947680473327637
1772725491926049300,0.13704931640625,-0.09460258483886719,-0.010691642761230469,0.10795658826828003
1772725491935566000,0.146566162109375,-0.07106494903564453,0.01385045051574707,0.09188187122344971
1772725491945083000,0.156082763671875,0.0026397705078125,0.0164642333984375,0.09686481952667236
1772725491954599700,0.165599609375,0.062064170837402344,-0.019913673400878906,0.10448652505874634
1772725491964116500,0.175116455078125,0.09717464447021484,-0.06217479705810547,0.12067610025405884
1772725491973633300,0.18463330078125,0.08692264556884766,-0.0911550521850586,0.104312002658844
1772725491983150000,0.194150146484375,0.01930522918701172,-0.10376620292663574,0.08388900756835938
1772725491992667000,0.2036669921875,-0.0251312255859375,-0.09218978881835938,0.05069237947463989
1772725492002183700,0.21318359375,-0.09325313568115234,-0.0884404182434082,0.067514568567276
1772725492011700500,0.222700439453125,-0.15981006622314453,-0.08465170860290527,0.07084253430366516
1772725492021217300,0.23221728515625,-0.2436065673828125,-0.060057878494262695,0.05192720890045166
1772725492030734000,0.241734130859375,-0.3037385940551758,-0.07407045364379883,0.029434561729431152
1772725492040251000,0.2512509765625,-0.2944202423095703,-0.0680389404296875,-0.010503232479095459
1772725492049767700,0.260767578125,-0.24144935607910156,-0.04609203338623047,0.0187949538230896
1772725492059284500,0.270284423828125,-0.1919116973876953,-0.0682227611541748,0.058453261852264404
1772725492068801300,0.27980126953125,-0.17482852935791016,-0.06427597999572754,0.08831042051315308
1772725492078318300,0.289318359375,-0.11336612701416016,-0.09228277206420898,0.08981245756149292
1772725492087835000,0.2988349609375,0.004710197448730469,-0.057485103607177734,0.029712915420532227
1772725492097352000,0.30835205078125,0.028635025024414062,-0.05217123031616211,-0.01139456033706665
1772725492106868700,0.31786865234375,0.019535064697265625,-0.024430274963378906,-0.021986007690429688
1772725492116385500,0.327385498046875,-0.026183128356933594,0.02087879180908203,-0.010623633861541748
1772725492125902300,0.33690234375,-0.033614158630371094,0.028171539306640625,-0.009452641010284424
1772725492135419100,0.346419189453125,-0.031726837158203125,0.03090214729309082,-0.015619158744812012
1772725492144936000,0.35593603515625,0.009251594543457031,0.013025283813476562,0.04337763786315918
1772725492154452700,0.36545263671875,0.018746376037597656,0.0075511932373046875,0.02466815710067749
1772725492163969500,0.374969482421875,0.0163116455078125,0.04650449752807617,0.02331674098968506
1772725492173486300,0.384486328125,0.035003662109375,0.08622074127197266,0.010689854621887207
1772725492183003100,0.394003173828125,0.0789785385131836,0.0868985652923584,0.039700597524642944
1772725492192520000,0.40352001953125,0.09183883666992188,0.042665719985961914,0.04390871524810791
1772725492202036700,0.41303662109375,0.06511783599853516,0.022368192672729492,0.04529285430908203
1772725492211553500,0.422553466796875,0.05088520050048828,-0.0021905899047851562,0.04638296365737915
1772725492221070300,0.4320703125,0.0466156005859375,-0.01252436637878418,0.07189017534255981
1772725492230587400,0.44158740234375,0.03815174102783203,0.016323089599609375,0.12551096081733704
1772725492240104000,0.45110400390625,0.013727188110351562,0.034784793853759766,0.12155303359031677
1772725492249620700,0.460620849609375,-0.021790504455566406,-0.003209352493286133,0.04437065124511719
1772725492259137800,0.4701376953125,-0.08237075805664062,-0.016505718231201172,0.019261181354522705
1772725492268654600,0.479654541015625,-0.08347225189208984,-0.021769285202026367,0.0036440789699554443
1772725492278171100,0.489171142578125,-0.04504203796386719,0.013367176055908203,0.028954535722732544
1772725492287688200,0.498688232421875,-0.012177467346191406,0.012754440307617188,0.022017687559127808
1772725492297205000,0.508205078125,0.005896568298339844,0.01921677589416504,0.06669718027114868
1772725492306721800,0.5177216796875,0.026035308837890625,0.04628634452819824,0.046868205070495605
1772725492316238600,0.527238525390625,0.06946372985839844,0.027640819549560547,0.0395503044128418
1772725492325755400,0.53675537109375,0.11234664916992188,0.006401538848876953,0.0547947883605957
1772725492335272200,0.546272216796875,0.07028484344482422,0.02258610725402832,0.054481714963912964
1772725492344789000,0.5557890625,-0.02006816864013672,0.02432084083557129,0.052959710359573364
1772725492354305800,0.565305908203125,-0.10652542114257812,0.03356575965881348,0.053549885749816895
1772725492363822600,0.574822509765625,-0.06959152221679688,0.03845787048339844,0.02007010579109192
1772725492373339400,0.58433935546875,0.030025482177734375,0.03362870216369629,-0.0026358962059020996
1772725492382856200,0.593856201171875,0.10231304168701172,0.023264646530151367,-0.03507634997367859
1772725492392373000,0.603373046875,0.08451557159423828,0.011987924575805664,-0.0641147792339325
1772725492401889800,0.612889892578125,0.06982040405273438,-0.02350139617919922,-0.06840500235557556
1772725492411406800,0.62240673828125,0.0675497055053711,-0.00527644157409668,-0.05847358703613281
1772725492420923600,0.631923583984375,0.058632850646972656,-0.01884150505065918,-0.05844423174858093
1772725492430440200,0.641440185546875,0.040813446044921875,-0.03300309181213379,-0.034824758768081665
1772725492439957200,0.650957275390625,-0.01655292510986328,-0.042407989501953125,-0.012574732303619385
1772725492449474000,0.66047412109375,-0.10608673095703125,-0.03929758071899414,0.033923834562301636
1772725492458990800,0.669990966796875,-0.21149349212646484,-0.060019493103027344,0.04805436730384827
1772725492468507600,0.679507568359375,-0.2219228744506836,-0.03836226463317871,-0.03129628300666809
1772725492478024400,0.6890244140625,-0.16449832916259766,-0.015828371047973633,-0.07746189832687378
1772725492487541200,0.698541259765625,-0.0185546875,-0.007949113845825195,-0.09699663519859314
1772725492497058000,0.70805810546875,0.012183189392089844,-0.031145572662353516,-0.04514142870903015
1772725492506574800,0.717574951171875,-0.09645462036132812,-0.02534198760986328,-0.010798752307891846
1772725492516091600,0.727091552734375,-0.1305217742919922,-0.026044607162475586,0.012759417295455933
1772725492525608400,0.7366083984375,-0.1265554428100586,-0.06382489204406738,0.03443878889083862
1772725492535125200,0.746125244140625,-0.009519577026367188,-0.0755014419555664,-0.004892021417617798
1772725492544642000,0.75564208984375,0.06599712371826172,-0.05030488967895508,-0.07576081156730652
1772725492554158800,0.765158935546875,0.039269447326660156,-0.059102535247802734,-0.13257813453674316
1772725492563675600,0.774675537109375,-0.020018577575683594,-0.053836822509765625,-0.1535472869873047
1772725492573192400,0.7841923828125,0.02298259735107422,-0.018585205078125,-0.16396591067314148
1772725492582709200,0.793709228515625,0.011605262756347656,0.0009298324584960938,-0.14518576860427856
1772725492592226000,0.80322607421875,-0.027365684509277344,-0.03035593032836914,-0.09571993350982666
1772725492601743000,0.8127431640625,-0.009030342102050781,-0.0569913387298584,-0.07383716106414795
1772725492611260000,0.822260009765625,-0.035717010498046875,-0.04799032211303711,-0.05565345287322998
1772725492620776700,0.831776611328125,-0.015048027038574219,-0.027101993560791016,-0.08085328340530396
1772725492630293500,0.84129345703125,-0.028173446655273438,-0.021915912628173828,-0.0784938633441925
1772725492639810300,0.850810302734375,-0.034679412841796875,0.0035512447357177734,-0.06504032015800476
1772725492649327000,0.8603271484375,-0.08190059661865234,-0.01409149169921875,-0.0378289520740509
1772725492658844000,0.869843994140625,-0.04172706604003906,-0.011403799057006836,0.0037324130535125732
1772725492668360700,0.879360595703125,0.02621746063232422,0.00039649009704589844,0.037098318338394165
1772725492677877500,0.88887744140625,0.13602733612060547,0.0035872459411621094,0.10236385464668274
1772725492687394300,0.898394287109375,0.13390827178955078,-0.008475303649902344,0.1345832347869873
1772725492696911000,0.9079111328125,0.1085500717163086,-0.006774425506591797,0.07511469721794128
1772725492706428000,0.917427978515625,0.0482330322265625,-0.026117324829101562,0.04441937804222107
1772725492715944700,0.92694482421875,0.009874343872070312,-0.018838882446289062,0.02966129779815674
1772725492725461500,0.93646142578125,0.002521514892578125,-0.004148244857788086,0.028686493635177612
1772725492734978300,0.945978271484375,-0.028400421142578125,-0.015146493911743164,0.020955145359039307
1772725492744495000,0.9554951171875,-0.028261184692382812,-0.011682510375976562,-0.016792327165603638
1772725492754012000,0.965011962890625,0.0024394989013671875,-0.010526657104492188,-0.044203609228134155
1772725492763529000,0.974529052734375,0.004338264465332031,-0.03754448890686035,-0.0645017921924591
1772725492773045500,0.98404541015625,0.048580169677734375,-0.0007157325744628906,-0.05686113238334656
1772725492782562600,0.9935625,0.12281513214111328,-0.00021696090698242188,-0.019287198781967163
1772725492792079400,1.003079345703125,0.21030330657958984,0.00868844985961914,-0.022877812385559082
1772725492801596200,1.01259619140625,0.17203712463378906,-0.061177730560302734,-0.002561420202255249
1772725492811113000,1.022113037109375,0.09454631805419922,-0.09258317947387695,0.038477301597595215
1772725492820629800,1.031629638671875,0.04436492919921875,-0.10260915756225586,0.027204424142837524
1772725492830146600,1.041146484375,0.004763603210449219,-0.05898594856262207,0.01522412896156311
1772725492839663400,1.050663330078125,-0.03153705596923828,-0.04719281196594238,0.03791704773902893
1772725492849180200,1.06018017578125,-0.055469512939453125,-0.04258990287780762,0.07245117425918579
1772725492858697000,1.069697021484375,-0.10751724243164062,-0.06331777572631836,-0.004696547985076904
1772725492868213800,1.0792138671875,-0.16862773895263672,-0.06374216079711914,-0.10525134205818176
1772725492877730600,1.08873046875,-0.19426345825195312,-0.05063629150390625,-0.14774680137634277
1772725492887247400,1.098247314453125,-0.2250356674194336,-0.03821730613708496,-0.09250399470329285
1772725492896764200,1.10776416015625,-0.1781635284423828,-0.04590868949890137,-0.03827500343322754
1772725492906281000,1.117281005859375,-0.12513065338134766,-0.036513566970825195,0.004763185977935791
1772725492915797800,1.1267978515625,-0.018767356872558594,-0.05790233612060547,0.022731423377990723
1772725492925314600,1.136314453125,0.05301189422607422,-0.07677578926086426,0.0766650140285492
1772725492934831400,1.145831298828125,0.09787273406982422,-0.06034231185913086,0.08567968010902405
1772725492944348200,1.15534814453125,0.1258087158203125,-0.05192399024963379,0.04316979646682739
1772725492953865200,1.164865234375,0.1818084716796875,-0.05385899543762207,0.021985530853271484
1772725492963381800,1.1743818359375,0.2089405059814453,-0.02132248878479004,0.005036830902099609
1772725492972898800,1.18389892578125,0.1983041763305664,-0.020827054977416992,-0.002904146909713745
1772725492982415600,1.19341552734375,0.15052127838134766,-0.023540735244750977,0.010178148746490479
1772725492991932200,1.20293212890625,0.0825033187866211,-0.02422642707824707,0.034754037857055664
1772725493001449200,1.21244921875,0.04394817352294922,-0.0345156192779541,0.06390079855918884
1772725493010966000,1.221966064453125,0.024923324584960938,-0.02589726448059082,0.06719732284545898
1772725493020482800,1.23148291015625,0.001529693603515625,-0.026804685592651367,0.08285892009735107
1772725493029999600,1.24099951171875,-0.009717941284179688,-0.05591392517089844,0.05119016766548157
1772725493039516400,1.250516357421875,0.02630138397216797,-0.06581997871398926,0.0007501840591430664
1772725493049033200,1.260033203125,0.00760650634765625,-0.06621003150939941,-0.018641263246536255
1772725493058550000,1.269550048828125,-0.02960205078125,-0.050130605697631836,0.023350775241851807
1772725493068066800,1.27906689453125,-0.028560638427734375,-0.03662467002868652,0.0458829402923584
1772725493077583600,1.28858349609375,-0.034636497497558594,-0.0750424861907959,0.025370031595230103
1772725493087100400,1.298100341796875,-0.04070758819580078,-0.06319451332092285,0.03324434161186218
1772725493096617200,1.3076171875,-0.08214855194091797,-0.0816493034362793,0.04832106828689575
1772725493106134000,1.317134033203125,-0.06646442413330078,-0.04551267623901367,0.08496740460395813
1772725493115650800,1.32665087890625,-0.034499168395996094,-0.02184605598449707,0.1004285216331482
1772725493125167600,1.336167724609375,-0.0594940185546875,0.0013785362243652344,0.06203174591064453
1772725493134684400,1.345684326171875,-0.07016277313232422,-0.012942790985107422,0.06871718168258667
1772725493144201500,1.355201416015625,-0.036126136779785156,0.0063402652740478516,0.02568945288658142
1772725493153718000,1.364718017578125,-0.014414787292480469,0.008883953094482422,-0.025452524423599243
1772725493163235000,1.374235107421875,0.030582427978515625,-0.012402057647705078,-0.009553521871566772
1772725493172752000,1.383751953125,0.04668617248535156,-0.024179935455322266,0.001153022050857544
1772725493182268400,1.393268310546875,0.03437614440917969,-0.02886343002319336,-0.023159265518188477
1772725493191785500,1.402785400390625,0.0034723281860351562,-0.02400660514831543,-0.017902016639709473
1772725493201302300,1.41230224609375,0.015391349792480469,-0.03334999084472656,-0.00894501805305481
1772725493210819000,1.421819091796875,0.0953216552734375,-0.028594493865966797,-0.06558811664581299
1772725493220335900,1.4313359375,0.08456039428710938,-0.017144441604614258,-0.10604172945022583
1772725493229852700,1.440852783203125,0.019852638244628906,-0.015254974365234375,-0.10564184188842773
1772725493239369500,1.450369384765625,-0.029786109924316406,-0.04838252067565918,-0.041782647371292114
1772725493248886300,1.45988623046875,-0.017564773559570312,-0.021867752075195312,0.02259451150894165
1772725493258403000,1.469403076171875,0.043972015380859375,-0.028992176055908203,0.020132601261138916
1772725493267920000,1.478919921875,-0.0012788772583007812,-0.026797771453857422,-0.014543265104293823
1772725493277436700,1.488436767578125,-0.045783042907714844,-0.022184133529663086,-0.010328948497772217
1772725493286953500,1.497953369140625,-0.07788848876953125,-0.01733565330505371,0.0036070942878723145
1772725493296470300,1.50747021484375,-0.05549430847167969,-0.045152902603149414,0.0006289780139923096
1772725493305987000,1.516987060546875,-0.05951881408691406,-0.01320505142211914,0.02413177490234375
1772725493315503900,1.52650390625,-0.09189510345458984,0.006986141204833984,0.07616421580314636
1772725493325020700,1.536020751953125,-0.1262340545654297,-0.0009438991546630859,0.043225228786468506
1772725493334537500,1.545537353515625,-0.10594654083251953,-0.04147219657897949,0.01596274971961975
1772725493344054300,1.55505419921875,-0.0413665771484375,-0.06231355667114258,-0.032054126262664795
1772725493353571300,1.5645712890625,-0.001316070556640625,-0.05010414123535156,-0.05846375226974487
1772725493363088100,1.574088134765625,0.04063892364501953,-0.024692296981811523,-0.09281069040298462
1772725493372604700,1.583604736328125,0.018578529357910156,-0.030949115753173828,-0.1322721540927887
1772725493382121700,1.593121826171875,-0.017088890075683594,0.00021266937255859375,-0.1167680025100708
1772725493391638500,1.602638427734375,-0.04977607727050781,-0.006797313690185547,-0.0726432204246521
1772725493401155300,1.6121552734375,-0.008971214294433594,0.026320457458496094,-0.06906408071517944
1772725493410672000,1.621672119140625,-0.011493682861328125,0.0077702999114990234,-0.026262283325195312
1772725493420189000,1.63118896484375,0.0704641342163086,0.004129886627197266,-0.0021112561225891113
1772725493429705700,1.640705810546875,0.10396575927734375,0.014660358428955078,-0.009647846221923828
1772725493439222500,1.650222412109375,0.0900726318359375,0.04330086708068848,0.011302828788757324
1772725493448739300,1.6597392578125,0.07902717590332031,0.019070863723754883,0.04392173886299133
1772725493458256100,1.669256103515625,0.14148521423339844,0.006114959716796875,0.03879305720329285
1772725493467773000,1.67877294921875,0.18456172943115234,0.018145322799682617,-0.0031793713569641113
1772725493477289700,1.688289794921875,0.14253520965576172,0.017581701278686523,0.053486257791519165
1772725493486806500,1.697806640625,0.07318973541259766,-0.014023780822753906,0.015670746564865112
1772725493496323300,1.7073232421875,-0.06811046600341797,-0.037610769271850586,0.002046525478363037
1772725493505840000,1.716840087890625,-0.13451576232910156,-0.0505070686340332,-0.049895793199539185
1772725493515357000,1.72635693359375,-0.1649456024169922,-0.0293121337890625,-0.09969654679298401
1772725493524873700,1.735873779296875,-0.2000732421875,-0.004908323287963867,-0.021914184093475342
1772725493534390500,1.745390625,-0.2396707534790039,0.003638744354248047,0.03459891676902771
1772725493543907300,1.7549072265625,-0.24366092681884766,-0.008110523223876953,0.05139407515525818
1772725493553424400,1.76442431640625,-0.19379234313964844,-0.011704206466674805,0.0333426296710968
1772725493562941000,1.77394091796875,-0.08369636535644531,-0.021994352340698242,-0.007885098457336426
1772725493572458000,1.7834580078125,0.03159332275390625,0.01257467269897461,-0.03984662890434265
1772725493581974800,1.792974853515625,0.11445045471191406,0.017998218536376953,-0.08183607459068298
1772725493591491300,1.8024912109375,0.16547870635986328,-0.01014399528503418,-0.06343638896942139
1772725493601008400,1.81200830078125,0.2017498016357422,-0.02668142318725586,-0.04616713523864746
1772725493610525200,1.821525146484375,0.2002706527709961,-0.004096508026123047,-0.021272897720336914
1772725493620042000,1.8310419921875,0.21596336364746094,-0.016304731369018555,-0.006742000579833984
1772725493629558800,1.840558837890625,0.1896524429321289,-0.0014481544494628906,0.02063232660293579
1772725493639075600,1.85007568359375,0.10524749755859375,0.0054569244384765625,0.02002406120300293
1772725493648592400,1.85959228515625,-0.010819435119628906,-0.02037501335144043,0.002923518419265747
1772725493658109200,1.869109130859375,-0.12545204162597656,-0.002257823944091797,0.013571232557296753
1772725493667626000,1.8786259765625,-0.17987632751464844,0.014419794082641602,-0.00974544882774353
1772725493677142800,1.888142822265625,-0.1538076400756836,0.02940654754638672,-0.0240325927734375
1772725493686659600,1.89765966796875,-0.12135028839111328,0.014080047607421875,0.027251780033111572
1772725493696176400,1.90717626953125,-0.0895843505859375,-0.014735937118530273,0.04470860958099365
1772725493705693200,1.916693115234375,-0.08427047729492188,-0.02878284454345703,0.07887265086174011
1772725493715210000,1.9262099609375,-0.053192138671875,-0.03532075881958008,0.05003586411476135
1772725493724726800,1.935726806640625,-0.03435039520263672,0.0006091594696044922,0.07208389043807983
1772725493734243600,1.94524365234375,0.0029859542846679688,-0.011060953140258789,0.06567668914794922
1772725493743760400,1.954760498046875,0.030280113220214844,-0.0013437271118164062,0.021643877029418945
1772725493753277200,1.964277099609375,0.06191062927246094,-0.02034616470336914,0.008099466562271118
1772725493762794000,1.9737939453125,0.08379650115966797,-0.009039640426635742,0.0033279061317443848
1772725493772311000,1.98331103515625,0.13623714447021484,0.005873203277587891,-0.0042969584465026855
1772725493781827600,1.99282763671875,0.17643070220947266,0.012417078018188477,-0.007659107446670532
1772725493791344600,2.0023447265625,0.13637065887451172,0.02490377426147461,-0.0059105753898620605
1772725493800861400,2.011861328125,0.10656356811523438,0.015529632568359375,-0.0068086981773376465
1772725493810378200,2.021378173828125,0.06323719024658203,-0.001058816909790039,-0.017590761184692383
1772725493819895000,2.03089501953125,0.06295585632324219,0.006218910217285156,-0.00010666251182556152
1772725493829411800,2.040411865234375,-0.015133857727050781,0.03263235092163086,0.010163694620132446
1772725493838928600,2.0499287109375,-0.08742904663085938,0.009849309921264648,0.042347341775894165
1772725493848445400,2.059445556640625,-0.13759613037109375,0.011733770370483398,0.0749872624874115
1772725493857962200,2.068962158203125,-0.10716629028320312,-0.0021867752075195312,0.09373646974563599
1772725493867479000,2.07847900390625,-0.07741069793701172,-0.013044118881225586,0.063204824924469
1772725493876995800,2.087995849609375,-0.06237220764160156,-0.016402721405029297,0.028486818075180054
1772725493886512600,2.0975126953125,-0.014757156372070312,0.0016748905181884766,0.017179906368255615
1772725493896029400,2.107029541015625,0.034546852111816406,-0.028032779693603516,0.014659732580184937
1772725493905546200,2.116546142578125,0.0926656723022461,-0.04376983642578125,-0.03076264262199402
1772725493915063000,2.12606298828125,0.072357177734375,-0.026831388473510742,-0.04761552810668945
1772725493924579800,2.135579833984375,0.08795547485351562,-0.055581092834472656,-0.06193941831588745
1772725493934096600,2.1450966796875,0.11295509338378906,-0.039730072021484375,-0.06150507926940918
1772725493943613400,2.154613525390625,0.0458831787109375,-0.01964402198791504,0.010080724954605103
1772725493953130200,2.164130126953125,-0.020117759704589844,-0.01854705810546875,0.0408744215965271
1772725493962647000,2.17364697265625,-0.08760261535644531,0.009008407592773438,0.03361254930496216
1772725493972163800,2.183163818359375,-0.12371444702148438,0.0016589164733886719,0.0005046725273132324
1772725493981680600,2.1926806640625,-0.12425518035888672,0.011690139770507812,0.014754056930541992
1772725493991197700,2.20219775390625,-0.10146236419677734,-0.010872125625610352,-0.011233150959014893
1772725494000714200,2.21171435546875,-0.07918453216552734,-0.004513740539550781,-0.015884995460510254
1772725494010231000,2.22123095703125,-0.01731109619140625,-0.007626056671142578,-0.025471091270446777
1772725494019748000,2.230748046875,0.02013874053955078,-0.02036452293395996,-0.0012905597686767578
1772725494029265000,2.240264892578125,0.073638916015625,-0.04747319221496582,0.025240600109100342
1772725494038781700,2.24978173828125,0.1359119415283203,-0.00422358512878418,0.03918406367301941
1772725494048298500,2.259298583984375,0.14331340789794922,0.00692439079284668,-0.008862584829330444
1772725494057815300,2.268815185546875,0.14142704010009766,0.012488365173339844,-0.023737728595733643
1772725494067332000,2.27833203125,0.13271427154541016,0.0032525062561035156,-0.015479981899261475
1772725494076849000,2.287848876953125,0.08185386657714844,-0.008383989334106445,-0.007805049419403076
1772725494086365700,2.29736572265625,0.013027191162109375,-0.010404825210571289,0.007095992565155029
1772725494095882500,2.306882568359375,-0.05950355529785156,-0.0048520565032958984,0.008519113063812256
1772725494105399300,2.3163994140625,-0.09329509735107422,-0.008428573608398438,0.04353627562522888
1772725494114916000,2.325916015625,-0.11248779296875,-0.02344512939453125,0.04315155744552612
1772725494124433000,2.335432861328125,-0.1174631118774414,0.0047152042388916016,-0.01825481653213501
1772725494133949700,2.34494970703125,-0.12498950958251953,-0.016270875930786133,-0.036062657833099365
1772725494143466500,2.354466552734375,-0.10440731048583984,-0.045697927474975586,-0.03720816969871521
1772725494152983300,2.3639833984375,-0.008942604064941406,-0.06512236595153809,-0.05778113007545471
1772725494162500000,2.3735,0.08524227142333984,-0.03560614585876465,-0.1180848777294159
1772725494172017000,2.383016845703125,0.08412456512451172,-0.00754547119140625,-0.10674178600311279
1772725494181533700,2.39253369140625,0.033733367919921875,0.0008890628814697266,-0.08642825484275818
1772725494191050500,2.402050537109375,0.016963958740234375,-0.0022678375244140625,-0.04839038848876953
1772725494200567300,2.4115673828125,0.033263206481933594,-0.0239260196685791,-0.014195561408996582
1772725494210084000,2.421083984375,0.039788246154785156,0.0019991397857666016,-0.014103949069976807
1772725494219601200,2.43060107421875,0.0038423538208007812,-0.017145156860351562,0.014611244201660156
1772725494229117700,2.44011767578125,-0.0008325576782226562,-0.04783058166503906,0.0367182195186615
1772725494238634800,2.449634765625,0.020615577697753906,-0.04536771774291992,0.06871303915977478
1772725494248151600,2.459151611328125,0.027876853942871094,-0.022400617599487305,0.08922338485717773
1772725494257668000,2.468668212890625,0.0045909881591796875,0.0022270679473876953,0.08195915818214417
1772725494267185200,2.47818505859375,-0.08426570892333984,-0.0015265941619873047,0.04951474070549011
1772725494276702000,2.487701904296875,-0.13664627075195312,0.01204061508178711,0.0037679970264434814
1772725494286218800,2.49721875,-0.14379596710205078,0.0073397159576416016,-0.006693094968795776
1772725494295735600,2.506735595703125,-0.09936332702636719,0.019768476486206055,-0.03958192467689514
1772725494305252400,2.51625244140625,-0.07717323303222656,0.023256778717041016,-0.07074105739593506
1772725494314769200,2.52576904296875,-0.05077648162841797,0.0034766197204589844,-0.06617119908332825
1772725494324286000,2.535285888671875,0.008153915405273438,-0.011316061019897461,-0.044901102781295776
1772725494333802800,2.544802734375,0.05926227569580078,-0.023930788040161133,-0.027635842561721802
1772725494343319600,2.554319580078125,0.09098148345947266,-0.003979682922363281,-0.05194464325904846
1772725494352836400,2.56383642578125,0.1483755111694336,0.01959514617919922,-0.0377039909362793
1772725494362353200,2.573353271484375,0.13446998596191406,0.009196996688842773,-0.028606563806533813
1772725494371870000,2.582869873046875,0.15622997283935547,0.005539655685424805,-0.08661937713623047
1772725494381386800,2.59238671875,0.11651420593261719,0.01343846321105957,-0.07631739974021912
1772725494390903600,2.601903564453125,0.0916299819946289,0.02103877067565918,-0.04298490285873413
1772725494400420400,2.61142041015625,0.06980323791503906,0.03258657455444336,-0.02586519718170166
1772725494409937200,2.620937255859375,0.008538246154785156,0.015344858169555664,0.03433626890182495
1772725494419454000,2.630453857421875,-0.058734893798828125,0.007857799530029297,0.04755312204360962
1772725494428970800,2.639970703125,-0.0944509506225586,-0.0061380863189697266,0.03965768218040466
1772725494438487600,2.649487548828125,-0.11337947845458984,0.013680458068847656,0.01728937029838562
1772725494448004400,2.65900439453125,-0.15585708618164062,-0.015511751174926758,-0.003209024667739868
1772725494457521200,2.668521240234375,-0.1958169937133789,-0.012414693832397461,-0.033939242362976074
1772725494467038200,2.6780380859375,-0.2121896743774414,-0.015011310577392578,-0.01800590753555298
1772725494476555000,2.687554931640625,-0.21927356719970703,-0.007166862487792969,-0.009417146444320679
1772725494486071600,2.697071533203125,-0.20777034759521484,0.0039038658142089844,0.03989401459693909
1772725494495588600,2.706588623046875,-0.1896495819091797,-0.02446126937866211,0.0916644036769867
1772725494505105400,2.71610546875,-0.10350227355957031,-0.038376808166503906,0.10094597935676575
1772725494514622000,2.7256220703125,0.061486244201660156,-0.03392195701599121,0.07483169436454773
1772725494524139000,2.735138916015625,0.16499805450439453,-0.03220510482788086,0.053268104791641235
1772725494533655800,2.74465576171875,0.20804977416992188,-0.007296562194824219,-0.01333838701248169
1772725494543172600,2.754172607421875,0.2484731674194336,0.011378049850463867,-0.03882336616516113
1772725494552689400,2.763689453125,0.33853816986083984,-0.0008218288421630859,-0.036006808280944824
1772725494562206200,2.773206298828125,0.4304771423339844,0.008095264434814453,-0.03815186023712158
1772725494571723000,2.782722900390625,0.3734626770019531,0.014836788177490234,-0.002369791269302368
1772725494581239800,2.79223974609375,0.17178821563720703,0.046663761138916016,0.013980776071548462
1772725494590756600,2.801756591796875,-0.0008831024169921875,0.06444525718688965,0.020549416542053223
1772725494600273400,2.8112734375,-0.06975650787353516,0.06841421127319336,0.026573240756988525
1772725494609790200,2.820790283203125,-0.027036666870117188,0.06087303161621094,0.003912150859832764
1772725494619307000,2.83030712890625,-0.032077789306640625,0.04639244079589844,0.002900630235671997
1772725494628823800,2.83982373046875,-0.07713985443115234,0.027759790420532227,0.01399838924407959
1772725494638340600,2.849340576171875,-0.12872695922851562,0.005372285842895508,0.032699018716812134
1772725494647857400,2.858857421875,-0.1468048095703125,0.0006322860717773438,0.07752999663352966
1772725494657374200,2.868374267578125,-0.12943649291992188,-0.001294851303100586,0.06522738933563232
1772725494666891000,2.87789111328125,-0.10789680480957031,-0.04502224922180176,0.007673978805541992
1772725494676407800,2.88740771484375,-0.14827537536621094,-0.03771638870239258,-0.011790454387664795
1772725494685924600,2.896924560546875,-0.1907815933227539,-0.060060739517211914,0.022702068090438843
1772725494695441400,2.90644140625,-0.1646289825439453,-0.06485772132873535,0.011851012706756592
1772725494704958200,2.915958251953125,-0.11085891723632812,-0.05263018608093262,0.015456914901733398
1772725494714475000,2.92547509765625,-0.041443824768066406,-0.05018448829650879,0.009685873985290527
1772725494723991800,2.93499169921875,-0.0036792755126953125,-0.043291568756103516,-0.0005471706390380859
1772725494733508900,2.9445087890625,0.0077304840087890625,-0.01566171646118164,0.006377696990966797
1772725494743025400,2.954025390625,0.030844688415527344,0.013596773147583008,0.020773321390151978
1772725494752542500,2.96354248046875,0.030086517333984375,0.05167436599731445,0.02081143856048584
1772725494762059300,2.973059326171875,0.019916534423828125,0.06322979927062988,-0.002986341714859009
1772725494771575800,2.982575927734375,0.03822040557861328,0.06266474723815918,-0.0404418408870697
1772725494781092900,2.9920927734375,0.025709152221679688,0.07601547241210938,-0.030319690704345703
1772725494790609700,3.001609619140625,0.03698444366455078,0.0772240161895752,-0.032426416873931885
1772725494800126500,3.01112646484375,0.0740652084350586,0.07815074920654297,0.005628526210784912
1772725494809643300,3.020643310546875,0.08244895935058594,0.0762946605682373,0.014666050672531128
1772725494819160000,3.03016015625,0.07441902160644531,0.04806685447692871,0.013887852430343628
1772725494828676900,3.0396767578125,0.061860084533691406,0.04132819175720215,0.010347455739974976
1772725494838193700,3.049193603515625,0.01416015625,0.018339157104492188,-0.0004883706569671631
1772725494847710500,3.05871044921875,0.00017261505126953125,0.005197763442993164,-0.00884336233139038
1772725494857227300,3.068227294921875,0.0075969696044921875,-0.012430191040039062,0.022993654012680054
1772725494866744000,3.077744140625,-0.018016815185546875,-0.02275872230529785,0.040287941694259644
1772725494876260900,3.0872607421875,-0.06212902069091797,-0.04204750061035156,0.05046778917312622
1772725494885777700,3.096777587890625,-0.0680398941040039,-0.03935074806213379,0.048977434635162354
1772725494895294500,3.10629443359375,-0.08571243286132812,-0.0410764217376709,0.027127057313919067
1772725494904811300,3.115811279296875,-0.051387786865234375,-0.042609214782714844,0.0150948166847229
1772725494914328000,3.125328125,-0.036663055419921875,-0.04364752769470215,0.007610291242599487
1772725494923844900,3.134844970703125,-0.045805931091308594,-0.016191720962524414,-0.04903525114059448
1772725494933361700,3.144361572265625,-0.014678001403808594,-0.001191854476928711,-0.07130008935928345
1772725494942878500,3.15387841796875,0.011410713195800781,0.024895429611206055,-0.04110223054885864
1772725494952395300,3.163395263671875,0.025557518005371094,0.054608821868896484,-0.034990012645721436
1772725494961912000,3.172912109375,-0.00034999847412109375,0.06687641143798828,-0.08094504475593567
1772725494971428900,3.182428955078125,-0.01654529571533203,0.0462040901184082,-0.07070785760879517
1772725494980945700,3.191945556640625,-0.03513050079345703,0.021750450134277344,-0.08099406957626343
1772725494990462700,3.201462646484375,-0.013697624206542969,-0.004008293151855469,-0.05654218792915344
1772725494999979300,3.210979248046875,-0.0044040679931640625,0.010670185089111328,-0.004568189382553101
1772725495009496000,3.22049609375,0.030731201171875,0.027258872985839844,0.021342992782592773
1772725495019013000,3.23001318359375,0.07255744934082031,0.019629716873168945,0.055020272731781006
1772725495028529700,3.23952978515625,0.0598297119140625,0.006849050521850586,0.07696229219436646
1772725495038046700,3.249046630859375,0.08049964904785156,0.007874011993408203,0.054592251777648926
1772725495047563500,3.2585634765625,0.08233833312988281,0.034023284912109375,0.040476709604263306
1772725495057080300,3.268080322265625,0.05849456787109375,0.016841650009155273,0.01742684841156006
1772725495066597000,3.27759716796875,0.016300201416015625,0.018536090850830078,0.001418083906173706
1772725495076114000,3.287114013671875,-0.004075050354003906,0.003774881362915039,-0.022311866283416748
1772725495085630700,3.296630615234375,-0.06667137145996094,-0.014973640441894531,-0.041331082582473755
1772725495095147500,3.3061474609375,-0.12144756317138672,-0.00683140754699707,-0.010694831609725952
1772725495104664300,3.315664306640625,-0.16161727905273438,0.002257108688354492,0.01501154899597168
1772725495114181000,3.32518115234375,-0.16379070281982422,-0.006768941879272461,0.03850698471069336
1772725495123698000,3.334697998046875,-0.16622161865234375,0.006326913833618164,0.015121310949325562
1772725495133214700,3.344214599609375,-0.12408733367919922,0.03849959373474121,-0.017097175121307373
1772725495142731500,3.3537314453125,-0.009718894958496094,0.016005754470825195,-0.03957861661911011
1772725495152248300,3.363248291015625,0.06989860534667969,0.0053179264068603516,-0.05781269073486328
1772725495161765000,3.37276513671875,0.09426498413085938,0.0036258697509765625,-0.06494829058647156
1772725495171282000,3.382281982421875,0.1325225830078125,-0.012691974639892578,-0.05861717462539673
1772725495180798700,3.391798828125,0.12572669982910156,-0.022414445877075195,-0.04311704635620117
1772725495190315500,3.4013154296875,0.05816078186035156,0.009798288345336914,-0.026610642671585083
1772725495199832300,3.410832275390625,0.017807960510253906,-0.013002872467041016,-0.006729245185852051
1772725495209349000,3.42034912109375,0.03484058380126953,0.004056453704833984,0.011111319065093994
1772725495218866000,3.429865966796875,0.011751174926757812,0.011049032211303711,-0.03698578476905823
1772725495228382700,3.4393828125,-0.0675954818725586,-0.0005350112915039062,-0.058915942907333374
1772725495237899500,3.4488994140625,-0.17675399780273438,0.026978492736816406,-0.055400192737579346
1772725495247416300,3.458416259765625,-0.2258930206298828,0.022566795349121094,-0.0007579028606414795
1772725495256933000,3.46793310546875,-0.20888233184814453,0.005430459976196289,-0.003896743059158325
1772725495266450000,3.477449951171875,-0.13132572174072266,0.01765131950378418,0.009287148714065552
1772725495275967000,3.486967041015625,-0.06922626495361328,-0.01952528953552246,0.02305227518081665
1772725495285483500,3.4964833984375,0.02969074249267578,-0.01879596710205078,0.04256844520568848
1772725495295000300,3.506000244140625,0.09196853637695312,-0.018755435943603516,0.04593181610107422
1772725495304517400,3.515517333984375,0.08748626708984375,0.034986019134521484,0.027842313051223755
1772725495314034200,3.5250341796875,0.12329292297363281,0.030782699584960938,0.023803532123565674
1772725495323550700,3.53455078125,0.14932918548583984,0.03066563606262207,-0.004529625177383423
1772725495333067800,3.54406787109375,0.147003173828125,-0.01259303092956543,0.00033989548683166504
1772725495342584600,3.55358447265625,0.07916831970214844,-0.034689903259277344,-0.0034716129302978516
1772725495352101000,3.56310107421875,0.03609466552734375,-0.014333963394165039,0.013809114694595337
1772725495361618200,3.5726181640625,0.0007677078247070312,0.015154361724853516,0.011883735656738281
1772725495371135000,3.582135009765625,-0.045859336853027344,0.006876230239868164,0.00342714786529541
1772725495380651800,3.59165185546875,-0.06370162963867188,0.001615762710571289,-0.014616638422012329
1772725495390168600,3.60116845703125,-0.06976890563964844,0.0064771175384521484,-0.05430629849433899
1772725495399685400,3.610685302734375,-0.11142349243164062,0.019247055053710938,-0.01845225691795349
1772725495409202200,3.6202021484375,-0.051342010498046875,0.03217267990112305,-0.006408959627151489
1772725495418719000,3.629718994140625,-0.008630752563476562,0.021155357360839844,0.008208692073822021
1772725495428235800,3.63923583984375,0.01220703125,-0.01796126365661621,0.001343369483947754
1772725495437752600,3.648752685546875,0.030426025390625,-0.01664423942565918,-0.012635231018066406
1772725495447269400,3.658269287109375,0.07211112976074219,0.005187273025512695,-0.014943122863769531
1772725495456786200,3.6677861328125,0.08745861053466797,0.0001327991485595703,-0.005827575922012329
1772725495466303000,3.677302978515625,0.06262016296386719,0.009066343307495117,0.007504373788833618
1772725495475819800,3.68681982421875,0.04526519775390625,0.008384227752685547,0.018029063940048218
1772725495485336600,3.696336669921875,-0.002407073974609375,0.012475013732910156,0.026099175214767456
1772725495494853400,3.705853271484375,-0.01636028289794922,0.016605854034423828,0.003994882106781006
1772725495504370200,3.7153701171875,0.017042160034179688,0.022925138473510742,0.027524083852767944
1772725495513887000,3.724886962890625,0.03824138641357422,0.007749080657958984,-0.009851306676864624
1772725495523403800,3.73440380859375,0.04040813446044922,-0.009838104248046875,-0.008598029613494873
1772725495532920600,3.743920654296875,0.0354156494140625,0.010625600814819336,-0.0006861686706542969
1772725495542437400,3.753437255859375,-0.0025043487548828125,0.012025117874145508,-0.021763861179351807
1772725495551954200,3.7629541015625,-0.025796890258789062,-0.002826690673828125,-0.007682293653488159
1772725495561471000,3.772470947265625,-0.034667015075683594,0.006249427795410156,-0.013144463300704956
1772725495570987800,3.78198779296875,-0.045844078063964844,0.020156383514404297,0.024048954248428345
1772725495580504600,3.791504638671875,-0.0569915771484375,-0.0033731460571289062,0.061055928468704224
1772725495590021400,3.801021484375,-0.02328205108642578,0.0065460205078125,0.0506303608417511
1772725495599538400,3.810538330078125,0.026375770568847656,0.01619434356689453,0.028561115264892578
1772725495609055000,3.820054931640625,0.06356620788574219,-0.024038314819335938,0.05628246068954468
1772725495618571800,3.82957177734375,0.10030746459960938,-0.007601737976074219,0.05255311727523804
1772725495628088800,3.8390888671875,0.07540416717529297,-0.0012199878692626953,0.053486257791519165
1772725495637605600,3.848605712890625,0.013265609741210938,-0.011357784271240234,0.047756582498550415
1772725495647122200,3.8581220703125,-0.03860950469970703,-0.016138553619384766,0.044697195291519165
1772725495656639200,3.86763916015625,-0.03084278106689453,-0.01596546173095703,0.04214280843734741
1772725495666156000,3.877156005859375,0.042929649353027344,-0.028132200241088867,0.011881113052368164
1772725495675672600,3.886672607421875,0.06878376007080078,-0.019823789596557617,-0.010722965002059937
1772725495685189600,3.896189697265625,0.007182121276855469,-0.007063150405883789,-0.023781567811965942
1772725495694706400,3.90570654296875,-0.07961750030517578,-0.017258882522583008,-0.04425102472305298
1772725495704223200,3.91522314453125,-0.17957496643066406,-0.009656906127929688,-0.06476956605911255
1772725495713740000,3.924739990234375,-0.2242727279663086,0.02502274513244629,-0.061216145753860474
1772725495723256800,3.9342568359375,-0.1956043243408203,0.03879356384277344,-0.07850855588912964
1772725495732773600,3.943773681640625,-0.08280181884765625,0.014889955520629883,-0.07225778698921204
1772725495742290400,3.95329052734375,0.03523540496826172,-0.02065110206604004,-0.09311044216156006
1772725495751807200,3.96280712890625,0.11613655090332031,-0.030258893966674805,-0.0943571925163269
1772725495761324000,3.972323974609375,0.1371288299560547,-0.01462697982788086,-0.07567247748374939
1772725495770840800,3.9818408203125,0.11800575256347656,-0.018665552139282227,0.017930328845977783
1772725495780357600,3.991357666015625,0.10184383392333984,-0.023248910903930664,0.10146799683570862
1772725495789874400,4.00087451171875,0.11219310760498047,-0.035515785217285156,0.16171923279762268
1772725495799391200,4.01039111328125,0.11579227447509766,-0.025026559829711914,0.18045967817306519
1772725495808908000,4.019907958984375,0.08674144744873047,-0.006076812744140625,0.15740054845809937
1772725495818424800,4.0294248046875,0.0016222000122070312,0.017481088638305664,0.15361326932907104
1772725495827941600,4.038941650390625,-0.05884075164794922,0.017792463302612305,0.06242924928665161
1772725495837458400,4.04845849609375,-0.07866287231445312,0.05651998519897461,0.011561959981918335
1772725495846975200,4.057975341796875,-0.07015800476074219,0.0598301887512207,-0.022609055042266846
1772725495856492000,4.067491943359375,-0.04070758819580078,0.01624441146850586,0.004924595355987549
1772725495866008800,4.0770087890625,0.011859893798828125,-0.005639553070068359,0.0013382434844970703
1772725495875525600,4.086525634765625,0.03775787353515625,-0.027422666549682617,-0.030792564153671265
1772725495885042400,4.09604248046875,0.03496074676513672,-0.055800676345825195,-0.07623186707496643
1772725495894559200,4.105559326171875,-0.017228126525878906,-0.017670392990112305,-0.051930516958236694
1772725495904076000,4.115075927734375,0.0020427703857421875,-0.003657102584838867,-0.032255470752716064
1772725495913592800,4.1245927734375,0.01631450653076172,-0.015804767608642578,-0.01739230751991272
1772725495923109600,4.134109619140625,-0.005011558532714844,-0.015830039978027344,-0.0075566768646240234
1772725495932626400,4.14362646484375,-0.040291786193847656,-0.02950263023376465,-0.0073393285274505615
1772725495942143200,4.153143310546875,-0.07286548614501953,-0.02349376678466797,0.00033351778984069824
1772725495951660000,4.162659912109375,-0.05782032012939453,-0.0010571479797363281,0.03699937462806702
1772725495961177000,4.172177001953125,-0.0029239654541015625,-0.007382631301879883,0.03864547610282898
1772725495970693600,4.181693603515625,0.030203819274902344,-0.014342546463012695,0.017240285873413086
1772725495980210400,4.19121044921875,0.11020374298095703,-0.026858091354370117,-0.016090333461761475
1772725495989727500,4.2007275390625,0.17272472381591797,-0.03083181381225586,-0.09829723834991455
1772725495999244000,4.210244140625,0.06943225860595703,-0.04422903060913086,-0.1130090057849884
1772725496008760800,4.2197607421875,-0.07724857330322266,-0.037697553634643555,-0.07202893495559692
1772725496018278000,4.22927783203125,-0.1701831817626953,-0.02069377899169922,0.041347503662109375
1772725496027794700,4.238794677734375,-0.19607162475585938,-0.012316226959228516,0.08557060360908508
1772725496037311200,4.248311279296875,-0.1747751235961914,0.01565718650817871,0.0692937970161438
1772725496046828300,4.257828369140625,-0.09757804870605469,0.03439140319824219,0.0730184018611908
1772725496056345000,4.267344970703125,-0.005158424377441406,-0.010763883590698242,0.10062140226364136
1772725496065862000,4.27686181640625,0.09059906005859375,-0.010889530181884766,0.07363566756248474
1772725496075378700,4.286378662109375,0.17571544647216797,-0.0001499652862548828,0.028317958116531372
1772725496084895500,4.2958955078125,0.21988201141357422,-0.0025730133056640625,-0.004911988973617554
1772725496094412300,4.305412353515625,0.20025634765625,0.007994651794433594,-0.02107560634613037
1772725496103929000,4.31492919921875,0.16481876373291016,0.010478734970092773,-0.034817516803741455
1772725496113446000,4.32444580078125,0.16787242889404297,0.01934194564819336,-0.03901386260986328
1772725496122962700,4.333962646484375,0.14526081085205078,0.04384660720825195,-0.04801490902900696
1772725496132479500,4.3434794921875,0.05010032653808594,0.03260016441345215,-0.038158297538757324
1772725496141996300,4.352996337890625,-0.06246376037597656,0.02907252311706543,-0.025606930255889893
1772725496151513000,4.36251318359375,-0.14290618896484375,0.019444942474365234,-0.024586379528045654
1772725496161030000,4.37202978515625,-0.14939212799072266,0.024893760681152344,0.014022409915924072
1772725496170546700,4.381546630859375,-0.0995016098022461,0.014248847961425781,0.0069541335105896
1772725496180063500,4.3910634765625,-0.03871726989746094,0.020285844802856445,-0.026418477296829224
1772725496189580300,4.400580322265625,0.011758804321289062,-0.023517608642578125,-0.014899283647537231
1772725496199097000,4.41009716796875,0.023784637451171875,-0.02675628662109375,-0.018333494663238525
1772725496208614000,4.41961376953125,0.026197433471679688,-0.02293252944946289,0.022542476654052734
1772725496218130700,4.429130615234375,-0.009163856506347656,-0.028367996215820312,0.015668243169784546
1772725496227647500,4.4386474609375,-0.03459644317626953,-0.014669179916381836,0.044551700353622437
1772725496237164300,4.448164306640625,-0.03380107879638672,-0.00563359260559082,0.05953240394592285
1772725496246681000,4.45768115234375,-0.02121257781982422,-0.010854244232177734,0.07531857490539551
1772725496256198000,4.467197998046875,-0.001708984375,-0.04902529716491699,0.05145370960235596
1772725496265714700,4.476714599609375,-0.010797500610351562,-0.029979705810546875,0.051769524812698364
1772725496275231500,4.4862314453125,-0.03872203826904297,-0.03676247596740723,0.009485006332397461
1772725496284748300,4.495748291015625,-0.054680824279785156,-0.009925603866577148,-0.011731177568435669
1772725496294265000,4.50526513671875,-0.016262054443359375,-0.021190643310546875,-0.009286493062973022
1772725496303782000,4.514781982421875,0.07819271087646484,-0.011622428894042969,-0.009436100721359253
1772725496313298700,4.524298583984375,0.10309028625488281,-0.02407693862915039,0.0015806853771209717
1772725496322815500,4.5338154296875,0.09238529205322266,-0.013110876083374023,-0.028060317039489746
1772725496332332300,4.543332275390625,0.070098876953125,-0.02355670928955078,-0.04816451668739319
1772725496341849000,4.55284912109375,0.03408622741699219,-0.00799870491027832,-0.013868868350982666
1772725496351366100,4.5623662109375,0.031646728515625,-0.020983219146728516,0.010696858167648315
1772725496360882700,4.571882568359375,0.05530834197998047,-0.0011861324310302734,-0.006931871175765991
1772725496370399500,4.5813994140625,0.03164863586425781,-0.0031540393829345703,0.011649608612060547
1772725496379916500,4.59091650390625,-0.026986122131347656,0.02571249008178711,0.037212252616882324
1772725496389433300,4.600433349609375,-0.04710197448730469,0.009664297103881836,0.06248706579208374
1772725496398950000,4.609949951171875,-0.00797271728515625,0.0031447410583496094,0.029055356979370117
1772725496408467000,4.619467041015625,0.011837959289550781,0.0034792423248291016,0.013304799795150757
1772725496417983700,4.628983642578125,-0.01810169219970703,-0.01265573501586914,0.007082074880599976
1772725496427500300,4.638500244140625,-0.07832908630371094,-0.03276205062866211,-0.02746349573135376
1772725496437017300,4.648017333984375,-0.11664485931396484,-0.028386354446411133,-0.04064911603927612
1772725496446534100,4.6575341796875,-0.1499309539794922,0.002528667449951172,-0.056348323822021484
1772725496456051000,4.667051025390625,-0.1405353546142578,0.024143695831298828,-0.0452098548412323
1772725496465567700,4.676567626953125,-0.06552886962890625,0.012822866439819336,-0.031189322471618652
1772725496475084500,4.68608447265625,0.015171051025390625,-0.00044989585876464844,-0.05095350742340088
1772725496484601300,4.695601318359375,0.059088706970214844,-0.015698909759521484,-0.07920438051223755
1772725496494118100,4.7051181640625,0.10464954376220703,-0.01919388771057129,-0.0783643126487732
1772725496503635000,4.714635009765625,0.1591930389404297,-0.030536174774169922,-0.09201496839523315
1772725496513151700,4.72415185546875,0.18048667907714844,-0.017172813415527344,-0.036182016134262085
1772725496522668500,4.73366845703125,0.18321800231933594,-0.0336298942565918,0.012989073991775513
1772725496532185300,4.743185302734375,0.1393909454345703,-0.001600503921508789,0.06731218099594116
1772725496541702100,4.7527021484375,0.044762611389160156,0.017662525177001953,0.06286600232124329
1772725496551219000,4.762218994140625,-0.07896041870117188,0.0227508544921875,0.01896756887435913
1772725496560735700,4.77173583984375,-0.1656970977783203,0.009814977645874023,-0.0009362995624542236
1772725496570252500,4.78125244140625,-0.1833324432373047,0.021986722946166992,-0.02334803342819214
1772725496579769300,4.790769287109375,-0.17998313903808594,0.011593341827392578,0.010906964540481567
1772725496589286100,4.8002861328125,-0.13940143585205078,0.023410320281982422,0.020918309688568115
1772725496598803000,4.809802978515625,-0.08560752868652344,0.023800373077392578,-0.00706106424331665
1772725496608319700,4.81931982421875,-0.09173774719238281,0.03171801567077637,-0.03240993618965149
1772725496617836500,4.82883642578125,-0.060230255126953125,0.004522562026977539,-0.038166433572769165
1772725496627353300,4.838353271484375,0.022619247436523438,0.008153438568115234,-0.027084261178970337
1772725496636870100,4.8478701171875,0.14447402954101562,0.01312875747680664,-0.027972936630249023
1772725496646387000,4.857386962890625,0.2554187774658203,-0.004526853561401367,0.012832403182983398
1772725496655903700,4.86690380859375,0.21667957305908203,-0.01828289031982422,0.004785001277923584
1772725496665420500,4.876420654296875,0.14824295043945312,-0.03949546813964844,0.0013048052787780762
1772725496674937300,4.885937255859375,0.07646560668945312,-0.011418819427490234,0.022021710872650146
1772725496684454100,4.8954541015625,0.006045341491699219,-0.026424169540405273,0.041219621896743774
1772725496693971000,4.904970947265625,-0.05126762390136719,-0.008500814437866211,0.047295063734054565
1772725496703487700,4.91448779296875,-0.09120941162109375,0.016396284103393555,0.03750348091125488
1772725496713004500,4.924004638671875,-0.13541316986083984,0.010812759399414062,-0.002967625856399536
1772725496722521300,4.933521240234375,-0.17455101013183594,0.010810375213623047,-0.008639812469482422
1772725496732038100,4.9430380859375,-0.20654582977294922,0.02848529815673828,-0.0016457736492156982
1772725496741555000,4.952554931640625,-0.18911457061767578,0.0069789886474609375,-0.005458652973175049
1772725496751071700,4.96207177734375,-0.19355392456054688,0.012670040130615234,0.0023505687713623047
1772725496760588500,4.971588623046875,-0.18645381927490234,0.0072934627532958984,0.020062685012817383
1772725496770105300,4.981105224609375,-0.14429759979248047,-0.0023298263549804688,0.04754287004470825
1772725496779622400,4.990622314453125,-0.04633331298828125,-0.00007843971252441406,0.049176573753356934
1772725496789139000,5.000138916015625,0.01718902587890625,-0.0075342655181884766,0.0348278284072876
1772725496798655700,5.00965576171875,0.04691600799560547,0.003530740737915039,0.030747145414352417
1772725496808172800,5.0191728515625,0.09524726867675781,-0.014455556869506836,0.027080297470092773
1772725496817689300,5.028689453125,0.1288747787475586,-0.018604278564453125,0.0230332612991333
1772725496827206100,5.0382060546875,0.09150218963623047,-0.023106098175048828,0.011448442935943604
1772725496836723200,5.04772314453125,0.035948753356933594,-0.0017101764678955078,-0.023590087890625
1772725496846240000,5.057239990234375,-0.023624420166015625,0.005736827850341797,-0.01851716637611389
1772725496855756500,5.066756591796875,-0.03773021697998047,0.023006200790405273,0.005013614892959595
1772725496865273600,5.076273681640625,0.0072383880615234375,0.028172731399536133,-0.03075474500656128
1772725496874790400,5.085790283203125,0.0469207763671875,0.009296655654907227,-0.03080269694328308
1772725496884307200,5.09530712890625,0.07438468933105469,-0.0026862621307373047,-0.01888751983642578
1772725496893824000,5.104823974609375,0.11104965209960938,-0.017452716827392578,0.006736636161804199
1772725496903340800,5.1143408203125,0.14034652709960938,-0.0068759918212890625,0.005547523498535156
1772725496912857600,5.123857666015625,0.11765098571777344,-0.01833057403564453,-0.012522101402282715
1772725496922374400,5.13337451171875,0.05314350128173828,-0.0064334869384765625,-0.013610005378723145
1772725496931891200,5.14289111328125,-0.055110931396484375,-0.008486509323120117,-0.016266077756881714
1772725496941408000,5.152407958984375,-0.11707305908203125,-0.014573097229003906,0.04095643758773804
1772725496950924800,5.1619248046875,-0.12894630432128906,0.025055408477783203,0.08114734292030334
1772725496960441600,5.171441650390625,-0.10790157318115234,0.024557828903198242,0.047708660364151
1772725496969958400,5.18095849609375,-0.0637359619140625,0.010103702545166016,0.0008237659931182861
1772725496979475200,5.19047509765625,-0.034454345703125,-0.018186092376708984,-0.0408397912979126
1772725496988992000,5.199991943359375,-0.048091888427734375,-0.0176236629486084,-0.056349992752075195
1772725496998508800,5.2095087890625,-0.052275657653808594,-0.004891157150268555,-0.020142704248428345
1772725497008025600,5.219025634765625,-0.040038108825683594,0.02671527862548828,-0.017742514610290527
1772725497017542400,5.22854248046875,-0.018700599670410156,0.013301372528076172,-0.015780538320541382
1772725497027059200,5.23805908203125,0.013998985290527344,-0.0045452117919921875,-0.04974439740180969
1772725497036576000,5.247575927734375,0.06268692016601562,0.005974769592285156,-0.03386962413787842
1772725497046092800,5.2570927734375,0.06604480743408203,-0.009978532791137695,-0.003783702850341797
1772725497055609600,5.266609619140625,0.09310150146484375,-0.007369518280029297,0.01893019676208496
1772725497065126400,5.27612646484375,0.09400177001953125,0.025371313095092773,0.022559285163879395
1772725497074643200,5.285643310546875,0.07382392883300781,0.019649744033813477,0.016756057739257812
1772725497084160000,5.295159912109375,0.021094322204589844,0.02338242530822754,0.014137834310531616
1772725497093676800,5.3046767578125,0.023468017578125,0.001024484634399414,0.029035121202468872
1772725497103193600,5.314193603515625,0.07550811767578125,-0.012222051620483398,0.013445138931274414
1772725497112710400,5.32371044921875,0.07278633117675781,-0.004651546478271484,0.011895984411239624
1772725497122227200,5.333227294921875,0.025404930114746094,-0.03256368637084961,-0.03253975510597229
1772725497131744000,5.342743896484375,-0.05899524688720703,-0.033766984939575195,-0.05298072099685669
1772725497141260800,5.3522607421875,-0.1305379867553711,-0.055336713790893555,-0.03755509853363037
1772725497150777600,5.361777587890625,-0.1942281723022461,-0.014374732971191406,-0.01268160343170166
1772725497160294400,5.37129443359375,-0.2338104248046875,0.008288145065307617,-0.01844373345375061
1772725497169811200,5.380811279296875,-0.21197891235351562,0.03402543067932129,-0.03050851821899414
1772725497179328000,5.390327880859375,-0.13441753387451172,0.00140380859375,-0.023737400770187378
1772725497188844800,5.3998447265625,-0.011197090148925781,-0.011698722839355469,-0.03453725576400757
1772725497198361600,5.409361572265625,0.09123039245605469,-0.034371376037597656,-0.06082996726036072
1772725497207878400,5.41887841796875,0.1192169189453125,-0.010192632675170898,-0.059217870235443115
1772725497217395200,5.428395263671875,0.11884498596191406,-0.01543736457824707,-0.028956204652786255
1772725497226912000,5.437912109375,0.12830448150634766,0.018483400344848633,0.04857906699180603
1772725497236428800,5.4474287109375,0.11458778381347656,0.02721858024597168,0.0767260193824768
1772725497245945600,5.456945556640625,0.09909915924072266,0.023313283920288086,0.03972041606903076
1772725497255462400,5.46646240234375,0.07935142517089844,0.0308074951171875,0.01997867226600647
1772725497264979200,5.475979248046875,0.050553321838378906,0.031005382537841797,0.00023856759071350098
1772725497274496300,5.485496337890625,0.005635261535644531,0.038459062576293945,-0.027210980653762817
1772725497284012800,5.4950126953125,-0.045868873596191406,0.03225374221801758,-0.02435961365699768
1772725497293529600,5.504529541015625,-0.1062612533569336,0.03165316581726074,-0.009988784790039062
1772725497303046400,5.51404638671875,-0.10242462158203125,0.010638713836669922,0.013653337955474854
1772725497312563200,5.523563232421875,-0.06350135803222656,0.004467010498046875,0.0018298029899597168
1772725497322080000,5.533080078125,0.014866828918457031,0.00999760627746582,-0.046931177377700806
1772725497331596800,5.5425966796875,0.040374755859375,0.012603282928466797,-0.03575325012207031
1772725497341113900,5.55211376953125,0.032698631286621094,0.0029709339141845703,-0.015226244926452637
1772725497350630400,5.56163037109375,0.08413410186767578,-0.0163424015045166,-0.011913597583770752
1772725497360147200,5.571147216796875,0.10196876525878906,-0.021744489669799805,-0.006692409515380859
1772725497369664300,5.580664306640625,0.07009601593017578,-0.020045042037963867,0.007476627826690674
1772725497379181000,5.59018115234375,-0.02016925811767578,-0.011037588119506836,0.009932279586791992
1772725497388697600,5.599697509765625,-0.031294822692871094,-0.006788730621337891,-0.01291745901107788
1772725497398214700,5.609214599609375,-0.035091400146484375,-0.0027208328247070312,-0.03223636746406555
1772725497407731500,5.6187314453125,-0.015294075012207031,-0.001077890396118164,-0.004217922687530518
1772725497417248000,5.628248046875,-0.07837677001953125,0.010361433029174805,-0.02896896004676819
1772725497426765000,5.63776513671875,-0.1196432113647461,0.02961444854736328,-0.03025081753730774
1772725497436281900,5.64728173828125,-0.1394062042236328,-0.007119178771972656,0.0008464157581329346
1772725497445798700,5.656798583984375,-0.08379364013671875,-0.009819507598876953,-0.004906177520751953
1772725497455315500,5.6663154296875,-0.0338592529296875,-0.0053713321685791016,-0.0487997829914093
1772725497464832300,5.675832275390625,0.0012445449829101562,-0.015342235565185547,-0.039666056632995605
1772725497474349000,5.68534912109375,0.0005512237548828125,-0.004080772399902344,0.000647813081741333
1772725497483865900,5.694865966796875,0.025780677795410156,-0.00010538101196289062,0.06879064440727234
1772725497493382700,5.704382568359375,0.057801246643066406,0.01996469497680664,0.056313514709472656
1772725497502899500,5.7138994140625,0.08950519561767578,0.032161712646484375,-0.0002536773681640625
1772725497512416300,5.723416259765625,0.09969615936279297,0.024911165237426758,0.012777566909790039
1772725497521933000,5.73293310546875,0.07214832305908203,0.01758432388305664,0.03725442290306091
1772725497531449900,5.742449951171875,0.08745002746582031,0.01958632469177246,0.05566266179084778
1772725497540966700,5.751966552734375,0.05789756774902344,0.00006318092346191406,-0.00670894980430603
1772725497550483500,5.7614833984375,0.047776222229003906,0.04181623458862305,-0.03935724496841431
1772725497560000300,5.771000244140625,-0.037444114685058594,0.024047374725341797,0.01615390181541443
1772725497569517000,5.78051708984375,-0.050826072692871094,-0.011870384216308594,0.046876460313797
1772725497579033900,5.790033935546875,-0.059482574462890625,0.02147841453552246,0.05538800358772278
1772725497588550700,5.799550537109375,-0.06577873229980469,0.012178659439086914,0.027864009141921997
1772725497598067500,5.8090673828125,-0.07445526123046875,0.012705802917480469,0.0026048123836517334
1772725497607584300,5.818584228515625,-0.09029102325439453,0.013794183731079102,0.02460309863090515
1772725497617101000,5.82810107421875,-0.07775688171386719,-0.015356302261352539,0.03959628939628601
1772725497626617900,5.837617919921875,0.009972572326660156,-0.01127481460571289,0.06205320358276367
1772725497636134700,5.847134765625,0.04935169219970703,0.011197090148925781,0.025701433420181274
1772725497645651500,5.8566513671875,0.038730621337890625,0.009599924087524414,0.022937089204788208
1772725497655168300,5.866168212890625,0.0023736953735351562,0.008124828338623047,-0.005487173795700073
1772725497664685000,5.87568505859375,-0.04527568817138672,-0.021245718002319336,-0.014719277620315552
1772725497674201900,5.885201904296875,-0.014632225036621094,-0.009806632995605469,0.02523702383041382
1772725497683718700,5.89471875,0.04618644714355469,0.008185625076293945,-0.018456071615219116
1772725497693235500,5.9042353515625,0.0731649398803711,-0.009788751602172852,-0.04112851619720459
1772725497702752300,5.913752197265625,0.04091453552246094,-0.025220632553100586,-0.05400210618972778
1772725497712269000,5.92326904296875,0.02337932586669922,-0.031090974807739258,-0.016903162002563477
1772725497721785900,5.932785888671875,-0.007994651794433594,0.022067785263061523,0.0014062821865081787
1772725497731302700,5.942302734375,-0.04837799072265625,0.03000783920288086,-0.001092076301574707
1772725497740819500,5.9518193359375,-0.06946182250976562,0.01952219009399414,0.0015681087970733643
1772725497750336300,5.961336181640625,-0.03391075134277344,0.03786730766296387,0.006221413612365723
1772725497759853000,5.97085302734375,-0.01313018798828125,0.039489030838012695,-0.008867502212524414
1772725497769369900,5.980369873046875,-0.0068798065185546875,0.02231287956237793,-0.03411579132080078
1772725497778886700,5.98988671875,-0.0055141448974609375,0.031446218490600586,-0.00989222526550293
1772725497788403500,5.999403564453125,0.012286186218261719,0.012295246124267578,0.00977855920791626
1772725497797920300,6.008920166015625,0.072357177734375,0.025986433029174805,0.05597192049026489
1772725497807437000,6.01843701171875,0.19086360931396484,0.005150794982910156,0.05798506736755371
1772725497816953900,6.027953857421875,0.2917366027832031,0.0015985965728759766,0.05386492609977722
1772725497826470700,6.037470703125,0.24563121795654297,-0.015073776245117188,0.024101465940475464
1772725497835987500,6.046987548828125,0.13219738006591797,-0.046007633209228516,0.012920886278152466
1772725497845504300,6.056504150390625,-0.007712364196777344,-0.02440810203552246,-0.03868582844734192
1772725497855021000,6.06602099609375,-0.11502456665039062,0.023499250411987305,-0.04476955533027649
1772725497864537900,6.075537841796875,-0.20923423767089844,0.01759648323059082,-0.04134023189544678
1772725497874054700,6.0850546875,-0.2436065673828125,0.02251744270324707,-0.01017540693283081
1772725497883571500,6.094571533203125,-0.21918392181396484,0.009888648986816406,-0.06288477778434753
1772725497893088300,6.104088134765625,-0.16504955291748047,-0.0014905929565429688,-0.07101085782051086
1772725497902605000,6.11360498046875,-0.06727409362792969,-0.026440143585205078,-0.06057882308959961
1772725497912121900,6.123121826171875,0.031375885009765625,-0.04422473907470703,-0.023921847343444824
1772725497921638700,6.132638671875,0.08879470825195312,-0.0367124080657959,0.05563622713088989
1772725497931155500,6.142155517578125,0.15516376495361328,-0.046883583068847656,0.09972348809242249
1772725497940672300,6.15167236328125,0.17613887786865234,-0.020227909088134766,0.08690163493156433
1772725497950189000,6.16118896484375,0.13350963592529297,-0.004060268402099609,0.0723617672920227
1772725497959705900,6.170705810546875,0.0987548828125,-0.0001418590545654297,0.04197227954864502
1772725497969222700,6.18022265625,0.08107566833496094,0.00831151008605957,0.014073818922042847
1772725497978739500,6.189739501953125,0.11074447631835938,0.0024008750915527344,-0.012112528085708618
1772725497988256300,6.19925634765625,0.11185836791992188,0.007824182510375977,-0.038726598024368286
1772725497997773000,6.20877294921875,0.04010009765625,0.012941360473632812,-0.02959340810775757
1772725498007290000,6.2182900390625,-0.06585884094238281,0.004164457321166992,-0.013038426637649536
1772725498016806700,6.227806640625,-0.1351032257080078,-0.005866050720214844,0.03706738352775574
1772725498026323500,6.237323486328125,-0.1446399688720703,-0.0008718967437744141,0.037632137537002563
1772725498035840300,6.24684033203125,-0.09775257110595703,-0.0048465728759765625,0.019574254751205444
1772725498045357000,6.256357177734375,0.0024585723876953125,-0.0017101764678955078,-0.000927656888961792
1772725498054873900,6.265873779296875,0.06577682495117188,-0.03183341026306152,-0.0077811479568481445
1772725498064390700,6.275390625,0.1376504898071289,-0.02678680419921875,-0.02991122007369995
1772725498073907700,6.28490771484375,0.14267349243164062,-0.029515504837036133,-0.01931065320968628
1772725498083424300,6.29442431640625,0.10320377349853516,-0.03988003730773926,0.006158977746963501
1772725498092941000,6.303941162109375,0.04585552215576172,-0.027057170867919922,0.030591189861297607
1772725498102458000,6.3134580078125,0.03204345703125,-0.04779648780822754,0.04178604483604431
1772725498111974700,6.322974609375,0.018448829650878906,-0.03524589538574219,0.02902299165725708
1772725498121491500,6.332491455078125,-0.039775848388671875,-0.015587091445922852,0.03189957141876221
1772725498131008500,6.342008544921875,-0.0902700424194336,-0.01451420783996582,-0.02318781614303589
1772725498140525300,6.351525390625,-0.12614154815673828,-0.008027791976928711,-0.05237177014350891
1772725498150041900,6.361041748046875,-0.13118553161621094,0.006249189376831055,-0.013170987367630005
1772725498159559000,6.370558837890625,-0.10105133056640625,-0.012122154235839844,0.0610295832157135
1772725498169075700,6.38007568359375,-0.04321575164794922,-0.011198997497558594,0.07121267914772034
1772725498178592500,6.389592529296875,-0.012079238891601562,0.0011723041534423828,0.07471710443496704
1772725498188109000,6.399109130859375,0.04216766357421875,0.008423805236816406,0.062029629945755005
1772725498197626000,6.408626220703125,0.04156494140625,-0.0036954879760742188,0.07304009795188904
1772725498207143000,6.418142822265625,0.0716848373413086,0.014662504196166992,0.07437151670455933
1772725498216659500,6.427659423828125,0.07795143127441406,0.008773326873779297,0.042983412742614746
1772725498226176500,6.437176513671875,0.06312179565429688,0.01197957992553711,0.02185797691345215
1772725498235693300,6.446693359375,0.022745132446289062,0.005503416061401367,-0.017750650644302368
1772725498245210000,6.456210205078125,-0.04057598114013672,-0.0030145645141601562,-0.035639822483062744
1772725498254727000,6.465726806640625,-0.06534290313720703,-0.011081457138061523,-0.025481075048446655
1772725498264243700,6.47524365234375,-0.028533935546875,0.009217023849487305,-0.05585041642189026
1772725498273760500,6.484760498046875,-0.00879669189453125,0.019705772399902344,-0.06245914101600647
1772725498283277000,6.494277099609375,-0.05295753479003906,-0.005169391632080078,-0.01708778738975525
1772725498292794000,6.503794189453125,-0.08716678619384766,-0.01262807846069336,-0.016767233610153198
1772725498302311000,6.513310791015625,-0.09043312072753906,0.03708648681640625,0.0005443990230560303
1772725498311827700,6.52282763671875,-0.06315994262695312,0.05330157279968262,0.013031333684921265
1772725498321344500,6.532344482421875,-0.0268707275390625,0.03856015205383301,-0.00960385799407959
1772725498330861300,6.541861328125,-0.000659942626953125,0.010094165802001953,-0.027189642190933228
1772725498340378000,6.551378173828125,0.018114089965820312,0.021933555603027344,-0.03528347611427307
1772725498349895000,6.56089501953125,0.027278900146484375,0.03801107406616211,-0.024325788021087646
1772725498359411700,6.57041162109375,0.03173351287841797,0.008744239807128906,-0.011271864175796509
1772725498368928500,6.579928466796875,-0.017988204956054688,0.036393165588378906,-0.017330586910247803
1772725498378445300,6.5894453125,-0.0481109619140625,0.023683547973632812,-0.007049649953842163
1772725498387962000,6.598962158203125,-0.03775215148925781,0.03947162628173828,-0.025196999311447144
1772725498397479000,6.60847900390625,-0.00635528564453125,0.05253291130065918,-0.017360538244247437
1772725498406995700,6.61799560546875,-0.024909019470214844,0.03249382972717285,-0.0165652334690094
1772725498416512500,6.627512451171875,-0.012520790100097656,0.026848316192626953,-0.034176915884017944
1772725498426029300,6.637029296875,-0.0026350021362304688,0.030588626861572266,-0.05601531267166138
1772725498435546000,6.646546142578125,-0.021111488342285156,0.022387266159057617,-0.037681400775909424
1772725498445063000,6.65606298828125,-0.058257102966308594,0.03815436363220215,-0.07205149531364441
1772725498454579700,6.665579833984375,-0.10691165924072266,0.009726285934448242,-0.08799579739570618
1772725498464096500,6.675096435546875,-0.06795024871826172,0.029343366622924805,-0.04809969663619995
1772725498473613300,6.68461328125,-0.03920269012451172,0.027772188186645508,-0.035223573446273804
1772725498483130000,6.694130126953125,-0.029755592346191406,0.03800225257873535,0.02693629264831543
1772725498492647000,6.70364697265625,-0.02994060516357422,0.024754762649536133,0.036928921937942505
1772725498502163700,6.713163818359375,0.028850555419921875,0.004412174224853516,0.019456088542938232
1772725498511680500,6.722680419921875,0.07046699523925781,0.012061357498168945,-0.011098086833953857
1772725498521197300,6.732197265625,0.04345989227294922,0.03770875930786133,-0.0054528117179870605
1772725498530714000,6.741714111328125,0.012181282043457031,0.046500444412231445,0.0119343101978302
1772725498540231000,6.75123095703125,-0.030524253845214844,0.04381084442138672,0.04061993956565857
1772725498549747700,6.760747802734375,-0.05626201629638672,0.02518606185913086,0.037969887256622314
1772725498559264500,6.770264404296875,-0.0629720687866211,0.014516115188598633,0.005103349685668945
1772725498568781300,6.77978125,-0.027212142944335938,-0.01715087890625,-0.017676889896392822
1772725498578298000,6.789298095703125,0.03163719177246094,-0.001596212387084961,-0.028185874223709106
1772725498587815000,6.79881494140625,0.016759872436523438,0.006214618682861328,-0.019266098737716675
1772725498597331700,6.808331787109375,0.0022287368774414062,0.011272192001342773,-0.020181506872177124
1772725498606848500,6.8178486328125,-0.026212692260742188,-0.01200246810913086,-0.06192517280578613
1772725498616365300,6.827365234375,-0.019080162048339844,-0.03693675994873047,-0.05736681818962097
1772725498625882000,6.836882080078125,-0.012373924255371094,-0.023177623748779297,-0.037464678287506104
1772725498635399000,6.84639892578125,-0.027225494384765625,-0.018468618392944336,0.03329521417617798
1772725498644915700,6.855915771484375,-0.015985488891601562,-0.02071404457092285,0.08949917554855347
1772725498654432500,6.8654326171875,0.0140228271484375,-0.0018830299377441406,0.13694611191749573
1772725498663949300,6.87494921875,0.03910541534423828,-0.014462471008300781,0.15458396077156067
1772725498673466000,6.884466064453125,0.08298015594482422,0.014699220657348633,0.144758403301239
1772725498682983000,6.89398291015625,0.11946678161621094,0.0070912837982177734,0.08566597104072571
1772725498692499700,6.903499755859375,0.11081409454345703,-0.003281116485595703,0.012439519166946411
1772725498702016500,6.9130166015625,0.06697273254394531,-0.011149406433105469,-0.03707197308540344
1772725498711533300,6.922533203125,-0.00447845458984375,0.004790544509887695,-0.03967979550361633
1772725498721050000,6.932050048828125,-0.0395660400390625,0.011271238327026367,-0.012327849864959717
1772725498730567000,6.94156689453125,-0.04361534118652344,0.003851652145385742,0.00043150782585144043
1772725498740083700,6.951083740234375,-0.06888866424560547,0.0016388893127441406,0.009094804525375366
1772725498749600500,6.9606005859375,-0.06801319122314453,-0.014175891876220703,0.025557100772857666
1772725498759117300,6.970117431640625,-0.08849525451660156,0.010750770568847656,0.018837064504623413
1772725498768634000,6.979634033203125,-0.04526710510253906,0.01450347900390625,-0.001647263765335083
1772725498778151000,6.98915087890625,-0.009904861450195312,0.01369333267211914,-0.0195329487323761
1772725498787667700,6.998667724609375,0.0931406021118164,-0.001378774642944336,-0.03299301862716675
1772725498797184500,7.0081845703125,0.18527507781982422,-0.014475107192993164,-0.025872349739074707
1772725498806701300,7.017701416015625,0.20789432525634766,-0.0350954532623291,-0.04763209819793701
1772725498816218000,7.027218017578125,0.17165851593017578,-0.016231060028076172,-0.05500951409339905
1772725498825735000,7.03673486328125,0.11528968811035156,-0.017514944076538086,-0.08519509434700012
1772725498835251700,7.046251708984375,0.07915592193603516,0.00845479965209961,-0.03823593258857727
1772725498844768500,7.0557685546875,0.020247459411621094,-0.003971576690673828,0.017826169729232788
1772725498854285300,7.065285400390625,-0.0827474594116211,-0.0012881755828857422,-0.029108256101608276
1772725498863802000,7.074802001953125,-0.1964254379272461,0.014582395553588867,-0.0713563859462738
1772725498873319000,7.08431884765625,-0.20521926879882812,0.01498103141784668,-0.056903302669525146
1772725498882835700,7.093835693359375,-0.1105813980102539,-0.0028722286224365234,-0.01226043701171875
1772725498892352500,7.1033525390625,-0.026955604553222656,-0.015666961669921875,0.02454867959022522
1772725498901869300,7.112869384765625,0.0036687850952148438,-0.028551578521728516,0.05201864242553711
1772725498911386000,7.12238623046875,0.04325675964355469,-0.015439748764038086,0.0489063560962677
1772725498920903000,7.13190283203125,0.049414634704589844,-0.0052645206451416016,0.05099424719810486
1772725498930419700,7.141419677734375,0.0863189697265625,-0.02176070213317871,0.07208359241485596
1772725498939936500,7.1509365234375,0.1630382537841797,-0.03667902946472168,0.04578414559364319
1772725498949453300,7.160453369140625,0.1446685791015625,-0.02155280113220215,0.012527108192443848
1772725498958970000,7.16997021484375,0.1174468994140625,-0.016724586486816406,-0.013296157121658325
1772725498968487000,7.17948681640625,0.0413055419921875,-0.009671926498413086,-0.012395113706588745
1772725498978003700,7.189003662109375,-0.06439685821533203,-0.0232694149017334,0.028967052698135376
1772725498987520500,7.1985205078125,-0.10982704162597656,-0.02178049087524414,0.01294901967048645
1772725498997037300,7.208037353515625,-0.10772991180419922,0.018007993698120117,-0.021900832653045654
1772725499006554000,7.21755419921875,-0.08939361572265625,0.01053309440612793,-0.06811651587486267
1772725499016071000,7.22707080078125,-0.11164093017578125,0.020330429077148438,-0.06886810064315796
1772725499025587700,7.236587646484375,-0.08905982971191406,-0.01651906967163086,-0.06753876805305481
1772725499035104500,7.2461044921875,-0.043376922607421875,-0.04088926315307617,-0.0664324164390564
1772725499044621300,7.255621337890625,0.0039348602294921875,-0.025018930435180664,-0.049516767263412476
1772725499054138000,7.26513818359375,0.03407001495361328,-0.04497241973876953,-0.061665743589401245
1772725499063655000,7.274655029296875,0.052039146423339844,-0.03191995620727539,-0.031460076570510864
1772725499073171700,7.284171630859375,0.02516937255859375,-0.03352546691894531,-0.029268711805343628
1772725499082688500,7.2936884765625,0.04826545715332031,-0.054136037826538086,0.0015637874603271484
1772725499092205300,7.303205322265625,0.02632904052734375,-0.011023759841918945,0.04125344753265381
1772725499101722000,7.31272216796875,-0.011780738830566406,0.00800323486328125,0.011984050273895264
1772725499111239000,7.322239013671875,-0.07766914367675781,0.005957365036010742,-0.007490932941436768
1772725499120755700,7.331755615234375,-0.08622550964355469,-0.004846811294555664,-0.00985729694366455
1772725499130272500,7.3412724609375,-0.07831096649169922,0.006130695343017578,0.009666472673416138
1772725499139789300,7.350789306640625,-0.06824588775634766,0.01950359344482422,0.031662166118621826
1772725499149306000,7.36030615234375,-0.011296272277832031,0.030305147171020508,0.013176381587982178
1772725499158823000,7.369822998046875,0.018846511840820312,-0.003888845443725586,-0.03835347294807434
1772725499168339700,7.379339599609375,0.07926464080810547,0.009052038192749023,-0.06812456250190735
1772725499177856500,7.3888564453125,0.1579456329345703,-0.0028162002563476562,-0.06419721245765686
1772725499187373300,7.398373291015625,0.16282367706298828,-0.008533239364624023,-0.03915855288505554
1772725499196890000,7.40789013671875,0.08780574798583984,-0.024028301239013672,0.013647407293319702
1772725499206407000,7.417406982421875,-0.0025091171264648438,0.0244748592376709,0.03279006481170654
1772725499215923700,7.426923828125,-0.04675483703613281,0.02778482437133789,0.04433432221412659
1772725499225440500,7.4364404296875,-0.08107852935791016,0.03392934799194336,0.029626429080963135
1772725499234957300,7.445957275390625,-0.06556129455566406,0.023880958557128906,0.029546529054641724
1772725499244474000,7.45547412109375,-0.0692281723022461,0.009560346603393555,0.04135921597480774
1772725499253991000,7.464990966796875,-0.07303237915039062,0.0006601810455322266,0.03642067313194275
1772725499263507700,7.4745078125,-0.0793008804321289,-0.0005719661712646484,0.008295893669128418
1772725499273024500,7.4840244140625,-0.05263710021972656,0.0008695125579833984,0.004408657550811768
1772725499282541300,7.493541259765625,0.03253650665283203,0.01144099235534668,0.022226333618164062
1772725499292058000,7.50305810546875,0.11195087432861328,-0.01909780502319336,0.020662784576416016
1772725499301575000,7.512574951171875,0.15041828155517578,-0.026600360870361328,-0.023932814598083496
1772725499311091700,7.522091796875,0.08242225646972656,-0.015367746353149414,-0.06127387285232544
1772725499320608500,7.5316083984375,-0.038702964782714844,-0.011015176773071289,-0.03673234581947327
1772725499330125300,7.541125244140625,-0.11805534362792969,-0.02722024917602539,-0.02361607551574707
1772725499339642000,7.55064208984375,-0.1917438507080078,0.018973588943481445,0.008621454238891602
1772725499349159000,7.560158935546875,-0.2293710708618164,0.05609464645385742,-0.004604697227478027
1772725499358675700,7.56967578125,-0.2079906463623047,0.05594372749328613,-0.05603682994842529
1772725499368192500,7.579192626953125,-0.1711111068725586,0.05242753028869629,-0.09158596396446228
1772725499377709300,7.588709228515625,-0.10712814331054688,0.012458324432373047,-0.08771204948425293
1772725499387226000,7.59822607421875,-0.030333518981933594,-0.02161264419555664,-0.02570950984954834
1772725499396743000,7.607742919921875,0.10657596588134766,-0.018040180206298828,0.020764172077178955
1772725499406259700,7.617259765625,0.20882225036621094,-0.001722097396850586,0.05517140030860901
1772725499415776500,7.626776611328125,0.3008995056152344,0.002709627151489258,0.06186413764953613
1772725499425293300,7.636293212890625,0.40667247772216797,-0.014378070831298828,0.10017126798629761
1772725499434810000,7.64581005859375,0.40335559844970703,-0.0498051643371582,0.11511173844337463
1772725499444327000,7.655326904296875,0.2972593307495117,-0.02515411376953125,0.07600197196006775
1772725499453843700,7.66484375,0.1625823974609375,0.0008502006530761719,0.016356319189071655
1772725499463360500,7.674360595703125,0.004033088684082031,0.017535924911499023,0.008941650390625
1772725499472877300,7.683877197265625,-0.11471176147460938,0.025715351104736328,0.02500268816947937
1772725499482394000,7.69339404296875,-0.17080116271972656,0.013810396194458008,0.007772326469421387
1772725499491911000,7.702910888671875,-0.2288379669189453,0.015139341354370117,-0.0023853182792663574
1772725499501427700,7.712427734375,-0.2134847640991211,0.022409677505493164,0.010986417531967163
1772725499510944500,7.721944580078125,-0.1657247543334961,0.04205775260925293,0.005711972713470459
1772725499520461300,7.73146142578125,-0.11184406280517578,0.017045974731445312,0.019602477550506592
1772725499529978000,7.74097802734375,-0.0022916793823242188,0.0016093254089355469,0.0001952648162841797
1772725499539495000,7.750494873046875,0.11990165710449219,-0.04270577430725098,-0.028658956289291382
1772725499549011700,7.76001171875,0.16514110565185547,-0.054355621337890625,-0.04602798819541931
1772725499558528500,7.769528564453125,0.14171504974365234,-0.04549264907836914,-0.04953989386558533
1772725499568045300,7.77904541015625,0.05295848846435547,-0.039504289627075195,-0.02453768253326416
1772725499577562000,7.78856201171875,-0.015492439270019531,-0.03591346740722656,0.019419491291046143
1772725499587079000,7.798078857421875,-0.04281139373779297,-0.022862672805786133,0.030461877584457397
1772725499596595700,7.807595703125,-0.0862874984741211,-0.03548741340637207,0.009032487869262695
1772725499606112500,7.817112548828125,-0.12700557708740234,-0.023589611053466797,-0.02146318554878235
1772725499615629300,7.82662939453125,-0.15102863311767578,-0.029660463333129883,-0.02614748477935791
1772725499625146000,7.83614599609375,-0.17524242401123047,-0.013082742691040039,-0.036227643489837646
1772725499634663000,7.845662841796875,-0.13121700286865234,0.004113197326660156,-0.03045836091041565
1772725499644179700,7.8551796875,-0.026823043823242188,-0.0023539066314697266,0.012556344270706177
1772725499653696500,7.864696533203125,0.11855316162109375,-0.016671419143676758,0.0007991492748260498
1772725499663213300,7.87421337890625,0.1891775131225586,-0.025116682052612305,0.0017491281032562256
1772725499672730000,7.883730224609375,0.18617725372314453,-0.008692264556884766,0.03154018521308899
1772725499682247000,7.893246826171875,0.12946414947509766,-0.007502555847167969,0.035215526819229126
1772725499691763700,7.902763671875,0.06911849975585938,0.014571189880371094,0.029806524515151978
1772725499701280500,7.912280517578125,-0.02559185028076172,0.020076751708984375,0.03935420513153076
1772725499710797300,7.92179736328125,-0.08605194091796875,0.03090047836303711,0.06088891625404358
1772725499720314000,7.931314208984375,-0.09406280517578125,0.03993988037109375,0.04865071177482605
1772725499729831000,7.940830810546875,-0.05274677276611328,0.030431509017944336,0.00737038254737854
1772725499739347700,7.95034765625,-0.005166053771972656,0.04475903511047363,-0.0554317831993103
1772725499748864500,7.959864501953125,0.01580810546875,0.03044581413269043,-0.08652651309967041
1772725499758381300,7.96938134765625,0.05065631866455078,0.02791309356689453,-0.057964980602264404
1772725499767898000,7.978898193359375,0.0969381332397461,0.015436172485351562,-0.03657960891723633
1772725499777415000,7.988414794921875,0.13805770874023438,0.011777162551879883,-0.02752777934074402
1772725499786931700,7.997931640625,0.13172245025634766,0.0050811767578125,-0.030666738748550415
1772725499796448500,8.007448486328125,0.10692214965820312,-0.023314476013183594,-0.022168487310409546
1772725499805965300,8.01696533203125,0.05207538604736328,-0.02565932273864746,0.033353596925735474
1772725499815482000,8.026482177734374,-0.01604938507080078,-0.027802228927612305,0.059494227170944214
1772725499824999000,8.0359990234375,-0.0690622329711914,-0.010711669921875,0.04309988021850586
1772725499834515700,8.045515625,-0.10962486267089844,-0.005085945129394531,0.03727656602859497
1772725499844032500,8.055032470703125,-0.1191110610961914,0.0009729862213134766,0.022770553827285767
1772725499853549300,8.06454931640625,-0.15221214294433594,-0.006552219390869141,0.02531421184539795
1772725499863066000,8.074066162109375,-0.15926647186279297,-0.0035924911499023438,-0.005178600549697876
1772725499872583000,8.0835830078125,-0.13824462890625,-0.002394437789916992,0.013913244009017944
1772725499882099700,8.093099609375,-0.06357479095458984,0.0061075687408447266,-0.0076074302196502686
1772725499891616500,8.102616455078126,-0.01596832275390625,-0.03039383888244629,0.0018402636051177979
1772725499901133300,8.11213330078125,0.031034469604492188,-0.06440949440002441,-0.01953175663948059
1772725499910650000,8.121650146484376,0.03977680206298828,-0.04652595520019531,-0.038354307413101196
1772725499920167000,8.1311669921875,0.02960968017578125,-0.012640953063964844,-0.04533222317695618
1772725499929683700,8.14068359375,0.028955459594726562,-0.026274681091308594,-0.003360956907272339
1772725499939200500,8.150200439453124,0.02119159698486328,-0.030161619186401367,0.0022169947624206543
1772725499948717300,8.15971728515625,0.006554603576660156,-0.01526784896850586,-0.006173938512802124
1772725499958234000,8.169234130859374,-0.017348289489746094,-0.026239395141601562,0.009336471557617188
1772725499967751000,8.1787509765625,-0.04100322723388672,-0.031951189041137695,0.043433308601379395
1772725499977267700,8.188267822265624,-0.07384204864501953,-0.008897542953491211,0.034842610359191895
1772725499986784500,8.197784423828125,-0.04740333557128906,-0.004786491394042969,0.033791184425354004
1772725499996301300,8.20730126953125,-0.00724029541015625,-0.012561321258544922,0.01686573028564453
1772725500005818000,8.216818115234375,-0.017162322998046875,-0.01544809341430664,0.03358474373817444
1772725500015335000,8.2263349609375,-0.0057468414306640625,-0.004161834716796875,0.019395649433135986
1772725500024851700,8.235851806640625,0.054996490478515625,-0.019262313842773438,0.01432839035987854
1772725500034368500,8.245368408203126,0.10789108276367188,-0.013509035110473633,-0.0309276282787323
1772725500043885300,8.25488525390625,0.13202953338623047,-0.001689910888671875,-0.033097803592681885
1772725500053402000,8.264402099609375,0.09018325805664062,-0.019038677215576172,-0.0375635027885437
1772725500062919000,8.2739189453125,0.02312469482421875,-0.014873504638671875,-0.016220510005950928
1772725500072435700,8.283435791015625,-0.05940723419189453,0.010762929916381836,-0.013467252254486084
1772725500081952500,8.292952392578124,-0.09366893768310547,0.04349207878112793,-0.026673734188079834
1772725500091469300,8.30246923828125,-0.08051872253417969,0.02208423614501953,-0.00682443380355835
1772725500100986000,8.311986083984374,-0.03719902038574219,-0.010310173034667969,-0.020931750535964966
1772725500110503000,8.3215029296875,0.021684646606445312,-0.018271207809448242,-0.007453799247741699
1772725500120019700,8.331019775390626,0.05132293701171875,-0.011979341506958008,0.009842127561569214
1772725500129536500,8.34053662109375,0.052374839782714844,-0.010859966278076172,0.04322618246078491
1772725500139053300,8.35005322265625,0.04655742645263672,0.013307332992553711,0.06476420164108276
1772725500148570000,8.359570068359375,0.10001277923583984,0.003353595733642578,0.06563207507133484
1772725500158087000,8.3690869140625,0.06820106506347656,-0.0236358642578125,0.055575013160705566
1772725500167603700,8.378603759765625,0.027627944946289062,-0.0033829212188720703,0.05774518847465515
1772725500177120500,8.38812060546875,-0.012328147888183594,-0.0021300315856933594,0.050594180822372437
1772725500186637300,8.39763720703125,-0.044681549072265625,-0.028870344161987305,0.010252267122268677
1772725500196154000,8.407154052734375,-0.0649871826171875,0.004240512847900391,-0.004040449857711792
1772725500205671000,8.4166708984375,-0.08285236358642578,-0.02139592170715332,-0.029744237661361694
1772725500215187700,8.426187744140625,-0.07474231719970703,-0.017786502838134766,-0.01664525270462036
1772725500224704500,8.43570458984375,-0.0739755630493164,-0.0067501068115234375,0.015596866607666016
1772725500234221300,8.44522119140625,-0.05695915222167969,0.01869821548461914,0.004622399806976318
1772725500243738000,8.454738037109376,-0.02864360809326172,0.020557165145874023,-0.04935479164123535
1772725500253255000,8.4642548828125,0.029768943786621094,-0.012923955917358398,-0.08893778920173645
1772725500262771700,8.473771728515626,0.07318782806396484,-0.0014202594757080078,-0.09292668104171753
1772725500272288500,8.48328857421875,0.1396923065185547,-0.012023687362670898,-0.03852105140686035
1772725500281805300,8.492805419921876,0.17492103576660156,-0.03996872901916504,0.0291062593460083
1772725500291322000,8.502322021484375,0.1582508087158203,-0.056723833084106445,0.03989553451538086
1772725500300839000,8.5118388671875,0.05270576477050781,-0.03372049331665039,0.04461711645126343
1772725500310355700,8.521355712890625,-0.04630565643310547,-0.006452083587646484,0.029148370027542114
1772725500319872500,8.53087255859375,-0.14619731903076172,0.01853203773498535,0.031208783388137817
1772725500329389300,8.540389404296874,-0.22375011444091797,0.0184781551361084,0.028643876314163208
1772725500338906000,8.549906005859375,-0.22770309448242188,0.012848615646362305,0.011171191930770874
1772725500348423000,8.5594228515625,-0.21575450897216797,0.02285623550415039,-0.026266664266586304
1772725500357939700,8.568939697265625,-0.15746307373046875,0.003216266632080078,-0.019985944032669067
1772725500367456500,8.57845654296875,-0.043837547302246094,0.026567697525024414,-0.05485287308692932
1772725500376973300,8.587973388671875,0.10347366333007812,0.008797883987426758,-0.03994816541671753
1772725500386490000,8.597489990234376,0.23007678985595703,-0.010035514831542969,0.012860208749771118
1772725500396007000,8.6070068359375,0.2516164779663086,-0.027514219284057617,0.0377010703086853
1772725500405523700,8.616523681640626,0.2451772689819336,-0.013132810592651367,0.030694037675857544
1772725500415040500,8.62604052734375,0.20398807525634766,0.000010728836059570312,0.0411609411239624
1772725500424557300,8.635557373046876,0.1779155731201172,0.0050847530364990234,0.018354415893554688
1772725500434074000,8.64507421875,0.1478252410888672,0.021196365356445312,0.0005496442317962646
1772725500443591000,8.6545908203125,0.05709362030029297,-0.0031239986419677734,-0.005974769592285156
1772725500453107700,8.664107666015624,-0.05594825744628906,-0.03112053871154785,-0.022837042808532715
1772725500462624500,8.67362451171875,-0.11329936981201172,-0.008507728576660156,-0.05623757839202881
1772725500472141300,8.683141357421874,-0.1440439224243164,0.01671457290649414,-0.07213568687438965
1772725500481658000,8.692658203125,-0.17218780517578125,0.011675834655761719,-0.0045396387577056885
1772725500491175000,8.7021748046875,-0.18369388580322266,-0.008944988250732422,0.024779140949249268
1772725500500691700,8.711691650390625,-0.14125823974609375,-0.011858224868774414,0.011076629161834717
1772725500510208500,8.72120849609375,-0.11633110046386719,-0.0022313594818115234,-0.05270615220069885
1772725500519725300,8.730725341796875,-0.0731353759765625,0.005186557769775391,-0.07114225625991821
1772725500529242000,8.7402421875,0.0000019073486328125,-0.015919208526611328,-0.046770840883255005
1772725500538759000,8.749759033203125,0.06502342224121094,-0.015916109085083008,0.0029398202896118164
1772725500548275700,8.759275634765626,0.14111328125,-0.03097677230834961,0.021412938833236694
1772725500557792500,8.76879248046875,0.19056415557861328,0.000002384185791015625,-0.002764403820037842
1772725500567309300,8.778309326171875,0.16649341583251953,0.0015952587127685547,-0.017359226942062378
1772725500576826000,8.787826171875,0.11711502075195312,-0.0019714832305908203,-0.022288769483566284
1772725500586343000,8.797343017578125,0.06629371643066406,0.010842084884643555,0.034705400466918945
1772725500595859700,8.806859619140624,0.0021409988403320312,-0.0022089481353759766,0.051520705223083496
1772725500605376500,8.81637646484375,-0.037636756896972656,0.030257701873779297,0.08245876431465149
1772725500614893300,8.825893310546874,-0.03695964813232422,0.02030777931213379,0.025474131107330322
1772725500624410000,8.83541015625,-0.019824981689453125,0.010514259338378906,-0.025992393493652344
1772725500633927000,8.844927001953126,-0.04545402526855469,0.024723529815673828,-0.03190597891807556
1772725500643443700,8.854443603515625,-0.09205055236816406,0.020400047302246094,-0.026114672422409058
1772725500652960500,8.86396044921875,-0.06038475036621094,0.004748106002807617,-0.03254354000091553
1772725500662477300,8.873477294921875,-0.008016586303710938,-0.013158321380615234,-0.07676571607589722
1772725500671994000,8.882994140625,0.041342735290527344,-0.01018381118774414,-0.09015887975692749
1772725500681511000,8.892510986328125,0.09011554718017578,-0.01260685920715332,-0.07324734330177307
1772725500691027700,8.90202783203125,0.0416717529296875,-0.005795955657958984,-0.031220942735671997
1772725500700544500,8.91154443359375,-0.024962425231933594,-0.022203445434570312,-0.01350894570350647
1772725500710061300,8.921061279296875,-0.06247234344482422,0.0046007633209228516,0.018331676721572876
1772725500719578000,8.930578125,-0.017099380493164062,-0.008764266967773438,0.047626882791519165
1772725500729095000,8.940094970703125,0.04419517517089844,-0.022374868392944336,0.04868406057357788
1772725500738611700,8.94961181640625,0.06714916229248047,-0.017673730850219727,0.045703619718551636
1772725500748128500,8.95912841796875,0.04031562805175781,-0.010704994201660156,0.03586173057556152
1772725500757645300,8.968645263671876,0.011507987976074219,-0.022526979446411133,0.04011136293411255
1772725500767162000,8.978162109375,0.018552780151367188,-0.008473396301269531,0.05360707640647888
1772725500776679000,8.987678955078126,0.011423110961914062,-0.013633489608764648,0.017434418201446533
1772725500786195700,8.99719580078125,-0.03800773620605469,0.0026819705963134766,0.0034317076206207275
1772725500795712500,9.00671240234375,-0.08919048309326172,-0.03245663642883301,-0.002993762493133545
1772725500805229300,9.016229248046875,-0.07848930358886719,-0.0054547786712646484,0.0378839373588562
1772725500814746000,9.02574609375,-0.037398338317871094,-0.016490459442138672,-0.018326938152313232
1772725500824263000,9.035262939453125,-0.04638862609863281,-0.013288259506225586,-0.07145935297012329
1772725500833779700,9.04477978515625,-0.02704620361328125,-0.005401611328125,-0.10581153631210327
1772725500843296500,9.054296630859374,-0.022263526916503906,-0.020992040634155273,-0.11715927720069885
1772725500852813300,9.063813232421875,0.019933700561523438,-0.007832527160644531,-0.07068654894828796
1772725500862330000,9.073330078125,0.0543060302734375,0.0028629302978515625,-0.013677388429641724
1772725500871847000,9.082846923828125,0.0695180892944336,-0.008353471755981445,0.042645275592803955
1772725500881363700,9.09236376953125,0.040244102478027344,-0.07903075218200684,0.19318178296089172
1772725500890880500,9.101880615234375,-0.03320598602294922,-0.11313128471374512,0.25146037340164185
1772725500900397300,9.111397216796876,-0.051727294921875,0.0448760986328125,0.058584630489349365
1772725500909914000,9.1209140625,0.012343406677246094,0.12736988067626953,-0.08977869153022766
1772725500919431000,9.130430908203126,-0.0000667572021484375,0.09824395179748535,-0.09175962209701538
1772725500928947700,9.13994775390625,-0.07618331909179688,-0.00956106185913086,0.025152653455734253
1772725500938464500,9.149464599609376,-0.09496879577636719,0.010139226913452148,0.04578748345375061
1772725500947981300,9.158981201171875,-0.05725383758544922,0.01382303237915039,0.005556285381317139
1772725500957498000,9.168498046875,0.02203655242919922,0.04838156700134277,0.001026451587677002
1772725500967014700,9.1780146484375,0.14281558990478516,0.03406691551208496,-0.02316877245903015
1772725500976531700,9.18753173828125,0.26032257080078125,-0.022890806198120117,-0.07879379391670227
1772725500986048500,9.197048583984374,0.26852893829345703,-0.06254053115844727,-0.10738968849182129
1772725500995565300,9.2065654296875,0.2558870315551758,-0.027572154998779297,-0.08302000164985657
1772725501005082000,9.21608203125,0.11640548706054688,-0.030904293060302734,-0.03609141707420349
1772725501014599000,9.225598876953125,-0.006778717041015625,-0.014890909194946289,0.02506890892982483
1772725501024115700,9.23511572265625,-0.09750556945800781,-0.0008852481842041016,-0.01220792531967163
1772725501033632500,9.244632568359375,-0.11641597747802734,0.05846214294433594,0.09616747498512268
1772725501043149300,9.2541494140625,-0.2506065368652344,-0.04216289520263672,0.050106048583984375
1772725501052666000,9.263666015625,-0.1902322769165039,-0.06904721260070801,0.011247962713241577
1772725501062183000,9.273182861328126,-0.11462783813476562,0.00856471061706543,0.031195998191833496
1772725501071699500,9.282699462890625,-0.03793048858642578,0.016648054122924805,0.03198814392089844
1772725501081216500,9.292216552734375,-0.004805564880371094,-0.0037910938262939453,0.05390119552612305
1772725501090733300,9.3017333984375,-0.044960975646972656,-0.0031151771545410156,0.07206246256828308
1772725501100250000,9.31125,-0.09140872955322266,-0.018847942352294922,0.10725811123847961
1772725501109766700,9.3207666015625,-0.19861793518066406,-0.01907944679260254,0.12998637557029724
1772725501119283700,9.33028369140625,-0.16343307495117188,0.03381490707397461,0.07866492867469788
1772725501128800500,9.339800537109374,-0.05852031707763672,0.05343747138977051,0.007971644401550293
1772725501138317000,9.349317138671875,0.06583309173583984,0.013835906982421875,-0.052605777978897095
1772725501147833900,9.358833740234376,0.07752513885498047,-0.03228187561035156,-0.002818852663040161
1772725501157351000,9.368350830078125,0.1291065216064453,-0.049765825271606445,0.006887197494506836
1772725501166867700,9.37786767578125,0.21786212921142578,-0.030347585678100586,0.001657724380493164
1772725501176384300,9.38738427734375,0.25385189056396484,-0.014895200729370117,-0.00665399432182312
1772725501185901000,9.396901123046876,0.22858905792236328,-0.02924823760986328,-0.061803072690963745
1772725501195418000,9.406418212890625,0.17132282257080078,-0.01871323585510254,-0.08711990714073181
1772725501204934700,9.4159345703125,0.0823526382446289,0.016874313354492188,-0.045580655336380005
1772725501214451500,9.425451416015624,-0.033476829528808594,0.031003236770629883,-0.004320502281188965
1772725501223968300,9.43496826171875,-0.06764507293701172,0.05498313903808594,0.024414241313934326
1772725501233485300,9.4444853515625,-0.1061553955078125,0.027321338653564453,0.03388923406600952
1772725501243001900,9.454001953125,-0.0878744125366211,0.003222227096557617,0.019126474857330322
1772725501252518700,9.4635185546875,-0.06298446655273438,-0.005978822708129883,0.011752575635910034
1772725501262035500,9.473035400390625,-0.0053997039794921875,-0.006040096282958984,0.013945221900939941
1772725501271552500,9.482552490234376,0.07040214538574219,-0.021215438842773438,-0.0014688372611999512
1772725501281069000,9.492069091796875,0.07927703857421875,-0.029643535614013672,-0.01677495241165161
1772725501290585900,9.5015859375,0.0221710205078125,-0.04749107360839844,-0.03444373607635498
1772725501300102700,9.5111025390625,0.020120620727539062,-0.05098271369934082,-0.0786089301109314
1772725501309619500,9.520619384765626,0.022940635681152344,-0.0029854774475097656,-0.06332966685295105
1772725501319136300,9.53013623046875,-0.007189750671386719,-0.021733522415161133,-0.024457871913909912
1772725501328653000,9.539653076171875,-0.10283374786376953,-0.002103567123413086,0.05221673846244812
1772725501338169900,9.549169921875,-0.13834285736083984,0.0038008689880371094,0.05242595076560974
1772725501347686700,9.558686767578125,-0.1170816421508789,-0.029725074768066406,0.023731648921966553
1772725501357203500,9.568203369140624,-0.07741069793701172,-0.003699064254760742,-0.011331886053085327
1772725501366720300,9.57772021484375,-0.08088111877441406,-0.036473751068115234,0.01913270354270935
1772725501376237000,9.587237060546874,-0.13162899017333984,-0.04193615913391113,0.09337353706359863
1772725501385753900,9.59675390625,-0.13007736206054688,-0.013515233993530273,0.0658964216709137
1772725501395270700,9.606270751953126,-0.06984233856201172,0.03584885597229004,-0.00391879677772522
1772725501404787500,9.615787353515625,0.0035123825073242188,0.03960061073303223,-0.056837618350982666
1772725501414304300,9.62530419921875,0.07104110717773438,0.06412911415100098,-0.09084159135818481
1772725501423821000,9.634821044921875,0.1189260482788086,0.035631656646728516,-0.08986037969589233
1772725501433337900,9.644337890625,0.1712179183959961,0.02509617805480957,-0.04033830761909485
1772725501442854700,9.653854736328125,0.17601585388183594,0.0159759521484375,-0.01061326265335083
1772725501452371500,9.663371337890625,0.07734203338623047,0.016123533248901367,0.02379634976387024
1772725501461888300,9.67288818359375,-0.01745128631591797,0.04965066909790039,0.056736528873443604
1772725501471405000,9.682405029296875,-0.10855960845947266,0.06695127487182617,0.06274059414863586
1772725501480921900,9.691921875,-0.15379714965820312,0.08262467384338379,0.10755828022956848
1772725501490438700,9.701438720703125,-0.11616706848144531,0.05626225471496582,0.10198414325714111
1772725501499955500,9.71095556640625,-0.12643718719482422,0.02852034568786621,0.0399894118309021
1772725501509472300,9.72047216796875,-0.16982269287109375,-0.016623973846435547,0.0176030695438385
1772725501518989000,9.729989013671876,-0.2928962707519531,-0.026738882064819336,0.0667361319065094
1772725501528505900,9.739505859375,-0.44020748138427734,-0.044840097427368164,0.10771381855010986
1772725501538022700,9.749022705078126,-0.4390296936035156,0.024221420288085938,0.10240814089775085
1772725501547539500,9.75853955078125,-0.23180198669433594,-0.1510634422302246,0.05664762854576111
1772725501557056300,9.76805615234375,-0.016167640686035156,-0.08556342124938965,-0.07296827435493469
1772725501566573000,9.777572998046875,-0.05442619323730469,0.15808367729187012,-0.2374662458896637
1772725501576089900,9.78708984375,0.2937946319580078,0.22797203063964844,-0.3113369047641754
1772725501585606700,9.796606689453125,0.6739673614501953,-0.03155255317687988,-0.10824424028396606
1772725501595123500,9.80612353515625,0.7970075607299805,-0.14137816429138184,0.14370593428611755
