time,seconds_elapsed,z,y,x
1772725491878465000,0.089465087890625,0.021685699000954628,-0.014049889519810677,-0.04566214233636856
1772725491887981800,0.09898193359375,0.032681263983249664,-0.017715077847242355,-0.03283398225903511
1772725491897498600,0.10849853515625,0.03451386094093323,-0.017715077847242355,-0.017562363296747208
1772725491907015400,0.118015380859375,0.022907428443431854,-0.02260199747979641,-0.008399390615522861
1772725491916532500,0.127532470703125,0.012522728182375431,-0.02260199747979641,-0.005955931730568409
1772725491926049300,0.13704931640625,0.005803215317428112,-0.014049889519810677,-0.008399390615522861
1772725491935566000,0.146566162109375,0.008857538923621178,-0.004886918235570192,-0.006566796451807022
1772725491945083000,0.156082763671875,0.013133592903614044,0.001832594396546483,-0.002901607658714056
1772725491954599700,0.165599609375,0.01435532234609127,-0.003665188793092966,0.005650499369949102
1772725491964116500,0.175116455078125,0.010079269297420979,-0.01282816007733345,0.014202605932950974
1772725491973633300,0.18463330078125,0.004581485874950886,-0.010995565913617611,0.02458730712532997
1772725491983150000,0.194150146484375,0.003359756199643016,-0.007941242307424545,0.03252854943275452
1772725491992667000,0.2036669921875,0.003970621153712273,-0.001221729558892548,0.036804601550102234
1772725492002183700,0.21318359375,0.0015271619195118546,0.006108647678047419,0.03436114266514778
1772725492011700500,0.222700439453125,-0.005192350596189499,0.011606430634856224,0.025809036567807198
1772725492021217300,0.23221728515625,-0.007635809946805239,0.011606430634856224,0.011148282326757908
1772725492030734000,0.241734130859375,-0.005192350596189499,0.007941242307424545,-0.005345067009329796
1772725492040251000,0.2512509765625,0.0009162971982732415,0.001832594396546483,-0.02306014485657215
1772725492049767700,0.260767578125,0.007635809946805239,-0.0054977829568088055,-0.030390523374080658
1772725492059284500,0.270284423828125,0.010690134018659592,0.000610864779446274,-0.034666575491428375
1772725492068801300,0.27980126953125,0.005192350596189499,0.010995565913617611,-0.03588830679655075
1772725492078318300,0.289318359375,-0.003970621153712273,0.009773836471140385,-0.03955349326133728
1772725492087835000,0.2988349609375,-0.010690134018659592,0.007941242307424545,-0.03894263133406639
1772725492097352000,0.30835205078125,-0.011300998739898205,0.012217295356094837,-0.03405570983886719
1772725492106868700,0.31786865234375,-0.003970621153712273,0.003665188793092966,-0.031612250953912735
1772725492116385500,0.327385498046875,0.004581485874950886,-0.009773836471140385,-0.03527744114398956
1772725492125902300,0.33690234375,0.008246674202382565,-0.014660755172371864,-0.041386090219020844
1772725492135419100,0.346419189453125,0.005192350596189499,-0.020158538594841957,-0.044440411031246185
1772725492144936000,0.35593603515625,-0.0015271619195118546,-0.01954767294228077,-0.046883873641490936
1772725492154452700,0.36545263671875,-0.005192350596189499,-0.014660755172371864,-0.04932733252644539
1772725492163969500,0.374969482421875,-0.0021380267571657896,-0.007330377586185932,-0.05238165333867073
1772725492173486300,0.384486328125,0.0027488914784044027,-0.002443459117785096,-0.04810560122132301
1772725492183003100,0.394003173828125,0.005803215317428112,-0.007330377586185932,-0.03894263133406639
1772725492192520000,0.40352001953125,0.008246674202382565,-0.015271619893610477,-0.02916879393160343
1772725492202036700,0.41303662109375,0.005192350596189499,-0.021380268037319183,-0.021838415414094925
1772725492211553500,0.422553466796875,0.0015271619195118546,-0.02626718580722809,-0.019394956529140472
1772725492221070300,0.4320703125,-0.0009162971982732415,-0.014049889519810677,-0.014508038759231567
1772725492230587400,0.44158740234375,0.0009162971982732415,-0.004276053514331579,-0.006566796451807022
1772725492240104000,0.45110400390625,0.004581485874950886,-0.006719512399286032,-0.002901607658714056
1772725492249620700,0.460620849609375,0.010079269297420979,-0.017104214057326317,-0.002901607658714056
1772725492259137800,0.4701376953125,0.008246674202382565,-0.03176496922969818,-0.007788525894284248
1772725492268654600,0.479654541015625,0.000305432389723137,-0.040317077189683914,-0.015729768201708794
1772725492278171100,0.489171142578125,-0.007024944759905338,-0.033597562462091446,-0.021838415414094925
1772725492287688200,0.498688232421875,-0.010079269297420979,-0.02260199747979641,-0.02306014485657215
1772725492297205000,0.508205078125,-0.006414080038666725,-0.021380268037319183,-0.02367101050913334
1772725492306721800,0.5177216796875,-0.003359756199643016,-0.024434590712189674,-0.02000582218170166
1772725492316238600,0.527238525390625,-0.007635809946805239,-0.021991131827235222,-0.01206457894295454
1772725492325755400,0.53675537109375,-0.014966187067329884,-0.009773836471140385,-0.004123337101191282
1772725492335272200,0.546272216796875,-0.01740964688360691,0.002443459117785096,0.0019853105768561363
1772725492344789000,0.5557890625,-0.01435532234609127,0.01649334840476513,0.0025961752980947495
1772725492354305800,0.565305908203125,-0.007635809946805239,0.01588248461484909,-0.003512472379952669
1772725492363822600,0.574822509765625,-0.0027488914784044027,0.003665188793092966,-0.009621120058000088
1772725492373339400,0.58433935546875,-0.005192350596189499,-0.01588248461484909,-0.006566796451807022
1772725492382856200,0.593856201171875,-0.007635809946805239,-0.0256563201546669,0.004428769461810589
1772725492392373000,0.603373046875,-0.007635809946805239,-0.020158538594841957,0.017256930470466614
1772725492401889800,0.612889892578125,-0.003359756199643016,-0.009773836471140385,0.02764163166284561
1772725492411406800,0.62240673828125,0.0009162971982732415,-0.007330377586185932,0.0386371985077858
1772725492420923600,0.631923583984375,0.0021380267571657896,-0.010384701192378998,0.049021899700164795
1772725492430440200,0.641440185546875,-0.003359756199643016,-0.011606430634856224,0.058795735239982605
1772725492439957200,0.650957275390625,-0.011300998739898205,0.001221729558892548,0.06123919412493706
1772725492449474000,0.66047412109375,-0.013744457624852657,0.01282816007733345,0.05451968312263489
1772725492458990800,0.669990966796875,-0.010690134018659592,0.002443459117785096,0.030085090547800064
1772725492468507600,0.679507568359375,-0.004581485874950886,-0.012217295356094837,0.0062613640911877155
1772725492478024400,0.6890244140625,0.0021380267571657896,-0.021991131827235222,-0.008399390615522861
1772725492487541200,0.698541259765625,0.0027488914784044027,-0.021991131827235222,-0.006566796451807022
1772725492497058000,0.70805810546875,-0.000305432389723137,-0.017715077847242355,-0.002290742937475443
1772725492506574800,0.717574951171875,-0.0021380267571657896,0.006719512399286032,-0.006566796451807022
1772725492516091600,0.727091552734375,-0.005803215317428112,0.023212861269712448,-0.013897174037992954
1772725492525608400,0.7366083984375,-0.012522728182375431,0.030543239787220955,-0.02000582218170166
1772725492535125200,0.746125244140625,-0.015577051788568497,0.03543015569448471,-0.01511890348047018
1772725492544642000,0.75564208984375,-0.011300998739898205,0.04581485688686371,-0.004123337101191282
1772725492554158800,0.765158935546875,0.000305432389723137,0.0360410213470459,0.0025961752980947495
1772725492563675600,0.774675537109375,0.00946840364485979,0.007941242307424545,0.004428769461810589
1772725492573192400,0.7841923828125,0.01802051067352295,-0.006719512399286032,0.009926552884280682
1772725492582709200,0.793709228515625,0.02412915788590908,0.004886918235570192,0.02153298258781433
1772725492592226000,0.80322607421875,0.025961752980947495,0.010384701192378998,0.03375028073787689
1772725492601743000,0.8127431640625,0.025350889191031456,0,0.04046979174017906
1772725492611260000,0.822260009765625,0.024740023538470268,-0.011606430634856224,0.04169152304530144
1772725492620776700,0.831776611328125,0.022907428443431854,-0.020769402384757996,0.0386371985077858
1772725492630293500,0.84129345703125,0.02107483521103859,-0.034208428114652634,0.025809036567807198
1772725492639810300,0.850810302734375,0.01802051067352295,-0.04276053607463837,0.008093958720564842
1772725492649327000,0.8603271484375,0.01435532234609127,-0.04581485688686371,-0.01511890348047018
1772725492658844000,0.869843994140625,0.01435532234609127,-0.03787361457943916,-0.02916879393160343
1772725492668360700,0.879360595703125,0.012522728182375431,-0.01649334840476513,-0.02611446939408779
1772725492677877500,0.88887744140625,0.008857538923621178,0.003665188793092966,-0.0102319847792387
1772725492687394300,0.898394287109375,0.003359756199643016,0.01282816007733345,0.0025961752980947495
1772725492696911000,0.9079111328125,-0.0021380267571657896,0.017715077847242355,0.009315688163042068
1772725492706428000,0.917427978515625,-0.0027488914784044027,0.012217295356094837,0.007483093533664942
1772725492715944700,0.92694482421875,-0.0015271619195118546,0.000610864779446274,0.0025961752980947495
1772725492725461500,0.93646142578125,-0.0015271619195118546,-0.006108647678047419,-0.002901607658714056
1772725492734978300,0.945978271484375,-0.005192350596189499,-0.004276053514331579,-0.007788525894284248
1772725492744495000,0.9554951171875,-0.005803215317428112,0.000610864779446274,-0.009621120058000088
1772725492754012000,0.965011962890625,-0.005192350596189499,0.004276053514331579,-0.010842849500477314
1772725492763529000,0.974529052734375,0.000305432389723137,0.001832594396546483,-0.01206457894295454
1772725492773045500,0.98404541015625,0.006414080038666725,-0.0030543238390237093,-0.010842849500477314
1772725492782562600,0.9935625,0.006414080038666725,-0.009162971749901772,-0.005955931730568409
1772725492792079400,1.003079345703125,0.005192350596189499,-0.01588248461484909,0.005650499369949102
1772725492801596200,1.01259619140625,-0.0009162971982732415,-0.014660755172371864,0.017256930470466614
1772725492811113000,1.022113037109375,-0.005192350596189499,-0.017715077847242355,0.02153298258781433
1772725492820629800,1.031629638671875,-0.004581485874950886,-0.01588248461484909,0.02519817277789116
1772725492830146600,1.041146484375,-0.003970621153712273,0.001221729558892548,0.03252854943275452
1772725492839663400,1.050663330078125,-0.007024944759905338,0.017715077847242355,0.0386371985077858
1772725492849180200,1.06018017578125,-0.00946840364485979,0.021991131827235222,0.03802633285522461
1772725492858697000,1.069697021484375,-0.008246674202382565,0.01649334840476513,0.030695954337716103
1772725492868213800,1.0792138671875,-0.0021380267571657896,0.0054977829568088055,0.017256930470466614
1772725492877730600,1.08873046875,0.005803215317428112,-0.01954767294228077,-0.003512472379952669
1772725492887247400,1.098247314453125,0.008857538923621178,-0.03909534588456154,-0.025503603741526604
1772725492896764200,1.10776416015625,0.007024944759905338,-0.0409279391169548,-0.04016435891389847
1772725492906281000,1.117281005859375,0.003970621153712273,-0.025045456364750862,-0.04566214233636856
1772725492915797800,1.1267978515625,0.0009162971982732415,-0.008552107028663158,-0.04505127668380737
1772725492925314600,1.136314453125,-0.0027488914784044027,0.001221729558892548,-0.04260781779885292
1772725492934831400,1.145831298828125,-0.005803215317428112,0.007941242307424545,-0.03894263133406639
1772725492944348200,1.15534814453125,-0.006414080038666725,0.012217295356094837,-0.031001387163996696
1772725492953865200,1.164865234375,-0.003970621153712273,0.006719512399286032,-0.021838415414094925
1772725492963381800,1.1743818359375,-0.0015271619195118546,-0.001832594396546483,-0.01206457894295454
1772725492972898800,1.18389892578125,0.0015271619195118546,-0.008552107028663158,-0.001679878099821508
1772725492982415600,1.19341552734375,0.0021380267571657896,-0.011606430634856224,0.008093958720564842
1772725492991932200,1.20293212890625,0.0021380267571657896,-0.012217295356094837,0.012370011769235134
1772725493001449200,1.21244921875,0.000305432389723137,-0.009773836471140385,0.014813470654189587
1772725493010966000,1.221966064453125,-0.003970621153712273,-0.0054977829568088055,0.016035201027989388
1772725493020482800,1.23148291015625,-0.010690134018659592,-0.000610864779446274,0.016035201027989388
1772725493029999600,1.24099951171875,-0.014966187067329884,-0.002443459117785096,0.016035201027989388
1772725493039516400,1.250516357421875,-0.014966187067329884,-0.007941242307424545,0.017256930470466614
1772725493049033200,1.260033203125,-0.013133592903614044,-0.011606430634856224,0.017867794260382652
1772725493058550000,1.269550048828125,-0.011300998739898205,-0.012217295356094837,0.017867794260382652
1772725493068066800,1.27906689453125,-0.010079269297420979,-0.010995565913617611,0.017256930470466614
1772725493077583600,1.28858349609375,-0.013133592903614044,-0.01588248461484909,0.016646064817905426
1772725493087100400,1.298100341796875,-0.013744457624852657,-0.018325943499803543,0.014202605932950974
1772725493096617200,1.3076171875,-0.015577051788568497,-0.01588248461484909,0.008704823441803455
1772725493106134000,1.317134033203125,-0.01740964688360691,-0.009162971749901772,0.006872228812426329
1772725493115650800,1.32665087890625,-0.01802051067352295,-0.002443459117785096,0.008093958720564842
1772725493125167600,1.336167724609375,-0.019242240116000175,0.0030543238390237093,0.008704823441803455
1772725493134684400,1.345684326171875,-0.022296564653515816,-0.001221729558892548,0.0032070400193333626
1772725493144201500,1.355201416015625,-0.022907428443431854,-0.003665188793092966,-0.001679878099821508
1772725493153718000,1.364718017578125,-0.022907428443431854,0.0030543238390237093,-0.002290742937475443
1772725493163235000,1.374235107421875,-0.02412915788590908,0.006108647678047419,0.0007635809597559273
1772725493172752000,1.383751953125,-0.025350889191031456,0.0030543238390237093,0.0038179049734026194
1772725493182268400,1.393268310546875,-0.024740023538470268,0.008552107028663158,0.005650499369949102
1772725493191785500,1.402785400390625,-0.02412915788590908,0.01954767294228077,0.005039634648710489
1772725493201302300,1.41230224609375,-0.023518294095993042,0.009162971749901772,0.005039634648710489
1772725493210819000,1.421819091796875,-0.019853105768561363,-0.011606430634856224,0.006872228812426329
1772725493220335900,1.4313359375,-0.014966187067329884,-0.023823726922273636,0.009926552884280682
1772725493229852700,1.440852783203125,-0.012522728182375431,-0.020769402384757996,0.009315688163042068
1772725493239369500,1.450369384765625,-0.010690134018659592,-0.020769402384757996,0.005650499369949102
1772725493248886300,1.45988623046875,-0.011300998739898205,-0.029932374134659767,0.0025961752980947495
1772725493258403000,1.469403076171875,-0.013133592903614044,-0.02932151034474373,0.005650499369949102
1772725493267920000,1.478919921875,-0.013133592903614044,-0.021380268037319183,0.008093958720564842
1772725493277436700,1.488436767578125,-0.012522728182375431,-0.013439024798572063,0.006872228812426329
1772725493286953500,1.497953369140625,-0.011300998739898205,-0.008552107028663158,0.0032070400193333626
1772725493296470300,1.50747021484375,-0.008246674202382565,-0.009773836471140385,-0.0010690133785828948
1772725493305987000,1.516987060546875,-0.008857538923621178,-0.003665188793092966,-0.006566796451807022
1772725493315503900,1.52650390625,-0.011911863461136818,0.0030543238390237093,-0.012675444595515728
1772725493325020700,1.536020751953125,-0.018631376326084137,0.007330377586185932,-0.017562363296747208
1772725493334537500,1.545537353515625,-0.018631376326084137,0.012217295356094837,-0.02000582218170166
1772725493344054300,1.55505419921875,-0.013133592903614044,0.014049889519810677,-0.022449281066656113
1772725493353571300,1.5645712890625,-0.007024944759905338,0.012217295356094837,-0.02000582218170166
1772725493363088100,1.574088134765625,-0.0009162971982732415,-0.000610864779446274,-0.01206457894295454
1772725493372604700,1.583604736328125,0.004581485874950886,-0.009773836471140385,-0.004734201822429895
1772725493382121700,1.593121826171875,0.008246674202382565,-0.006108647678047419,-0.0010690133785828948
1772725493391638500,1.602638427734375,0.00946840364485979,0.001832594396546483,-0.0010690133785828948
1772725493401155300,1.6121552734375,0.007024944759905338,0.0030543238390237093,-0.0010690133785828948
1772725493410672000,1.621672119140625,0.003359756199643016,-0.006719512399286032,-0.008399390615522861
1772725493420189000,1.63118896484375,0.0015271619195118546,-0.024434590712189674,-0.013897174037992954
1772725493429705700,1.640705810546875,0.003359756199643016,-0.03176496922969818,-0.013897174037992954
1772725493439222500,1.650222412109375,0.005803215317428112,-0.02932151034474373,-0.007788525894284248
1772725493448739300,1.6597392578125,0.004581485874950886,-0.026878049597144127,-0.00045814859913662076
1772725493458256100,1.669256103515625,0.003970621153712273,-0.021991131827235222,0.009926552884280682
1772725493467773000,1.67877294921875,0.004581485874950886,-0.013439024798572063,0.022754713892936707
1772725493477289700,1.688289794921875,0.003359756199643016,0.0030543238390237093,0.030085090547800064
1772725493486806500,1.697806640625,0.000305432389723137,0.008552107028663158,0.03558287397027016
1772725493496323300,1.7073232421875,-0.0021380267571657896,0.007941242307424545,0.030695954337716103
1772725493505840000,1.716840087890625,0.0009162971982732415,-0.001221729558892548,0.020311253145337105
1772725493515357000,1.72635693359375,0.004581485874950886,-0.012217295356094837,0.009315688163042068
1772725493524873700,1.735873779296875,0.005803215317428112,-0.015271619893610477,-0.004734201822429895
1772725493534390500,1.745390625,0.0015271619195118546,-0.0030543238390237093,-0.016340631991624832
1772725493543907300,1.7549072265625,-0.003359756199643016,0.009162971749901772,-0.027947064489126205
1772725493553424400,1.76442431640625,-0.004581485874950886,0.017104214057326317,-0.0383317656815052
1772725493562941000,1.77394091796875,-0.0015271619195118546,0.01893680728971958,-0.04199695214629173
1772725493572458000,1.7834580078125,0.0027488914784044027,0.010995565913617611,-0.04199695214629173
1772725493581974800,1.792974853515625,0.007024944759905338,-0.000610864779446274,-0.0383317656815052
1772725493591491300,1.8024912109375,0.008857538923621178,-0.017104214057326317,-0.03222311660647392
1772725493601008400,1.81200830078125,0.008246674202382565,-0.026878049597144127,-0.024892739951610565
1772725493610525200,1.821525146484375,0.006414080038666725,-0.017715077847242355,-0.011453714221715927
1772725493620042000,1.8310419921875,0.005803215317428112,0.0030543238390237093,0.005650499369949102
1772725493629558800,1.840558837890625,0.005803215317428112,0.018325943499803543,0.02153298258781433
1772725493639075600,1.85007568359375,0.008246674202382565,0.027488915249705315,0.028863361105322838
1772725493648592400,1.85959228515625,0.007635809946805239,0.026878049597144127,0.02519817277789116
1772725493658109200,1.869109130859375,0.007024944759905338,0.017715077847242355,0.011759147047996521
1772725493667626000,1.8786259765625,0.007024944759905338,0.007941242307424545,-0.002290742937475443
1772725493677142800,1.888142822265625,0.00946840364485979,0,-0.013286309316754341
1772725493686659600,1.89765966796875,0.010079269297420979,-0.006108647678047419,-0.019394956529140472
1772725493696176400,1.90717626953125,0.00946840364485979,-0.006719512399286032,-0.02367101050913334
1772725493705693200,1.916693115234375,0.006414080038666725,-0.001832594396546483,-0.025503603741526604
1772725493715210000,1.9262099609375,0.005192350596189499,0.010384701192378998,-0.027947064489126205
1772725493724726800,1.935726806640625,0.003970621153712273,0.021380268037319183,-0.027947064489126205
1772725493734243600,1.94524365234375,0.0027488914784044027,0.02260199747979641,-0.028557928279042244
1772725493743760400,1.954760498046875,-0.0009162971982732415,0.020158538594841957,-0.028557928279042244
1772725493753277200,1.964277099609375,0.000305432389723137,0.010995565913617611,-0.024892739951610565
1772725493762794000,1.9737939453125,0.003970621153712273,0.002443459117785096,-0.018173227086663246
1772725493772311000,1.98331103515625,0.007024944759905338,-0.0030543238390237093,-0.007788525894284248
1772725493781827600,1.99282763671875,0.008246674202382565,-0.009162971749901772,0.004428769461810589
1772725493791344600,2.0023447265625,0.008857538923621178,-0.004886918235570192,0.016035201027989388
1772725493800861400,2.011861328125,0.008857538923621178,-0.007941242307424545,0.02153298258781433
1772725493810378200,2.021378173828125,0.007635809946805239,-0.014049889519810677,0.02519817277789116
1772725493819895000,2.03089501953125,0.005803215317428112,-0.01649334840476513,0.02458730712532997
1772725493829411800,2.040411865234375,0.003359756199643016,-0.01588248461484909,0.019700389355421066
1772725493838928600,2.0499287109375,-0.0015271619195118546,-0.007330377586185932,0.012370011769235134
1772725493848445400,2.059445556640625,-0.005803215317428112,0.002443459117785096,0.0038179049734026194
1772725493857962200,2.068962158203125,-0.008246674202382565,0.010384701192378998,-0.004123337101191282
1772725493867479000,2.07847900390625,-0.008857538923621178,0.015271619893610477,-0.009621120058000088
1772725493876995800,2.087995849609375,-0.007635809946805239,0.01588248461484909,-0.012675444595515728
1772725493886512600,2.0975126953125,-0.005803215317428112,0.008552107028663158,-0.01511890348047018
1772725493896029400,2.107029541015625,-0.005192350596189499,-0.000610864779446274,-0.0102319847792387
1772725493905546200,2.116546142578125,-0.003359756199643016,-0.006719512399286032,-0.002901607658714056
1772725493915063000,2.12606298828125,-0.003359756199643016,-0.011606430634856224,0.0032070400193333626
1772725493924579800,2.135579833984375,-0.000305432389723137,-0.011606430634856224,0.011148282326757908
1772725493934096600,2.1450966796875,0.000305432389723137,-0.006719512399286032,0.017867794260382652
1772725493943613400,2.154613525390625,-0.0009162971982732415,-0.000610864779446274,0.020311253145337105
1772725493953130200,2.164130126953125,-0.003359756199643016,0.0030543238390237093,0.01847865991294384
1772725493962647000,2.17364697265625,-0.006414080038666725,0.0030543238390237093,0.011759147047996521
1772725493972163800,2.183163818359375,-0.007024944759905338,0.001832594396546483,0.0019853105768561363
1772725493981680600,2.1926806640625,-0.005803215317428112,-0.000610864779446274,-0.007177661173045635
1772725493991197700,2.20219775390625,-0.0027488914784044027,0.000610864779446274,-0.013286309316754341
1772725494000714200,2.21171435546875,-0.0009162971982732415,-0.001832594396546483,-0.01695149764418602
1772725494010231000,2.22123095703125,0.000305432389723137,-0.004886918235570192,-0.017562363296747208
1772725494019748000,2.230748046875,0.0009162971982732415,0.0030543238390237093,-0.014508038759231567
1772725494029265000,2.240264892578125,-0.0015271619195118546,0.006719512399286032,-0.009010255336761475
1772725494038781700,2.24978173828125,-0.0027488914784044027,0.001832594396546483,-0.0010690133785828948
1772725494048298500,2.259298583984375,-0.0027488914784044027,-0.004886918235570192,0.008093958720564842
1772725494057815300,2.268815185546875,-0.0015271619195118546,-0.010995565913617611,0.016035201027989388
1772725494067332000,2.27833203125,0.000305432389723137,-0.017715077847242355,0.022754713892936707
1772725494076849000,2.287848876953125,-0.0021380267571657896,-0.023823726922273636,0.02519817277789116
1772725494086365700,2.29736572265625,-0.004581485874950886,-0.021380268037319183,0.02519817277789116
1772725494095882500,2.306882568359375,-0.005803215317428112,-0.011606430634856224,0.019700389355421066
1772725494105399300,2.3163994140625,-0.007024944759905338,-0.004276053514331579,0.0154243353754282
1772725494114916000,2.325916015625,-0.007024944759905338,0.001221729558892548,0.012370011769235134
1772725494124433000,2.335432861328125,-0.005192350596189499,0.003665188793092966,0.005650499369949102
1772725494133949700,2.34494970703125,-0.003970621153712273,0.006719512399286032,-0.002901607658714056
1772725494143466500,2.354466552734375,-0.0009162971982732415,0.006719512399286032,-0.0102319847792387
1772725494152983300,2.3639833984375,0.000305432389723137,0,-0.011453714221715927
1772725494162500000,2.3735,0.0009162971982732415,-0.000610864779446274,-0.002290742937475443
1772725494172017000,2.383016845703125,0.003970621153712273,0.001221729558892548,0.008704823441803455
1772725494181533700,2.39253369140625,0.008246674202382565,0,0.012370011769235134
1772725494191050500,2.402050537109375,0.008857538923621178,-0.008552107028663158,0.008704823441803455
1772725494200567300,2.4115673828125,0.007635809946805239,-0.01893680728971958,0.005650499369949102
1772725494210084000,2.421083984375,0.006414080038666725,-0.02626718580722809,0.0038179049734026194
1772725494219601200,2.43060107421875,0.0027488914784044027,-0.023212861269712448,0.0032070400193333626
1772725494229117700,2.44011767578125,0.000305432389723137,-0.013439024798572063,0.004428769461810589
1772725494238634800,2.449634765625,-0.0027488914784044027,-0.004886918235570192,0.008093958720564842
1772725494248151600,2.459151611328125,-0.003359756199643016,0.004276053514331579,0.0154243353754282
1772725494257668000,2.468668212890625,-0.005192350596189499,0.01282816007733345,0.01908952370285988
1772725494267185200,2.47818505859375,-0.005192350596189499,0.01954767294228077,0.016035201027989388
1772725494276702000,2.487701904296875,-0.003970621153712273,0.023212861269712448,0.006872228812426329
1772725494286218800,2.49721875,-0.0015271619195118546,0.015271619893610477,-0.002290742937475443
1772725494295735600,2.506735595703125,-0.0015271619195118546,-0.001221729558892548,-0.009010255336761475
1772725494305252400,2.51625244140625,0.000305432389723137,-0.014049889519810677,-0.01695149764418602
1772725494314769200,2.52576904296875,-0.000305432389723137,-0.015271619893610477,-0.0206166859716177
1772725494324286000,2.535285888671875,-0.0015271619195118546,-0.012217295356094837,-0.02000582218170166
1772725494333802800,2.544802734375,-0.0015271619195118546,0,-0.01511890348047018
1772725494343319600,2.554319580078125,-0.000305432389723137,0.01282816007733345,-0.008399390615522861
1772725494352836400,2.56383642578125,0.0021380267571657896,0.01954767294228077,0.0001527161948615685
1772725494362353200,2.573353271484375,0.003359756199643016,0.017715077847242355,0.007483093533664942
1772725494371870000,2.582869873046875,0.007024944759905338,0.006719512399286032,0.012980876490473747
1772725494381386800,2.59238671875,0.008246674202382565,-0.0030543238390237093,0.016035201027989388
1772725494390903600,2.601903564453125,0.010079269297420979,-0.006108647678047419,0.017867794260382652
1772725494400420400,2.61142041015625,0.00946840364485979,0.0030543238390237093,0.02519817277789116
1772725494409937200,2.620937255859375,0.007635809946805239,0.014049889519810677,0.029474224895238876
1772725494419454000,2.630453857421875,0.007024944759905338,0.02626718580722809,0.028863361105322838
1772725494428970800,2.639970703125,0.006414080038666725,0.02932151034474373,0.023976443335413933
1772725494438487600,2.649487548828125,0.005192350596189499,0.023212861269712448,0.016646064817905426
1772725494448004400,2.65900439453125,0.007024944759905338,0.014049889519810677,0.008093958720564842
1772725494457521200,2.668521240234375,0.007024944759905338,0.000610864779446274,-0.005955931730568409
1772725494467038200,2.6780380859375,0.008857538923621178,-0.009162971749901772,-0.022449281066656113
1772725494476555000,2.687554931640625,0.012522728182375431,-0.007941242307424545,-0.03405570983886719
1772725494486071600,2.697071533203125,0.011911863461136818,0.001832594396546483,-0.04566214233636856
1772725494495588600,2.706588623046875,0.00946840364485979,0.011606430634856224,-0.054214250296354294
1772725494505105400,2.71610546875,0.005192350596189499,0.018325943499803543,-0.05238165333867073
1772725494514622000,2.7256220703125,0.005192350596189499,0.01893680728971958,-0.044440411031246185
1772725494524139000,2.735138916015625,0.003970621153712273,0.011606430634856224,-0.040775224566459656
1772725494533655800,2.74465576171875,0.0027488914784044027,0.0030543238390237093,-0.03711003437638283
1772725494543172600,2.754172607421875,0.003970621153712273,0.003665188793092966,-0.024281874299049377
1772725494552689400,2.763689453125,0.005192350596189499,0,0.0025961752980947495
1772725494562206200,2.773206298828125,0.011300998739898205,0,0.03252854943275452
1772725494571723000,2.782722900390625,0.014966187067329884,0.004276053514331579,0.055741410702466965
1772725494581239800,2.79223974609375,0.013744457624852657,0.003665188793092966,0.06368265300989151
1772725494590756600,2.801756591796875,0.008857538923621178,0.000610864779446274,0.05696314200758934
1772725494600273400,2.8112734375,0.004581485874950886,-0.006108647678047419,0.05024362727999687
1772725494609790200,2.820790283203125,0.003970621153712273,-0.010384701192378998,0.04657844081521034
1772725494619307000,2.83030712890625,0.005803215317428112,-0.008552107028663158,0.04657844081521034
1772725494628823800,2.83982373046875,0.007024944759905338,-0.004276053514331579,0.042913250625133514
1772725494638340600,2.849340576171875,0.005803215317428112,0.003665188793092966,0.03558287397027016
1772725494647857400,2.858857421875,0.003359756199643016,0.009162971749901772,0.026419902220368385
1772725494657374200,2.868374267578125,0.0009162971982732415,0.009162971749901772,0.02214384824037552
1772725494666891000,2.87789111328125,0.0027488914784044027,0.001221729558892548,0.016035201027989388
1772725494676407800,2.88740771484375,0.003970621153712273,-0.004276053514331579,0.005650499369949102
1772725494685924600,2.896924560546875,0.0027488914784044027,-0.010384701192378998,-0.006566796451807022
1772725494695441400,2.90644140625,-0.0015271619195118546,-0.01282816007733345,-0.014508038759231567
1772725494704958200,2.915958251953125,-0.0015271619195118546,-0.010995565913617611,-0.02000582218170166
1772725494714475000,2.92547509765625,0.000305432389723137,-0.009162971749901772,-0.018173227086663246
1772725494723991800,2.93499169921875,0.0021380267571657896,-0.006719512399286032,-0.015729768201708794
1772725494733508900,2.9445087890625,0.003970621153712273,0,-0.01206457894295454
1772725494743025400,2.954025390625,0.003970621153712273,0.006108647678047419,-0.009010255336761475
1772725494752542500,2.96354248046875,0.003970621153712273,0.006108647678047419,-0.007788525894284248
1772725494762059300,2.973059326171875,0.005192350596189499,0.0030543238390237093,-0.007788525894284248
1772725494771575800,2.982575927734375,0.006414080038666725,0.004276053514331579,-0.005955931730568409
1772725494781092900,2.9920927734375,0.006414080038666725,0.0030543238390237093,-0.003512472379952669
1772725494790609700,3.001609619140625,0.005803215317428112,-0.000610864779446274,-0.001679878099821508
1772725494800126500,3.01112646484375,0.005192350596189499,0.000610864779446274,0.0013744457392022014
1772725494809643300,3.020643310546875,0.003359756199643016,-0.001832594396546483,0.0062613640911877155
1772725494819160000,3.03016015625,0.0015271619195118546,-0.0054977829568088055,0.012370011769235134
1772725494828676900,3.0396767578125,0.0015271619195118546,-0.010384701192378998,0.014202605932950974
1772725494838193700,3.049193603515625,0.0009162971982732415,-0.014049889519810677,0.012980876490473747
1772725494847710500,3.05871044921875,0.0009162971982732415,-0.014660755172371864,0.012370011769235134
1772725494857227300,3.068227294921875,0.0009162971982732415,-0.014049889519810677,0.012370011769235134
1772725494866744000,3.077744140625,0.0009162971982732415,-0.01282816007733345,0.012980876490473747
1772725494876260900,3.0872607421875,-0.0027488914784044027,-0.011606430634856224,0.009926552884280682
1772725494885777700,3.096777587890625,-0.005803215317428112,-0.009773836471140385,0.004428769461810589
1772725494895294500,3.10629443359375,-0.008857538923621178,-0.001832594396546483,0.0007635809597559273
1772725494904811300,3.115811279296875,-0.010079269297420979,-0.001832594396546483,-0.0010690133785828948
1772725494914328000,3.125328125,-0.008857538923621178,-0.0054977829568088055,-0.006566796451807022
1772725494923844900,3.134844970703125,-0.003359756199643016,-0.001832594396546483,-0.009621120058000088
1772725494933361700,3.144361572265625,0.0021380267571657896,0.006108647678047419,-0.007177661173045635
1772725494942878500,3.15387841796875,0.003359756199643016,0.010384701192378998,-0.002290742937475443
1772725494952395300,3.163395263671875,0.006414080038666725,0.010995565913617611,0.005039634648710489
1772725494961912000,3.172912109375,0.007635809946805239,0.009162971749901772,0.010537417605519295
1772725494971428900,3.182428955078125,0.008857538923621178,-0.002443459117785096,0.008093958720564842
1772725494980945700,3.191945556640625,0.008857538923621178,-0.020158538594841957,0.0013744457392022014
1772725494990462700,3.201462646484375,0.007024944759905338,-0.02932151034474373,-0.005955931730568409
1772725494999979300,3.210979248046875,0.005192350596189499,-0.033597562462091446,-0.005955931730568409
1772725495009496000,3.22049609375,0.0021380267571657896,-0.026878049597144127,-0.003512472379952669
1772725495019013000,3.23001318359375,-0.000305432389723137,-0.014660755172371864,0.0013744457392022014
1772725495028529700,3.23952978515625,-0.0021380267571657896,-0.008552107028663158,0.008093958720564842
1772725495038046700,3.249046630859375,-0.0027488914784044027,0,0.014202605932950974
1772725495047563500,3.2585634765625,-0.0021380267571657896,0.009773836471140385,0.022754713892936707
1772725495057080300,3.268080322265625,0.0015271619195118546,0.014049889519810677,0.028863361105322838
1772725495066597000,3.27759716796875,0.007024944759905338,0.011606430634856224,0.03130681812763214
1772725495076114000,3.287114013671875,0.00946840364485979,0.001832594396546483,0.030695954337716103
1772725495085630700,3.296630615234375,0.010079269297420979,-0.002443459117785096,0.02519817277789116
1772725495095147500,3.3061474609375,0.007635809946805239,-0.004276053514331579,0.017256930470466614
1772725495104664300,3.315664306640625,0.0009162971982732415,-0.003665188793092966,0.005039634648710489
1772725495114181000,3.32518115234375,-0.003359756199643016,0.001221729558892548,-0.004734201822429895
1772725495123698000,3.334697998046875,-0.004581485874950886,0.007330377586185932,-0.013897174037992954
1772725495133214700,3.344214599609375,-0.003970621153712273,0.009773836471140385,-0.019394956529140472
1772725495142731500,3.3537314453125,-0.0009162971982732415,0.008552107028663158,-0.019394956529140472
1772725495152248300,3.363248291015625,0.003359756199643016,0.000610864779446274,-0.015729768201708794
1772725495161765000,3.37276513671875,0.007024944759905338,-0.009162971749901772,-0.009010255336761475
1772725495171282000,3.382281982421875,0.00946840364485979,-0.017104214057326317,-0.002901607658714056
1772725495180798700,3.391798828125,0.008857538923621178,-0.01893680728971958,0.005650499369949102
1772725495190315500,3.4013154296875,0.008857538923621178,-0.004276053514331579,0.012370011769235134
1772725495199832300,3.410832275390625,0.006414080038666725,0.009773836471140385,0.016646064817905426
1772725495209349000,3.42034912109375,0.004581485874950886,0.01649334840476513,0.022754713892936707
1772725495218866000,3.429865966796875,0.005192350596189499,0.01954767294228077,0.027030766010284424
1772725495228382700,3.4393828125,0.006414080038666725,0.014049889519810677,0.022754713892936707
1772725495237899500,3.4488994140625,0.008246674202382565,0.0054977829568088055,0.008093958720564842
1772725495247416300,3.458416259765625,0.008246674202382565,-0.001221729558892548,-0.009010255336761475
1772725495256933000,3.46793310546875,0.007635809946805239,-0.006108647678047419,-0.024281874299049377
1772725495266450000,3.477449951171875,0.008857538923621178,-0.007941242307424545,-0.03405570983886719
1772725495275967000,3.486967041015625,0.007024944759905338,0.000610864779446274,-0.03649916872382164
1772725495285483500,3.4964833984375,0.005192350596189499,0.014660755172371864,-0.03222311660647392
1772725495295000300,3.506000244140625,0.003359756199643016,0.021380268037319183,-0.024281874299049377
1772725495304517400,3.515517333984375,0.0021380267571657896,0.018325943499803543,-0.019394956529140472
1772725495314034200,3.5250341796875,0.0021380267571657896,0.014049889519810677,-0.012675444595515728
1772725495323550700,3.53455078125,0.003359756199643016,0.004886918235570192,-0.004734201822429895
1772725495333067800,3.54406787109375,0.003359756199643016,0.002443459117785096,0.004428769461810589
1772725495342584600,3.55358447265625,0.0027488914784044027,0.011606430634856224,0.012980876490473747
1772725495352101000,3.56310107421875,0.003970621153712273,0.010384701192378998,0.016035201027989388
1772725495361618200,3.5726181640625,0.0021380267571657896,0.008552107028663158,0.0154243353754282
1772725495371135000,3.582135009765625,0.0015271619195118546,0.014049889519810677,0.011148282326757908
1772725495380651800,3.59165185546875,0.0015271619195118546,0.010384701192378998,0.005039634648710489
1772725495390168600,3.60116845703125,0.003970621153712273,0.002443459117785096,-0.002290742937475443
1772725495399685400,3.610685302734375,0.008246674202382565,-0.000610864779446274,-0.013286309316754341
1772725495409202200,3.6202021484375,0.008246674202382565,0.0030543238390237093,-0.017562363296747208
1772725495418719000,3.629718994140625,0.005192350596189499,0.006719512399286032,-0.01511890348047018
1772725495428235800,3.63923583984375,0.003970621153712273,0.0054977829568088055,-0.014508038759231567
1772725495437752600,3.648752685546875,0.005803215317428112,0.004276053514331579,-0.01206457894295454
1772725495447269400,3.658269287109375,0.007635809946805239,0.001221729558892548,-0.004734201822429895
1772725495456786200,3.6677861328125,0.00946840364485979,-0.002443459117785096,0.0025961752980947495
1772725495466303000,3.677302978515625,0.010079269297420979,-0.006108647678047419,0.005039634648710489
1772725495475819800,3.68681982421875,0.010690134018659592,-0.008552107028663158,0.005650499369949102
1772725495485336600,3.696336669921875,0.010079269297420979,-0.007941242307424545,0.005039634648710489
1772725495494853400,3.705853271484375,0.00946840364485979,-0.001832594396546483,0.0038179049734026194
1772725495504370200,3.7153701171875,0.007024944759905338,0.003665188793092966,0.005039634648710489
1772725495513887000,3.724886962890625,0.007635809946805239,0.011606430634856224,0.007483093533664942
1772725495523403800,3.73440380859375,0.006414080038666725,0.015271619893610477,0.011148282326757908
1772725495532920600,3.743920654296875,0.005192350596189499,0.010384701192378998,0.009926552884280682
1772725495542437400,3.753437255859375,0.006414080038666725,0.003665188793092966,0.008704823441803455
1772725495551954200,3.7629541015625,0.011300998739898205,0,0.005650499369949102
1772725495561471000,3.772470947265625,0.013133592903614044,-0.004886918235570192,0.0038179049734026194
1772725495570987800,3.78198779296875,0.010079269297420979,-0.003665188793092966,0.0007635809597559273
1772725495580504600,3.791504638671875,0.005192350596189499,-0.000610864779446274,-0.004123337101191282
1772725495590021400,3.801021484375,0.0027488914784044027,0.001221729558892548,-0.005345067009329796
1772725495599538400,3.810538330078125,0.0027488914784044027,0.000610864779446274,-0.004123337101191282
1772725495609055000,3.820054931640625,0.0009162971982732415,0,-0.00045814859913662076
1772725495618571800,3.82957177734375,0.000305432389723137,-0.004886918235570192,0.005039634648710489
1772725495628088800,3.8390888671875,0.000305432389723137,-0.006108647678047419,0.009315688163042068
1772725495637605600,3.848605712890625,-0.0009162971982732415,-0.001832594396546483,0.008704823441803455
1772725495647122200,3.8581220703125,-0.0027488914784044027,0,0.0032070400193333626
1772725495656639200,3.86763916015625,-0.005192350596189499,0.004276053514331579,0.0013744457392022014
1772725495666156000,3.877156005859375,-0.007024944759905338,0.009162971749901772,0.008093958720564842
1772725495675672600,3.886672607421875,-0.005192350596189499,0.010995565913617611,0.01847865991294384
1772725495685189600,3.896189697265625,-0.0027488914784044027,0.009162971749901772,0.019700389355421066
1772725495694706400,3.90570654296875,-0.0015271619195118546,0.0030543238390237093,0.010537417605519295
1772725495704223200,3.91522314453125,-0.0009162971982732415,-0.001221729558892548,-0.002901607658714056
1772725495713740000,3.924739990234375,-0.0021380267571657896,0.000610864779446274,-0.018173227086663246
1772725495723256800,3.9342568359375,-0.0027488914784044027,0.004886918235570192,-0.027947064489126205
1772725495732773600,3.943773681640625,-0.0009162971982732415,0.002443459117785096,-0.030390523374080658
1772725495742290400,3.95329052734375,0.0009162971982732415,-0.009773836471140385,-0.027336198836565018
1772725495751807200,3.96280712890625,0.004581485874950886,-0.030543239787220955,-0.021227551624178886
1772725495761324000,3.972323974609375,0.007635809946805239,-0.043982263654470444,-0.01206457894295454
1772725495770840800,3.9818408203125,0.00946840364485979,-0.043982263654470444,-0.005345067009329796
1772725495780357600,3.991357666015625,0.004581485874950886,-0.03543015569448471,0.0019853105768561363
1772725495789874400,4.00087451171875,-0.004581485874950886,-0.020158538594841957,0.010537417605519295
1772725495799391200,4.01039111328125,-0.010690134018659592,-0.001221729558892548,0.02214384824037552
1772725495808908000,4.019907958984375,-0.01435532234609127,0.007330377586185932,0.03130681812763214
1772725495818424800,4.0294248046875,-0.016187917441129684,0.007330377586185932,0.028863361105322838
1772725495827941600,4.038941650390625,-0.013744457624852657,0.003665188793092966,0.020922118797898293
1772725495837458400,4.04845849609375,-0.00946840364485979,-0.008552107028663158,0.011759147047996521
1772725495846975200,4.057975341796875,-0.008246674202382565,-0.015271619893610477,0.005650499369949102
1772725495856492000,4.067491943359375,-0.010079269297420979,-0.01649334840476513,0.0032070400193333626
1772725495866008800,4.0770087890625,-0.012522728182375431,-0.018325943499803543,0.005650499369949102
1772725495875525600,4.086525634765625,-0.012522728182375431,-0.02260199747979641,0.008704823441803455
1772725495885042400,4.09604248046875,-0.011300998739898205,-0.01893680728971958,0.007483093533664942
1772725495894559200,4.105559326171875,-0.010079269297420979,-0.009773836471140385,0.005650499369949102
1772725495904076000,4.115075927734375,-0.008857538923621178,-0.003665188793092966,0.005039634648710489
1772725495913592800,4.1245927734375,-0.010690134018659592,-0.001832594396546483,0.005650499369949102
1772725495923109600,4.134109619140625,-0.010079269297420979,-0.002443459117785096,0.0038179049734026194
1772725495932626400,4.14362646484375,-0.008857538923621178,-0.002443459117785096,-0.001679878099821508
1772725495942143200,4.153143310546875,-0.008246674202382565,0.002443459117785096,-0.009010255336761475
1772725495951660000,4.162659912109375,-0.00946840364485979,0.012217295356094837,-0.009621120058000088
1772725495961177000,4.172177001953125,-0.010690134018659592,0.021991131827235222,-0.007788525894284248
1772725495970693600,4.181693603515625,-0.010079269297420979,0.028099779039621353,0.0007635809597559273
1772725495980210400,4.19121044921875,-0.005803215317428112,0.023823726922273636,0.011759147047996521
1772725495989727500,4.2007275390625,0.000305432389723137,-0.001221729558892548,0.023976443335413933
1772725495999244000,4.210244140625,0.006414080038666725,-0.023212861269712448,0.02458730712532997
1772725496008760800,4.2197607421875,0.010079269297420979,-0.033597562462091446,0.014202605932950974
1772725496018278000,4.22927783203125,0.007635809946805239,-0.03298669680953026,0.0007635809597559273
1772725496027794700,4.238794677734375,0.003970621153712273,-0.023212861269712448,-0.011453714221715927
1772725496037311200,4.248311279296875,-0.000305432389723137,-0.008552107028663158,-0.021838415414094925
1772725496046828300,4.257828369140625,-0.0021380267571657896,0.001221729558892548,-0.02916879393160343
1772725496056345000,4.267344970703125,-0.003359756199643016,0.0054977829568088055,-0.028557928279042244
1772725496065862000,4.27686181640625,-0.0015271619195118546,0.006108647678047419,-0.02367101050913334
1772725496075378700,4.286378662109375,0.000305432389723137,0.007330377586185932,-0.013286309316754341
1772725496084895500,4.2958955078125,0.0021380267571657896,0.0030543238390237093,0.0007635809597559273
1772725496094412300,4.305412353515625,0.003970621153712273,0.004276053514331579,0.014202605932950974
1772725496103929000,4.31492919921875,0.005192350596189499,0.002443459117785096,0.023976443335413933
1772725496113446000,4.32444580078125,0.006414080038666725,0.001832594396546483,0.03130681812763214
1772725496122962700,4.333962646484375,0.005192350596189499,-0.000610864779446274,0.039248060435056686
1772725496132479500,4.3434794921875,0.003970621153712273,-0.002443459117785096,0.039858926087617874
1772725496141996300,4.352996337890625,0.004581485874950886,0.003665188793092966,0.03436114266514778
1772725496151513000,4.36251318359375,0.003970621153712273,0.008552107028663158,0.023976443335413933
1772725496161030000,4.37202978515625,0.0021380267571657896,0.007330377586185932,0.014813470654189587
1772725496170546700,4.381546630859375,0.003970621153712273,0.004276053514331579,0.009315688163042068
1772725496180063500,4.3910634765625,0.008857538923621178,0,0.008704823441803455
1772725496189580300,4.400580322265625,0.011911863461136818,-0.0030543238390237093,0.012370011769235134
1772725496199097000,4.41009716796875,0.013744457624852657,-0.009773836471140385,0.014202605932950974
1772725496208614000,4.41961376953125,0.013133592903614044,-0.015271619893610477,0.014813470654189587
1772725496218130700,4.429130615234375,0.011911863461136818,-0.01588248461484909,0.012370011769235134
1772725496227647500,4.4386474609375,0.00946840364485979,-0.01282816007733345,0.009926552884280682
1772725496237164300,4.448164306640625,0.007635809946805239,-0.0054977829568088055,0.006872228812426329
1772725496246681000,4.45768115234375,0.004581485874950886,0.0054977829568088055,0.006872228812426329
1772725496256198000,4.467197998046875,0.0021380267571657896,0.011606430634856224,0.008093958720564842
1772725496265714700,4.476714599609375,0.0009162971982732415,0.014049889519810677,0.006872228812426329
1772725496275231500,4.4862314453125,0.000305432389723137,0.010995565913617611,0.0025961752980947495
1772725496284748300,4.495748291015625,0.003970621153712273,0.0030543238390237093,-0.004123337101191282
1772725496294265000,4.50526513671875,0.005803215317428112,0.001221729558892548,-0.004123337101191282
1772725496303782000,4.514781982421875,0.007024944759905338,-0.000610864779446274,0.0019853105768561363
1772725496313298700,4.524298583984375,0.007635809946805239,-0.007330377586185932,0.009926552884280682
1772725496322815500,4.5338154296875,0.007635809946805239,-0.01282816007733345,0.01359174121171236
1772725496332332300,4.543332275390625,0.007635809946805239,-0.017104214057326317,0.014202605932950974
1772725496341849000,4.55284912109375,0.007635809946805239,-0.017715077847242355,0.014813470654189587
1772725496351366100,4.5623662109375,0.006414080038666725,-0.015271619893610477,0.0154243353754282
1772725496360882700,4.571882568359375,0.008246674202382565,-0.007941242307424545,0.019700389355421066
1772725496370399500,4.5813994140625,0.007024944759905338,-0.001221729558892548,0.022754713892936707
1772725496379916500,4.59091650390625,0.006414080038666725,0.001221729558892548,0.020311253145337105
1772725496389433300,4.600433349609375,0.003970621153712273,0.001832594396546483,0.017256930470466614
1772725496398950000,4.609949951171875,0.0021380267571657896,0.007330377586185932,0.01908952370285988
1772725496408467000,4.619467041015625,0.0015271619195118546,0.014660755172371864,0.022754713892936707
1772725496417983700,4.628983642578125,-0.000305432389723137,0.012217295356094837,0.022754713892936707
1772725496427500300,4.638500244140625,0.0021380267571657896,0.010995565913617611,0.017256930470466614
1772725496437017300,4.648017333984375,0.005803215317428112,0.007941242307424545,0.009926552884280682
1772725496446534100,4.6575341796875,0.007635809946805239,0.004276053514331579,0.0013744457392022014
1772725496456051000,4.667051025390625,0.008857538923621178,0.01282816007733345,-0.005955931730568409
1772725496465567700,4.676567626953125,0.00946840364485979,0.021380268037319183,-0.0102319847792387
1772725496475084500,4.68608447265625,0.008857538923621178,0.014049889519810677,-0.012675444595515728
1772725496484601300,4.695601318359375,0.00946840364485979,-0.006108647678047419,-0.014508038759231567
1772725496494118100,4.7051181640625,0.010079269297420979,-0.02871064469218254,-0.011453714221715927
1772725496503635000,4.714635009765625,0.011300998739898205,-0.03237583488225937,-0.001679878099821508
1772725496513151700,4.72415185546875,0.010690134018659592,-0.020769402384757996,0.014202605932950974
1772725496522668500,4.73366845703125,0.008857538923621178,-0.006108647678047419,0.030085090547800064
1772725496532185300,4.743185302734375,0.005803215317428112,0.007330377586185932,0.04413498193025589
1772725496541702100,4.7527021484375,0.003970621153712273,0.017715077847242355,0.049632761627435684
1772725496551219000,4.762218994140625,0.003970621153712273,0.023212861269712448,0.04657844081521034
1772725496560735700,4.77173583984375,0.007024944759905338,0.021380268037319183,0.036193739622831345
1772725496570252500,4.78125244140625,0.008857538923621178,0.01649334840476513,0.020311253145337105
1772725496579769300,4.790769287109375,0.006414080038666725,0.013439024798572063,0.006872228812426329
1772725496589286100,4.8002861328125,0.0015271619195118546,0.009773836471140385,-0.002901607658714056
1772725496598803000,4.809802978515625,-0.0009162971982732415,0.006719512399286032,-0.009010255336761475
1772725496608319700,4.81931982421875,-0.0015271619195118546,0.004276053514331579,-0.014508038759231567
1772725496617836500,4.82883642578125,-0.0009162971982732415,0.008552107028663158,-0.018173227086663246
1772725496627353300,4.838353271484375,0.000305432389723137,0.012217295356094837,-0.015729768201708794
1772725496636870100,4.8478701171875,0.0009162971982732415,0.012217295356094837,-0.004734201822429895
1772725496646387000,4.857386962890625,0.0021380267571657896,0.004886918235570192,0.011148282326757908
1772725496655903700,4.86690380859375,0.0009162971982732415,-0.008552107028663158,0.023976443335413933
1772725496665420500,4.876420654296875,-0.000305432389723137,-0.012217295356094837,0.03130681812763214
1772725496674937300,4.885937255859375,0.000305432389723137,-0.004886918235570192,0.036804601550102234
1772725496684454100,4.8954541015625,-0.000305432389723137,0.008552107028663158,0.039858926087617874
1772725496693971000,4.904970947265625,-0.000305432389723137,0.023823726922273636,0.042913250625133514
1772725496703487700,4.91448779296875,-0.0009162971982732415,0.03176496922969818,0.04046979174017906
1772725496713004500,4.924004638671875,0.000305432389723137,0.02932151034474373,0.03436114266514778
1772725496722521300,4.933521240234375,0.0021380267571657896,0.01649334840476513,0.02519817277789116
1772725496732038100,4.9430380859375,0.0027488914784044027,-0.001221729558892548,0.011148282326757908
1772725496741555000,4.952554931640625,0.000305432389723137,-0.017104214057326317,-0.001679878099821508
1772725496751071700,4.96207177734375,-0.0027488914784044027,-0.020769402384757996,-0.012675444595515728
1772725496760588500,4.971588623046875,-0.003970621153712273,-0.014049889519810677,-0.021838415414094925
1772725496770105300,4.981105224609375,-0.004581485874950886,-0.006719512399286032,-0.02611446939408779
1772725496779622400,4.990622314453125,-0.005192350596189499,-0.001221729558892548,-0.025503603741526604
1772725496789139000,5.000138916015625,-0.006414080038666725,0.004276053514331579,-0.022449281066656113
1772725496798655700,5.00965576171875,-0.004581485874950886,0.012217295356094837,-0.017562363296747208
1772725496808172800,5.0191728515625,-0.003970621153712273,0.01649334840476513,-0.0102319847792387
1772725496817689300,5.028689453125,-0.003359756199643016,0.011606430634856224,-0.003512472379952669
1772725496827206100,5.0382060546875,-0.0027488914784044027,0.0054977829568088055,0.0013744457392022014
1772725496836723200,5.04772314453125,-0.0009162971982732415,0.004886918235570192,0.0019853105768561363
1772725496846240000,5.057239990234375,-0.0009162971982732415,-0.000610864779446274,-0.004123337101191282
1772725496855756500,5.066756591796875,-0.003359756199643016,-0.004886918235570192,-0.0102319847792387
1772725496865273600,5.076273681640625,-0.003970621153712273,-0.006108647678047419,-0.009621120058000088
1772725496874790400,5.085790283203125,-0.0021380267571657896,-0.007330377586185932,-0.004734201822429895
1772725496884307200,5.09530712890625,-0.000305432389723137,-0.004276053514331579,0.0007635809597559273
1772725496893824000,5.104823974609375,-0.000305432389723137,-0.006719512399286032,0.008093958720564842
1772725496903340800,5.1143408203125,-0.0009162971982732415,-0.01282816007733345,0.017256930470466614
1772725496912857600,5.123857666015625,-0.0021380267571657896,-0.018325943499803543,0.02519817277789116
1772725496922374400,5.13337451171875,-0.0021380267571657896,-0.01588248461484909,0.029474224895238876
1772725496931891200,5.14289111328125,-0.0015271619195118546,-0.006719512399286032,0.02519817277789116
1772725496941408000,5.152407958984375,-0.003359756199643016,0.004276053514331579,0.017867794260382652
1772725496950924800,5.1619248046875,-0.007024944759905338,0.007330377586185932,0.007483093533664942
1772725496960441600,5.171441650390625,-0.00946840364485979,0.006108647678047419,0.0013744457392022014
1772725496969958400,5.18095849609375,-0.008246674202382565,0.007941242307424545,-0.00045814859913662076
1772725496979475200,5.19047509765625,-0.005192350596189499,0.006108647678047419,-0.0010690133785828948
1772725496988992000,5.199991943359375,-0.0021380267571657896,0.002443459117785096,-0.002901607658714056
1772725496998508800,5.2095087890625,-0.0009162971982732415,-0.000610864779446274,-0.007788525894284248
1772725497008025600,5.219025634765625,-0.0009162971982732415,-0.003665188793092966,-0.010842849500477314
1772725497017542400,5.22854248046875,-0.0015271619195118546,-0.008552107028663158,-0.013286309316754341
1772725497027059200,5.23805908203125,-0.0009162971982732415,-0.015271619893610477,-0.013897174037992954
1772725497036576000,5.247575927734375,0.0015271619195118546,-0.01588248461484909,-0.01206457894295454
1772725497046092800,5.2570927734375,0.000305432389723137,-0.012217295356094837,-0.007177661173045635
1772725497055609600,5.266609619140625,0.0009162971982732415,-0.009773836471140385,-0.0010690133785828948
1772725497065126400,5.27612646484375,-0.0009162971982732415,-0.009162971749901772,0.0038179049734026194
1772725497074643200,5.285643310546875,0.0009162971982732415,-0.007941242307424545,0.006872228812426329
1772725497084160000,5.295159912109375,0.0009162971982732415,0.000610864779446274,0.007483093533664942
1772725497093676800,5.3046767578125,-0.0021380267571657896,0.010995565913617611,0.009315688163042068
1772725497103193600,5.314193603515625,-0.004581485874950886,0.014049889519810677,0.017256930470466614
1772725497112710400,5.32371044921875,-0.003970621153712273,0.010384701192378998,0.023976443335413933
1772725497122227200,5.333227294921875,-0.0015271619195118546,0.004886918235570192,0.02458730712532997
1772725497131744000,5.342743896484375,0.000305432389723137,0.002443459117785096,0.020311253145337105
1772725497141260800,5.3522607421875,-0.000305432389723137,0.004886918235570192,0.011148282326757908
1772725497150777600,5.361777587890625,0.000305432389723137,0.008552107028663158,-0.00045814859913662076
1772725497160294400,5.37129443359375,0.000305432389723137,0.01282816007733345,-0.014508038759231567
1772725497169811200,5.380811279296875,0.0009162971982732415,0.020769402384757996,-0.027336198836565018
1772725497179328000,5.390327880859375,0.000305432389723137,0.018325943499803543,-0.037720900028944016
1772725497188844800,5.3998447265625,0.0015271619195118546,0.007330377586185932,-0.03955349326133728
1772725497198361600,5.409361572265625,0.003970621153712273,-0.009773836471140385,-0.03527744114398956
1772725497207878400,5.41887841796875,0.006414080038666725,-0.017715077847242355,-0.028557928279042244
1772725497217395200,5.428395263671875,0.005803215317428112,-0.01282816007733345,-0.019394956529140472
1772725497226912000,5.437912109375,0.000305432389723137,-0.006719512399286032,-0.008399390615522861
1772725497236428800,5.4474287109375,-0.0027488914784044027,0.007330377586185932,0.004428769461810589
1772725497245945600,5.456945556640625,-0.003970621153712273,0.020769402384757996,0.012980876490473747
1772725497255462400,5.46646240234375,-0.0015271619195118546,0.023823726922273636,0.017867794260382652
1772725497264979200,5.475979248046875,0.000305432389723137,0.020769402384757996,0.01908952370285988
1772725497274496300,5.485496337890625,0.0027488914784044027,0.010384701192378998,0.016646064817905426
1772725497284012800,5.4950126953125,0.0015271619195118546,0.001221729558892548,0.009926552884280682
1772725497293529600,5.504529541015625,-0.000305432389723137,-0.001832594396546483,0.0007635809597559273
1772725497303046400,5.51404638671875,-0.004581485874950886,-0.002443459117785096,-0.007788525894284248
1772725497312563200,5.523563232421875,-0.006414080038666725,-0.000610864779446274,-0.01206457894295454
1772725497322080000,5.533080078125,-0.004581485874950886,0.006108647678047419,-0.0102319847792387
1772725497331596800,5.5425966796875,-0.0027488914784044027,0.010384701192378998,-0.004734201822429895
1772725497341113900,5.55211376953125,-0.000305432389723137,0.01282816007733345,0.0001527161948615685
1772725497350630400,5.56163037109375,0.0021380267571657896,0.009162971749901772,0.005039634648710489
1772725497360147200,5.571147216796875,0.0027488914784044027,0.004886918235570192,0.011148282326757908
1772725497369664300,5.580664306640625,0.0015271619195118546,0,0.011759147047996521
1772725497379181000,5.59018115234375,-0.0021380267571657896,0.001832594396546483,0.008704823441803455
1772725497388697600,5.599697509765625,-0.000305432389723137,0.009773836471140385,0.007483093533664942
1772725497398214700,5.609214599609375,0.0009162971982732415,0.01954767294228077,0.008704823441803455
1772725497407731500,5.6187314453125,0.0021380267571657896,0.01954767294228077,0.008704823441803455
1772725497417248000,5.628248046875,0.003970621153712273,0.014049889519810677,0.0038179049734026194
1772725497426765000,5.63776513671875,0.003970621153712273,0.008552107028663158,-0.007177661173045635
1772725497436281900,5.64728173828125,-0.000305432389723137,0,-0.016340631991624832
1772725497445798700,5.656798583984375,-0.0021380267571657896,-0.01282816007733345,-0.021838415414094925
1772725497455315500,5.6663154296875,-0.000305432389723137,-0.01893680728971958,-0.022449281066656113
1772725497464832300,5.675832275390625,0.003970621153712273,-0.010995565913617611,-0.02000582218170166
1772725497474349000,5.68534912109375,0.005192350596189499,-0.001832594396546483,-0.018784092739224434
1772725497483865900,5.694865966796875,0.0021380267571657896,0,-0.018173227086663246
1772725497493382700,5.704382568359375,0.0009162971982732415,0.0054977829568088055,-0.014508038759231567
1772725497502899500,5.7138994140625,0.0027488914784044027,0.010995565913617611,-0.009010255336761475
1772725497512416300,5.723416259765625,0.0027488914784044027,0.01588248461484909,-0.004123337101191282
1772725497521933000,5.73293310546875,-0.000305432389723137,0.013439024798572063,-0.001679878099821508
1772725497531449900,5.742449951171875,-0.0015271619195118546,0.001832594396546483,0.0007635809597559273
1772725497540966700,5.751966552734375,-0.0015271619195118546,-0.003665188793092966,0.004428769461810589
1772725497550483500,5.7614833984375,0.0021380267571657896,0.0030543238390237093,0.006872228812426329
1772725497560000300,5.771000244140625,0.0027488914784044027,0.009773836471140385,0.006872228812426329
1772725497569517000,5.78051708984375,0.000305432389723137,0.004886918235570192,0.0025961752980947495
1772725497579033900,5.790033935546875,-0.0027488914784044027,-0.002443459117785096,-0.002290742937475443
1772725497588550700,5.799550537109375,-0.0021380267571657896,-0.009162971749901772,-0.005345067009329796
1772725497598067500,5.8090673828125,-0.0015271619195118546,-0.015271619893610477,-0.008399390615522861
1772725497607584300,5.818584228515625,0.000305432389723137,-0.017104214057326317,-0.01511890348047018
1772725497617101000,5.82810107421875,0.000305432389723137,-0.012217295356094837,-0.019394956529140472
1772725497626617900,5.837617919921875,-0.003359756199643016,-0.006108647678047419,-0.01695149764418602
1772725497636134700,5.847134765625,-0.003970621153712273,-0.001832594396546483,-0.012675444595515728
1772725497645651500,5.8566513671875,-0.0021380267571657896,-0.000610864779446274,-0.010842849500477314
1772725497655168300,5.866168212890625,0.000305432389723137,0.002443459117785096,-0.01206457894295454
1772725497664685000,5.87568505859375,0.000305432389723137,0.001221729558892548,-0.015729768201708794
1772725497674201900,5.885201904296875,-0.0009162971982732415,-0.003665188793092966,-0.019394956529140472
1772725497683718700,5.89471875,-0.0009162971982732415,-0.010995565913617611,-0.015729768201708794
1772725497693235500,5.9042353515625,0.000305432389723137,-0.020769402384757996,-0.011453714221715927
1772725497702752300,5.913752197265625,0.0015271619195118546,-0.020158538594841957,-0.0102319847792387
1772725497712269000,5.92326904296875,0.0021380267571657896,-0.01588248461484909,-0.009010255336761475
1772725497721785900,5.932785888671875,0.0015271619195118546,-0.008552107028663158,-0.0102319847792387
1772725497731302700,5.942302734375,0.000305432389723137,-0.001221729558892548,-0.014508038759231567
1772725497740819500,5.9518193359375,-0.0009162971982732415,0.0030543238390237093,-0.0206166859716177
1772725497750336300,5.961336181640625,-0.0009162971982732415,-0.000610864779446274,-0.025503603741526604
1772725497759853000,5.97085302734375,-0.0009162971982732415,-0.010384701192378998,-0.02611446939408779
1772725497769369900,5.980369873046875,-0.0009162971982732415,-0.021991131827235222,-0.02672533318400383
1772725497778886700,5.98988671875,0.003359756199643016,-0.024434590712189674,-0.028557928279042244
1772725497788403500,5.999403564453125,0.003970621153712273,-0.017715077847242355,-0.02977965772151947
1772725497797920300,6.008920166015625,0.003359756199643016,-0.006719512399286032,-0.024892739951610565
1772725497807437000,6.01843701171875,0.0009162971982732415,0.007330377586185932,-0.009010255336761475
1772725497816953900,6.027953857421875,-0.0009162971982732415,0.017715077847242355,0.012980876490473747
1772725497826470700,6.037470703125,-0.0027488914784044027,0.01893680728971958,0.029474224895238876
1772725497835987500,6.046987548828125,-0.0027488914784044027,0.010384701192378998,0.03436114266514778
1772725497845504300,6.056504150390625,-0.000305432389723137,0.004276053514331579,0.03130681812763214
1772725497855021000,6.06602099609375,0.0009162971982732415,0.004276053514331579,0.02214384824037552
1772725497864537900,6.075537841796875,0.0009162971982732415,0.004276053514331579,0.009315688163042068
1772725497874054700,6.0850546875,0.0015271619195118546,-0.000610864779446274,-0.005955931730568409
1772725497883571500,6.094571533203125,0.004581485874950886,-0.010995565913617611,-0.021838415414094925
1772725497893088300,6.104088134765625,0.007635809946805239,-0.021380268037319183,-0.03405570983886719
1772725497902605000,6.11360498046875,0.010079269297420979,-0.025045456364750862,-0.0383317656815052
1772725497912121900,6.123121826171875,0.008857538923621178,-0.01954767294228077,-0.034666575491428375
1772725497921638700,6.132638671875,0.005803215317428112,-0.007330377586185932,-0.024281874299049377
1772725497931155500,6.142155517578125,0.0015271619195118546,0.004276053514331579,-0.011453714221715927
1772725497940672300,6.15167236328125,-0.0009162971982732415,0.006719512399286032,0.0001527161948615685
1772725497950189000,6.16118896484375,-0.0009162971982732415,0.011606430634856224,0.007483093533664942
1772725497959705900,6.170705810546875,0.000305432389723137,0.01649334840476513,0.009926552884280682
1772725497969222700,6.18022265625,0.000305432389723137,0.012217295356094837,0.011148282326757908
1772725497978739500,6.189739501953125,0.000305432389723137,-0.000610864779446274,0.012370011769235134
1772725497988256300,6.19925634765625,0.0009162971982732415,-0.010384701192378998,0.01847865991294384
1772725497997773000,6.20877294921875,0.0021380267571657896,-0.009773836471140385,0.020922118797898293
1772725498007290000,6.2182900390625,0.003970621153712273,-0.0030543238390237093,0.017256930470466614
1772725498016806700,6.227806640625,0.0027488914784044027,0.006719512399286032,0.0062613640911877155
1772725498026323500,6.237323486328125,0.0021380267571657896,0.014660755172371864,-0.002290742937475443
1772725498035840300,6.24684033203125,0.0021380267571657896,0.017104214057326317,-0.008399390615522861
1772725498045357000,6.256357177734375,0.005803215317428112,0.014049889519810677,-0.008399390615522861
1772725498054873900,6.265873779296875,0.006414080038666725,0.004886918235570192,-0.005345067009329796
1772725498064390700,6.275390625,0.005192350596189499,-0.010384701192378998,0.0019853105768561363
1772725498073907700,6.28490771484375,0.005192350596189499,-0.017104214057326317,0.009315688163042068
1772725498083424300,6.29442431640625,0.0027488914784044027,-0.007330377586185932,0.016646064817905426
1772725498092941000,6.303941162109375,-0.000305432389723137,0.011606430634856224,0.022754713892936707
1772725498102458000,6.3134580078125,-0.003970621153712273,0.025045456364750862,0.02764163166284561
1772725498111974700,6.322974609375,-0.004581485874950886,0.021991131827235222,0.02764163166284561
1772725498121491500,6.332491455078125,-0.003359756199643016,0.010384701192378998,0.02458730712532997
1772725498131008500,6.342008544921875,0.000305432389723137,-0.004886918235570192,0.017867794260382652
1772725498140525300,6.351525390625,0.003359756199643016,-0.014049889519810677,0.009315688163042068
1772725498150041900,6.361041748046875,0.003970621153712273,-0.017715077847242355,-0.00045814859913662076
1772725498159559000,6.370558837890625,0.0027488914784044027,-0.014049889519810677,-0.006566796451807022
1772725498169075700,6.38007568359375,0.0009162971982732415,-0.006108647678047419,-0.008399390615522861
1772725498178592500,6.389592529296875,-0.0027488914784044027,-0.001221729558892548,-0.004734201822429895
1772725498188109000,6.399109130859375,-0.003359756199643016,0.002443459117785096,-0.002290742937475443
1772725498197626000,6.408626220703125,-0.0021380267571657896,0.002443459117785096,0.0025961752980947495
1772725498207143000,6.418142822265625,-0.0027488914784044027,0.001221729558892548,0.0062613640911877155
1772725498216659500,6.427659423828125,-0.005192350596189499,0.0030543238390237093,0.011148282326757908
1772725498226176500,6.437176513671875,-0.007024944759905338,0.006108647678047419,0.016035201027989388
1772725498235693300,6.446693359375,-0.005192350596189499,0.006719512399286032,0.01847865991294384
1772725498245210000,6.456210205078125,-0.003359756199643016,0.006108647678047419,0.016035201027989388
1772725498254727000,6.465726806640625,-0.0015271619195118546,0.001221729558892548,0.012370011769235134
1772725498264243700,6.47524365234375,-0.000305432389723137,-0.002443459117785096,0.012370011769235134
1772725498273760500,6.484760498046875,0.0015271619195118546,-0.004886918235570192,0.012980876490473747
1772725498283277000,6.494277099609375,0.0015271619195118546,-0.003665188793092966,0.011759147047996521
1772725498292794000,6.503794189453125,0.000305432389723137,0.000610864779446274,0.005650499369949102
1772725498302311000,6.513310791015625,0.000305432389723137,0.006719512399286032,-0.0010690133785828948
1772725498311827700,6.52282763671875,-0.0015271619195118546,0.007941242307424545,-0.004123337101191282
1772725498321344500,6.532344482421875,-0.003359756199643016,0.011606430634856224,-0.002901607658714056
1772725498330861300,6.541861328125,-0.0009162971982732415,0.012217295356094837,-0.004734201822429895
1772725498340378000,6.551378173828125,0.0021380267571657896,0.010995565913617611,-0.002901607658714056
1772725498349895000,6.56089501953125,0.003970621153712273,0.01282816007733345,0.0001527161948615685
1772725498359411700,6.57041162109375,0.004581485874950886,0.012217295356094837,0.004428769461810589
1772725498368928500,6.579928466796875,0.0021380267571657896,0.010384701192378998,0.005039634648710489
1772725498378445300,6.5894453125,0.0027488914784044027,0.007941242307424545,0.0038179049734026194
1772725498387962000,6.598962158203125,0.003359756199643016,0.007941242307424545,0.0032070400193333626
1772725498397479000,6.60847900390625,0.004581485874950886,0.006108647678047419,0.004428769461810589
1772725498406995700,6.61799560546875,0.003359756199643016,0.007330377586185932,0.0038179049734026194
1772725498416512500,6.627512451171875,0.004581485874950886,0.01282816007733345,0.004428769461810589
1772725498426029300,6.637029296875,0.008246674202382565,0.01649334840476513,0.005650499369949102
1772725498435546000,6.646546142578125,0.010690134018659592,0.015271619893610477,0.006872228812426329
1772725498445063000,6.65606298828125,0.013744457624852657,0.009162971749901772,0.0032070400193333626
1772725498454579700,6.665579833984375,0.01740964688360691,-0.000610864779446274,-0.005955931730568409
1772725498464096500,6.675096435546875,0.0204639695584774,-0.009773836471140385,-0.01206457894295454
1772725498473613300,6.68461328125,0.0204639695584774,-0.015271619893610477,-0.015729768201708794
1772725498483130000,6.694130126953125,0.01802051067352295,-0.015271619893610477,-0.015729768201708794
1772725498492647000,6.70364697265625,0.014966187067329884,-0.009162971749901772,-0.018173227086663246
1772725498502163700,6.713163818359375,0.013744457624852657,0.001221729558892548,-0.01511890348047018
1772725498511680500,6.722680419921875,0.014966187067329884,0.010384701192378998,-0.008399390615522861
1772725498521197300,6.732197265625,0.018631376326084137,0.01649334840476513,-0.00045814859913662076
1772725498530714000,6.741714111328125,0.02107483521103859,0.018325943499803543,-0.0010690133785828948
1772725498540231000,6.75123095703125,0.018631376326084137,0.015271619893610477,-0.005955931730568409
1772725498549747700,6.760747802734375,0.01435532234609127,0.010384701192378998,-0.011453714221715927
1772725498559264500,6.770264404296875,0.012522728182375431,0.013439024798572063,-0.018173227086663246
1772725498568781300,6.77978125,0.011911863461136818,0.014660755172371864,-0.018173227086663246
1772725498578298000,6.789298095703125,0.011300998739898205,0.01588248461484909,-0.013897174037992954
1772725498587815000,6.79881494140625,0.012522728182375431,0.021380268037319183,-0.009010255336761475
1772725498597331700,6.808331787109375,0.01435532234609127,0.01893680728971958,-0.005955931730568409
1772725498606848500,6.8178486328125,0.01740964688360691,0.010384701192378998,-0.005955931730568409
1772725498616365300,6.827365234375,0.019853105768561363,-0.0054977829568088055,-0.009621120058000088
1772725498625882000,6.836882080078125,0.019853105768561363,-0.017715077847242355,-0.01695149764418602
1772725498635399000,6.84639892578125,0.016798781231045723,-0.0256563201546669,-0.02367101050913334
1772725498644915700,6.855915771484375,0.010690134018659592,-0.01954767294228077,-0.025503603741526604
1772725498654432500,6.8654326171875,0.005803215317428112,-0.0030543238390237093,-0.02367101050913334
1772725498663949300,6.87494921875,0.0015271619195118546,0.013439024798572063,-0.017562363296747208
1772725498673466000,6.884466064453125,-0.003359756199643016,0.023823726922273636,-0.007788525894284248
1772725498682983000,6.89398291015625,-0.005803215317428112,0.02260199747979641,0.0038179049734026194
1772725498692499700,6.903499755859375,-0.0027488914784044027,0.012217295356094837,0.009926552884280682
1772725498702016500,6.9130166015625,0.0027488914784044027,0.002443459117785096,0.009926552884280682
1772725498711533300,6.922533203125,0.005192350596189499,-0.007941242307424545,0.008093958720564842
1772725498721050000,6.932050048828125,0.003359756199643016,-0.01649334840476513,0.005650499369949102
1772725498730567000,6.94156689453125,0.0009162971982732415,-0.017715077847242355,0.0019853105768561363
1772725498740083700,6.951083740234375,-0.0015271619195118546,-0.009162971749901772,-0.002290742937475443
1772725498749600500,6.9606005859375,-0.0027488914784044027,0.000610864779446274,-0.007788525894284248
1772725498759117300,6.970117431640625,-0.003970621153712273,0.007330377586185932,-0.013286309316754341
1772725498768634000,6.979634033203125,-0.003359756199643016,0.010384701192378998,-0.018173227086663246
1772725498778151000,6.98915087890625,-0.0021380267571657896,0.009773836471140385,-0.0206166859716177
1772725498787667700,6.998667724609375,-0.0021380267571657896,0.0030543238390237093,-0.018784092739224434
1772725498797184500,7.0081845703125,-0.0027488914784044027,-0.006719512399286032,-0.011453714221715927
1772725498806701300,7.017701416015625,-0.0027488914784044027,-0.01282816007733345,-0.003512472379952669
1772725498816218000,7.027218017578125,0.0015271619195118546,-0.012217295356094837,0.0062613640911877155
1772725498825735000,7.03673486328125,0.003970621153712273,-0.004276053514331579,0.017867794260382652
1772725498835251700,7.046251708984375,0.004581485874950886,0.011606430634856224,0.029474224895238876
1772725498844768500,7.0557685546875,0.004581485874950886,0.017104214057326317,0.033139415085315704
1772725498854285300,7.065285400390625,0.005803215317428112,0.007330377586185932,0.023976443335413933
1772725498863802000,7.074802001953125,0.007635809946805239,-0.001221729558892548,0.006872228812426329
1772725498873319000,7.08431884765625,0.007635809946805239,-0.006719512399286032,-0.007788525894284248
1772725498882835700,7.093835693359375,0.007635809946805239,-0.008552107028663158,-0.014508038759231567
1772725498892352500,7.1033525390625,0.007024944759905338,-0.009162971749901772,-0.01511890348047018
1772725498901869300,7.112869384765625,0.003970621153712273,-0.002443459117785096,-0.011453714221715927
1772725498911386000,7.12238623046875,0.0027488914784044027,0.002443459117785096,-0.0102319847792387
1772725498920903000,7.13190283203125,0.0021380267571657896,0.007330377586185932,-0.005955931730568409
1772725498930419700,7.141419677734375,-0.0009162971982732415,0.008552107028663158,0.0013744457392022014
1772725498939936500,7.1509365234375,-0.0015271619195118546,0.008552107028663158,0.01359174121171236
1772725498949453300,7.160453369140625,-0.0009162971982732415,0.004886918235570192,0.022754713892936707
1772725498958970000,7.16997021484375,-0.000305432389723137,0.0030543238390237093,0.030085090547800064
1772725498968487000,7.17948681640625,-0.0015271619195118546,0.007330377586185932,0.030695954337716103
1772725498978003700,7.189003662109375,-0.004581485874950886,0.011606430634856224,0.023365577682852745
1772725498987520500,7.1985205078125,-0.005803215317428112,0.008552107028663158,0.014813470654189587
1772725498997037300,7.208037353515625,-0.003970621153712273,0.006108647678047419,0.006872228812426329
1772725499006554000,7.21755419921875,-0.000305432389723137,0.0054977829568088055,0.0013744457392022014
1772725499016071000,7.22707080078125,0.0015271619195118546,0.006108647678047419,-0.006566796451807022
1772725499025587700,7.236587646484375,0.0021380267571657896,0.0030543238390237093,-0.013286309316754341
1772725499035104500,7.2461044921875,0.003359756199643016,0.001221729558892548,-0.014508038759231567
1772725499044621300,7.255621337890625,0.005192350596189499,-0.0054977829568088055,-0.012675444595515728
1772725499054138000,7.26513818359375,0.005803215317428112,-0.011606430634856224,-0.009621120058000088
1772725499063655000,7.274655029296875,0.007024944759905338,-0.013439024798572063,-0.006566796451807022
1772725499073171700,7.284171630859375,0.008857538923621178,-0.004276053514331579,-0.002901607658714056
1772725499082688500,7.2936884765625,0.008246674202382565,0.000610864779446274,-0.00045814859913662076
1772725499092205300,7.303205322265625,0.006414080038666725,-0.000610864779446274,0.0013744457392022014
1772725499101722000,7.31272216796875,0.005192350596189499,-0.001832594396546483,-0.00045814859913662076
1772725499111239000,7.322239013671875,0.005192350596189499,-0.0030543238390237093,-0.005345067009329796
1772725499120755700,7.331755615234375,0.008246674202382565,0.001832594396546483,-0.012675444595515728
1772725499130272500,7.3412724609375,0.007024944759905338,0.009162971749901772,-0.017562363296747208
1772725499139789300,7.350789306640625,0.003359756199643016,0.01282816007733345,-0.02000582218170166
1772725499149306000,7.36030615234375,0.0021380267571657896,0.010995565913617611,-0.02000582218170166
1772725499158823000,7.369822998046875,0.003359756199643016,0.006719512399286032,-0.018784092739224434
1772725499168339700,7.379339599609375,0.008246674202382565,0.0054977829568088055,-0.013286309316754341
1772725499177856500,7.3888564453125,0.011300998739898205,0.009773836471140385,-0.0010690133785828948
1772725499187373300,7.398373291015625,0.011300998739898205,0.009773836471140385,0.011759147047996521
1772725499196890000,7.40789013671875,0.008246674202382565,0.007941242307424545,0.017256930470466614
1772725499206407000,7.417406982421875,0.008246674202382565,0.009773836471140385,0.014813470654189587
1772725499215923700,7.426923828125,0.007024944759905338,0.006719512399286032,0.011148282326757908
1772725499225440500,7.4364404296875,0.004581485874950886,0.003665188793092966,0.005039634648710489
1772725499234957300,7.445957275390625,0.0015271619195118546,0.0054977829568088055,0.0007635809597559273
1772725499244474000,7.45547412109375,0.0009162971982732415,0.006719512399286032,-0.002290742937475443
1772725499253991000,7.464990966796875,0.000305432389723137,0.0054977829568088055,-0.007788525894284248
1772725499263507700,7.4745078125,0.003359756199643016,0.009773836471140385,-0.013286309316754341
1772725499273024500,7.4840244140625,0.007024944759905338,0.014049889519810677,-0.01695149764418602
1772725499282541300,7.493541259765625,0.005803215317428112,0.01893680728971958,-0.013897174037992954
1772725499292058000,7.50305810546875,0.0027488914784044027,0.014660755172371864,-0.002901607658714056
1772725499301575000,7.512574951171875,0.003359756199643016,0.006719512399286032,0.008704823441803455
1772725499311091700,7.522091796875,0.003970621153712273,0.000610864779446274,0.011148282326757908
1772725499320608500,7.5316083984375,0.004581485874950886,0.001832594396546483,0.006872228812426329
1772725499330125300,7.541125244140625,0.0027488914784044027,0.009773836471140385,-0.0010690133785828948
1772725499339642000,7.55064208984375,0.0015271619195118546,0.015271619893610477,-0.01206457894295454
1772725499349159000,7.560158935546875,0.000305432389723137,0.012217295356094837,-0.024892739951610565
1772725499358675700,7.56967578125,0.0015271619195118546,0.003665188793092966,-0.03649916872382164
1772725499368192500,7.579192626953125,0.008246674202382565,-0.010384701192378998,-0.05238165333867073
1772725499377709300,7.588709228515625,0.013133592903614044,-0.021991131827235222,-0.06582067906856537
1772725499387226000,7.59822607421875,0.013133592903614044,-0.02932151034474373,-0.07192932814359665
1772725499396743000,7.607742919921875,0.011911863461136818,-0.034208428114652634,-0.06520981341600418
1772725499406259700,7.617259765625,0.011911863461136818,-0.02871064469218254,-0.04993819445371628
1772725499415776500,7.626776611328125,0.010690134018659592,-0.01649334840476513,-0.024281874299049377
1772725499425293300,7.636293212890625,0.008246674202382565,-0.004276053514331579,0.0062613640911877155
1772725499434810000,7.64581005859375,0.006414080038666725,0.004276053514331579,0.03130681812763214
1772725499444327000,7.655326904296875,0.006414080038666725,0.007941242307424545,0.05085449293255806
1772725499453843700,7.66484375,0.008246674202382565,0.008552107028663158,0.05757400393486023
1772725499463360500,7.674360595703125,0.008246674202382565,0.002443459117785096,0.05146535858511925
1772725499472877300,7.683877197265625,0.0027488914784044027,-0.001832594396546483,0.03802633285522461
1772725499482394000,7.69339404296875,-0.0009162971982732415,-0.004276053514331579,0.023976443335413933
1772725499491911000,7.702910888671875,-0.0021380267571657896,-0.007941242307424545,0.009315688163042068
1772725499501427700,7.712427734375,-0.000305432389723137,-0.009162971749901772,-0.005345067009329796
1772725499510944500,7.721944580078125,0.000305432389723137,-0.004276053514331579,-0.013897174037992954
1772725499520461300,7.73146142578125,-0.0009162971982732415,-0.001832594396546483,-0.018173227086663246
1772725499529978000,7.74097802734375,-0.003359756199643016,-0.004276053514331579,-0.01511890348047018
1772725499539495000,7.750494873046875,-0.0021380267571657896,-0.007941242307424545,-0.004734201822429895
1772725499549011700,7.76001171875,0.0015271619195118546,-0.015271619893610477,0.006872228812426329
1772725499558528500,7.769528564453125,0.005192350596189499,-0.020158538594841957,0.016646064817905426
1772725499568045300,7.77904541015625,0.006414080038666725,-0.017104214057326317,0.020922118797898293
1772725499577562000,7.78856201171875,0.005803215317428112,-0.010995565913617611,0.020311253145337105
1772725499587079000,7.798078857421875,0.005192350596189499,-0.002443459117785096,0.01908952370285988
1772725499596595700,7.807595703125,0.004581485874950886,0.004886918235570192,0.014202605932950974
1772725499606112500,7.817112548828125,0.006414080038666725,0.0054977829568088055,0.005039634648710489
1772725499615629300,7.82662939453125,0.006414080038666725,-0.001221729558892548,-0.007177661173045635
1772725499625146000,7.83614599609375,0.005803215317428112,-0.010384701192378998,-0.02306014485657215
1772725499634663000,7.845662841796875,0.005803215317428112,-0.01954767294228077,-0.0334448479115963
1772725499644179700,7.8551796875,0.007024944759905338,-0.02260199747979641,-0.03527744114398956
1772725499653696500,7.864696533203125,0.008246674202382565,-0.021380268037319183,-0.024892739951610565
1772725499663213300,7.87421337890625,0.00946840364485979,-0.012217295356094837,-0.008399390615522861
1772725499672730000,7.883730224609375,0.008246674202382565,-0.0054977829568088055,0.005039634648710489
1772725499682247000,7.893246826171875,0.008246674202382565,-0.002443459117785096,0.014813470654189587
1772725499691763700,7.902763671875,0.010690134018659592,0.0030543238390237093,0.017867794260382652
1772725499701280500,7.912280517578125,0.008857538923621178,0.010995565913617611,0.014813470654189587
1772725499710797300,7.92179736328125,0.003970621153712273,0.013439024798572063,0.006872228812426329
1772725499720314000,7.931314208984375,0.0009162971982732415,0.006719512399286032,-0.001679878099821508
1772725499729831000,7.940830810546875,-0.000305432389723137,-0.0054977829568088055,-0.006566796451807022
1772725499739347700,7.95034765625,0.0021380267571657896,-0.01649334840476513,-0.008399390615522861
1772725499748864500,7.959864501953125,0.004581485874950886,-0.014660755172371864,-0.006566796451807022
1772725499758381300,7.96938134765625,0.007635809946805239,-0.009773836471140385,-0.004123337101191282
1772725499767898000,7.978898193359375,0.006414080038666725,-0.006108647678047419,0.0025961752980947495
1772725499777415000,7.988414794921875,0.00946840364485979,-0.007330377586185932,0.011759147047996521
1772725499786931700,7.997931640625,0.011300998739898205,-0.009773836471140385,0.020311253145337105
1772725499796448500,8.007448486328125,0.011911863461136818,-0.011606430634856224,0.02764163166284561
1772725499805965300,8.01696533203125,0.008857538923621178,-0.011606430634856224,0.03130681812763214
1772725499815482000,8.026482177734374,0.007635809946805239,-0.014660755172371864,0.029474224895238876
1772725499824999000,8.0359990234375,0.006414080038666725,-0.012217295356094837,0.02519817277789116
1772725499834515700,8.045515625,0.005192350596189499,-0.002443459117785096,0.01847865991294384
1772725499844032500,8.055032470703125,0.005192350596189499,0.004886918235570192,0.012370011769235134
1772725499853549300,8.06454931640625,0.004581485874950886,0.008552107028663158,0.005039634648710489
1772725499863066000,8.074066162109375,0.004581485874950886,0.007941242307424545,-0.005955931730568409
1772725499872583000,8.0835830078125,0.0021380267571657896,0.0030543238390237093,-0.013286309316754341
1772725499882099700,8.093099609375,0.0015271619195118546,-0.000610864779446274,-0.016340631991624832
1772725499891616500,8.102616455078126,0.0009162971982732415,-0.000610864779446274,-0.014508038759231567
1772725499901133300,8.11213330078125,0.0015271619195118546,-0.001221729558892548,-0.009010255336761475
1772725499910650000,8.121650146484376,0.004581485874950886,-0.001832594396546483,-0.004123337101191282
1772725499920167000,8.1311669921875,0.008246674202382565,-0.0030543238390237093,-0.002290742937475443
1772725499929683700,8.14068359375,0.008246674202382565,-0.009773836471140385,-0.003512472379952669
1772725499939200500,8.150200439453124,0.007635809946805239,-0.014660755172371864,-0.004734201822429895
1772725499948717300,8.15971728515625,0.008246674202382565,-0.011606430634856224,-0.003512472379952669
1772725499958234000,8.169234130859374,0.007635809946805239,-0.009162971749901772,-0.006566796451807022
1772725499967751000,8.1787509765625,0.007024944759905338,-0.009162971749901772,-0.010842849500477314
1772725499977267700,8.188267822265624,0.003359756199643016,-0.007941242307424545,-0.015729768201708794
1772725499986784500,8.197784423828125,0.0027488914784044027,-0.004276053514331579,-0.018784092739224434
1772725499996301300,8.20730126953125,0.0027488914784044027,0.002443459117785096,-0.018173227086663246
1772725500005818000,8.216818115234375,0.0027488914784044027,0.007330377586185932,-0.018784092739224434
1772725500015335000,8.2263349609375,0.0009162971982732415,0.006108647678047419,-0.018784092739224434
1772725500024851700,8.235851806640625,0.0009162971982732415,0,-0.01511890348047018
1772725500034368500,8.245368408203126,-0.000305432389723137,-0.003665188793092966,-0.008399390615522861
1772725500043885300,8.25488525390625,0.000305432389723137,-0.003665188793092966,0.0019853105768561363
1772725500053402000,8.264402099609375,-0.000305432389723137,-0.003665188793092966,0.010537417605519295
1772725500062919000,8.2739189453125,0.0009162971982732415,-0.004886918235570192,0.009926552884280682
1772725500072435700,8.283435791015625,0.0021380267571657896,0.002443459117785096,0.005650499369949102
1772725500081952500,8.292952392578124,0.005803215317428112,0.010384701192378998,0.0001527161948615685
1772725500091469300,8.30246923828125,0.005803215317428112,0.009162971749901772,-0.005955931730568409
1772725500100986000,8.311986083984374,0.005803215317428112,0.001221729558892548,-0.010842849500477314
1772725500110503000,8.3215029296875,0.007024944759905338,-0.008552107028663158,-0.01511890348047018
1772725500120019700,8.331019775390626,0.006414080038666725,-0.01649334840476513,-0.01511890348047018
1772725500129536500,8.34053662109375,0.004581485874950886,-0.018325943499803543,-0.010842849500477314
1772725500139053300,8.35005322265625,0.0015271619195118546,-0.014049889519810677,-0.005345067009329796
1772725500148570000,8.359570068359375,-0.0021380267571657896,-0.0054977829568088055,0.0038179049734026194
1772725500158087000,8.3690869140625,-0.003970621153712273,0.003665188793092966,0.012370011769235134
1772725500167603700,8.378603759765625,-0.003359756199643016,0.007330377586185932,0.0154243353754282
1772725500177120500,8.38812060546875,-0.003970621153712273,0.008552107028663158,0.01359174121171236
1772725500186637300,8.39763720703125,-0.003970621153712273,0.004276053514331579,0.010537417605519295
1772725500196154000,8.407154052734375,-0.004581485874950886,-0.001832594396546483,0.0038179049734026194
1772725500205671000,8.4166708984375,-0.003359756199643016,0,-0.003512472379952669
1772725500215187700,8.426187744140625,-0.004581485874950886,0.007941242307424545,-0.0102319847792387
1772725500224704500,8.43570458984375,-0.006414080038666725,0.013439024798572063,-0.01511890348047018
1772725500234221300,8.44522119140625,-0.007635809946805239,0.009162971749901772,-0.0206166859716177
1772725500243738000,8.454738037109376,-0.006414080038666725,0,-0.024892739951610565
1772725500253255000,8.4642548828125,-0.0021380267571657896,-0.0054977829568088055,-0.024892739951610565
1772725500262771700,8.473771728515626,0.0021380267571657896,-0.007941242307424545,-0.021838415414094925
1772725500272288500,8.48328857421875,0.0027488914784044027,-0.013439024798572063,-0.013286309316754341
1772725500281805300,8.492805419921876,0.0009162971982732415,-0.014049889519810677,-0.0010690133785828948
1772725500291322000,8.502322021484375,-0.0027488914784044027,-0.006719512399286032,0.011148282326757908
1772725500300839000,8.5118388671875,-0.004581485874950886,0.006108647678047419,0.017256930470466614
1772725500310355700,8.521355712890625,-0.003359756199643016,0.01893680728971958,0.017867794260382652
1772725500319872500,8.53087255859375,-0.0021380267571657896,0.02871064469218254,0.011759147047996521
1772725500329389300,8.540389404296874,-0.0009162971982732415,0.030543239787220955,-0.002901607658714056
1772725500338906000,8.549906005859375,-0.0027488914784044027,0.020158538594841957,-0.02000582218170166
1772725500348423000,8.5594228515625,-0.003970621153712273,0.0030543238390237093,-0.03649916872382164
1772725500357939700,8.568939697265625,-0.004581485874950886,-0.01588248461484909,-0.04932733252644539
1772725500367456500,8.57845654296875,-0.003359756199643016,-0.027488915249705315,-0.05299251899123192
1772725500376973300,8.587973388671875,-0.004581485874950886,-0.030543239787220955,-0.044440411031246185
1772725500386490000,8.597489990234376,-0.007024944759905338,-0.0256563201546669,-0.028557928279042244
1772725500396007000,8.6070068359375,-0.008246674202382565,-0.01282816007733345,-0.013286309316754341
1772725500405523700,8.616523681640626,-0.007635809946805239,0.004886918235570192,0.0025961752980947495
1772725500415040500,8.62604052734375,-0.008857538923621178,0.014660755172371864,0.014202605932950974
1772725500424557300,8.635557373046876,-0.008857538923621178,0.01282816007733345,0.023365577682852745
1772725500434074000,8.64507421875,-0.006414080038666725,0.01282816007733345,0.030695954337716103
1772725500443591000,8.6545908203125,-0.005192350596189499,0.004276053514331579,0.03252854943275452
1772725500453107700,8.664107666015624,-0.0027488914784044027,-0.006719512399286032,0.02519817277789116
1772725500462624500,8.67362451171875,-0.000305432389723137,-0.009773836471140385,0.016646064817905426
1772725500472141300,8.683141357421874,-0.000305432389723137,-0.004276053514331579,0.009315688163042068
1772725500481658000,8.692658203125,-0.0027488914784044027,0.004886918235570192,0.0007635809597559273
1772725500491175000,8.7021748046875,-0.006414080038666725,0.009162971749901772,-0.008399390615522861
1772725500500691700,8.711691650390625,-0.005803215317428112,0.007330377586185932,-0.018784092739224434
1772725500510208500,8.72120849609375,-0.0027488914784044027,-0.001832594396546483,-0.027336198836565018
1772725500519725300,8.730725341796875,0.000305432389723137,-0.0054977829568088055,-0.031001387163996696
1772725500529242000,8.7402421875,0.0021380267571657896,-0.0030543238390237093,-0.02916879393160343
1772725500538759000,8.749759033203125,0.0015271619195118546,-0.004886918235570192,-0.024281874299049377
1772725500548275700,8.759275634765626,0.0009162971982732415,-0.0030543238390237093,-0.013286309316754341
1772725500557792500,8.76879248046875,0.0021380267571657896,-0.002443459117785096,0.0013744457392022014
1772725500567309300,8.778309326171875,0.0027488914784044027,-0.004886918235570192,0.008704823441803455
1772725500576826000,8.787826171875,0.003970621153712273,-0.004276053514331579,0.01359174121171236
1772725500586343000,8.797343017578125,0.0015271619195118546,0.002443459117785096,0.0154243353754282
1772725500595859700,8.806859619140624,-0.003970621153712273,0.009162971749901772,0.012980876490473747
1772725500605376500,8.81637646484375,-0.007635809946805239,0.010995565913617611,0.0062613640911877155
1772725500614893300,8.825893310546874,-0.008246674202382565,0.006719512399286032,0.0007635809597559273
1772725500624410000,8.83541015625,-0.005803215317428112,0.006108647678047419,0.0007635809597559273
1772725500633927000,8.844927001953126,-0.003970621153712273,0.006719512399286032,-0.002901607658714056
1772725500643443700,8.854443603515625,-0.003970621153712273,0.004886918235570192,-0.009010255336761475
1772725500652960500,8.86396044921875,-0.0027488914784044027,0.001221729558892548,-0.013286309316754341
1772725500662477300,8.873477294921875,-0.0015271619195118546,-0.001221729558892548,-0.011453714221715927
1772725500671994000,8.882994140625,0.0021380267571657896,-0.0054977829568088055,-0.004734201822429895
1772725500681511000,8.892510986328125,0.004581485874950886,-0.010384701192378998,0.0025961752980947495
1772725500691027700,8.90202783203125,0.006414080038666725,-0.015271619893610477,0.005039634648710489
1772725500700544500,8.91154443359375,0.005803215317428112,-0.01649334840476513,0.0001527161948615685
1772725500710061300,8.921061279296875,0.004581485874950886,-0.013439024798572063,-0.006566796451807022
1772725500719578000,8.930578125,0.0009162971982732415,-0.010995565913617611,-0.009621120058000088
1772725500729095000,8.940094970703125,-0.0009162971982732415,-0.006108647678047419,-0.004123337101191282
1772725500738611700,8.94961181640625,-0.0009162971982732415,0.001832594396546483,0.004428769461810589
1772725500748128500,8.95912841796875,0.0009162971982732415,0.004276053514331579,0.004428769461810589
1772725500757645300,8.968645263671876,0.003359756199643016,0.0030543238390237093,0.0025961752980947495
1772725500767162000,8.978162109375,0.0015271619195118546,0.001221729558892548,0.005039634648710489
1772725500776679000,8.987678955078126,0.0009162971982732415,0.000610864779446274,0.006872228812426329
1772725500786195700,8.99719580078125,0.000305432389723137,0.004886918235570192,0.004428769461810589
1772725500795712500,9.00671240234375,-0.000305432389723137,0.007941242307424545,-0.002290742937475443
1772725500805229300,9.016229248046875,-0.0027488914784044027,0.008552107028663158,-0.006566796451807022
1772725500814746000,9.02574609375,-0.004581485874950886,0.008552107028663158,-0.007177661173045635
1772725500824263000,9.035262939453125,-0.0015271619195118546,0.007330377586185932,-0.006566796451807022
1772725500833779700,9.04477978515625,0.003970621153712273,-0.001221729558892548,-0.007177661173045635
1772725500843296500,9.054296630859374,0.011300998739898205,-0.010995565913617611,-0.009621120058000088
1772725500852813300,9.063813232421875,0.013744457624852657,-0.023823726922273636,-0.012675444595515728
1772725500862330000,9.073330078125,0.013133592903614044,-0.02932151034474373,-0.013897174037992954
1772725500871847000,9.082846923828125,0.007024944759905338,-0.02871064469218254,-0.007177661173045635
1772725500881363700,9.09236376953125,-0.013133592903614044,0.002443459117785096,0.0032070400193333626
1772725500890880500,9.101880615234375,-0.02718348242342472,0.020158538594841957,0.0025961752980947495
1772725500900397300,9.111397216796876,-0.02779434807598591,0.010995565913617611,-0.008399390615522861
1772725500909914000,9.1209140625,-0.015577051788568497,0.003665188793092966,-0.009621120058000088
1772725500919431000,9.130430908203126,-0.008246674202382565,0.010995565913617611,-0.013897174037992954
1772725500928947700,9.13994775390625,-0.005803215317428112,-0.001221729558892548,-0.02367101050913334
1772725500938464500,9.149464599609376,-0.005803215317428112,-0.003665188793092966,-0.03527744114398956
1772725500947981300,9.158981201171875,-0.003359756199643016,0.004886918235570192,-0.044440411031246185
1772725500957498000,9.168498046875,0.0027488914784044027,0.004276053514331579,-0.0487164668738842
1772725500967014700,9.1780146484375,0.00946840364485979,-0.003665188793092966,-0.034666575491428375
1772725500976531700,9.18753173828125,0.01802051067352295,-0.014660755172371864,-0.001679878099821508
1772725500986048500,9.197048583984374,0.02779434807598591,-0.03543015569448471,0.026419902220368385
1772725500995565300,9.2065654296875,0.032070402055978775,-0.05253437161445618,0.04169152304530144
1772725501005082000,9.21608203125,0.022296564653515816,-0.06291907280683517,0.042913250625133514
1772725501014599000,9.225598876953125,0.010079269297420979,-0.05742128938436508,0.03802633285522461
1772725501024115700,9.23511572265625,0.0015271619195118546,-0.04459312930703163,0.03130681812763214
1772725501033632500,9.244632568359375,-0.005192350596189499,-0.029932374134659767,0.02153298258781433
1772725501043149300,9.2541494140625,-0.008857538923621178,-0.000610864779446274,0.009926552884280682
1772725501052666000,9.263666015625,-0.007635809946805239,-0.007330377586185932,-0.007177661173045635
1772725501062183000,9.273182861328126,-0.005192350596189499,-0.014049889519810677,-0.013286309316754341
1772725501071699500,9.282699462890625,-0.005192350596189499,-0.014049889519810677,-0.013286309316754341
1772725501081216500,9.292216552734375,-0.007024944759905338,-0.015271619893610477,-0.011453714221715927
1772725501090733300,9.3017333984375,-0.013133592903614044,-0.002443459117785096,-0.006566796451807022
1772725501100250000,9.31125,-0.019242240116000175,0.03237583488225937,-0.007177661173045635
1772725501109766700,9.3207666015625,-0.022907428443431854,0.056810423731803894,-0.02000582218170166
1772725501119283700,9.33028369140625,-0.018631376326084137,0.050090912729501724,-0.03588830679655075
1772725501128800500,9.339800537109374,-0.010079269297420979,0.037262752652168274,-0.04260781779885292
1772725501138317000,9.349317138671875,-0.003970621153712273,0.034208428114652634,-0.04199695214629173
1772725501147833900,9.358833740234376,-0.000305432389723137,0.021380268037319183,-0.040775224566459656
1772725501157351000,9.368350830078125,0.000305432389723137,0.0030543238390237093,-0.03649916872382164
1772725501166867700,9.37786767578125,-0.005192350596189499,-0.006719512399286032,-0.024281874299049377
1772725501176384300,9.38738427734375,-0.013744457624852657,-0.01954767294228077,-0.009010255336761475
1772725501185901000,9.396901123046876,-0.016187917441129684,-0.01954767294228077,0.0062613640911877155
1772725501195418000,9.406418212890625,-0.011300998739898205,-0.009773836471140385,0.020311253145337105
1772725501204934700,9.4159345703125,-0.005803215317428112,-0.001221729558892548,0.02764163166284561
1772725501214451500,9.425451416015624,-0.003970621153712273,0.004276053514331579,0.023976443335413933
1772725501223968300,9.43496826171875,-0.000305432389723137,0.004886918235570192,0.016035201027989388
1772725501233485300,9.4444853515625,0.0015271619195118546,0.006108647678047419,0.009926552884280682
1772725501243001900,9.454001953125,-0.0009162971982732415,-0.001221729558892548,0.0013744457392022014
1772725501252518700,9.4635185546875,-0.003359756199643016,-0.001221729558892548,-0.002901607658714056
1772725501262035500,9.473035400390625,-0.0027488914784044027,-0.000610864779446274,0.0019853105768561363
1772725501271552500,9.482552490234376,-0.004581485874950886,-0.014049889519810677,0.01359174121171236
1772725501281069000,9.492069091796875,-0.00946840364485979,-0.017715077847242355,0.020311253145337105
1772725501290585900,9.5015859375,-0.012522728182375431,-0.021991131827235222,0.02214384824037552
1772725501300102700,9.5111025390625,-0.010690134018659592,-0.03176496922969818,0.022754713892936707
1772725501309619500,9.520619384765626,-0.005803215317428112,-0.031154103577136993,0.026419902220368385
1772725501319136300,9.53013623046875,-0.0027488914784044027,-0.02626718580722809,0.027030766010284424
1772725501328653000,9.539653076171875,-0.0015271619195118546,-0.01649334840476513,0.02214384824037552
1772725501338169900,9.549169921875,0.004581485874950886,-0.01282816007733345,0.01359174121171236
1772725501347686700,9.558686767578125,0.010079269297420979,-0.018325943499803543,0.005650499369949102
1772725501357203500,9.568203369140624,0.007024944759905338,-0.017104214057326317,0.0038179049734026194
1772725501366720300,9.57772021484375,-0.003359756199643016,-0.004886918235570192,-0.0010690133785828948
1772725501376237000,9.587237060546874,-0.014966187067329884,0.01282816007733345,-0.010842849500477314
1772725501385753900,9.59675390625,-0.016798781231045723,0.020158538594841957,-0.0206166859716177
1772725501395270700,9.606270751953126,-0.010079269297420979,0.017715077847242355,-0.02367101050913334
1772725501404787500,9.615787353515625,-0.0009162971982732415,0.01282816007733345,-0.02306014485657215
1772725501414304300,9.62530419921875,0.005192350596189499,0.006108647678047419,-0.019394956529140472
1772725501423821000,9.634821044921875,0.007635809946805239,-0.0030543238390237093,-0.009621120058000088
1772725501433337900,9.644337890625,0.012522728182375431,-0.010995565913617611,0.005650499369949102
1772725501442854700,9.653854736328125,0.013744457624852657,-0.012217295356094837,0.01847865991294384
1772725501452371500,9.663371337890625,0.007635809946805239,-0.009162971749901772,0.02214384824037552
1772725501461888300,9.67288818359375,0.0021380267571657896,0.0054977829568088055,0.017256930470466614
1772725501471405000,9.682405029296875,-0.0009162971982732415,0.0256563201546669,0.008093958720564842
1772725501480921900,9.691921875,-0.003970621153712273,0.03909534588456154,-0.003512472379952669
1772725501490438700,9.701438720703125,-0.003359756199643016,0.036651886999607086,-0.0102319847792387
1772725501499955500,9.71095556640625,-0.005192350596189499,0.03543015569448471,-0.016340631991624832
1772725501509472300,9.72047216796875,-0.007635809946805239,0.04520399495959282,-0.027336198836565018
1772725501518989000,9.729989013671876,-0.012522728182375431,0.0769689604640007,-0.04260781779885292
1772725501528505900,9.739505859375,-0.010079269297420979,0.10201441496610641,-0.057268574833869934
1772725501538022700,9.749022705078126,-0.01435532234609127,0.11728604137897491,-0.05482511222362518
1772725501547539500,9.75853955078125,-0.04734202101826668,0.12522727251052856,-0.016340631991624832
1772725501557056300,9.76805615234375,-0.0668896958231926,0.036651886999607086,-0.07254019379615784
1772725501566573000,9.777572998046875,-0.03695731982588768,-0.02626718580722809,-0.16050471365451813
1772725501576089900,9.78708984375,-0.0021380267571657896,-0.05742128938436508,-0.15867212414741516
1772725501585606700,9.796606689453125,-0.0021380267571657896,-0.025045456364750862,-0.0902552679181099
1772725501595123500,9.80612353515625,-0.00946840364485979,0.05925388261675835,-0.002290742937475443
